state_time,accelx,accely,accelz,gyrox,gyroy,gyroz,mot_ang,mot_vel,mot_acc,mot_cur,mot_volt,batt_volt,batt_curr,temperature,status_mn,status_ex,status_re,ank_ang,ank_vel,ank_torque,peak_ank_torque,step_energy,step_count,step_time,gait_state,movement,speed,incline,sys_time,eventFlags
554759,-103,-2078,206,-93,47,150,15211,8,-1,150,48,35319,-71,35,127,0,0,3988,-43,0,1498,456,236,9247,-4,0,25,0,554736,0
554769,-107,-2080,214,-94,42,153,15210,7,7,145,16,35317,-88,35,127,0,0,3990,-21,0,1498,456,236,9257,-4,0,25,0,554736,0
554779,-57,-2097,213,-95,42,146,15210,-12,0,123,40,35312,-92,35,127,0,0,3988,-21,0,1498,456,236,9267,-4,0,25,0,554752,0
554789,-71,-2084,217,-94,39,158,15211,4,4,101,72,35310,-98,35,127,0,0,3994,43,0,1498,456,236,9277,-4,0,25,0,554752,0
554799,-76,-2074,212,-95,34,161,15212,0,5,217,48,35317,-93,35,127,0,0,3994,21,0,1498,456,236,9287,-4,0,25,0,554783,0
554809,-83,-2073,211,-92,31,156,15212,3,4,235,80,35324,-94,35,127,0,0,3994,0,0,1498,456,236,9297,-4,0,25,0,554783,0
554819,-88,-2079,214,-90,42,154,15212,3,-3,232,80,35319,-89,35,127,0,0,3994,10,0,1498,456,236,9307,-4,0,25,0,554783,0
554829,-83,-2076,210,-93,39,157,15215,11,4,268,64,35315,-94,35,127,0,0,3994,-21,0,1498,456,236,9317,-4,0,25,0,554798,0
554839,-80,-2078,209,-92,42,152,15214,10,7,265,96,35313,-89,35,127,0,0,3996,21,0,1498,456,236,9327,-4,0,25,0,554798,0
554849,-76,-2078,215,-94,37,153,15216,1,0,316,88,35322,-97,35,127,0,0,3999,32,0,1498,456,236,9337,-4,0,25,0,554830,0
554859,-79,-2072,215,-94,35,148,15217,6,6,364,104,35326,-100,35,127,0,0,3999,0,0,1498,456,236,9347,-4,0,25,0,554830,0
554869,-92,-2082,212,-94,39,151,15218,4,-3,386,104,35321,-96,35,127,0,0,3999,-21,0,1498,456,236,9357,-4,0,25,0,554830,0
554879,-91,-2081,209,-89,41,148,15218,3,-4,371,136,35315,-86,35,127,0,0,3999,0,0,1498,456,236,9367,-4,0,25,0,554861,0
554889,-85,-2085,211,-98,39,145,15217,-7,0,364,136,35322,-87,35,127,0,0,4001,21,0,1498,456,236,9377,-4,0,25,0,554861,0
554899,-90,-2079,214,-90,35,144,15218,-4,4,375,136,35318,-93,35,127,0,0,4001,21,0,1498,456,236,9387,-4,0,25,0,554877,0
554909,-88,-2078,206,-95,34,146,15219,-2,2,400,120,35319,-95,35,127,0,0,4001,0,0,1498,456,236,9397,-4,0,25,0,554877,0
554919,-86,-2085,203,-94,36,134,15219,5,2,423,120,35314,-98,35,127,0,0,4001,-21,0,1498,456,236,9407,-4,0,25,0,554877,0
554929,-76,-2083,201,-89,41,133,15219,0,-1,452,104,35324,-102,35,127,0,0,4001,-21,0,1498,456,236,9417,-4,0,25,0,554908,0
554939,-82,-2084,210,-89,35,130,15222,-1,0,405,120,35326,-105,35,127,0,0,4001,0,0,1498,456,236,9427,-4,0,25,0,554908,0
554949,-88,-2083,221,-93,37,139,15221,1,-1,413,120,35320,-98,35,127,0,0,4001,-21,0,1498,456,236,9437,-4,0,25,0,554923,0
554960,-95,-2076,206,-96,32,132,15223,13,5,429,112,35315,-92,35,127,0,0,4004,-10,0,1498,456,236,9448,-4,0,25,0,554923,0
554970,-100,-2078,209,-88,39,133,15223,2,-1,463,136,35321,-87,35,127,0,0,4000,-21,0,1498,456,236,9458,-4,0,25,0,554939,0
554980,-70,-2080,204,-91,37,121,15224,-7,4,441,136,35328,-86,35,127,0,0,4000,-21,0,1498,456,236,9468,-4,0,25,0,554955,0
554990,-91,-2085,207,-92,38,121,15222,-9,-1,383,120,35334,-85,35,127,0,0,4001,0,0,1498,456,236,9478,-4,0,25,0,554955,0
555000,-86,-2082,212,-97,41,124,15226,12,3,426,128,35320,-91,35,127,0,0,4003,5,0,1498,456,236,9488,-4,0,25,0,555002,0
555010,-89,-2076,208,-94,34,120,15227,0,2,469,128,35321,-98,35,127,0,0,4000,-54,0,1498,456,236,9498,-4,0,25,0,555002,0
555020,-75,-2084,214,-98,37,118,15223,-7,-8,388,112,35323,-93,35,127,0,0,4001,0,0,1498,456,236,9508,-4,0,25,0,555002,0
555030,-101,-2078,205,-97,34,128,15226,4,8,422,112,35321,-100,35,127,0,0,4001,-60,0,1498,456,236,9518,-4,0,25,0,555002,0
555040,-91,-2073,205,-90,37,119,15226,11,11,426,176,35314,-93,35,127,0,0,4004,38,0,1498,456,236,9528,-4,0,25,0,555002,0
555050,-53,-2079,215,-93,38,112,15228,-1,5,463,152,35316,-101,35,127,0,0,4005,27,0,1498,456,236,9538,-4,0,25,0,555017,0
555060,-73,-2074,212,-93,37,116,15228,-3,1,469,104,35328,-89,35,127,0,0,4004,-16,0,1498,456,236,9548,-4,0,25,0,555033,0
555070,-107,-2077,199,-93,33,115,15228,3,-3,455,168,35334,-90,35,127,0,0,4004,21,0,1498,456,236,9558,-4,0,25,0,555033,0
555080,-85,-2076,202,-86,35,116,15234,17,16,462,112,35331,-95,35,127,0,0,4003,-32,0,1498,456,236,9568,-4,0,25,0,555048,0
555090,-93,-2084,213,-82,36,118,15234,-3,-4,454,136,35325,-118,35,127,0,0,3999,-43,0,1498,456,236,9578,-4,0,25,0,555048,0
555100,-67,-2073,218,-88,38,113,15235,0,-8,408,88,35325,-120,35,127,0,0,4007,38,0,1498,456,236,9588,-4,0,25,0,555080,0
555110,-106,-2085,204,-88,40,132,15237,12,10,434,88,35333,-115,35,127,0,0,4001,-49,0,1498,456,236,9598,-4,0,25,0,555080,0
555120,-105,-2082,207,-85,31,121,15235,6,-6,375,112,35324,-91,35,127,0,0,4003,32,0,1498,456,236,9608,-4,0,25,0,555080,0
555130,-77,-2083,207,-89,43,116,15238,1,6,435,88,35321,-87,35,127,0,0,4001,-60,0,1498,456,236,9618,-4,0,25,0,555111,0
555140,-73,-2087,205,-91,44,113,15239,7,8,411,128,35321,-99,35,127,0,0,3999,-60,0,1498,456,236,9628,-4,0,25,0,555111,0
555150,-76,-2077,210,-92,32,124,15241,6,-8,355,104,35325,-99,35,127,0,0,4003,5,0,1498,456,236,9638,-4,0,25,0,555127,0
555160,-99,-2080,207,-89,37,123,15241,0,2,390,72,35330,-87,35,127,0,0,4004,-21,0,1498,456,236,9648,-4,0,25,0,555127,0
555170,-82,-2076,205,-91,36,111,15244,3,-2,361,72,35321,-81,35,127,0,0,4007,43,0,1498,456,236,9658,-4,0,25,0,555127,0
555180,-117,-2084,200,-86,48,114,15246,9,0,404,112,35326,-91,35,127,0,0,4002,-10,0,1498,456,236,9668,-4,0,25,0,555158,0
555190,-70,-2086,202,-82,35,117,15260,36,24,282,88,35334,-85,35,127,0,0,3999,-65,0,1498,456,236,9678,-4,0,25,0,555158,0
555201,-76,-2078,214,-86,34,126,15273,15,17,120,80,35333,-99,35,127,0,0,4003,10,0,1498,456,236,9689,-4,0,25,0,555173,0
555211,-72,-2079,214,-85,38,124,15273,-7,-27,120,48,35344,-85,35,127,0,0,4003,21,0,1498,456,236,9699,-4,0,25,0,555189,0
555221,-71,-2092,198,-86,40,114,15277,15,-16,190,-8,35345,-88,35,127,0,0,4003,-43,0,1498,456,236,9709,-4,0,25,0,555189,0
555231,-136,-2087,203,-81,38,126,15272,-7,-4,126,0,35354,-95,35,127,0,0,4001,-10,0,1498,456,236,9719,-4,0,25,0,555205,0
555241,-115,-2080,218,-84,40,129,15275,12,-4,88,8,35346,-93,35,127,0,0,4003,-21,0,1498,456,236,9729,-4,0,25,0,555205,0
555251,-134,-2071,216,-86,32,130,15275,0,12,118,72,35331,-95,35,127,0,0,4001,0,0,1498,456,236,9739,-4,0,25,0,555220,0
555261,-130,-2097,210,-86,42,114,15277,2,2,153,-16,35337,-91,35,127,0,0,4005,-10,0,1498,456,236,9749,-4,0,25,0,555236,0
555271,-149,-2085,210,-87,30,125,15275,-9,-4,150,32,35344,-108,35,127,0,0,4005,43,0,1498,456,236,9759,-4,0,25,0,555236,0
555281,-68,-2083,215,-90,43,109,15278,-1,3,189,48,35352,-101,35,127,0,0,4005,21,0,1498,456,236,9769,-4,0,25,0,555251,0
555291,-77,-2080,210,-88,39,104,15277,-5,3,181,64,35357,-82,35,127,0,0,4003,-10,0,1498,456,236,9779,-4,0,25,0,555251,0
555301,-61,-2081,216,-90,39,103,15274,-22,-7,120,64,35339,-79,35,127,0,0,4003,32,0,1498,456,236,9789,-4,0,25,0,555283,0
555311,-31,-2090,218,-94,29,102,15277,-13,3,150,16,35339,-95,35,127,0,0,4003,-21,0,1498,456,236,9799,-4,0,25,0,555283,0
555321,-116,-2080,225,-98,30,124,15277,13,3,143,24,35327,-90,35,127,0,0,4003,-10,0,1498,456,236,9809,-4,0,25,0,555283,0
555331,-107,-2089,231,-105,30,116,15276,4,-3,102,40,35325,-87,35,127,0,0,4005,43,0,1498,456,236,9819,-4,0,25,0,555298,0
555341,-16,-2081,237,-111,36,111,15278,-10,3,165,48,35328,-77,35,127,0,0,4005,21,0,1498,456,236,9829,-4,0,25,0,555298,0
555351,-66,-2086,220,-117,43,116,15276,-12,0,86,8,35327,-101,35,127,0,0,4001,-10,0,1498,456,236,9839,-4,0,25,0,555314,0
555361,-42,-2078,202,-127,42,116,15276,-2,-5,54,8,35340,-92,35,127,0,0,4001,10,0,1498,456,236,9849,-4,0,25,0,555361,0
555371,-27,-2073,210,-130,49,125,15276,0,4,79,8,35336,-96,35,127,0,0,4001,-21,0,1498,456,236,9859,-4,0,25,0,555377,0
555381,-74,-2086,215,-138,40,135,15276,2,-7,35,48,35334,-83,35,127,0,0,4003,43,0,1498,456,236,9869,-4,0,25,0,555381,0
555391,-27,-2072,221,-139,46,140,15279,0,8,140,56,35331,-93,35,127,0,0,4003,-10,0,1498,456,236,9879,-4,0,25,0,555381,0
555401,-67,-2090,210,-147,41,133,15275,-18,-6,73,40,35327,-90,35,127,0,0,4003,21,0,1498,456,236,9889,-4,0,25,0,555396,0
555411,-70,-2092,210,-147,40,140,15279,12,-2,132,56,35321,-85,35,127,0,0,4005,10,0,1498,456,236,9899,-4,0,25,0,555396,0
555421,-67,-2074,213,-151,45,149,15278,-7,2,185,56,35318,-92,35,127,0,0,4005,0,0,1498,456,236,9909,-4,0,25,0,555396,0
555431,-78,-2079,204,-153,43,152,15279,2,-7,148,56,35317,-96,35,127,0,0,4001,-32,0,1498,456,236,9919,-4,0,25,0,555396,0
555442,-63,-2075,182,-144,41,160,15279,13,2,148,48,35329,-111,35,127,0,0,4005,5,0,1498,456,236,9930,-4,0,25,0,555412,0
555452,-60,-2074,180,-140,33,183,15282,4,4,227,64,35346,-126,35,127,0,0,4007,21,0,1498,456,236,9940,-4,0,25,0,555428,0
555462,-90,-2086,182,-126,32,173,15283,1,3,279,64,35352,-117,35,127,0,0,4011,27,0,1498,456,236,9950,-4,0,25,0,555428,0
555472,-100,-2084,180,-121,33,167,15289,9,3,321,72,35355,-103,35,127,0,0,4010,-5,0,1498,456,236,9960,-4,0,25,0,555443,0
555482,-95,-2086,168,-107,36,166,15292,7,3,296,88,35341,-96,35,127,0,0,4012,5,0,1498,456,236,9970,-4,0,25,0,555459,0
555492,-106,-2081,170,-95,31,160,15294,7,-5,343,88,35342,-101,35,127,0,0,4015,27,0,1498,456,236,9980,-4,0,25,0,555459,0
555502,-115,-2086,174,-74,35,142,15299,11,5,359,96,35341,-109,35,127,0,0,4014,27,0,1498,456,236,9990,-4,0,25,0,555459,0
555512,-130,-2083,178,-71,33,125,15307,20,10,326,104,35341,-97,35,127,0,0,4013,10,0,1498,456,236,10000,-4,0,25,0,555490,0
555522,-114,-2079,182,-60,40,100,15317,14,15,269,64,35339,-101,35,127,0,0,4017,32,0,1498,456,236,10010,-4,0,25,0,555490,0
555532,-120,-2080,191,-56,30,95,15332,25,8,173,32,35343,-110,35,127,0,0,4014,32,0,1498,456,236,10020,-4,0,25,0,555490,0
555542,-137,-2085,191,-49,25,60,15334,-14,-18,92,24,35340,-113,35,127,0,0,4014,27,0,1498,456,236,10030,-4,0,25,0,555521,0
555552,-124,-2085,192,-43,26,47,15334,-4,-30,113,0,35331,-79,35,127,0,0,4012,-38,0,1498,456,236,10040,-4,0,25,0,555521,0
555562,-114,-2083,193,-43,27,22,15333,-1,-10,54,8,35328,-72,35,127,0,0,4012,-5,0,1498,456,236,10050,-4,0,25,0,555521,0
555572,-94,-2082,207,-42,34,11,15331,-16,-12,-44,-32,35333,-80,35,127,0,0,4011,10,0,1498,456,236,10060,-4,0,25,0,555553,0
555582,-133,-2077,198,-39,44,-22,15328,5,-3,-94,-48,35334,-92,35,127,0,0,4005,-21,0,1498,456,236,10070,-4,0,25,0,555553,0
555592,-82,-2090,206,-37,42,-29,15316,-34,-5,-236,-72,35336,-94,35,127,0,0,3997,-27,0,1498,456,236,10080,-4,0,25,0,555553,0
555602,-79,-2081,217,-34,43,-38,15292,-60,-49,-180,-48,35335,-97,35,127,0,0,3995,-32,0,1498,456,236,10090,-4,0,25,0,555584,0
555612,-109,-2080,217,-38,44,-44,15274,-32,-23,-187,-72,35334,-97,35,127,0,0,3995,21,0,1498,456,236,10100,-4,0,25,0,555584,0
555622,-86,-2073,218,-36,43,-49,15270,4,46,-254,-120,35348,-126,35,127,0,0,3984,-87,0,1498,456,236,10110,-4,0,25,0,555584,0
555632,-54,-2083,222,-42,44,-51,15256,-38,11,-380,-112,35356,-123,35,127,0,0,3982,-10,0,1498,456,236,10120,-4,0,25,0,555599,0
555642,-41,-2074,218,-51,41,-34,15227,-92,-64,-328,-144,35354,-123,35,127,0,0,3980,-5,0,1498,456,236,10130,-4,0,25,0,555615,0
555652,-91,-2079,214,-57,50,-57,15175,-86,-71,-185,-40,35343,-117,35,127,0,0,3970,0,0,1498,456,236,10140,-4,0,25,0,555646,0
555662,4,-2075,221,-65,41,-18,15154,-49,34,-221,-112,35351,-121,35,127,0,0,3975,32,0,1498,456,236,10150,-4,0,25,0,555646,0
555672,-48,-2088,229,-67,41,6,15141,-11,70,-248,-88,35348,-120,35,127,0,0,3962,5,0,1498,456,236,10160,-4,0,25,0,555646,0
555682,-16,-2075,235,-88,36,34,15136,-10,34,-369,-120,35345,-111,35,127,0,0,3964,-5,0,1498,456,236,10170,-4,0,25,0,555662,0
555693,-3,-2083,213,-95,43,66,15128,-24,1,-445,-96,35342,-92,35,127,0,0,3959,0,0,1498,456,236,10181,-4,0,25,0,555662,0
555703,-4,-2081,214,-99,39,97,15121,-17,-6,-443,-136,35346,-94,35,127,0,0,3959,10,0,1498,456,236,10191,-4,0,25,0,555693,0
555713,19,-2078,224,-102,48,135,15108,-41,-11,-383,-112,35357,-86,35,127,0,0,3959,32,0,1498,456,236,10201,-4,0,25,0,555693,0
555723,5,-2079,230,-106,45,157,15079,-71,-50,-182,-16,35356,-71,35,127,0,0,3959,21,0,1498,456,236,10211,-4,0,25,0,555693,0
555733,1,-2081,235,-118,55,191,15073,32,24,-52,-56,35344,-61,35,127,0,0,3957,-32,0,1498,456,236,10221,-4,0,25,0,555724,0
555743,-27,-2077,230,-124,51,205,15070,-10,62,-89,-48,35345,-71,35,127,0,0,3959,0,0,1498,456,236,10231,-4,0,25,0,555724,0
555753,-24,-2075,227,-123,45,259,15072,-3,1,-80,-8,35343,-76,35,127,0,0,3959,10,0,1498,456,236,10241,-4,0,25,0,555740,0
555763,-44,-2061,213,-128,32,289,15073,5,12,-27,8,35339,-71,35,127,0,0,3966,76,0,1498,456,236,10251,-4,0,25,0,555740,0
555773,-38,-2072,195,-135,19,327,15082,36,15,165,32,35338,-56,35,127,0,0,3970,43,0,1498,456,236,10261,-4,0,25,0,555740,0
555783,-39,-2092,192,-137,23,339,15086,8,4,304,96,35343,-67,35,127,0,0,3974,43,0,1498,456,236,10271,-4,0,25,0,555756,0
555793,-50,-2075,186,-125,33,354,15097,19,13,320,128,35347,-74,35,127,0,0,3981,109,0,1498,456,236,10281,-4,0,25,0,555787,0
555803,-98,-2075,184,-123,38,352,15124,87,41,357,192,35364,-70,35,127,0,0,3983,54,0,1498,456,236,10291,-4,0,25,0,555787,0
555813,-24,-2076,193,-111,31,375,15178,102,92,213,136,35363,-55,35,127,0,0,3994,76,0,1498,456,236,10301,-4,0,25,0,555787,0
555823,-90,-2072,204,-116,27,384,15220,85,24,255,96,35360,-79,35,127,0,0,4003,65,0,1498,456,236,10311,-4,0,25,0,555787,0
555833,-97,-2078,206,-106,32,376,15227,-9,-91,415,152,35349,-99,35,127,0,0,4010,109,0,1498,456,236,10321,-4,0,25,0,555803,0
555843,-102,-2086,187,-108,35,381,15243,55,-62,600,240,35348,-124,35,127,0,0,4016,54,0,1498,456,236,10331,-4,0,25,0,555834,0
555853,-111,-2068,197,-95,17,372,15299,146,108,344,176,35348,-111,35,127,0,0,4025,87,0,1498,456,236,10341,-4,0,25,0,555834,0
555863,-165,-2077,212,-97,16,342,15363,144,99,265,136,35352,-115,35,127,0,0,4029,43,0,1498,456,236,10351,-4,0,25,0,555834,0
555873,-197,-2086,201,-90,28,288,15400,73,-44,262,128,35346,-119,35,127,0,0,4038,76,0,1498,456,236,10361,-4,0,25,0,555834,0
555883,-188,-2081,183,-88,37,259,15423,27,-73,312,96,35348,-111,35,127,0,0,4040,32,0,1498,456,236,10371,-4,0,25,0,555849,0
555893,-208,-2080,180,-80,40,192,15423,3,-79,455,168,35345,-91,35,127,0,0,4042,21,0,1498,456,236,10381,-4,0,25,0,555881,0
555903,-168,-2082,196,-71,42,150,15428,0,-30,476,152,35343,-89,35,127,0,0,4045,-10,0,1498,456,236,10391,-4,0,25,0,555881,0
555913,-191,-2086,202,-70,38,109,15431,10,4,497,144,35342,-109,35,127,0,0,4045,0,0,1498,456,236,10401,-4,0,25,0,555881,0
555923,-173,-2080,194,-61,38,84,15432,10,-4,499,112,35347,-127,35,127,0,0,4045,0,0,1498,456,236,10411,-4,0,25,0,555881,0
555933,-120,-2073,186,-57,27,57,15433,0,-4,483,144,35351,-121,35,127,0,0,4042,-10,0,1498,456,236,10421,-4,0,25,0,555912,0
555943,-112,-2078,177,-51,28,37,15431,-5,-10,431,120,35349,-110,35,127,0,0,4042,0,0,1498,456,236,10431,-4,0,25,0,555912,0
555954,-119,-2085,189,-43,31,20,15432,-11,1,398,96,35346,-139,35,127,0,0,4040,-16,0,1498,456,236,10442,-4,0,25,0,555912,0
555964,-127,-2079,193,-37,44,-13,15430,-2,0,349,80,35352,-144,35,127,0,0,4035,-49,0,1498,456,236,10452,-4,0,25,0,555959,0
555974,-84,-2082,201,-33,48,-27,15427,-7,-3,269,40,35354,-125,35,127,0,0,4030,-87,0,1498,456,236,10462,-4,0,25,0,555959,0
555984,-69,-2082,193,-27,42,-24,15423,-5,-12,163,24,35355,-109,35,127,0,0,4031,-43,0,1498,456,236,10472,-4,0,25,0,555959,0
555994,-89,-2082,201,-19,40,-15,15418,-17,3,48,-8,35349,-110,35,127,0,0,4020,-71,0,1498,456,236,10482,-4,0,25,0,555990,0
556004,-84,-2067,210,-17,44,-27,15409,-16,-7,-115,-32,35345,-109,35,127,0,0,4019,-82,0,1498,456,236,10492,-4,0,25,0,555990,0
556014,-82,-2079,215,-13,55,-22,15405,0,-5,-196,-72,35341,-96,35,127,0,0,4018,-32,0,1498,456,236,10502,-4,0,25,0,555990,0
556024,-63,-2083,225,-13,42,-14,15397,-19,5,-301,-96,35341,-81,35,127,0,0,4014,-21,0,1498,456,236,10512,-4,0,25,0,555990,0
556034,-73,-2078,217,-18,49,-5,15382,-30,-20,-280,-88,35339,-82,35,127,0,0,4005,-98,0,1498,456,236,10522,-4,0,25,0,556021,0
556044,-47,-2081,219,-25,42,0,15351,-89,-40,-255,-72,35339,-96,35,127,0,0,4004,-65,0,1498,456,236,10532,-4,0,25,0,556021,0
556054,-94,-2076,226,-35,50,-2,15332,-8,-17,-218,-56,35344,-101,35,127,0,0,3999,-65,0,1498,456,236,10542,-4,0,25,0,556021,0
556064,-34,-2075,242,-39,43,14,15330,-25,65,-367,-120,35350,-87,35,127,0,0,3995,-71,0,1498,456,236,10552,-4,0,25,0,556021,0
556074,-76,-2083,237,-55,42,17,15324,-16,11,-379,-128,35346,-89,35,127,0,0,3993,-76,0,1498,456,236,10562,-4,0,25,0,556052,0
556084,-69,-2079,231,-63,42,28,15308,-55,-23,-415,-120,35348,-119,35,127,0,0,3991,-32,0,1498,456,236,10572,-4,0,25,0,556099,0
556094,-48,-2088,231,-74,49,31,15275,-75,-50,-247,-104,35348,-133,35,127,0,0,3990,-38,0,1498,456,236,10582,-4,0,25,0,556099,0
556104,-44,-2071,229,-73,51,53,15265,0,7,-273,-128,35348,-136,35,127,0,0,3992,-16,0,1498,456,236,10592,-4,0,25,0,556115,0
556114,-4,-2082,234,-91,31,101,15261,-13,64,-367,-120,35339,-141,35,127,0,0,3985,38,0,1498,456,236,10602,-4,0,25,0,556115,0
556124,-28,-2075,237,-99,36,123,15253,-20,1,-338,-120,35340,-152,35,127,0,0,3986,0,0,1498,456,236,10612,-4,0,25,0,556115,0
556134,-43,-2083,214,-98,39,145,15236,-50,-21,-248,-72,35335,-141,35,127,0,0,3982,-32,0,1498,456,236,10622,-4,0,25,0,556115,0
556144,-41,-2075,209,-104,53,147,15206,-47,-49,-53,-8,35340,-127,35,127,0,0,3982,-43,0,1498,456,236,10632,-4,0,25,0,556115,0
556154,-25,-2081,233,-104,41,170,15212,15,53,-85,-16,35355,-118,35,127,0,0,3985,-10,0,1498,456,236,10642,-4,0,25,0,556115,0
556164,-59,-2073,242,-116,39,182,15211,9,53,-41,-16,35372,-133,35,127,0,0,3985,0,0,1498,456,236,10652,-4,0,25,0,556146,0
556174,-88,-2082,225,-127,43,204,15213,8,-6,18,-24,35376,-136,35,127,0,0,3989,-43,0,1498,456,236,10662,-4,0,25,0,556162,0
556184,-57,-2087,204,-130,42,198,15214,16,4,74,24,35364,-133,35,127,0,0,3993,32,0,1498,456,236,10672,-4,0,25,0,556162,0
556195,-33,-2079,210,-130,25,238,15217,2,5,150,40,35356,-114,35,127,0,0,3994,21,0,1498,456,236,10683,-4,0,25,0,556162,0
556205,-72,-2082,211,-132,27,250,15219,3,-2,216,88,35351,-119,35,127,0,0,3999,43,0,1498,456,236,10693,-4,0,25,0,556162,0
556215,-73,-2080,204,-134,28,258,15225,14,13,297,104,35356,-125,35,127,0,0,3999,21,0,1498,456,236,10703,-4,0,25,0,556193,0
556225,-79,-2077,204,-132,33,264,15231,20,10,359,104,35365,-129,35,127,0,0,4005,76,0,1498,456,236,10713,-4,0,25,0,556193,0
556235,-95,-2080,201,-135,32,268,15245,39,19,447,136,35366,-115,35,127,0,0,4010,43,0,1498,456,236,10723,-4,0,25,0,556193,0
556245,-80,-2073,203,-130,26,281,15296,120,87,242,88,35358,-101,35,127,0,0,4014,54,0,1498,456,236,10733,-4,0,25,0,556224,0
556255,-75,-2088,195,-125,17,268,15336,76,46,190,56,35354,-108,35,127,0,0,4018,43,0,1498,456,236,10743,-4,0,25,0,556224,0
556265,-89,-2097,196,-117,19,273,15351,1,-62,159,40,35350,-98,35,127,0,0,4023,54,0,1498,456,236,10753,-4,0,25,0,556240,0
556275,-163,-2080,192,-110,32,254,15355,19,-78,303,112,35345,-94,35,127,0,0,4025,32,0,1498,456,236,10763,-4,0,25,0,556240,0
556285,-119,-2078,188,-97,34,231,15360,17,-10,371,144,35335,-69,35,127,0,0,4027,10,0,1498,456,236,10773,-4,0,25,0,556271,0
556295,-114,-2079,194,-94,29,223,15365,3,3,403,144,35344,-80,35,127,0,0,4036,76,0,1498,456,236,10783,-4,0,25,0,556271,0
556305,-145,-2084,197,-87,43,200,15380,45,12,434,120,35347,-91,35,127,0,0,4036,54,0,1498,456,236,10793,-4,0,25,0,556287,0
556315,-137,-2075,195,-80,33,181,15411,80,59,310,104,35342,-101,35,127,0,0,4038,54,0,1498,456,236,10803,-4,0,25,0,556287,0
556325,-112,-2077,182,-71,23,165,15426,4,4,318,88,35338,-90,35,127,0,0,4038,-10,0,1498,456,236,10813,-4,0,25,0,556287,0
556335,-154,-2075,164,-58,36,142,15422,9,-82,343,96,35344,-87,35,127,0,0,4038,0,0,1498,456,236,10823,-4,0,25,0,556318,0
556345,-116,-2076,156,-38,35,126,15423,-11,-17,332,128,35350,-96,35,127,0,0,4038,0,0,1498,456,236,10833,-4,0,25,0,556318,0
556355,-91,-2082,184,-31,25,119,15425,-2,8,362,112,35348,-105,35,127,0,0,4038,-10,0,1498,456,236,10843,-4,0,25,0,556318,0
556365,-115,-2082,242,-41,10,112,15425,10,4,366,80,35349,-97,35,127,0,0,4040,10,0,1498,456,236,10853,-4,0,25,0,556334,0
556375,-131,-2097,260,-44,0,108,15425,0,-4,372,112,35335,-90,35,127,0,0,4040,32,0,1498,456,236,10863,-4,0,25,0,556349,0
556385,-132,-2081,239,-66,1,81,15424,-1,4,392,112,35348,-93,35,127,0,0,4040,10,0,1498,456,236,10873,-4,0,25,0,556365,0
556395,-135,-2076,188,-62,2,67,15424,-13,-1,386,112,35345,-97,35,127,0,0,4038,0,0,1498,456,236,10883,-4,0,25,0,556365,0
556405,-154,-2081,120,-35,3,37,15424,-5,-3,336,88,35344,-91,35,127,0,0,4040,21,0,1498,456,236,10893,-4,0,25,0,556365,0
556415,-137,-2071,99,-3,10,18,15425,3,0,365,112,35337,-89,35,127,0,0,4038,-10,0,1498,456,236,10903,-4,0,25,0,556396,0
556425,-104,-2095,155,33,31,-27,15426,12,-3,339,64,35342,-104,35,127,0,0,4036,-32,0,1498,456,236,10913,-4,0,25,0,556396,0
556435,-134,-2078,224,36,51,-40,15422,-1,-3,266,8,35347,-102,35,127,0,0,4029,-87,0,1498,456,236,10923,-4,0,25,0,556396,0
556446,-82,-2091,293,21,62,-51,15414,-18,-7,58,0,35342,-102,35,127,0,0,4024,-49,0,1498,456,236,10934,-4,0,25,0,556412,0
556456,-63,-2064,272,-2,52,-38,15408,-24,-6,-99,-56,35344,-85,35,127,0,0,4020,-54,0,1498,456,236,10944,-4,0,25,0,556490,0
556466,-92,-2076,244,-22,39,-29,15400,-14,-4,-206,-80,35350,-83,35,127,0,0,4013,-87,0,1498,456,236,10954,-4,0,25,0,556506,0
556476,-74,-2079,235,-35,49,-34,15390,-15,-7,-295,-112,35348,-97,35,127,0,0,4015,-38,0,1498,456,236,10964,-4,0,25,0,556506,0
556486,-83,-2080,238,-43,56,-35,15374,-51,-15,-311,-120,35342,-100,35,127,0,0,4011,-21,0,1498,456,236,10974,-4,0,25,0,556506,0
556496,-76,-2088,247,-59,67,-44,15333,-84,-61,-205,-88,35344,-87,35,127,0,0,4003,-10,0,1498,456,236,10984,-4,0,25,0,556506,0
556506,-64,-2083,240,-69,61,-33,15323,-3,13,-293,-104,35348,-75,35,127,0,0,3999,-27,0,1498,456,236,10994,-4,0,25,0,556506,0
556516,-65,-2082,242,-77,61,-31,15316,-17,79,-386,-160,35346,-73,35,127,0,0,3992,-76,0,1498,456,236,11004,-4,0,25,0,556506,0
556526,-67,-2081,248,-92,54,-26,15287,-75,-36,-336,-152,35332,-85,35,127,0,0,3991,-43,0,1498,456,236,11014,-4,0,25,0,556506,0
556536,-86,-2086,240,-103,65,-27,15257,-46,-51,-280,-136,35332,-102,35,127,0,0,3983,-54,0,1498,456,236,11024,-4,0,25,0,556506,0
556546,-18,-2082,256,-113,64,4,15226,-92,14,-328,-128,35334,-107,35,127,0,0,3979,-21,0,1498,456,236,11034,-4,0,25,0,556521,0
556556,-45,-2086,249,-124,56,6,15183,-62,-32,-198,-80,35357,-118,35,127,0,0,3971,-54,0,1498,456,236,11044,-4,0,25,0,556521,0
556566,-22,-2088,218,-134,50,35,15172,-23,43,-251,-56,35368,-111,35,127,0,0,3968,-60,0,1498,456,236,11054,-4,0,25,0,556537,0
556576,-19,-2083,209,-130,39,63,15157,-57,52,-320,-72,35368,-103,35,127,0,0,3967,0,0,1498,456,236,11064,-4,0,25,0,556537,0
556586,-48,-2077,206,-122,47,87,15143,-12,-13,-248,-64,35358,-85,35,127,0,0,3971,27,0,1498,456,236,11074,-4,0,25,0,556568,0
556596,-39,-2076,202,-123,50,114,15143,0,42,-274,-96,35338,-88,35,127,0,0,3969,27,0,1498,456,236,11084,-4,0,25,0,556568,0
556606,1,-2071,215,-126,45,146,15142,3,20,-282,-80,35324,-87,35,127,0,0,3966,5,0,1498,456,236,11094,-4,0,25,0,556568,0
556616,1,-2072,212,-125,47,154,15138,-15,-4,-328,-80,35328,-94,35,127,0,0,3966,0,0,1498,456,236,11104,-4,0,25,0,556584,0
556626,-45,-2083,203,-120,48,179,15140,-4,6,-304,-64,35326,-85,35,127,0,0,3964,-21,0,1498,456,236,11114,-4,0,25,0,556615,0
556636,-37,-2068,209,-122,52,196,15141,4,5,-295,-64,35336,-99,35,127,0,0,3968,10,0,1498,456,236,11124,-4,0,25,0,556630,0
556646,-36,-2075,228,-117,42,227,15142,5,2,-257,-88,35333,-93,35,127,0,0,3972,43,0,1498,456,236,11134,-4,0,25,0,556630,0
556656,-70,-2063,221,-124,41,240,15145,18,7,-116,-24,35329,-99,35,127,0,0,3972,16,0,1498,456,236,11144,-4,0,25,0,556630,0
556666,-3,-2087,227,-139,31,260,15149,1,5,-42,-8,35326,-77,35,127,0,0,3981,82,0,1498,456,236,11154,-4,0,25,0,556630,0
556676,-69,-2076,226,-144,24,292,15155,24,2,120,24,35337,-71,35,127,0,0,3985,65,0,1498,456,236,11164,-4,0,25,0,556662,0
556686,-74,-2082,214,-150,27,301,15164,29,24,272,80,35342,-85,35,127,0,0,3989,21,0,1498,456,236,11174,-4,0,25,0,556662,0
556696,-48,-2084,199,-146,26,308,15184,64,26,337,104,35334,-97,35,127,0,0,3995,5,0,1498,456,236,11184,-4,0,25,0,556662,0
556707,-36,-2084,202,-148,13,337,15223,42,46,208,104,35328,-100,35,127,0,0,4003,98,0,1498,456,236,11195,-4,0,25,0,556677,0
556717,-106,-2077,204,-137,17,339,15225,5,-58,467,112,35317,-107,35,127,0,0,4007,54,0,1498,456,236,11205,-4,0,25,0,556709,0
556727,-67,-2087,191,-132,29,322,15239,37,-32,558,224,35324,-112,35,127,0,0,4012,10,0,1498,456,236,11215,-4,0,25,0,556709,0
556737,-89,-2077,196,-126,26,342,15289,140,101,340,136,35321,-107,35,127,0,0,4018,32,0,1498,456,236,11225,-4,0,25,0,556709,0
556747,-91,-2085,194,-118,13,325,15349,131,90,222,120,35325,-108,35,127,0,0,4025,43,0,1498,456,236,11235,-4,0,25,0,556709,0
556757,-123,-2084,176,-111,12,314,15381,46,-43,282,88,35317,-105,35,127,0,0,4031,32,0,1498,456,236,11245,-4,0,25,0,556724,0
556767,-150,-2086,165,-94,27,300,15402,67,-77,339,144,35320,-87,35,127,0,0,4038,21,0,1498,456,236,11255,-4,0,25,0,556724,0
556777,-100,-2082,169,-77,24,276,15427,22,-4,316,144,35319,-83,35,127,0,0,4045,76,0,1498,456,236,11265,-4,0,25,0,556755,0
556787,-158,-2079,178,-65,24,260,15429,14,-55,500,152,35319,-82,35,127,0,0,4045,0,0,1498,456,236,11275,-4,0,25,0,556755,0
556797,-141,-2086,176,-47,25,231,15433,18,-34,549,184,35317,-95,35,127,0,0,4049,21,0,1498,456,236,11285,-4,0,25,0,556755,0
556807,-131,-2084,174,-38,17,215,15453,61,35,489,144,35324,-96,35,127,0,0,4051,10,0,1498,456,236,11295,-4,0,25,0,556787,0
556817,-160,-2076,171,-22,18,196,15487,87,59,407,144,35321,-108,35,127,0,0,4058,21,0,1498,456,236,11305,-4,0,25,0,556787,0
556827,-145,-2092,187,-15,15,165,15502,18,5,487,136,35317,-103,35,127,0,0,4060,21,0,1498,456,236,11315,-4,0,25,0,556787,0
556837,-185,-2082,208,-6,24,125,15505,13,-63,566,120,35331,-122,35,127,0,0,4060,10,0,1498,456,236,11325,-4,0,25,0,556834,0
556847,-180,-2073,215,-9,26,89,15507,-1,-17,520,112,35322,-123,35,127,0,0,4060,10,0,1498,456,236,11335,-4,0,25,0,556834,0
556857,-142,-2076,209,-1,24,55,15513,13,3,510,112,35324,-122,35,127,0,0,4060,0,0,1498,456,236,11345,-4,0,25,0,556849,0
556867,-133,-2072,197,5,10,39,15520,14,10,445,120,35314,-107,35,127,0,0,4062,21,0,1498,456,236,11355,-4,0,25,0,556849,0
556877,-124,-2074,177,19,6,10,15539,34,16,344,88,35315,-96,35,127,0,0,4058,-32,0,1498,456,236,11365,-4,0,25,0,556849,0
556887,-92,-2075,186,20,17,-19,15544,-2,-6,231,16,35326,-111,35,127,0,0,4056,-54,0,1498,456,236,11375,-4,0,25,0,556849,0
556897,-152,-2083,236,35,36,-48,15539,-7,-50,142,-24,35351,-111,35,127,0,0,4049,-76,0,1498,456,236,11385,-4,0,25,0,556912,0
556907,-107,-2090,266,18,46,-85,15531,-18,-17,-19,-8,35355,-113,35,127,0,0,4045,-87,0,1498,456,236,11395,-4,0,25,0,556912,0
556917,-88,-2087,260,-12,35,-89,15515,-46,-16,-160,-80,35343,-104,35,127,0,0,4038,-43,0,1498,456,236,11405,-4,0,25,0,556912,0
556927,-123,-2072,229,-17,44,-98,15475,-98,-67,-19,-40,35321,-112,35,127,0,0,4034,-54,0,1498,456,236,11415,-4,0,25,0,556912,0
556937,-109,-2080,200,-11,50,-111,15463,-7,5,-196,-112,35316,-124,35,127,0,0,4025,-87,0,1498,456,236,11425,-4,0,25,0,556912,0
556947,-84,-2080,232,-16,51,-126,15444,-55,48,-307,-112,35322,-136,35,127,0,0,4020,-65,0,1498,456,236,11435,-4,0,25,0,556927,0
556958,-79,-2084,256,-31,60,-135,15394,-98,-79,-197,-96,35328,-120,35,127,0,0,4017,-10,0,1498,456,236,11446,-4,0,25,0,556927,0
556968,-71,-2081,262,-43,59,-102,15370,-59,4,-328,-136,35342,-102,35,127,0,0,4002,-38,0,1498,456,236,11456,-4,0,25,0,556927,0
556978,-74,-2074,254,-62,51,-98,15328,-82,7,-288,-120,35352,-87,35,127,0,0,3999,-49,0,1498,456,236,11466,-4,0,25,0,556959,0
556988,-29,-2074,243,-71,44,-67,15308,-37,1,-359,-120,35354,-89,35,127,0,0,3991,-38,0,1498,456,236,11476,-4,0,25,0,556974,0
556998,-4,-2074,250,-84,50,-43,15279,-74,22,-292,-152,35339,-84,35,127,0,0,3989,-71,0,1498,456,236,11486,-4,0,25,0,556974,0
557008,-9,-2081,250,-90,56,-9,15256,-32,-4,-312,-128,35325,-105,35,127,0,0,3983,-21,0,1498,456,236,11496,-4,0,25,0,556974,0
557018,31,-2079,244,-103,40,56,15235,-60,21,-303,-136,35323,-122,35,127,0,0,3982,-38,0,1498,456,236,11506,-4,0,25,0,557005,0
557028,22,-2084,212,-106,40,89,15193,-82,-42,-183,-72,35333,-122,35,127,0,0,3980,27,0,1498,456,236,11516,-4,0,25,0,557005,0
557038,27,-2079,209,-105,47,157,15193,29,41,-195,-48,35329,-111,35,127,0,0,3975,-27,0,1498,456,236,11526,-4,0,25,0,557021,0
557048,22,-2078,234,-92,45,187,15193,-5,81,-209,-72,35325,-103,35,127,0,0,3980,-16,0,1498,456,236,11536,-4,0,25,0,557021,0
557058,-26,-2081,239,-104,56,226,15195,8,-1,-205,-56,35311,-99,35,127,0,0,3979,5,0,1498,456,236,11546,-4,0,25,0,557021,0
557068,-29,-2082,222,-101,51,269,15195,6,12,-140,-32,35328,-96,35,127,0,0,3988,60,0,1498,456,236,11556,-4,0,25,0,557052,0
557078,-34,-2073,218,-108,33,312,15202,18,8,15,0,35331,-92,35,127,0,0,3989,32,0,1498,456,236,11566,-4,0,25,0,557052,0
557088,-57,-2093,227,-117,25,332,15208,13,10,108,104,35331,-93,35,127,0,0,3990,49,0,1498,456,236,11576,-4,0,25,0,557052,0
557098,-58,-2077,240,-123,36,343,15219,21,10,232,80,35325,-113,35,127,0,0,4003,71,0,1498,456,236,11586,-4,0,25,0,557083,0
557108,-83,-2076,231,-130,37,348,15225,14,-2,370,152,35337,-119,35,127,0,0,4008,137,0,1498,456,236,11596,-4,0,25,0,557083,0
557118,-93,-2075,226,-133,37,344,15240,54,8,511,216,35339,-117,35,127,0,0,4011,54,0,1498,456,236,11606,-4,0,25,0,557083,0
557128,-99,-2077,201,-130,35,342,15299,148,102,311,152,35332,-93,35,127,0,0,4018,60,0,1498,456,236,11616,-4,0,25,0,557115,0
557138,-100,-2077,201,-123,27,348,15359,117,91,165,72,35313,-96,35,127,0,0,4026,82,0,1498,456,236,11626,-4,0,25,0,557115,0
557148,-94,-2082,208,-122,29,333,15377,13,-78,253,96,35315,-99,35,127,0,0,4029,54,0,1498,456,236,11636,-4,0,25,0,557115,0
557158,-123,-2083,224,-119,38,313,15392,53,-101,378,144,35328,-94,35,127,0,0,4039,71,0,1498,456,236,11646,-4,0,25,0,557130,0
557168,-116,-2075,240,-117,41,318,15429,82,49,293,136,35336,-79,35,127,0,0,4042,71,0,1498,456,236,11656,-4,0,25,0,557146,0
557178,-136,-2072,239,-132,25,305,15438,13,-11,451,152,35335,-86,35,127,0,0,4047,27,0,1498,456,236,11666,-4,0,25,0,557146,0
557188,-139,-2079,202,-128,20,298,15447,16,-60,447,160,35333,-86,35,127,0,0,4059,175,0,1498,456,236,11676,-4,0,25,0,557162,0
557199,-160,-2070,175,-103,34,267,15485,101,52,433,168,35330,-112,34,127,0,0,4058,43,0,1498,456,236,11687,-4,0,25,0,557193,0
557209,-158,-2074,174,-80,24,231,15508,22,34,452,144,35332,-101,35,127,0,0,4062,43,0,1498,456,236,11697,-4,0,25,0,557208,0
557219,-181,-2078,169,-72,22,204,15523,39,-54,496,144,35332,-94,35,127,0,0,4067,43,0,1498,456,236,11707,-4,0,25,0,557208,0
557229,-178,-2077,183,-49,31,164,15556,89,24,393,128,35334,-110,35,127,0,0,4067,0,0,1498,456,236,11717,-4,0,25,0,557208,0
557239,-157,-2081,182,-44,28,138,15568,1,6,331,88,35325,-114,35,127,0,0,4067,21,0,1498,456,236,11727,-4,0,25,0,557208,0
557249,-194,-2076,205,-33,30,97,15568,5,-69,382,96,35323,-98,35,127,0,0,4067,0,0,1498,456,236,11737,-4,0,25,0,557224,0
557259,-174,-2080,226,-25,34,70,15567,-5,-18,377,96,35325,-84,35,127,0,0,4067,0,0,1498,456,236,11747,-4,0,25,0,557271,0
557269,-136,-2083,240,-39,19,39,15568,0,-4,377,64,35337,-82,35,127,0,0,4064,-32,0,1498,456,236,11757,-4,0,25,0,557287,0
557279,-134,-2078,232,-40,12,27,15565,-3,-7,339,64,35345,-83,35,127,0,0,4064,-21,0,1498,456,236,11767,-4,0,25,0,557287,0
557289,-130,-2082,203,-40,20,-20,15566,-4,-2,309,40,35347,-85,35,127,0,0,4062,-32,0,1498,456,236,11777,-4,0,25,0,557287,0
557299,-163,-2073,211,-34,45,-34,15562,-2,-3,187,48,35332,-64,35,127,0,0,4062,10,0,1498,456,236,11787,-4,0,25,0,557287,0
557309,-117,-2059,236,-28,48,-46,15560,-1,-6,130,0,35328,-58,35,127,0,0,4053,-54,0,1498,456,236,11797,-4,0,25,0,557287,0
557319,-98,-2079,234,-32,44,-61,15544,-31,-20,-11,-16,35324,-73,35,127,0,0,4049,-21,0,1498,456,236,11807,-4,0,25,0,557287,0
557329,-68,-2078,233,-38,43,-44,15542,6,4,-89,-104,35324,-77,35,127,0,0,4045,-65,0,1498,456,236,11817,-4,0,25,0,557287,0
557339,-77,-2085,232,-40,50,-48,15526,-43,1,-220,-72,35325,-82,35,127,0,0,4040,-43,0,1498,456,236,11827,-4,0,25,0,557318,0
557349,-63,-2082,229,-40,53,-28,15489,-103,-71,-193,-72,35330,-74,35,127,0,0,4036,-21,0,1498,456,236,11837,-4,0,25,0,557333,0
557359,-111,-2074,232,-42,65,-32,15461,-14,-31,-32,-56,35331,-78,35,127,0,0,4029,-87,0,1498,456,236,11847,-4,0,25,0,557333,0
557369,-13,-2070,250,-45,42,3,15458,-11,79,-313,-88,35333,-93,35,127,0,0,4025,-32,0,1498,456,236,11857,-4,0,25,0,557333,0
557379,-47,-2075,238,-63,30,37,15437,-62,10,-289,-96,35326,-93,35,127,0,0,4023,-21,0,1498,456,236,11867,-4,0,25,0,557349,0
557389,-99,-2072,219,-59,52,37,15400,-55,-61,-128,-40,35336,-90,35,127,0,0,4020,0,0,1498,456,236,11877,-4,0,25,0,557349,0
557399,-54,-2084,214,-58,54,61,15403,4,50,-244,-72,35334,-84,35,127,0,0,4018,10,0,1498,456,236,11887,-4,0,25,0,557380,0
557409,-50,-2066,242,-52,33,88,15402,-9,59,-261,-88,35331,-81,35,127,0,0,4016,-21,0,1498,456,236,11897,-4,0,25,0,557380,0
557419,-62,-2078,237,-56,41,99,15400,5,-12,-297,-80,35322,-75,35,127,0,0,4016,-10,0,1498,456,236,11907,-4,0,25,0,557380,0
557429,-59,-2072,240,-66,36,110,15398,-7,4,-322,-80,35322,-61,35,127,0,0,4014,0,0,1498,456,236,11917,-4,0,25,0,557396,0
557439,-40,-2078,231,-65,43,126,15396,-16,5,-389,-88,35316,-51,35,127,0,0,4014,21,0,1498,456,236,11927,-4,0,25,0,557396,0
557450,-45,-2073,222,-65,41,139,15392,-3,-3,-331,-96,35321,-55,35,127,0,0,4014,-5,0,1498,456,236,11938,-4,0,25,0,557427,0
557460,-59,-2086,219,-69,42,144,15392,-4,2,-334,-64,35331,-64,35,127,0,0,4010,-27,0,1498,456,236,11948,-4,0,25,0,557427,0
557470,-76,-2075,236,-71,43,149,15391,-4,3,-355,-64,35333,-58,35,127,0,0,4016,27,0,1498,456,236,11958,-4,0,25,0,557427,0
557480,-80,-2076,230,-70,45,158,15392,-9,1,-306,-64,35340,-42,35,127,0,0,4016,16,0,1498,456,236,11968,-4,0,25,0,557474,0
557490,-62,-2080,236,-73,35,152,15392,5,-2,-294,-64,35345,-49,35,127,0,0,4016,27,0,1498,456,236,11978,-4,0,25,0,557474,0
557500,-79,-2080,240,-79,36,153,15394,3,-3,-244,-64,35346,-57,35,127,0,0,4016,-21,0,1498,456,236,11988,-4,0,25,0,557474,0
557510,-141,-2082,245,-85,35,149,15391,-7,2,-270,-48,35336,-60,35,127,0,0,4018,10,0,1498,456,236,11998,-4,0,25,0,557474,0
557520,-127,-2075,239,-94,32,144,15392,-12,3,-275,-72,35321,-50,35,127,0,0,4019,49,0,1498,456,236,12008,-4,0,25,0,557505,0
557530,-108,-2079,250,-97,25,124,15394,6,3,-236,-72,35332,-78,35,127,0,0,4016,0,0,1498,456,236,12018,-4,0,25,0,557505,0
557540,-156,-2075,271,-103,22,103,15390,-5,-5,-266,-88,35340,-96,35,127,0,0,4014,-16,0,1498,456,236,12028,-4,0,25,0,557505,0
557550,-184,-2089,241,-115,13,70,15392,-1,-3,-295,-88,35337,-102,35,127,0,0,4014,-54,0,1498,456,236,12038,-4,0,25,0,557521,0
557560,-184,-2082,248,-125,-2,38,15388,0,1,-302,-64,35325,-63,35,127,0,0,4013,-10,0,1498,456,236,12048,-4,0,25,0,557583,0
557570,-262,-2060,292,-140,22,-89,15388,-16,-4,-342,-128,35318,-51,35,127,0,0,4006,-104,0,1498,456,236,12058,-4,0,25,0,557599,0
557580,-208,-2073,265,-152,40,-138,15362,-77,-41,-403,-152,35317,-42,35,127,0,0,4003,-54,0,1498,456,236,12068,-4,0,25,0,557599,0
557590,-245,-2067,256,-169,33,-257,15321,-74,-80,-312,-160,35316,-55,35,127,0,0,3991,-104,0,1498,456,236,12078,-4,0,25,0,557599,0
557600,-195,-2081,261,-189,21,-322,15286,-99,-14,-400,-192,35314,-66,35,127,0,0,3977,-153,0,1498,456,236,12088,-4,0,25,0,557599,0
557610,-286,-2069,253,-203,11,-431,15231,-128,-24,-424,-280,35316,-74,35,127,0,0,3962,-181,0,1498,456,236,12098,-4,0,25,0,557599,0
557620,-270,-2084,221,-214,19,-552,15144,-197,-93,-370,-272,35313,-86,35,127,0,0,3944,-170,0,1498,456,236,12108,-4,0,25,0,557599,0
557630,-295,-2072,196,-214,23,-716,15053,-215,-72,-425,-328,35314,-78,35,127,0,0,3918,-230,0,1498,456,236,12118,-4,0,25,0,557599,0
557640,-357,-2073,214,-202,36,-877,14957,-216,-38,-398,-416,35313,-53,35,127,0,0,3893,-291,0,1498,456,236,12128,-4,0,25,0,557599,0
557650,-304,-2066,226,-201,43,-1092,14840,-278,-49,-484,-536,35314,-31,35,127,0,0,3857,-335,0,1498,456,236,12138,-4,0,25,0,557646,0
557660,-380,-2069,195,-195,48,-1227,14696,-337,-82,-478,-672,35318,-22,35,127,0,0,3814,-406,0,1498,456,236,12148,-4,0,25,0,557646,0
557670,-325,-2055,137,-152,53,-1459,14527,-380,-101,-474,-776,35317,-39,35,127,0,0,3772,-450,0,1498,456,236,12158,-4,0,25,0,557646,0
557680,-275,-2058,106,-117,57,-1592,14347,-419,-67,-488,-960,35312,-47,34,127,0,0,3718,-516,0,1498,456,236,12168,-4,0,25,0,557646,0
557691,-216,-2052,64,-39,71,-1793,14115,-483,-87,-502,-1112,35304,-63,35,127,0,0,3658,-560,0,1498,456,236,12179,-4,0,25,0,557661,0
557701,-56,-2024,47,45,106,-1927,13872,-559,-111,-497,-1264,35313,-44,35,127,0,0,3599,-571,0,1498,456,236,12189,-4,0,25,0,557677,0
557711,-9,-2045,69,97,131,-1947,13605,-596,-97,-464,-1408,35320,-52,35,127,0,0,3537,-604,0,1498,456,236,12199,-4,0,25,0,557677,0
557721,244,-2054,142,192,173,-1916,13322,-618,-68,-465,-1432,35322,-40,35,127,0,0,3473,-626,0,1498,456,236,12209,-4,0,25,0,557677,0
557731,452,-2003,153,199,172,-1783,13030,-654,-43,-433,-1472,35316,-44,35,127,0,0,3414,-582,0,1498,456,236,12219,-4,0,25,0,557724,0
557741,667,-2049,243,196,126,-1492,12738,-635,45,-399,-1440,35318,-65,35,127,0,0,3364,-505,0,1498,456,236,12229,-4,0,25,0,557755,0
557751,700,-2028,271,187,94,-1261,12451,-623,45,-405,-1392,35314,-74,35,127,0,0,3317,-450,0,1498,456,236,12239,-4,0,25,0,557755,0
557761,623,-2054,341,135,41,-940,12178,-588,-25,-412,-1224,35319,-85,35,127,0,0,3280,-373,0,1498,456,236,12249,-4,0,25,0,557755,0
557771,558,-2075,337,107,35,-750,11925,-547,61,-374,-1056,35306,-56,35,127,0,0,3247,-318,0,1498,456,236,12259,-4,0,25,0,557771,0
557781,489,-2060,251,78,50,-532,11695,-488,86,-360,-896,35317,-47,35,127,0,0,3223,-241,0,1498,456,236,12269,-4,0,25,0,557771,0
557791,436,-2065,243,65,35,-419,11495,-427,98,-394,-680,35317,-50,35,127,0,0,3203,-186,0,1498,456,236,12279,-4,0,25,0,557771,0
557801,344,-2070,247,56,37,-297,11322,-365,107,-390,-592,35321,-59,35,127,0,0,3188,-131,0,1498,456,236,12289,-4,0,25,0,557771,0
557811,249,-2065,228,56,46,-262,11166,-326,76,-307,-408,35327,-68,35,127,0,0,3172,-153,0,1498,456,236,12299,-4,0,25,0,557771,0
557821,180,-2072,204,68,62,-252,11046,-231,99,-352,-304,35344,-70,35,127,0,0,3157,-164,0,1498,456,236,12309,-4,0,25,0,557802,0
557831,213,-2050,178,77,81,-257,10957,-193,136,-388,-280,35354,-79,35,127,0,0,3146,-98,0,1498,456,236,12319,-4,0,25,0,557802,0
557841,143,-2080,190,109,97,-263,10885,-132,85,-399,-232,35342,-82,35,127,0,0,3133,-109,0,1498,456,236,12329,-4,0,25,0,557802,0
557851,198,-2055,200,139,107,-287,10830,-115,74,-474,-320,35322,-87,35,127,0,0,3117,-153,0,1498,456,236,12339,-4,0,25,0,557818,0
557861,224,-2048,176,166,113,-265,10759,-148,8,-465,-288,35309,-55,35,127,0,0,3104,-120,0,1498,456,236,12349,-4,0,25,0,557854,0
557871,280,-2047,206,181,129,-250,10699,-111,1,-548,-296,35321,-69,35,127,0,0,3089,-164,0,1498,456,236,12359,-4,0,25,0,557857,0
557881,378,-2045,188,227,122,-162,10635,-141,15,-480,-272,35322,-69,35,127,0,0,3078,-76,0,1498,456,236,12369,-4,0,25,0,557859,0
557891,451,-2022,189,224,123,-69,10574,-123,-3,-412,-272,35319,-69,35,127,0,0,3065,-153,0,1498,456,236,12379,-4,0,25,0,557862,0
557901,424,-2055,283,251,95,63,10508,-139,7,-388,-176,35317,-64,35,127,0,0,3065,-21,0,1498,456,236,12389,-4,0,25,0,557878,0
557911,367,-2046,269,253,92,124,10457,-69,15,-267,-128,35334,-79,35,127,0,0,3062,-10,0,1498,456,236,12399,-4,0,25,0,557909,0
557921,340,-2036,164,287,102,191,10449,-8,121,-360,-168,35338,-81,35,127,0,0,3060,0,0,1498,456,236,12409,-4,0,25,0,557925,0
557931,264,-2019,120,326,96,213,10440,-17,86,-329,-88,35330,-85,35,127,0,0,3056,-21,0,1498,456,236,12419,-4,0,25,0,557925,0
557941,157,-2018,128,402,115,184,10427,-44,-10,-304,-40,35313,-54,35,127,0,0,3056,-21,0,1498,456,236,12429,-4,0,25,0,557956,0
557951,93,-2025,199,432,128,112,10416,-15,-6,-274,-48,35312,-47,35,127,0,0,3056,-10,0,1498,456,236,12439,-4,0,25,0,557956,0
557961,-43,-2089,320,448,137,-42,10413,-3,26,-323,-128,35320,-34,35,127,0,0,3047,-76,0,1498,456,236,12449,-4,0,25,0,557972,0
557972,-68,-2085,382,430,148,-163,10400,-47,-5,-470,-200,35320,-36,35,127,0,0,3034,-153,0,1498,456,236,12460,-4,0,25,0,557972,0
557982,-4,-2092,485,360,160,-330,10363,-117,-65,-514,-272,35315,-33,35,127,0,0,3022,-164,0,1498,456,236,12470,-4,0,25,0,557972,0
557992,30,-2080,532,304,171,-440,10305,-111,-93,-543,-304,35311,-45,35,127,0,0,3000,-175,0,1498,456,236,12480,-4,0,25,0,557972,0
558002,195,-2053,626,179,118,-523,10244,-145,-36,-653,-376,35315,-51,35,127,0,0,2987,-175,0,1498,456,236,12490,-4,0,25,0,557972,0
558012,212,-2047,615,83,55,-541,10151,-214,-64,-456,-360,35327,-60,35,127,0,0,2963,-203,0,1498,456,236,12500,-4,0,25,0,557972,0
558022,192,-2067,427,2,34,-589,10063,-197,-45,-516,-392,35336,-48,35,127,0,0,2941,-219,0,1498,456,236,12510,-4,0,25,0,558019,0
558032,212,-2064,276,3,50,-639,9963,-218,-12,-493,-424,35341,-50,35,127,0,0,2923,-252,0,1498,456,236,12520,-4,0,25,0,558019,0
558042,323,-2050,224,36,90,-632,9861,-223,-30,-494,-416,35339,-64,35,127,0,0,2897,-269,0,1498,456,236,12530,-4,0,25,0,558019,0
558052,410,-2040,297,46,100,-581,9756,-241,-4,-476,-416,35330,-96,35,127,0,0,2878,-230,0,1498,456,236,12540,-4,0,25,0,558019,0
558062,476,-2054,431,5,72,-452,9640,-250,-29,-406,-376,35324,-85,35,127,0,0,2861,-170,0,1498,456,236,12550,-4,0,25,0,558034,0
558072,544,-2034,459,-25,63,-357,9534,-221,-6,-343,-312,35327,-60,35,127,0,0,2849,-131,0,1498,456,236,12560,-4,0,25,0,558050,0
558082,577,-2025,406,-82,17,-186,9460,-144,83,-434,-248,35338,-50,35,127,0,0,2841,-27,0,1498,456,236,12570,-4,0,25,0,558065,0
558092,522,-2030,369,-99,3,-83,9398,-106,90,-334,-160,35343,-50,35,127,0,0,2836,-21,0,1498,456,236,12580,-4,0,25,0,558065,0
558102,470,-2025,353,-112,-8,38,9361,-62,75,-325,-128,35339,-65,35,127,0,0,2835,43,0,1498,456,236,12590,-4,0,25,0,558065,0
558112,423,-2038,351,-127,0,93,9363,11,126,-415,-136,35327,-59,35,127,0,0,2832,5,0,1498,456,236,12600,-4,0,25,0,558081,0
558122,346,-2028,334,-133,6,131,9361,8,65,-410,-128,35336,-62,35,127,0,0,2832,-16,0,1498,456,236,12610,-4,0,25,0,558112,0
558132,286,-2033,326,-138,26,131,9361,-1,-11,-415,-112,35342,-63,35,127,0,0,2834,38,0,1498,456,236,12620,-4,0,25,0,558112,0
558142,322,-2041,289,-130,28,126,9363,3,3,-389,-112,35348,-72,35,127,0,0,2834,16,0,1498,456,236,12630,-4,0,25,0,558112,0
558152,313,-2043,279,-120,18,130,9362,-4,4,-367,-136,35337,-63,35,127,0,0,2835,-5,0,1498,456,236,12640,-4,0,25,0,558112,0
558162,228,-2040,348,-119,7,112,9363,5,4,-357,-112,35333,-47,35,127,0,0,2834,-27,0,1498,456,236,12650,-4,0,25,0,558143,0
558172,213,-2042,399,-142,10,81,9363,4,2,-363,-112,35331,-32,35,127,0,0,2834,0,0,1498,456,236,12660,-4,0,25,0,558143,0
558182,264,-2036,402,-185,9,56,9362,-7,1,-359,-136,35331,-34,35,127,0,0,2835,-21,0,1498,456,236,12670,-4,0,25,0,558175,0
558192,310,-2038,400,-211,-11,43,9362,0,2,-403,-88,35334,-38,35,127,0,0,2836,71,0,1498,456,236,12680,-4,0,25,0,558175,0
558202,306,-2035,366,-251,-39,28,9363,0,6,-330,-112,35328,-50,35,127,0,0,2837,21,0,1498,456,236,12690,-4,0,25,0,558175,0
558213,247,-2012,295,-277,-49,-29,9362,2,-3,-391,-112,35331,-52,35,127,0,0,2830,-32,0,1498,456,236,12701,-4,0,25,0,558190,0
558223,213,-2040,279,-274,-43,-49,9360,-5,-8,-477,-152,35338,-57,35,127,0,0,2825,-54,0,1498,456,236,12711,-4,0,25,0,558190,0
558233,213,-2052,278,-245,-20,-132,9355,-15,-5,-567,-248,35353,-53,35,127,0,0,2823,-43,0,1498,456,236,12721,-4,0,25,0,558222,0
558243,251,-2032,292,-237,22,-175,9341,-28,-19,-538,-232,35355,-56,35,127,0,0,2819,-54,0,1498,456,236,12731,-4,0,25,0,558222,0
558253,338,-2032,340,-246,-22,-188,9305,-98,-55,-463,-200,35357,-53,35,127,0,0,2812,-54,0,1498,456,236,12741,-4,0,25,0,558222,0
558263,279,-2050,325,-266,-32,-192,9258,-95,-64,-393,-192,35348,-63,35,127,0,0,2803,-98,0,1498,456,236,12751,-4,0,25,0,558222,0
558273,229,-2052,353,-289,-47,-245,9213,-87,-8,-402,-200,35350,-73,35,127,0,0,2792,-98,0,1498,456,236,12761,-4,0,25,0,558253,0
558283,260,-2027,378,-308,-59,-292,9171,-111,7,-411,-176,35342,-87,35,127,0,0,2783,-109,0,1498,456,236,12771,-4,0,25,0,558253,0
558293,177,-2031,352,-343,-59,-391,9134,-77,8,-464,-224,35340,-88,35,127,0,0,2775,-98,0,1498,456,236,12781,-4,0,25,0,558268,0
558303,128,-2033,370,-365,-70,-512,9089,-92,1,-479,-256,35337,-83,35,127,0,0,2757,-164,0,1498,456,236,12791,-4,0,25,0,558300,0
558313,112,-2005,356,-389,-81,-691,9029,-174,-42,-527,-312,35338,-68,35,127,0,0,2735,-197,0,1498,456,236,12801,-4,0,25,0,558315,0
558323,7,-2050,292,-405,-79,-841,8941,-206,-92,-450,-328,35343,-74,35,127,0,0,2711,-230,0,1498,456,236,12811,-4,0,25,0,558315,0
558333,-19,-2036,328,-417,-41,-1092,8842,-230,-76,-511,-424,35350,-86,35,127,0,0,2680,-307,0,1498,456,236,12821,-4,0,25,0,558315,0
558343,42,-2022,341,-423,-16,-1275,8726,-248,-55,-531,-544,35360,-92,35,127,0,0,2645,-351,0,1498,456,236,12831,-4,0,25,0,558315,0
558353,221,-1987,353,-461,10,-1457,8594,-304,-59,-523,-664,35358,-100,35,127,0,0,2597,-461,0,1498,456,236,12841,-4,0,25,0,558315,0
558363,311,-1993,352,-481,-22,-1512,8437,-356,-77,-496,-784,35361,-85,35,127,0,0,2555,-439,0,1498,456,236,12851,-4,0,25,0,558347,0
558373,396,-1988,248,-498,-83,-1528,8259,-390,-88,-475,-832,35361,-91,35,127,0,0,2509,-439,0,1498,456,236,12861,-4,0,25,0,558347,0
558383,404,-1958,169,-487,-91,-1551,8060,-454,-78,-412,-872,35360,-94,35,127,0,0,2463,-450,0,1498,456,236,12871,-4,0,25,0,558362,0
558393,401,-2008,135,-418,-68,-1580,7859,-435,-49,-424,-936,35356,-95,35,127,0,0,2414,-494,0,1498,456,236,12881,-4,0,25,0,558362,0
558403,461,-1949,147,-386,-43,-1620,7652,-458,-12,-451,-960,35356,-93,35,127,0,0,2368,-439,0,1498,456,236,12891,-4,0,25,0,558378,0
558413,487,-2011,206,-367,-71,-1609,7441,-457,-28,-457,-984,35356,-89,35,127,0,0,2318,-494,0,1498,456,236,12901,-4,0,25,0,558393,0
558423,505,-2019,244,-348,-71,-1591,7236,-449,9,-497,-976,35349,-99,35,127,0,0,2271,-494,0,1498,456,236,12911,-4,0,25,0,558393,0
558433,592,-1989,232,-339,-68,-1563,7046,-405,42,-619,-1000,35351,-102,35,127,0,0,2228,-450,0,1498,456,236,12921,-4,0,25,0,558425,0
558443,671,-1989,232,-336,-81,-1515,6854,-427,28,-668,-984,35355,-101,35,127,0,0,2188,-373,0,1498,456,236,12931,-4,0,25,0,558425,0
558453,648,-2042,247,-324,-155,-1398,6658,-431,-18,-587,-1000,35359,-75,35,127,0,0,2144,-406,0,1498,456,236,12941,-4,0,25,0,558425,0
558464,584,-2019,293,-328,-191,-1368,6445,-427,6,-596,-960,35345,-72,35,127,0,0,2100,-368,0,1498,456,236,12952,-4,0,25,0,558425,0
558474,440,-2080,358,-358,-233,-1361,6263,-396,16,-633,-888,35355,-69,35,127,0,0,2070,-318,0,1498,456,236,12962,-4,0,25,0,558456,0
558484,371,-2098,381,-353,-261,-1413,6086,-373,32,-532,-816,35365,-76,35,127,0,0,2040,-296,0,1498,456,236,12972,-4,0,25,0,558456,0
558494,270,-2167,367,-383,-301,-1472,5918,-346,32,-520,-720,35365,-69,35,127,0,0,2017,-263,0,1498,456,236,12982,-4,0,25,0,558456,0
558504,337,-2362,387,-393,-301,-1551,5762,-333,48,-480,-552,35339,-75,35,127,0,0,2008,-87,0,1498,456,236,12992,-4,0,25,0,558487,0
558514,679,-2919,552,-395,-446,-1592,5639,-254,79,-471,-416,35337,-93,35,127,0,0,1995,-38,0,1498,456,236,13002,-4,0,25,0,558487,0
558524,398,-3202,654,-463,-483,-1518,5553,-154,136,-476,-256,35344,-100,35,127,0,0,1996,32,0,1498,456,236,13012,-4,0,25,0,558518,0
558534,412,-3076,572,-781,-737,-1297,5514,-66,167,-260,72,35353,-102,35,127,0,0,2025,335,0,1498,456,236,13022,-4,0,25,0,558550,0
558544,206,-3096,622,-834,-840,-1207,5569,191,259,418,456,35349,-93,35,127,0,0,2086,565,0,1498,456,236,13032,-4,0,25,0,558550,0
558554,146,-3169,443,-843,-1144,-1230,5727,388,386,411,856,35348,-96,35,127,0,0,2173,895,0,1498,456,236,13042,-4,0,25,0,558550,0
558564,138,-3189,584,-818,-1338,-1497,5941,511,301,495,1232,35345,-102,35,127,0,0,2264,834,0,1498,456,236,13052,-4,0,25,0,558550,0
558574,-339,-4116,1003,-913,-1668,-1699,6216,650,227,486,1512,35345,-93,35,127,0,0,2363,1049,0,1498,456,236,13062,-4,0,25,0,558550,0
558584,-509,-4511,1215,-836,-2072,-1825,6550,783,220,518,1968,35343,-79,35,127,0,0,2484,1323,0,1498,456,236,13072,-4,0,25,0,558550,0
558594,-849,-3946,702,-618,-2338,-2273,6965,984,267,598,2424,35350,-75,35,127,0,0,2636,1494,0,1498,456,236,13082,-4,0,25,0,558565,0
558604,-681,-3854,60,-481,-2466,-2482,7475,1175,339,653,2960,35365,-75,35,127,0,0,2801,1691,0,1498,456,236,13092,-4,0,25,0,558597,0
558614,-657,-3558,-333,-303,-2724,-2611,8062,1348,323,798,3568,35355,-59,35,127,0,0,2992,1900,0,1498,456,236,13102,-4,0,25,0,558597,0
558624,-924,-3618,-216,-201,-2779,-2656,8750,1592,341,941,4296,35334,-24,35,127,0,0,3221,2356,0,1498,456,236,13112,-4,0,25,0,558597,0
558634,-1147,-3923,535,-245,-2917,-2872,9488,1934,461,1046,5208,35301,14,35,127,0,0,3465,2526,0,1498,456,236,13122,-4,0,25,0,558612,0
558644,-621,-4118,876,-491,-2642,-3216,10474,2274,609,956,5776,35298,36,35,127,0,0,3716,2438,0,1498,456,236,13132,-4,0,25,0,558612,0
558654,-1061,-5278,1732,-960,-2907,-4074,11557,2404,506,620,5840,35299,43,35,127,0,0,3908,1977,0,1498,456,236,13142,-4,0,49,0,558628,0
558664,-739,-5771,1845,-1040,-3284,-4395,12618,2321,105,567,5928,35304,32,35,127,0,0,4123,2109,0,1498,456,236,13152,-4,0,55,0,558628,0
558674,-454,-5222,1543,-1166,-3236,-4568,13698,2400,-7,525,5840,35302,12,35,127,0,0,4325,2032,0,1498,456,236,13162,-4,0,63,0,558643,0
558684,-32,-4732,1121,-1180,-3524,-4419,14811,2474,115,533,5752,35297,-10,35,127,0,0,4526,2043,0,1498,456,236,13172,-4,0,70,0,558659,0
558694,2274,-3946,451,-1069,-2488,-4530,15927,2449,63,625,5904,35300,-3,35,127,0,0,4740,2164,0,1498,456,236,13182,-4,0,80,0,558675,0
558704,1178,-3793,-211,-889,-795,-6055,17026,2349,-42,156,4272,35314,-20,35,127,0,0,4724,-384,0,1498,456,236,13192,-4,0,87,0,558690,0
558715,1323,-4417,20,-148,720,-6404,17999,1674,-525,-934,952,35326,-65,35,127,0,0,4568,-1560,0,1498,456,236,13203,-4,0,96,0,558690,0
558725,990,-4005,926,-17,1019,-5925,18285,-15,-1666,-2719,-1392,35335,-100,35,127,0,0,4392,-1757,0,1498,456,236,13213,-4,0,103,0,558690,0
558735,578,-3480,1050,57,973,-5697,17967,-846,-2386,-1016,-2504,35353,-98,35,127,0,0,4240,-1439,0,1498,456,236,13223,-4,0,113,0,558706,0
558745,1508,-2944,207,88,830,-4999,17475,-1141,-1201,-639,-2808,35347,-69,35,127,0,0,4128,-1043,0,1498,456,236,13233,-4,0,120,0,558737,0
558755,1806,-2547,-193,218,839,-4416,16925,-1215,-438,-342,-2696,35342,-58,35,127,0,0,4036,-867,0,1498,456,236,13243,-4,0,131,108,558737,0
558765,1988,-1988,-460,605,1166,-3840,16385,-1169,-188,-239,-2616,35325,-79,35,127,0,0,3928,-1076,0,1498,456,236,13253,-4,0,138,107,558737,0
558775,2050,-1630,-490,852,1436,-3492,15846,-1200,21,-423,-2936,35322,-84,35,127,0,0,3783,-1450,0,1498,456,236,13263,-4,0,149,105,558737,0
558785,2017,-1134,-339,1008,1610,-2711,15250,-1377,-102,-674,-3480,35327,-68,35,127,0,0,3616,-1702,0,1498,456,236,13273,-4,0,156,104,558753,0
558795,1905,-783,-231,1031,1592,-2111,14555,-1588,-307,-703,-3872,35323,-39,35,127,0,0,3440,-1768,0,1498,456,236,13283,-4,0,166,102,558784,0
558805,1814,-162,-263,949,1400,-1169,13797,-1704,-318,-596,-4160,35315,-28,35,127,0,0,3267,-1702,0,1498,456,236,13293,-4,0,172,101,558784,0
558815,1860,220,-369,840,1279,-633,13008,-1753,-177,-580,-4408,35312,-29,35,127,0,0,3089,-1779,0,1498,456,236,13303,-4,0,181,100,558784,0
558825,1841,461,-539,646,1298,120,12198,-1802,-95,-588,-4600,35313,-43,35,127,0,0,2898,-1867,0,1498,456,236,13313,-4,0,187,99,558784,0
558835,1496,368,-500,568,1242,745,11345,-1910,-126,-609,-4776,35322,-15,35,127,0,0,2702,-1944,0,1498,456,236,13323,-4,0,195,97,558815,0
558845,811,424,-389,570,999,1776,10449,-1981,-169,-500,-4696,35322,-19,35,127,0,0,2533,-1647,0,1498,456,236,13333,-4,0,199,96,558815,0
558855,631,558,-404,508,883,2337,9569,-1899,-55,-311,-4248,35328,-21,35,127,0,0,2401,-1263,0,1498,456,236,13343,-4,0,206,95,558815,0
558865,711,689,-420,446,1079,2982,8766,-1708,178,-165,-3632,35325,-27,35,127,0,0,2291,-1098,0,1498,456,236,13353,-4,0,211,94,558846,0
558875,594,730,-468,411,1350,3393,8053,-1516,325,-138,-3192,35330,-28,35,127,0,0,2186,-1043,0,1498,456,236,13363,-4,0,217,92,558846,0
558885,251,798,-412,430,1598,4127,7413,-1359,309,-170,-2912,35332,-44,35,127,0,0,2078,-1076,0,1498,456,236,13373,-4,0,221,90,558846,0
558895,41,821,-336,399,1715,4626,6849,-1186,287,-358,-2528,35319,-51,35,127,0,0,2006,-670,0,1498,456,236,13383,-4,0,227,88,558878,0
558905,-21,798,-305,346,2053,5211,6365,-1010,301,-337,-2096,35326,-71,35,127,0,0,1955,-450,0,1498,456,236,13393,-4,0,231,86,558878,0
558915,-113,815,-368,294,2451,5489,5964,-839,307,-318,-1600,35331,-62,35,127,0,0,1924,-285,0,1498,456,236,13403,-4,0,236,84,558878,0
558925,-310,721,-517,212,3239,5777,5642,-652,307,-291,-1224,35339,-66,35,127,0,0,1900,-252,0,1498,456,236,13413,-4,0,240,82,558893,0
558935,-410,654,-556,163,3861,5930,5397,-503,293,-353,-864,35328,-52,35,127,0,0,1894,-21,0,1498,456,236,13423,-4,0,245,79,558925,0
558945,-471,641,-488,42,4842,5948,5211,-366,254,-318,-416,35332,-78,35,127,0,0,1913,208,0,1498,456,236,13433,-4,0,249,76,558925,0
558955,-38,697,-303,-140,5304,5939,5114,-118,267,52,160,35342,-101,35,127,0,0,1964,538,0,1498,456,236,13443,-4,0,255,73,558925,0
558965,778,1035,-200,-505,5653,5822,5199,273,522,461,656,35357,-110,35,127,0,0,2036,769,0,1498,456,236,13453,-4,0,258,71,558940,0
558976,1358,1065,-189,-726,5919,5450,5401,443,511,420,952,35344,-101,35,127,0,0,2106,527,0,1498,456,236,13464,-4,0,263,68,558940,0
558986,1873,846,-31,-978,5592,4904,5624,501,239,304,848,35346,-94,35,127,0,0,2136,307,0,1498,456,236,13474,-4,0,268,65,558971,0
558996,2129,586,234,-1052,4983,4639,5850,470,72,197,656,35351,-91,35,127,0,0,2168,362,0,1498,456,236,13484,-4,0,271,63,558971,0
559006,2620,308,573,-1208,3903,4188,6054,448,-50,265,728,35357,-91,35,127,0,0,2221,543,0,1498,456,236,13494,-4,0,274,60,558971,0
559016,2861,160,682,-1263,3316,3748,6259,467,-33,326,960,35349,-100,35,127,0,0,2300,747,0,1498,456,236,13504,-4,0,276,58,558987,0
559026,3101,-203,665,-1231,2694,2900,6495,550,67,379,1192,35337,-108,35,127,0,0,2382,823,0,1498,456,236,13514,-4,0,278,56,558987,0
559036,3139,-481,552,-1154,2443,2349,6773,646,143,421,1488,35344,-109,35,127,0,0,2478,955,0,1498,456,236,13524,-4,0,278,55,559065,0
559046,3027,-538,460,-981,2273,1465,7106,768,183,423,1848,35345,-102,35,127,0,0,2598,1175,0,1498,456,236,13534,-4,0,278,53,559065,0
559056,2924,-422,301,-819,2297,828,7496,884,217,510,2216,35344,-76,35,127,0,0,2718,1230,0,1498,456,236,13544,-4,0,277,53,559065,0
559066,10406,-4766,1012,-305,1138,-3400,7946,1045,220,472,2464,35339,-63,35,127,0,0,2801,807,0,1498,456,236,13554,-4,0,276,51,559081,0
559076,5935,-3848,2137,1170,2265,-6255,8413,941,170,-155,-176,35337,-74,35,127,0,0,2540,-2922,0,2581,373,237,8,1,3,276,51,559081,0
559086,4337,893,463,-131,1344,-3545,8340,-627,-1005,-2021,-1896,35333,-79,35,127,0,0,2386,-1362,0,2581,373,237,18,1,3,276,51,559081,0
559096,328,753,1371,-1230,-1134,-1887,7945,-944,-1763,-500,-2216,35330,-81,35,127,0,0,2279,-1005,0,2581,373,237,28,1,3,276,51,559081,0
559106,195,-1586,-833,-795,-3486,-1441,7506,-959,-648,-341,-2160,35321,-78,35,127,0,0,2180,-1016,0,2581,373,237,38,1,3,276,51,559081,0
559116,1119,-4013,-296,90,-2508,-2016,7075,-944,-60,-532,-2280,35322,-67,35,127,0,0,2059,-1170,0,2581,373,237,48,1,3,276,51,559081,0
559126,194,-2609,1420,1340,682,-2467,6627,-1045,-9,-927,-2896,35323,-63,35,127,0,0,1902,-1653,0,2581,373,237,58,1,3,276,51,559112,0
559136,1436,-1369,1264,285,-112,-2303,6079,-1251,-227,-846,-3192,35322,-41,35,127,0,0,1770,-1301,0,2581,373,237,68,1,3,276,51,559128,0
559146,2313,-2982,-550,-1228,-749,-637,5490,-1291,-281,-500,-2992,35319,-33,35,127,0,0,1694,-675,0,2581,373,237,78,1,3,276,51,559128,0
559156,1388,-1945,-1622,-1509,-517,153,4951,-1116,17,-239,-2240,35307,-40,35,127,0,0,1667,-137,0,2581,373,237,88,1,3,276,51,559128,0
559166,347,-1372,-1293,-1213,307,-147,4533,-834,331,-154,-1552,35316,-63,35,127,0,0,1646,-280,0,2581,373,237,98,1,3,276,51,559128,0
559176,393,-1993,-255,-532,1697,-555,4228,-611,456,-303,-1400,35334,-80,35,127,0,0,1590,-714,0,2581,373,237,108,1,3,276,51,559159,0
559186,1769,-1459,1400,-322,1647,-654,3964,-588,299,-651,-1544,35344,-68,35,127,0,0,1517,-714,0,2581,373,237,118,1,3,276,51,559159,0
559196,2786,-1370,1784,-680,981,-95,3664,-692,0,-617,-1720,35339,-61,35,127,0,0,1464,-565,0,2581,373,237,128,1,3,276,51,559190,0
559207,2577,-1850,1173,-913,-196,1127,3315,-685,-108,-427,-1424,35330,-66,35,127,0,0,1434,-208,0,2581,373,237,139,1,3,276,51,559190,0
559217,1235,-1710,448,-870,-890,1558,3037,-579,51,-266,-920,35323,-73,35,127,0,0,1426,-54,0,2581,373,237,149,1,3,276,51,559190,0
559227,467,-2226,95,-531,-593,1368,2835,-379,218,-319,-552,35326,-79,35,127,0,0,1423,-43,0,2581,373,237,159,1,3,276,51,559190,0
559237,415,-2195,-260,-409,306,1084,2698,-260,284,-390,-416,35336,-83,35,127,0,0,1408,-131,0,2581,373,237,169,1,3,276,51,559221,0
559247,831,-2137,-136,-432,539,1037,2595,-218,194,-463,-360,35345,-107,35,127,0,0,1390,-164,0,2581,373,237,179,1,3,276,51,559237,0
559257,1385,-2119,359,-421,393,1318,2516,-169,110,-571,-320,35349,-114,35,127,0,0,1386,-21,0,2581,373,237,189,1,3,276,51,559237,0
559267,1377,-1860,674,-360,269,1466,2446,-147,61,-404,-160,35347,-92,35,127,0,0,1386,10,0,2581,373,237,199,1,3,276,51,559237,0
559277,1361,-1900,621,-335,-48,1788,2419,-25,90,-237,-32,35332,-66,35,127,0,0,1404,175,0,2581,373,237,209,1,3,276,51,559237,0
559287,1288,-1687,410,-349,-166,1993,2458,138,204,149,176,35322,-58,35,127,0,0,1423,252,0,2581,373,237,219,1,3,276,51,559253,0
559297,928,-1723,56,-350,-143,2094,2538,205,216,306,304,35325,-88,35,127,0,0,1447,241,0,2581,373,237,229,1,3,276,51,559284,0
559307,754,-1816,23,-299,-8,2083,2655,270,154,262,288,35334,-113,35,127,0,0,1472,219,0,2581,373,237,239,1,3,276,51,559284,0
559317,831,-1701,137,-246,249,1986,2769,235,61,257,288,35339,-104,35,127,0,0,1489,186,0,2581,373,237,249,1,3,276,51,559284,0
559327,1044,-1687,193,-220,312,2013,2868,203,-36,284,248,35325,-106,35,127,0,0,1502,109,0,2581,373,237,259,1,3,276,51,559331,0
559337,1130,-1577,319,-185,137,2212,2952,177,-52,243,200,35318,-90,35,127,0,0,1516,164,0,2581,373,237,269,1,3,276,51,559331,0
559347,1002,-1669,406,-186,23,2308,3018,112,-60,305,192,35322,-103,35,127,0,0,1529,131,0,2581,373,237,279,1,3,276,51,559331,0
559357,674,-2157,458,-187,-36,2363,3078,137,-59,381,216,35333,-104,35,127,0,0,1546,164,0,2581,373,237,289,1,3,276,51,559331,0
559367,447,-2367,482,-167,-103,2413,3152,174,12,421,280,35328,-109,35,127,0,0,1571,230,0,2581,373,237,299,1,3,276,51,559331,0
559377,345,-2418,286,-98,-216,2401,3247,235,66,490,504,35327,-96,35,127,0,0,1610,395,0,2581,373,237,309,1,3,276,51,559346,0
559387,228,-2411,123,-58,-210,2368,3384,336,115,510,664,35325,-78,35,127,0,0,1654,472,0,2581,373,237,319,1,3,276,51,559362,0
559397,96,-2307,64,17,-168,2253,3552,382,144,466,880,35334,-58,35,127,0,0,1707,549,0,2581,373,237,329,1,3,276,51,559409,0
559407,45,-2249,102,62,-95,2083,3747,455,106,522,1088,35333,-64,35,127,0,0,1766,560,0,2581,373,237,339,1,3,276,51,559424,0
559417,1,-2166,204,129,32,1771,3976,522,124,507,1208,35328,-74,35,127,0,0,1821,527,0,2581,373,237,349,1,3,276,51,559424,0
559427,23,-2056,250,148,25,1564,4226,556,105,397,1240,35317,-86,35,127,0,0,1876,527,0,2581,373,237,359,1,3,276,51,559424,0
559437,-26,-2086,341,141,-51,1227,4477,549,43,362,1160,35319,-88,35,127,0,0,1920,428,0,2581,373,237,369,1,3,276,51,559424,0
559447,-91,-2099,463,123,-64,964,4723,532,-8,338,1064,35316,-87,35,127,0,0,1964,417,0,2581,373,237,379,1,3,276,51,559424,0
559458,-148,-1948,602,42,17,470,4984,515,-24,280,896,35314,-85,35,127,0,0,1998,335,0,2581,373,237,390,1,3,276,51,559424,0
559468,-75,-1891,610,-34,35,116,5199,459,-54,255,632,35319,-87,35,127,0,0,2009,82,0,2581,373,237,400,1,3,276,51,559440,0
559478,-4,-1856,479,-110,10,-296,5386,374,-92,144,288,35334,-91,35,127,0,0,2010,-10,0,2581,373,237,410,1,3,276,51,559471,0
559488,319,-1754,377,-143,-24,-523,5503,182,-184,-78,-48,35341,-91,35,127,0,0,1995,-159,0,2581,373,237,420,1,3,276,51,559471,0
559498,233,-1551,290,-148,-122,-946,5478,-126,-413,-346,-224,35335,-83,35,127,0,0,1969,-280,0,2581,373,237,430,1,3,276,51,559471,0
559508,160,-1693,275,-131,-81,-1232,5390,-207,-405,-425,-456,35324,-80,35,127,0,0,1921,-455,0,2581,373,237,440,1,3,276,51,559471,0
559518,125,-1570,372,-100,-94,-1678,5259,-316,-186,-562,-760,35329,-104,35,127,0,0,1855,-648,0,2581,373,237,450,1,3,276,51,559503,0
559528,103,-1455,298,-81,-60,-2023,5087,-413,-164,-663,-1176,35329,-98,35,127,0,0,1773,-856,0,2581,373,237,460,1,3,276,51,559503,0
559538,345,-1299,66,-7,193,-2509,4848,-585,-213,-804,-1736,35327,-89,35,127,0,0,1658,-1104,0,2581,373,237,470,1,3,276,51,559503,0
559548,557,-1422,-8,31,360,-2711,4515,-815,-313,-935,-2368,35315,-55,35,127,0,0,1535,-1329,0,2581,373,237,480,1,3,276,51,559518,0
559558,921,-1634,303,93,260,-2757,4069,-1050,-399,-917,-2936,35308,-40,35,127,0,0,1399,-1318,0,2581,373,237,490,1,3,276,51,559549,0
559568,734,-2023,638,51,-134,-2675,3525,-1261,-404,-839,-3352,35308,-30,35,127,0,0,1264,-1329,0,2581,373,237,500,1,3,276,51,559549,0
559578,189,-2612,957,120,-626,-2769,2894,-1436,-357,-775,-3584,35297,-22,35,127,0,0,1149,-1203,0,2581,373,237,510,1,3,276,51,559549,0
559588,-120,-2644,700,132,-657,-2944,2221,-1507,-244,-727,-3760,35287,-26,35,127,0,0,1037,-1109,0,2581,373,237,520,1,3,276,51,559549,0
559598,254,-2208,-9,113,-50,-3234,1521,-1527,-128,-511,-3176,35288,-13,35,127,0,0,921,-1131,0,2581,373,237,530,1,3,276,51,559565,0
559608,799,-1908,-446,129,248,-3285,923,-1213,137,-27,-1952,35302,-50,35,127,0,0,810,-1131,0,2581,373,237,540,1,3,276,51,559581,0
559618,1444,-1854,-415,232,225,-2908,487,-850,513,36,-1040,35313,-79,35,127,0,0,707,-983,0,2581,373,237,550,1,3,276,51,559581,0
559628,1520,-1957,21,316,158,-2569,202,-535,605,-25,-448,35320,-88,35,127,0,0,630,-791,0,2581,373,237,560,1,3,276,51,559596,0
559638,1509,-2009,751,292,209,-2120,58,-297,538,-83,-112,35316,-72,35,127,0,0,563,-653,0,2581,373,237,570,1,3,276,51,559612,0
559648,1744,-1906,955,167,364,-1808,-8,-69,433,-158,-64,35313,-70,35,127,0,0,513,-510,0,2581,373,237,580,1,3,276,51,559612,0
559658,2243,-1901,943,-190,145,-986,-11,16,306,-136,24,35309,-89,35,127,0,0,482,-307,0,2581,373,237,590,1,3,276,51,559628,0
559668,2636,-1811,913,-335,11,-270,4,27,136,-39,-8,35312,-96,35,127,0,0,475,-54,0,2581,373,237,600,1,3,276,51,559643,0
559678,2368,-2084,784,-553,-85,729,12,2,14,-62,-24,35321,-108,35,127,0,0,484,76,0,2581,373,237,610,1,3,276,51,559643,0
559688,2182,-2918,708,-801,-208,1547,13,11,-30,-23,-24,35321,-104,35,127,0,0,539,521,0,2581,373,237,620,1,3,276,51,559659,0
559698,1951,-3019,1070,-1217,-490,2587,32,94,34,371,344,35321,-103,35,127,0,0,635,1005,0,2581,373,237,630,1,3,276,51,559659,0
559709,1405,-3850,532,-1508,-849,3650,143,303,228,756,1032,35320,-80,35,127,0,0,808,1647,0,2581,373,237,641,1,3,276,51,559690,0
559719,1004,-3974,334,-1531,-1040,4205,375,584,411,712,1512,35326,-63,35,127,0,0,1041,2395,0,2581,373,237,651,1,3,276,51,559690,0
559729,129,-4336,604,-1331,-1221,4603,677,694,367,541,1568,35320,-55,35,127,0,0,1322,2834,0,2581,373,237,661,1,3,276,51,559690,0
559739,-125,-4576,720,-952,-1346,4503,1096,1153,232,1858,4248,35308,-46,35,127,0,0,1647,3273,0,2581,373,237,671,1,3,276,51,559721,0
559749,-763,-4900,439,-599,-1538,4425,1941,2145,988,1856,6040,35280,21,35,127,0,0,2008,3614,0,2581,373,237,681,1,3,276,51,559721,0
559759,-1512,-4288,794,-666,-2148,4478,3120,2751,1570,1384,7312,35258,102,35,127,0,0,2416,4097,0,2581,373,237,691,1,3,276,51,559721,0
559769,-2164,-3816,970,-372,-3069,3563,4486,3097,987,1183,8496,35229,185,35,127,0,0,2843,4295,0,2581,373,237,701,1,3,276,51,559799,0
559779,-2666,-3986,363,-102,-2795,2704,6059,3658,730,1191,9456,35218,204,35,127,0,0,3260,4174,0,2581,373,237,711,1,3,276,51,559831,0
559789,-2443,-3469,577,323,-2990,1362,7870,4079,884,924,10088,35216,198,35,127,0,0,3678,4174,0,2581,373,237,721,1,3,276,51,559831,0
559799,-1114,-3776,623,427,-2500,-557,9769,4232,624,711,10200,35213,179,35,127,0,0,4010,3186,0,2581,373,237,731,1,3,276,51,559831,0
559809,527,-4511,631,-525,-2353,-3908,11685,4138,209,112,8704,35223,138,35,127,0,0,4185,1527,0,2581,373,237,741,1,3,276,51,559831,0
559819,3016,-5861,1658,-466,-2877,-5183,13381,3554,-394,-560,6312,35256,45,35,127,0,0,4242,439,0,2581,373,237,751,1,3,276,51,559846,0
559829,1178,-6755,1132,-902,-2458,-6458,14751,2703,-1046,-1480,3128,35299,-98,35,127,0,0,4174,-812,0,2581,373,237,761,0,3,276,51,559846,0
559839,-403,-5643,1488,-501,-2825,-7439,15558,1383,-1709,-1466,472,35335,-209,35,127,0,0,4075,-966,0,2581,373,237,771,0,3,276,51,559846,0
559849,330,-4397,128,-240,-2018,-8798,15762,-87,-2237,-2349,-1040,35346,-221,35,127,0,0,3957,-1208,0,2581,373,237,781,0,3,276,51,559846,0
559859,859,-4111,185,-176,-1869,-8728,15518,-663,-2096,-767,-1800,35333,-158,35,127,0,0,3854,-988,0,2581,373,237,791,0,3,276,51,559846,0
559869,1192,-3461,277,-225,-1059,-8288,15145,-844,-1085,-442,-1904,35314,-103,35,127,0,0,3772,-802,0,2581,373,237,801,0,3,276,51,559846,0
559879,756,-3061,453,-242,-592,-8341,14748,-882,-279,-422,-1984,35315,-85,35,127,0,0,3684,-900,0,2581,373,237,811,0,3,276,51,559846,0
559889,916,-2624,314,-164,-28,-8422,14330,-931,-70,-512,-2344,35330,-97,35,127,0,0,3570,-1131,0,2581,373,237,821,0,3,276,51,559846,0
559899,1100,-2417,302,-90,137,-8060,13862,-1067,-127,-561,-2656,35333,-71,35,127,0,0,3447,-1186,0,2581,373,237,831,0,3,276,51,559893,0
559909,1033,-1757,232,97,172,-7310,13346,-1148,-196,-484,-2840,35318,-62,35,127,0,0,3326,-1153,0,2581,373,237,841,0,3,276,51,559893,0
559919,993,-1152,153,155,145,-6921,12811,-1189,-130,-480,-3032,35300,-54,35,127,0,0,3203,-1274,0,2581,373,237,851,0,3,276,51,559893,0
559929,1142,-491,-4,190,146,-6390,12244,-1277,-93,-577,-3312,35290,-48,35,127,0,0,3047,-1538,0,2581,373,237,861,0,3,276,51,559893,0
559939,1123,-298,-130,197,115,-5780,11620,-1430,-163,-686,-3744,35291,-36,35,127,0,0,2876,-1724,0,2581,373,237,871,0,3,276,51,559909,0
559949,650,-141,-218,217,-130,-4374,10913,-1596,-272,-588,-3896,35291,-27,35,127,0,0,2718,-1571,0,2581,373,237,881,0,3,276,51,559924,0
559959,301,46,-214,289,-386,-3409,10171,-1635,-235,-428,-3728,35293,-30,35,127,0,0,2586,-1263,0,2581,373,237,891,0,3,276,51,559924,0
559970,135,298,-325,382,-645,-2279,9392,-1516,12,-245,-3320,35295,-30,35,127,0,0,2468,-1021,0,2581,373,237,902,0,3,276,51,559956,0
559980,96,352,-322,434,-711,-1559,8751,-1369,203,-231,-3000,35301,-34,35,127,0,0,2368,-966,0,2581,373,237,912,0,3,276,51,559956,0
559990,18,467,-287,474,-719,-338,8163,-1266,231,-205,-2712,35302,-40,35,127,0,0,2273,-961,0,2581,373,237,922,0,3,276,51,559971,0
560000,-141,596,-158,493,-771,507,7617,-1180,177,-211,-2456,35303,-64,35,127,0,0,2175,-834,0,2581,373,237,932,0,3,276,51,559971,0
560010,-324,715,-104,538,-1000,1662,7119,-1058,169,-309,-2344,35306,-65,35,127,0,0,2072,-1010,0,2581,373,237,942,0,3,276,51,560002,0
560020,-411,652,-159,598,-1234,2446,6663,-991,179,-513,-2240,35320,-76,35,127,0,0,1994,-802,0,2581,373,237,952,0,3,276,51,560002,0
560030,-608,611,-180,716,-1556,3643,6233,-922,123,-427,-1992,35324,-57,35,127,0,0,1931,-576,0,2581,373,237,962,0,3,276,51,560002,0
560040,-710,743,-186,739,-1598,4355,5845,-819,129,-327,-1656,35325,-49,35,127,0,0,1898,-406,0,2581,373,237,972,0,3,276,51,560002,0
560050,-855,691,-285,769,-1367,5194,5523,-652,206,-311,-1296,35316,-58,35,127,0,0,1867,-302,0,2581,373,237,982,0,3,276,51,560034,0
560060,-948,568,-388,809,-1060,5670,5263,-540,246,-314,-1008,35327,-65,35,127,0,0,1840,-252,0,2581,373,237,992,0,3,276,51,560034,0
560070,-1395,499,-567,860,-375,6254,5056,-423,218,-342,-800,35325,-84,35,127,0,0,1821,-247,0,2581,373,237,1002,0,3,276,51,560034,0
560080,-712,609,-517,840,310,6493,4888,-343,172,-404,-584,35329,-69,35,127,0,0,1811,-159,0,2581,373,237,1012,0,3,276,51,560065,0
560090,-749,374,-654,738,1419,6772,4757,-260,157,-511,-472,35316,-38,35,127,0,0,1799,-54,0,2581,373,237,1022,0,3,276,51,560065,0
560100,-632,297,-755,695,2357,6730,4651,-213,117,-362,-296,35320,-47,35,127,0,0,1798,-10,0,2581,373,237,1032,0,3,276,51,560065,0
560110,-274,95,-740,629,4010,6303,4579,-128,112,-263,-96,35322,-55,35,127,0,0,1808,115,0,2581,373,237,1042,0,3,276,51,560096,0
560120,483,-53,-577,564,5057,5736,4577,71,201,130,128,35320,-93,35,127,0,0,1827,170,0,2581,373,237,1052,0,3,276,51,560096,0
560130,1672,-184,-169,340,6156,4887,4636,155,260,298,264,35328,-109,35,127,0,0,1859,340,0,2581,373,237,1062,0,3,276,51,560096,0
560140,2383,-264,226,185,6428,4276,4742,270,200,327,416,35333,-117,35,127,0,0,1900,411,0,2581,373,237,1072,0,3,276,51,560112,0
560150,3574,-371,672,-4,6171,3200,4890,371,173,373,704,35328,-76,35,127,0,0,1968,631,0,2581,373,237,1082,0,3,276,51,560143,0
560160,4122,-506,881,-110,5630,2362,5080,438,175,403,1064,35326,-52,35,127,0,0,2057,884,0,2581,373,237,1092,0,3,276,51,560143,0
560170,4309,-640,996,-52,4612,880,5321,567,176,467,1408,35322,-37,35,127,0,0,2142,906,0,2581,373,237,1102,0,3,276,51,560159,0
560180,4322,-521,888,78,3870,-150,5619,689,218,486,1696,35313,-50,35,127,0,0,2235,873,0,2581,373,237,1112,0,3,276,51,560159,0
560190,4066,-42,730,286,2720,-1444,5967,781,211,407,1816,35313,-53,35,127,0,0,2332,911,0,2581,373,237,1122,0,3,276,51,560159,0
560201,3319,770,544,256,1481,-2256,6384,854,136,430,1936,35318,-44,35,127,0,0,2438,955,0,2581,373,237,1133,0,3,276,51,560159,0
560211,2915,1002,575,218,682,-2356,6793,922,113,428,2168,35323,-34,35,127,0,0,2559,1241,0,2581,373,237,1143,0,3,276,51,560190,0
560221,2608,-2378,987,813,1886,-3550,7254,1035,150,303,1640,35328,-42,35,127,0,0,2502,-966,0,2581,373,237,1153,0,3,276,51,560205,0
560231,-1714,1792,875,253,302,-3265,7584,443,-96,-1701,-1032,35323,-46,35,127,0,0,2304,-1922,0,1401,624,238,7,1,3,160,87,560205,0
560241,3235,839,-401,-92,390,-3337,7351,-654,-1360,-993,-1848,35326,-47,35,127,0,0,2155,-1560,0,1401,624,238,17,1,3,160,87,560205,0
560251,4356,-1157,-579,566,-218,-4714,6945,-1054,-1398,-1523,-3744,35315,-43,35,127,0,0,1830,-3383,0,1401,624,238,27,1,3,160,87,560221,0
560261,4570,-3437,-106,21,-502,-1200,6184,-1903,-986,-1605,-5120,35304,-17,35,127,0,0,1586,-2241,0,1401,624,238,37,1,3,160,87,560237,0
560271,1812,-3005,363,-656,-1325,418,5245,-2068,-1063,-591,-4904,35285,40,35,127,0,0,1452,-1274,0,1401,624,238,47,1,3,160,87,560237,0
560281,-240,-4649,791,-1909,-877,222,4378,-1829,-187,-222,-4096,35284,65,35,127,0,0,1366,-845,0,1401,624,238,57,1,3,160,87,560252,0
560291,-55,-5667,-271,-1319,995,324,3626,-1588,370,-173,-3384,35288,48,35,127,0,0,1307,-538,0,1401,624,238,67,1,3,160,87,560268,0
560301,963,-3142,191,-549,3258,-273,2981,-1340,427,-145,-2776,35304,-10,35,127,0,0,1232,-791,0,1401,624,238,77,1,3,160,87,560268,0
560311,2791,-2532,894,-140,2130,-63,2436,-1160,400,-332,-2408,35317,-42,35,127,0,0,1186,-439,0,1401,624,238,87,1,3,160,87,560299,0
560321,3461,-1593,1254,-647,450,1427,1964,-973,327,-168,-1664,35319,-59,35,127,0,0,1190,76,0,1401,624,238,97,1,3,160,87,560299,0
560331,2409,-1265,997,-883,-454,2447,1608,-687,357,-13,-440,35322,-56,35,127,0,0,1245,626,0,1401,624,238,107,1,3,160,87,560299,0
560341,916,-948,309,-912,-672,2508,1493,66,662,1317,664,35329,-53,35,127,0,0,1309,615,0,1401,624,238,117,1,3,160,87,560330,0
560351,923,-1524,-180,-300,-71,2119,1674,446,1089,440,888,35334,-48,35,127,0,0,1346,373,0,1401,624,238,127,1,3,160,87,560330,0
560361,1222,-1361,-189,84,901,1844,1895,491,633,256,632,35342,-66,35,127,0,0,1362,142,0,1401,624,238,137,1,3,160,87,560330,0
560371,1820,-1530,298,47,915,2014,2087,392,22,212,336,35333,-65,35,127,0,0,1371,65,0,1401,624,238,147,1,3,160,87,560330,0
560381,2021,-1989,863,-228,382,2840,2229,284,-150,187,272,35330,-53,35,127,0,0,1397,285,0,1401,624,238,157,1,3,160,87,560362,0
560391,1589,-2027,899,-293,22,3203,2341,261,-154,442,560,35320,-41,35,127,0,0,1450,549,0,1401,624,238,167,1,3,160,87,560362,0
560401,1049,-2308,777,-162,-229,3361,2495,386,23,551,984,35321,-56,35,127,0,0,1516,659,0,1401,624,238,177,1,3,160,87,560362,0
560411,815,-2366,485,28,-232,3376,2717,530,216,561,1328,35326,-42,35,127,0,0,1595,802,0,1401,624,238,187,1,3,160,87,560377,0
560421,868,-2070,357,77,-128,3396,2994,649,236,611,1632,35325,-33,35,127,0,0,1678,845,0,1401,624,238,197,1,3,160,87,560409,0
560431,894,-1947,232,43,-104,3428,3324,756,205,563,1872,35332,-41,35,127,0,0,1768,933,0,1401,624,238,207,1,3,160,87,560409,0
560441,824,-1883,332,15,-127,3482,3691,832,169,569,2088,35326,-50,35,127,0,0,1865,988,0,1401,624,238,217,1,3,160,87,560409,0
560452,774,-1867,397,23,-78,3477,4132,901,131,488,2208,35318,-60,35,127,0,0,1975,988,0,1401,624,238,228,1,3,160,87,560424,0
560462,743,-1866,506,-39,-14,3462,4552,945,96,475,2304,35317,-40,35,127,0,0,2073,972,0,1401,624,238,238,1,3,160,87,560440,0
560472,758,-1952,561,-82,-72,3454,4990,977,65,464,2408,35318,-36,35,127,0,0,2178,1071,0,1401,624,238,248,1,3,160,87,560471,0
560482,631,-1986,551,-111,-161,3444,5449,1019,74,427,2424,35312,-42,35,127,0,0,2281,966,0,1401,624,238,258,1,3,160,87,560471,0
560492,512,-1956,584,-110,-255,3392,5921,1048,67,436,2424,35303,-46,35,127,0,0,2390,1021,0,1401,624,238,268,1,3,160,87,560471,0
560502,312,-1891,604,-80,-389,3225,6402,1061,44,368,2392,35301,-34,35,127,0,0,2488,1016,0,1401,624,238,278,1,3,160,87,560471,0
560512,233,-1840,572,-51,-454,3052,6888,1074,26,303,2336,35303,-38,35,127,0,0,2583,972,0,1401,624,238,288,1,3,160,87,560518,0
560522,232,-1786,449,7,-548,2731,7367,1041,-5,272,2240,35313,-21,35,127,0,0,2676,950,0,1401,624,238,298,1,3,160,87,560518,0
560532,260,-1729,301,44,-591,2520,7819,963,-64,308,2080,35310,-29,35,127,0,0,2757,796,0,1401,624,238,308,1,3,160,87,560534,0
560542,101,-1704,204,50,-646,2204,8234,894,-123,420,1968,35308,-30,35,127,0,0,2827,659,0,1401,624,238,318,1,3,160,87,560534,0
560552,146,-1717,210,94,-583,1976,8616,825,-131,407,1816,35310,-42,35,127,0,0,2885,554,0,1401,624,238,328,1,3,160,87,560534,0
560562,-18,-1707,405,108,-551,1562,8970,767,-111,358,1560,35303,-44,35,127,0,0,2930,411,0,1401,624,238,338,1,3,160,87,560534,0
560572,-17,-1703,485,121,-505,1202,9287,668,-114,268,1232,35308,-49,35,127,0,0,2959,274,0,1401,624,238,348,1,3,160,87,560534,0
560582,-31,-1699,529,107,-331,622,9559,552,-162,216,856,35308,-65,35,127,0,0,2964,54,0,1401,624,238,358,1,3,160,87,560565,0
560592,5,-1637,538,82,-253,337,9772,423,-212,156,360,35316,-61,35,127,0,0,2964,-54,0,1401,624,238,368,1,3,160,87,560565,0
560602,36,-1328,459,39,-85,-262,9903,210,-256,-162,-192,35314,-56,35,127,0,0,2927,-395,0,1401,624,238,378,1,3,160,87,560580,0
560612,102,-1105,310,33,-133,-521,9835,-234,-538,-563,-536,35316,-66,35,127,0,0,2875,-516,0,1401,624,238,388,1,3,160,87,560580,0
560622,278,-1416,58,-45,147,-983,9679,-388,-562,-493,-952,35304,-81,35,127,0,0,2793,-851,0,1401,624,238,398,1,3,160,87,560580,0
560632,518,-1637,159,100,-20,-1120,9455,-530,-289,-568,-1344,35307,-76,35,127,0,0,2702,-867,0,1401,624,238,408,1,3,160,87,560612,0
560642,574,-1420,-73,150,-136,-1158,9202,-648,-243,-574,-1624,35307,-56,35,127,0,0,2609,-933,0,1401,624,238,418,1,3,160,87,560612,0
560652,489,-1598,-184,91,-84,-1193,8873,-751,-211,-513,-1832,35313,-48,35,127,0,0,2520,-911,0,1401,624,238,428,1,3,160,87,560643,0
560662,207,-1970,-276,168,138,-1263,8508,-819,-163,-484,-1984,35319,-49,35,127,0,0,2422,-955,0,1401,624,238,438,1,3,160,87,560643,0
560672,371,-2140,-265,243,641,-1296,8111,-892,-128,-431,-2080,35312,-51,35,127,0,0,2325,-1010,0,1401,624,238,448,1,3,160,87,560643,0
560682,737,-2215,152,340,1045,-1237,7690,-926,-102,-386,-2152,35308,-59,35,127,0,0,2225,-1054,0,1401,624,238,458,1,3,160,87,560643,0
560692,1158,-2535,393,332,949,-922,7261,-933,-52,-392,-2104,35304,-54,35,127,0,0,2142,-895,0,1401,624,238,468,1,3,160,87,560659,0
560703,1291,-2768,1030,203,518,-230,6812,-880,29,-451,-1856,35292,-40,35,127,0,0,2078,-494,0,1401,624,238,479,1,3,160,87,560674,0
560713,823,-3337,1437,-38,-50,325,6446,-769,126,-309,-1400,35303,-44,35,127,0,0,2061,-142,0,1401,624,238,489,1,3,160,87,560690,0
560723,484,-3632,1497,-38,-180,458,6158,-578,236,-217,-776,35307,-33,35,127,0,0,2072,142,0,1401,624,238,499,1,3,160,87,560690,0
560733,342,-3877,1135,-202,-423,854,5958,-375,319,-119,-24,35310,-57,35,127,0,0,2122,549,0,1401,624,238,509,1,3,160,87,560721,0
560743,139,-3815,987,-251,-643,1099,5943,161,526,913,744,35304,-52,35,127,0,0,2214,966,0,1401,624,238,519,1,3,160,87,560721,0
560753,106,-3932,621,-311,-1042,1443,6131,482,753,603,1424,35305,-73,35,127,0,0,2348,1395,0,1401,624,238,529,1,3,160,87,560721,0
560763,-256,-3835,443,-320,-1374,1829,6438,766,577,774,2288,35309,-67,35,127,0,0,2526,1933,0,1401,624,238,539,1,3,160,87,560721,0
560773,-556,-3620,286,-452,-1058,1934,6917,1179,556,954,3232,35305,-55,35,127,0,0,2735,2087,0,1401,624,238,549,1,3,160,87,560752,0
560783,-1008,-3725,143,-250,-900,1846,7566,1523,667,901,4104,35298,-20,35,127,0,0,2972,2373,0,1401,624,238,559,1,3,160,87,560752,0
560793,-1268,-3583,26,-161,-690,1662,8360,1843,597,1126,5048,35292,0,35,127,0,0,3247,2812,0,1401,624,238,569,1,3,160,87,560752,0
560803,-1117,-3533,240,-360,-664,1391,9327,2266,600,1259,6160,35283,34,35,127,0,0,3537,2856,0,1401,624,238,579,1,3,160,87,560783,0
560813,-1577,-4579,588,-516,-1364,909,10488,2659,715,1049,6960,35269,67,35,127,0,0,3847,3076,0,1401,624,238,589,1,3,160,87,560783,0
560823,-2707,-4735,676,-188,-1610,327,11794,2942,659,976,7528,35254,114,35,127,0,0,4150,3065,0,1401,624,238,599,1,3,160,87,560815,0
560833,-2480,-4363,49,15,-1430,-1315,13165,3069,394,784,7888,35244,148,35,127,0,0,4440,2856,0,1401,624,238,609,1,3,160,87,560815,0
560843,-1218,-3396,-111,-177,-1222,-2355,14640,3306,327,489,7408,35245,151,35,127,0,0,4653,2076,0,1401,624,238,619,1,3,160,87,560815,0
560853,1723,-4151,-26,-286,-1271,-3911,16096,3111,188,133,6568,35252,119,35,127,0,0,4816,1571,0,1401,624,238,629,1,3,160,87,560830,0
560863,2836,-5753,1481,144,-3720,-5097,17379,2685,-382,-111,4992,35276,59,35,127,0,0,4893,758,0,1401,624,238,639,1,3,160,87,560830,0
560873,2143,-7501,1487,491,-2959,-5947,18450,2198,-730,-418,2800,35301,-12,35,127,0,0,4840,-648,0,1401,624,238,649,1,3,160,87,560893,0
560883,624,-6676,2036,262,-3320,-6565,19155,1221,-1088,-1283,24,35317,-64,35,127,0,0,4697,-1483,0,1401,624,238,659,0,3,160,87,560908,0
560893,955,-4800,1521,-143,-4280,-7334,19169,-448,-2054,-1980,-1600,35332,-109,35,127,0,0,4546,-1538,0,1401,624,238,669,0,3,160,87,560908,0
560903,926,-4126,764,-309,-4742,-7241,18820,-903,-2098,-981,-2640,35315,-102,35,127,0,0,4385,-1647,0,1401,624,238,679,0,3,160,87,560908,0
560913,1262,-3495,207,-522,-5203,-6655,18293,-1239,-985,-685,-2984,35309,-74,35,127,0,0,4258,-1252,0,1401,624,238,689,0,3,160,87,560908,0
560923,869,-2942,443,-555,-5267,-6574,17707,-1296,-455,-440,-3080,35298,-37,35,127,0,0,4139,-1164,0,1401,624,238,699,0,3,160,87,560908,0
560933,779,-2500,585,-709,-4781,-6653,17111,-1330,-132,-478,-3248,35302,-24,35,127,0,0,3994,-1472,0,1401,624,238,709,0,3,160,87,560908,0
560943,914,-2409,585,-808,-4410,-6398,16472,-1451,-93,-624,-3680,35299,-20,35,127,0,0,3823,-1702,0,1401,624,238,719,0,3,160,87,560908,0
560953,797,-2100,523,-855,-3729,-5717,15740,-1675,-266,-683,-4152,35306,-25,35,127,0,0,3647,-1746,0,1401,624,238,729,0,3,160,87,560924,0
560964,436,-1744,618,-788,-3265,-5326,14843,-1852,-339,-623,-4392,35317,-8,35,127,0,0,3453,-1735,0,1401,624,238,740,0,3,160,87,560924,0
560974,368,-1070,531,-725,-2551,-4917,13985,-1889,-224,-509,-4592,35326,-1,35,127,0,0,3256,-1933,0,1401,624,238,750,0,3,160,87,560955,0
560984,362,-762,313,-614,-2096,-4580,13118,-1925,-84,-644,-4864,35310,12,35,127,0,0,3044,-2153,0,1401,624,238,760,0,3,160,87,560955,0
560994,165,-308,3,-241,-1336,-3857,12218,-2009,-81,-629,-5128,35299,8,35,127,0,0,2850,-1950,0,1401,624,238,770,0,3,160,87,560955,0
561004,58,-57,-33,10,-782,-3304,11275,-2100,-150,-521,-5096,35303,23,35,127,0,0,2648,-1955,0,1401,624,238,780,0,3,160,87,561002,0
561014,-459,435,-70,375,4,-2429,10314,-2105,-127,-432,-4976,35305,23,35,127,0,0,2462,-1950,0,1401,624,238,790,0,3,160,87,561002,0
561024,-480,685,151,491,422,-1654,9375,-2033,7,-337,-4640,35305,8,35,127,0,0,2311,-1466,0,1401,624,238,800,0,3,160,87,561002,0
561034,-560,889,297,482,997,-300,8500,-1873,172,-158,-4032,35310,-26,35,127,0,0,2193,-1093,0,1401,624,238,810,0,3,160,87,561002,0
561044,-632,957,243,450,1555,560,7701,-1701,272,-33,-3232,35315,-43,35,127,0,0,2109,-840,0,1401,624,238,820,0,3,160,87,561002,0
561054,-850,859,-8,520,2541,1489,7013,-1409,354,-16,-2560,35334,-63,35,127,0,0,2045,-631,0,1401,624,238,830,0,3,160,87,561033,0
561064,-1040,850,-146,631,3244,1998,6482,-1076,523,-135,-2144,35338,-69,35,127,0,0,1965,-725,0,1401,624,238,840,0,3,160,87,561033,0
561074,-1132,900,-12,809,3869,2930,6057,-894,513,-371,-1872,35346,-77,35,127,0,0,1907,-532,0,1401,624,238,850,0,3,160,87,561033,0
561084,-958,897,69,809,4017,3606,5692,-766,309,-313,-1512,35345,-74,35,127,0,0,1880,-219,0,1401,624,238,860,0,3,160,87,561065,0
561094,-718,841,133,655,4185,4537,5395,-606,239,-281,-1064,35348,-84,35,127,0,0,1872,-76,0,1401,624,238,870,0,3,160,87,561065,0
561104,-575,817,46,562,4320,5020,5166,-449,267,-257,-608,35347,-89,35,127,0,0,1875,82,0,1401,624,238,880,0,3,160,87,561080,0
561114,-441,711,-61,421,4390,5729,5013,-289,276,-237,-136,35340,-87,35,127,0,0,1892,269,0,1401,624,238,890,0,3,160,87,561080,0
561124,-177,763,-36,282,4253,6065,4981,59,367,297,272,35338,-84,35,127,0,0,1944,466,0,1401,624,238,900,0,3,160,87,561112,0
561134,497,723,-2,76,3653,6463,5094,301,520,458,768,35337,-80,35,127,0,0,2019,791,0,1401,624,238,910,0,3,160,87,561112,0
561144,853,815,-55,-86,3331,6514,5282,470,413,526,1288,35338,-76,35,127,0,0,2125,1038,0,1401,624,238,920,0,3,160,87,561112,0
561154,1445,666,-186,-317,3213,6135,5555,659,308,595,1688,35350,-63,35,127,0,0,2220,933,0,1401,624,238,930,0,3,160,87,561143,0
561164,2096,560,-224,-518,3380,5553,5897,771,298,408,1664,35351,-54,35,127,0,0,2282,593,0,1401,624,238,940,0,3,160,87,561143,0
561174,2823,-217,56,-595,3627,4408,6250,772,153,190,1304,35357,-58,35,127,0,0,2315,302,0,1401,624,238,950,0,3,160,87,561143,0
561184,3257,-599,328,-637,3549,3561,6574,680,-43,70,864,35357,-88,35,127,0,0,2343,285,0,1401,624,238,960,0,3,160,87,561143,0
561194,8165,-2741,1724,-362,2022,-48,6863,639,-127,17,632,35356,-86,35,127,0,0,2366,142,0,1401,624,238,970,0,3,160,87,561158,0
561205,9152,-2949,1908,395,107,-3994,7110,315,-151,-1098,-616,35355,-74,35,127,0,0,2258,-1109,0,1464,500,239,5,1,3,107,142,561174,0
561215,7867,-1887,1531,-9,124,-4312,6960,-456,-850,-837,-1248,35361,-69,35,127,0,0,2162,-977,0,1464,500,239,15,1,3,107,142,561190,0
561225,1234,995,194,-1639,-1613,-2893,6692,-632,-943,-634,-1376,35351,-72,35,127,0,0,2137,-76,0,1464,500,239,25,1,3,107,142,561190,0
561235,188,382,-249,-1887,-2759,-3778,6437,-501,-199,-214,-472,35353,-45,35,127,0,0,2162,153,0,1464,500,239,35,1,3,107,142,561268,0
561245,-792,-822,-1239,-1043,-358,-3901,6283,-269,235,-205,-336,35349,-65,35,127,0,0,2124,-494,0,1464,500,239,45,1,3,107,142,561268,0
561255,-1850,-422,-516,-1137,691,-3129,6166,-278,278,-542,-760,35355,-59,35,127,0,0,2058,-648,0,1464,500,239,55,1,3,107,142,561268,0
561265,-1270,407,552,-1164,1816,-2127,6000,-408,-39,-648,-1144,35344,-91,35,127,0,0,1966,-955,0,1464,500,239,65,1,3,107,142,561283,0
561275,2306,825,-320,-1621,2826,-3085,5768,-561,-221,-851,-1720,35335,-84,35,127,0,0,1830,-1527,0,1464,500,239,75,1,3,107,142,561283,0
561285,3828,-1027,-1085,-1301,1765,-3151,5412,-909,-354,-1353,-3152,35326,-73,35,127,0,0,1610,-2296,0,1464,500,239,85,1,3,107,142,561283,0
561295,4040,-1000,138,-980,1047,-1299,4819,-1436,-704,-1229,-4008,35318,-36,35,127,0,0,1443,-1604,0,1464,500,239,95,1,3,107,142,561283,0
561305,2558,-1839,1328,-1509,-428,32,4111,-1575,-692,-651,-3976,35314,-6,35,127,0,0,1320,-1175,0,1464,500,239,105,1,3,107,142,561283,0
561315,1508,-3416,1636,-1126,-207,217,3393,-1579,-223,-533,-3768,35311,3,35,127,0,0,1221,-988,0,1464,500,239,115,1,3,107,142,561283,0
561325,1495,-3495,380,-572,67,666,2695,-1504,13,-350,-3328,35327,-44,35,127,0,0,1151,-692,0,1464,500,239,125,1,3,107,142,561283,0
561335,1821,-2828,1,-425,344,913,2069,-1323,172,-290,-2848,35342,-71,35,127,0,0,1103,-472,0,1464,500,239,135,1,3,107,142,561315,0
561345,2214,-2889,-74,-392,193,1809,1535,-1092,316,-171,-2008,35350,-88,35,127,0,0,1089,-98,0,1464,500,239,145,1,3,107,142,561315,0
561355,1241,-2462,157,-387,92,2272,1122,-816,410,-62,-1056,35346,-83,35,127,0,0,1109,241,0,1464,500,239,155,1,3,107,142,561315,0
561365,968,-2000,313,-522,112,2419,863,-449,523,138,136,35334,-110,35,127,0,0,1162,516,0,1464,500,239,165,1,3,107,142,561346,0
561375,740,-2006,348,-281,308,2328,907,290,881,859,680,35339,-102,35,127,0,0,1208,472,0,1464,500,239,175,1,3,107,142,561346,0
561385,1093,-1387,215,-113,520,2140,1101,458,892,387,840,35348,-99,35,127,0,0,1252,395,0,1464,500,239,185,1,3,107,142,561346,0
561395,1540,-1400,287,-52,513,2118,1318,484,301,323,888,35352,-82,35,127,0,0,1285,329,0,1464,500,239,195,1,3,107,142,561381,0
561405,1680,-1653,469,-79,292,2466,1528,437,31,300,808,35348,-86,35,127,0,0,1322,384,0,1464,500,239,205,1,3,107,142,561381,0
561415,1475,-1694,651,-125,145,2705,1732,446,-29,370,912,35350,-97,35,127,0,0,1364,428,0,1464,500,239,215,1,3,107,142,561381,0
561425,1169,-1975,723,-216,9,2887,1949,480,6,429,1024,35348,-84,35,127,0,0,1415,472,0,1464,500,239,225,1,3,107,142,561381,0
561435,1075,-2060,719,-254,-70,2978,2179,517,46,471,1200,35342,-71,35,127,0,0,1472,549,0,1464,500,239,235,1,3,107,142,561397,0
561446,1040,-1990,626,-281,-128,3020,2459,587,74,495,1360,35340,-64,35,127,0,0,1546,664,0,1464,500,239,246,1,3,107,142,561428,0
561456,968,-1954,555,-323,-141,3054,2753,664,119,479,1480,35336,-79,35,127,0,0,1612,637,0,1464,500,239,256,1,3,107,142,561428,0
561466,872,-1868,544,-367,-256,3114,3059,686,101,441,1568,35333,-90,35,127,0,0,1687,752,0,1464,500,239,266,1,3,107,142,561428,0
561476,812,-1812,505,-353,-311,3118,3382,723,49,504,1696,35338,-88,35,127,0,0,1765,802,0,1464,500,239,276,1,3,107,142,561444,0
561486,770,-1868,388,-328,-288,3076,3721,750,66,502,1832,35337,-84,35,127,0,0,1836,807,0,1464,500,239,286,1,3,107,142,561459,0
561496,756,-1926,303,-299,-283,3066,4075,778,64,413,1832,35332,-93,35,127,0,0,1914,774,0,1464,500,239,296,1,3,107,142,561475,0
561506,634,-1991,265,-280,-399,3013,4429,782,29,433,1848,35332,-99,35,127,0,0,1991,796,0,1464,500,239,306,1,3,107,142,561475,0
561516,446,-2016,265,-269,-517,2950,4792,801,19,401,1896,35334,-104,35,127,0,0,2075,823,0,1464,500,239,316,1,3,107,142,561506,0
561526,148,-2128,314,-180,-625,2704,5159,808,20,387,1952,35332,-88,35,127,0,0,2167,955,0,1464,500,239,326,1,3,107,142,561506,0
561536,-44,-2190,387,-107,-642,2479,5542,848,39,395,1928,35327,-76,35,127,0,0,2239,763,0,1464,500,239,336,1,3,107,142,561506,0
561546,-15,-2175,393,13,-616,2064,5928,838,33,316,1784,35327,-72,35,127,0,0,2319,791,0,1464,500,239,346,1,3,107,142,561506,0
561556,48,-2063,311,19,-565,1771,6300,811,-17,277,1616,35328,-81,35,127,0,0,2368,582,0,1464,500,239,356,1,3,107,142,561553,0
561566,-22,-1877,268,-19,-514,1334,6649,742,-68,226,1376,35332,-78,35,127,0,0,2422,505,0,1464,500,239,366,1,3,107,142,561553,0
561576,-60,-1821,269,-49,-457,1017,6971,688,-97,174,1088,35328,-82,35,127,0,0,2455,335,0,1464,500,239,376,1,3,107,142,561553,0
561586,-67,-1725,296,-107,-242,513,7255,596,-122,130,784,35323,-105,35,127,0,0,2477,159,0,1464,500,239,386,1,3,107,142,561569,0
561596,-61,-1671,335,-154,-72,152,7483,453,-177,115,376,35330,-128,35,127,0,0,2480,-5,0,1464,500,239,396,1,3,107,142,561616,0
561606,188,-1727,288,-262,161,-284,7635,275,-245,-65,-16,35338,-121,35,127,0,0,2467,-181,0,1464,500,239,406,1,3,107,142,561616,0
561616,120,-1593,442,-219,1,-634,7611,-176,-474,-411,-248,35345,-118,35,127,0,0,2434,-291,0,1464,500,239,416,1,3,107,142,561616,0
561626,232,-1481,319,-159,-175,-1008,7509,-227,-507,-404,-440,35346,-110,35,127,0,0,2392,-422,0,1464,500,239,426,1,3,107,142,561631,0
561636,358,-1486,231,-167,-353,-1199,7389,-312,-199,-414,-592,35343,-118,35,127,0,0,2346,-472,0,1464,500,239,436,1,3,107,142,561631,0
561646,237,-1530,34,-104,-416,-1512,7226,-376,-119,-452,-776,35345,-107,35,127,0,0,2279,-637,0,1464,500,239,446,1,3,107,142,561631,0
561656,165,-1541,-201,-45,-273,-1730,7050,-400,-82,-635,-1048,35336,-92,35,127,0,0,2209,-769,0,1464,500,239,456,1,3,107,142,561631,0
561666,297,-1648,-290,-23,124,-2019,6836,-504,-99,-709,-1360,35331,-71,35,127,0,0,2121,-944,0,1464,500,239,466,1,3,107,142,561631,0
561676,519,-1674,-251,-24,379,-2107,6563,-652,-199,-749,-1736,35325,-49,35,127,0,0,2023,-933,0,1464,500,239,476,1,3,107,142,561647,0
561686,939,-1550,-77,25,529,-2066,6232,-751,-231,-731,-2016,35328,-53,35,127,0,0,1925,-977,0,1464,500,239,486,1,3,107,142,561647,0
561697,1271,-1653,187,150,367,-1815,5810,-858,-190,-597,-2128,35327,-67,35,127,0,0,1819,-944,0,1464,500,239,497,1,3,107,142,561694,0
561707,1394,-1799,464,252,225,-1593,5411,-874,-107,-607,-2216,35317,-70,35,127,0,0,1731,-867,0,1464,500,239,507,1,3,107,142,561694,0
561717,1512,-2143,774,209,151,-1199,5001,-894,-41,-568,-2264,35315,-80,35,127,0,0,1652,-780,0,1464,500,239,517,1,3,107,142,561694,0
561727,1580,-2423,873,72,103,-846,4592,-889,-16,-472,-2088,35314,-78,34,127,0,0,1590,-637,0,1464,500,239,527,1,3,107,142,561694,0
561737,1669,-2627,848,-222,76,-142,4202,-832,125,-382,-1776,35316,-85,35,127,0,0,1551,-384,0,1464,500,239,537,1,3,107,142,561694,0
561747,1739,-2842,813,-365,56,304,3858,-720,167,-306,-1384,35327,-75,35,127,0,0,1535,-120,0,1464,500,239,547,1,3,107,142,561772,0
561757,1217,-3442,868,-445,-64,966,3572,-574,113,-179,-760,35327,-82,35,127,0,0,1549,131,0,1464,500,239,557,1,3,107,142,561772,0
561767,1582,-3999,924,-617,-395,1537,3369,-386,272,-14,96,35329,-85,35,127,0,0,1608,659,0,1464,500,239,567,1,3,107,142,561772,0
561777,952,-4482,1066,-744,-857,2392,3409,295,616,825,936,35325,-93,35,127,0,0,1718,1164,0,1464,500,239,577,1,3,107,142,561772,0
561787,575,-4554,908,-898,-1075,2750,3639,612,861,944,2088,35319,-86,35,127,0,0,1891,1768,0,1464,500,239,587,1,3,107,142,561772,0
561797,-341,-4558,309,-856,-1283,3201,4055,1052,691,1180,3352,35308,-63,35,127,0,0,2135,2482,0,1464,500,239,597,1,3,107,142,561788,0
561807,-654,-4340,184,-766,-1553,3296,4687,1547,779,1256,4528,35298,-37,35,127,0,0,2419,2845,0,1464,500,239,607,1,3,107,142,561788,0
561817,-1283,-3981,34,-717,-1604,3320,5545,2044,846,1209,5688,35290,-4,35,127,0,0,2742,3218,0,1464,500,239,617,1,3,107,142,561788,0
561827,-1655,-3692,370,-470,-1384,2971,6640,2564,884,1136,6760,35294,51,35,127,0,0,3087,3449,0,1464,500,239,627,1,3,107,142,561803,0
561837,-1707,-3907,405,151,-1897,2025,7941,2963,863,1128,7864,35285,117,35,127,0,0,3454,3680,0,1464,500,239,637,1,3,107,142,561803,0
561847,-2520,-4356,549,184,-2292,1431,9407,3327,703,1066,8432,35268,146,35,127,0,0,3796,3416,0,1464,500,239,647,1,3,107,142,561803,0
561857,-2103,-4398,1260,106,-2782,292,11009,3603,575,926,9056,35255,150,35,127,0,0,4157,3570,0,1464,500,239,657,1,3,107,142,561850,0
561867,-2190,-4949,1312,4,-3031,-524,12654,3603,351,692,9176,35248,144,35,127,0,0,4480,3208,0,1464,500,239,667,1,3,107,142,561850,0
561877,394,-4637,920,-141,-2859,-2185,14351,3827,162,624,9120,35250,129,34,127,0,0,4776,2944,0,1464,500,239,677,1,3,107,142,561850,0
561887,1428,-5245,113,-464,-2102,-4663,16116,3813,265,107,7320,35261,77,35,127,0,0,4864,626,0,1464,500,239,687,1,3,107,142,561850,0
561897,2677,-6255,1370,416,-4130,-5226,17616,3063,-370,-667,4936,35288,-40,35,127,0,0,4913,417,0,1464,500,239,697,1,3,107,142,561881,0
561907,1232,-6211,1037,-34,-3622,-5822,18726,2136,-1275,-1125,2272,35334,-153,35,127,0,0,4847,-758,0,1464,500,239,707,1,3,107,142,561881,0
561917,395,-4735,1590,165,-3605,-7175,19351,1052,-1682,-1192,-64,35362,-209,35,127,0,0,4724,-1274,0,1464,500,239,717,0,3,107,142,561881,0
561927,1110,-4000,803,-7,-3862,-7500,19332,-465,-2168,-1878,-1552,35361,-157,35,127,0,0,4583,-1461,0,1464,500,239,727,0,3,107,142,561897,0
561937,1291,-3750,380,-328,-4026,-6724,18989,-889,-1919,-830,-2344,35337,-94,35,127,0,0,4462,-1120,0,1464,500,239,737,0,3,107,142,561912,0
561947,925,-3446,165,-407,-3748,-6552,18525,-1061,-824,-507,-2488,35322,-47,35,127,0,0,4348,-1131,0,1464,500,239,747,0,3,107,142,561912,0
561958,473,-2812,313,-388,-3049,-6660,17966,-1140,-280,-526,-2808,35321,-41,35,127,0,0,4202,-1378,0,1464,500,239,758,0,3,107,142,561928,0
561968,630,-2438,270,-387,-2594,-6565,17405,-1269,-163,-618,-3224,35317,-20,35,127,0,0,4056,-1549,0,1464,500,239,768,0,3,107,142,561928,0
561978,700,-1973,288,-348,-1841,-5946,16785,-1417,-218,-613,-3560,35305,-14,35,127,0,0,3899,-1560,0,1464,500,239,778,0,3,107,142,562022,0
561988,430,-1374,163,-266,-1376,-5456,16086,-1588,-271,-633,-3896,35301,-30,35,127,0,0,3736,-1576,0,1464,500,239,788,0,3,107,142,562022,0
561998,390,-767,30,-116,-751,-4948,15314,-1743,-289,-585,-4208,35298,-43,35,127,0,0,3556,-1807,0,1464,500,239,798,0,3,107,142,562022,0
562008,436,-262,-120,74,-406,-4623,14484,-1869,-254,-639,-4544,35298,-40,35,127,0,0,3354,-2092,0,1464,500,239,808,0,3,107,142,562022,0
562018,371,300,-215,194,-100,-3796,13605,-1970,-213,-694,-5040,35295,-21,35,127,0,0,3135,-2241,0,1464,500,239,818,0,3,107,142,562022,0
562028,239,565,-248,329,122,-3127,12672,-2080,-194,-697,-5336,35290,-31,35,127,0,0,2913,-2186,0,1464,500,239,828,0,3,107,142,562037,0
562038,-61,752,-272,381,448,-2070,11693,-2174,-184,-542,-5424,35293,-20,35,127,0,0,2703,-2120,0,1464,500,239,838,0,3,107,142,562037,0
562048,-250,535,-90,472,640,-1253,10681,-2226,-149,-408,-5224,35291,-3,35,127,0,0,2521,-1884,0,1464,500,239,848,0,3,107,142,562037,0
562058,-573,388,-48,470,1057,-77,9696,-2126,-16,-278,-4808,35291,-4,35,127,0,0,2360,-1527,0,1464,500,239,858,0,3,107,142,562037,0
562068,-570,381,104,495,1536,526,8789,-1935,201,-165,-4192,35296,-29,35,127,0,0,2233,-1296,0,1464,500,239,868,0,3,107,142,562037,0
562078,-707,388,-37,605,2237,1628,7970,-1752,321,-73,-3568,35316,-50,35,127,0,0,2131,-994,0,1464,500,239,878,0,3,107,142,562037,0
562088,-783,550,-93,623,2617,2268,7236,-1540,328,-33,-2864,35334,-45,35,127,0,0,2054,-692,0,1464,500,239,888,0,3,107,142,562069,0
562098,-628,740,-150,658,3211,3212,6639,-1215,422,-56,-2128,35340,-49,35,127,0,0,2013,-439,0,1464,500,239,898,0,3,107,142,562069,0
562108,-614,735,-191,648,3625,3788,6193,-889,551,-117,-1520,35332,-65,35,127,0,0,1983,-241,0,1464,500,239,908,0,3,107,142,562069,0
562118,-621,606,-131,595,4211,4681,5865,-663,515,-189,-1048,35330,-84,35,127,0,0,1979,5,0,1464,500,239,918,0,3,107,142,562100,0
562128,-810,468,-77,573,4617,5169,5627,-467,396,-213,-536,35335,-89,35,127,0,0,1991,197,0,1464,500,239,928,0,3,107,142,562100,0
562138,-522,547,-114,398,5380,5654,5496,-200,368,30,144,35337,-71,35,127,0,0,2040,499,0,1464,500,239,938,0,3,107,142,562116,0
562148,-448,564,-208,244,6010,5862,5557,234,576,521,584,35335,-69,35,127,0,0,2097,615,0,1464,500,239,948,0,3,107,142,562116,0
562158,245,817,-363,15,6709,5880,5734,425,596,396,928,35327,-73,35,127,0,0,2175,747,0,1464,500,239,958,0,3,107,142,562131,0
562168,1006,903,-261,-101,7131,5613,5956,510,296,441,1104,35327,-77,35,127,0,0,2240,488,0,1464,500,239,968,0,3,107,142,562131,0
562178,1938,788,-14,-422,7067,5149,6213,575,151,314,1048,35325,-70,35,127,0,0,2293,510,0,1464,500,239,978,0,3,107,142,562147,0
562188,2419,541,309,-595,6644,4823,6474,576,68,238,1000,35320,-51,35,127,0,0,2346,620,0,1464,500,239,988,0,3,107,142,562147,0
562199,3152,241,780,-722,5842,3942,6759,580,4,275,1152,35319,-76,35,127,0,0,2432,834,0,1464,500,239,999,0,3,107,142,562178,0
562209,3880,-41,1085,-587,5079,2449,7047,660,56,326,1424,35328,-80,35,127,0,0,2520,867,0,1464,500,239,1009,0,3,107,142,562178,0
562219,4341,-89,1172,-430,4521,1368,7371,729,120,332,1592,35323,-94,35,127,0,0,2608,845,0,1464,500,239,1019,0,3,107,142,562178,0
562229,4569,-2,1106,-149,3438,-42,7713,759,100,374,1704,35322,-71,35,127,0,0,2696,889,0,1464,500,239,1029,0,3,107,142,562209,0
562239,4482,304,985,-6,2526,-719,8063,774,45,512,1928,35309,-55,35,127,0,0,2805,1131,0,1464,500,239,1039,0,3,107,142,562209,0
562249,8279,-3669,2029,810,629,-3962,8459,932,97,577,2032,35313,-72,35,127,0,0,2827,-76,0,1600,593,240,1,1,3,187,79,562225,0
562259,3431,-1897,1531,1242,438,-4016,8826,704,65,-208,-344,35323,-86,35,127,0,0,2638,-1988,0,1600,593,240,11,1,3,187,79,562225,0
562269,886,2341,539,-326,-1119,-2710,8712,-542,-980,-1401,-1584,35322,-75,35,127,0,0,2502,-1296,0,1600,593,240,21,1,3,187,79,562241,0
562279,487,663,18,-283,-1816,-2690,8371,-835,-1402,-744,-2304,35314,-47,35,127,0,0,2344,-1593,0,1600,593,240,31,1,3,187,79,562256,0
562289,2544,-2634,-167,832,-1304,-3683,7897,-1144,-638,-910,-3256,35301,-27,35,127,0,0,2102,-2471,0,1600,593,240,41,1,3,187,79,562256,0
562299,2134,-2831,789,785,-911,-3429,7224,-1651,-633,-1288,-4632,35289,-6,35,127,0,0,1823,-2746,0,1600,593,240,51,1,3,187,79,562256,0
562309,2424,-2344,527,-480,-1699,-1611,6337,-2027,-816,-963,-5032,35287,29,35,127,0,0,1632,-1889,0,1600,593,240,61,1,3,187,79,562287,0
562319,1383,-3735,-230,-1861,-1475,-560,5414,-2009,-484,-477,-4768,35283,45,35,127,0,0,1500,-1252,0,1600,593,240,71,1,3,187,79,562287,0
562329,-212,-4448,-239,-2236,-289,73,4570,-1771,87,-202,-3960,35287,15,35,127,0,0,1428,-670,0,1600,593,240,81,1,3,187,79,562287,0
562339,718,-3442,-321,-1817,607,-123,3856,-1475,409,-80,-2880,35306,-45,35,127,0,0,1393,-351,0,1600,593,240,91,1,3,187,79,562397,0
562349,1159,-2747,1111,-1151,1084,-347,3282,-1175,522,-78,-2272,35319,-64,35,127,0,0,1342,-494,0,1600,593,240,101,1,3,187,79,562412,0
562359,2311,-1918,1239,-1108,489,166,2825,-939,493,-139,-1648,35319,-60,35,127,0,0,1329,-131,0,1600,593,240,111,1,3,187,79,562412,0
562369,2503,-999,1272,-1510,-349,1117,2481,-671,434,-136,-952,35318,-65,35,127,0,0,1333,87,0,1600,593,240,121,1,3,187,79,562412,0
562379,1895,-950,285,-1808,-1091,1697,2251,-437,438,-110,-232,35310,-82,35,127,0,0,1364,329,0,1600,593,240,131,1,3,187,79,562428,0
562389,829,-846,27,-1352,-814,1603,2193,98,530,655,336,35313,-95,35,127,0,0,1386,219,0,1600,593,240,141,1,3,187,79,562428,0
562399,712,-1060,-404,-1096,-130,1332,2303,248,702,288,176,35309,-95,35,127,0,0,1386,-32,0,1600,593,240,151,1,3,187,79,562428,0
562409,1310,-1108,-132,-979,437,1139,2370,51,233,-301,-216,35309,-107,35,127,0,0,1353,-340,0,1600,593,240,161,1,3,187,79,562428,0
562419,1783,-1470,101,-1004,497,1298,2290,-256,-385,-596,-544,35311,-116,35,127,0,0,1313,-406,0,1600,593,240,171,1,3,187,79,562428,0
562429,1794,-1969,442,-1045,146,1869,2142,-350,-428,-540,-664,35317,-112,35,127,0,0,1287,-274,0,1600,593,240,181,1,3,187,79,562428,0
562439,1579,-2244,604,-1011,-150,2250,1990,-330,-128,-462,-504,35317,-83,35,127,0,0,1281,-43,0,1600,593,240,191,1,3,187,79,562428,0
562450,729,-2396,436,-782,-339,2512,1854,-244,53,-306,-144,35316,-81,35,127,0,0,1294,159,0,1600,593,240,202,1,3,187,79,562428,0
562460,742,-2552,82,-717,-258,2608,1825,40,224,212,248,35322,-70,35,127,0,0,1320,373,0,1600,593,240,212,1,3,187,79,562428,0
562470,694,-2352,-124,-540,-117,2656,1924,260,439,419,504,35336,-69,35,127,0,0,1364,450,0,1600,593,240,222,1,3,187,79,562428,0
562480,584,-2272,-87,-438,-60,2648,2079,379,343,451,760,35347,-63,35,127,0,0,1419,466,0,1600,593,240,232,1,3,187,79,562475,0
562490,502,-2312,167,-299,-3,2628,2278,469,193,450,1040,35344,-64,35,127,0,0,1486,659,0,1600,593,240,242,1,3,187,79,562475,0
562500,488,-2288,294,-238,1,2580,2516,558,155,523,1320,35330,-68,35,127,0,0,1553,686,0,1600,593,240,252,1,3,187,79,562475,0
562510,520,-2220,389,-140,-66,2532,2800,636,164,508,1568,35314,-72,35,127,0,0,1636,807,0,1600,593,240,262,1,3,187,79,562475,0
562520,509,-2144,364,-91,-114,2480,3124,734,151,561,1768,35300,-63,35,127,0,0,1718,834,0,1600,593,240,272,1,3,187,79,562490,0
562530,431,-2116,403,-74,-214,2348,3476,796,135,534,1920,35311,-48,35,127,0,0,1808,911,0,1600,593,240,282,1,3,187,79,562522,0
562540,303,-2123,457,-94,-232,2222,3855,851,113,531,2048,35301,-31,35,127,0,0,1890,851,0,1600,593,240,292,1,3,187,79,562522,0
562550,155,-2113,515,-149,-187,1960,4249,878,89,432,2064,35300,-28,35,127,0,0,1986,922,0,1600,593,240,302,1,3,187,79,562522,0
562560,177,-2057,497,-166,-136,1759,4648,878,33,424,2112,35297,-64,35,127,0,0,2063,873,0,1600,593,240,312,1,3,187,79,562522,0
562570,303,-1901,431,-172,-114,1453,5051,884,17,328,2008,35306,-77,35,127,0,0,2143,758,0,1600,593,240,322,1,3,187,79,562553,0
562580,337,-1791,385,-158,-162,1249,5447,866,-5,317,1920,35315,-78,35,127,0,0,2213,681,0,1600,593,240,332,1,3,187,79,562553,0
562590,358,-1760,310,-105,-245,944,5827,809,-33,249,1624,35311,-74,35,127,0,0,2266,538,0,1600,593,240,342,1,3,187,79,562553,0
562600,284,-1722,282,-50,-260,709,6175,742,-97,217,1360,35311,-80,35,127,0,0,2311,411,0,1600,593,240,352,1,3,187,79,562569,0
562610,190,-1680,238,23,-248,341,6484,659,-131,188,1056,35306,-66,35,127,0,0,2342,318,0,1600,593,240,362,1,3,187,79,562600,0
562620,145,-1686,264,73,-231,70,6751,558,-150,127,672,35315,-64,35,127,0,0,2356,164,0,1600,593,240,372,1,3,187,79,562600,0
562630,164,-1631,284,150,-100,-340,6974,445,-166,53,256,35313,-75,35,127,0,0,2357,-10,0,1600,593,240,382,1,3,187,79,562600,0
562640,466,-1563,199,139,-34,-498,7101,230,-253,-234,-56,35310,-97,35,127,0,0,2352,-65,0,1600,593,240,392,1,3,187,79,562600,0
562650,659,-1237,-43,228,105,-776,7098,-93,-469,-380,-248,35306,-106,35,127,0,0,2330,-258,0,1600,593,240,402,1,3,187,79,562631,0
562660,797,-1439,-118,185,-16,-810,7024,-181,-410,-416,-352,35315,-98,35,127,0,0,2291,-357,0,1600,593,240,412,1,3,187,79,562631,0
562670,671,-1867,299,254,-138,-728,6921,-237,-163,-456,-440,35316,-86,35,127,0,0,2265,-302,0,1600,593,240,422,1,3,187,79,562631,0
562680,664,-1757,515,293,-65,-833,6804,-276,-83,-450,-464,35322,-91,35,127,0,0,2226,-379,0,1600,593,240,432,1,3,187,79,562662,0
562690,781,-1823,614,252,43,-938,6678,-289,-49,-507,-600,35313,-92,35,127,0,0,2189,-422,0,1600,593,240,442,1,3,187,79,562662,0
562700,992,-1983,535,173,96,-887,6530,-345,-61,-538,-744,35312,-97,35,127,0,0,2134,-483,0,1600,593,240,452,1,3,187,79,562725,0
562711,1014,-2230,465,35,-137,-549,6344,-368,-83,-520,-808,35306,-74,35,127,0,0,2093,-351,0,1600,593,240,463,1,3,187,79,562725,0
562721,721,-2565,811,-40,-216,-301,6170,-384,-37,-448,-672,35301,-65,35,127,0,0,2076,-175,0,1600,593,240,473,1,3,187,79,562725,0
562731,557,-2699,978,-195,-199,-193,6007,-355,12,-385,-424,35300,-62,35,127,0,0,2072,0,0,1600,593,240,483,1,3,187,79,562725,0
562741,610,-2755,825,-409,-14,-37,5881,-249,119,-222,-120,35302,-72,35,127,0,0,2080,98,0,1600,593,240,493,1,3,187,79,562725,0
562751,1145,-2805,567,-535,31,196,5833,-16,192,230,176,35299,-78,35,127,0,0,2111,318,0,1600,593,240,503,1,3,187,79,562725,0
562761,1318,-2882,555,-694,-390,947,5905,208,355,477,608,35301,-90,35,127,0,0,2184,780,0,1600,593,240,513,1,3,187,79,562725,0
562771,1085,-3026,713,-731,-672,1430,6065,413,402,538,1064,35310,-92,35,127,0,0,2285,1010,0,1600,593,240,523,1,3,187,79,562740,0
562781,584,-3313,571,-800,-863,1844,6310,602,336,643,1656,35310,-92,35,127,0,0,2414,1351,0,1600,593,240,533,1,3,187,79,562772,0
562791,299,-3669,502,-782,-895,1965,6662,850,364,783,2384,35307,-60,35,127,0,0,2572,1604,0,1600,593,240,543,1,3,187,79,562772,0
562801,-327,-4031,519,-616,-1074,2328,7146,1149,465,773,3048,35302,-34,35,127,0,0,2766,1955,0,1600,593,240,553,1,3,187,79,562787,0
562811,-339,-3839,814,-486,-1496,2355,7757,1441,497,956,3952,35295,-19,35,127,0,0,2999,2373,0,1600,593,240,563,1,3,187,79,562787,0
562821,-881,-3611,914,-198,-2181,2127,8519,1788,528,1260,5032,35277,2,35,127,0,0,3273,2768,0,1600,593,240,573,1,3,187,79,562787,0
562831,-1079,-3699,685,-68,-2568,1893,9474,2240,655,1242,6064,35277,47,35,127,0,0,3552,2779,0,1600,593,240,583,1,3,187,79,562787,0
562841,-2236,-3438,658,-72,-3008,1311,10613,2605,738,973,6568,35263,100,35,127,0,0,3834,2801,0,1600,593,240,593,1,3,187,79,562819,0
562851,-2100,-3794,483,311,-3598,583,11858,2784,561,928,7248,35262,117,35,127,0,0,4124,2900,0,1600,593,240,603,1,3,187,79,562819,0
562861,-1164,-4209,19,684,-4016,-684,13168,2926,315,783,7600,35254,109,35,127,0,0,4418,2944,0,1600,593,240,613,1,3,187,79,562834,0
562871,144,-4483,337,597,-3591,-2153,14595,3228,342,567,7360,35258,133,35,127,0,0,4627,1988,0,1600,593,240,623,1,3,187,79,562834,0
562881,-109,-5053,1143,547,-4981,-4429,16023,3049,261,13,5576,35258,123,35,127,0,0,4699,637,0,1600,593,240,633,1,3,187,79,562863,0
562891,2007,-5977,2207,560,-5598,-4565,17214,2428,-457,-334,4152,35282,66,35,127,0,0,4785,889,0,1600,593,240,643,1,3,187,79,562863,0
562901,1505,-7424,1105,99,-3656,-6390,18160,1921,-951,-435,2224,35308,-27,35,127,0,0,4739,-582,0,1600,593,240,653,1,3,187,79,562863,0
562911,146,-7032,1450,678,-3566,-7768,18768,1054,-1100,-1102,-184,35331,-91,35,127,0,0,4607,-1351,0,1600,593,240,663,0,3,187,79,562894,0
562921,640,-5207,645,833,-2225,-8893,18730,-505,-1895,-1843,-1928,35345,-103,35,127,0,0,4418,-1889,0,1600,593,240,673,0,3,187,79,562894,0
562931,1166,-4515,792,827,-2097,-8668,18310,-1087,-2032,-1132,-3056,35328,-78,35,127,0,0,4247,-1658,0,1600,593,240,683,0,3,187,79,562910,0
562941,1478,-3596,395,588,-1424,-8380,17712,-1372,-1036,-669,-3384,35315,-42,35,127,0,0,4102,-1439,0,1600,593,240,693,0,3,187,79,562910,0
562952,1177,-3060,337,540,-915,-8438,16989,-1481,-398,-598,-3712,35295,-7,35,127,0,0,3916,-1724,0,1600,593,240,704,0,3,187,79,562926,0
562962,1285,-2371,326,619,-300,-8388,16262,-1664,-225,-760,-4384,35297,10,35,127,0,0,3706,-2175,0,1600,593,240,714,0,3,187,79,562941,0
562972,1445,-2035,426,592,-167,-8027,15393,-2022,-401,-884,-5072,35292,15,35,127,0,0,3474,-2307,0,1600,593,240,724,0,3,187,79,562941,0
562982,1292,-1400,478,572,-178,-7317,14395,-2247,-536,-755,-5624,35291,34,35,127,0,0,3220,-2609,0,1600,593,240,734,0,3,187,79,562973,0
562992,1084,-1037,472,482,-503,-6650,13319,-2410,-392,-753,-6120,35281,66,35,127,0,0,2963,-2581,0,1600,593,240,744,0,3,187,79,562973,0
563002,738,-677,411,561,-1284,-5441,12206,-2461,-223,-549,-6120,35280,60,35,127,0,0,2738,-2158,0,1600,593,240,754,0,3,187,79,562973,0
563012,570,-357,308,387,-1905,-4494,11079,-2481,-92,-313,-5648,35279,61,35,127,0,0,2557,-1757,0,1600,593,240,764,0,3,187,79,562973,0
563022,310,-58,203,333,-2380,-3089,9998,-2317,53,-145,-5000,35286,35,35,127,0,0,2401,-1516,0,1600,593,240,774,0,3,187,79,563019,0
563032,29,69,59,282,-2520,-2141,9024,-2064,287,-81,-4352,35297,-2,35,127,0,0,2258,-1406,0,1600,593,240,784,0,3,187,79,563019,0
563042,-612,327,113,241,-2557,-572,8154,-1852,415,-67,-3856,35301,-35,35,127,0,0,2126,-1312,0,1600,593,240,794,0,3,187,79,563019,0
563052,-909,579,161,263,-2563,546,7362,-1683,356,-59,-3336,35303,-47,35,127,0,0,2017,-1065,0,1600,593,240,804,0,3,187,79,563035,0
563062,-1281,1006,67,252,-2578,2262,6682,-1402,357,-110,-2792,35302,-63,35,127,0,0,1939,-747,0,1600,593,240,814,0,3,187,79,563035,0
563072,-1640,1120,-216,393,-2376,3191,6128,-1147,458,-228,-2448,35307,-62,35,127,0,0,1854,-796,0,1600,593,240,824,0,3,187,79,563035,0
563082,-2017,1104,-325,607,-1955,4682,5651,-1018,394,-346,-2216,35313,-60,35,127,0,0,1780,-703,0,1600,593,240,834,0,3,187,79,563066,0
563092,-2285,1188,-391,685,-1559,5641,5228,-906,244,-367,-1992,35319,-59,35,127,0,0,1725,-516,0,1600,593,240,844,0,3,187,79,563066,0
563102,-2474,1040,-486,758,-208,6846,4854,-782,187,-337,-1656,35322,-52,35,127,0,0,1696,-280,0,1600,593,240,854,0,3,187,79,563066,0
563112,-2537,906,-759,790,1223,7389,4546,-637,216,-269,-1240,35322,-43,35,127,0,0,1679,-230,0,1600,593,240,864,0,3,187,79,563082,0
563122,-2321,604,-1052,784,3741,7861,4301,-484,248,-305,-888,35317,-45,35,127,0,0,1671,-82,0,1600,593,240,874,0,3,187,79,563098,0
563132,-1727,486,-968,629,5379,7919,4119,-370,239,-343,-528,35316,-49,35,127,0,0,1675,27,0,1600,593,240,884,0,3,187,79,563098,0
563142,-490,231,-679,228,7950,7528,3998,-233,233,-352,-280,35317,-49,35,127,0,0,1672,-21,0,1600,593,240,894,0,3,187,79,563144,0
563152,-115,-161,-412,88,8420,6907,3930,-120,221,-386,-240,35330,-52,35,127,0,0,1661,-115,0,1600,593,240,904,0,3,187,79,563144,0
563162,2246,-479,191,-102,8314,6290,3897,-68,166,-421,-80,35323,-46,35,127,0,0,1679,197,0,1600,593,240,914,0,3,187,79,563144,0
563172,3154,-332,926,-386,7549,5852,3911,115,151,361,424,35327,-50,35,127,0,0,1736,576,0,1600,593,240,924,0,3,187,79,563144,0
563182,3723,-352,1393,-638,5954,4821,4050,366,346,456,912,35325,-53,35,127,0,0,1816,758,0,1600,593,240,934,0,3,187,79,563160,0
563193,3915,-552,1194,-683,4519,3647,4294,524,373,472,1352,35326,-65,35,127,0,0,1918,944,0,1600,593,240,945,0,3,187,79,563160,0
563203,3969,-305,803,-614,4040,2812,4579,665,252,518,1736,35335,-46,35,127,0,0,2021,1043,0,1600,593,240,955,0,3,187,79,563176,0
563213,3813,19,369,-460,3879,1276,4925,802,229,454,1872,35343,-27,35,127,0,0,2098,802,0,1600,593,240,965,0,3,187,79,563176,0
563223,3561,158,353,-258,3768,366,5293,815,167,316,1752,35333,-23,35,127,0,0,2164,626,0,1600,593,240,975,0,3,187,79,563191,0
563233,3104,111,607,-217,3515,-492,5657,792,29,283,1728,35331,-35,35,127,0,0,2252,867,0,1600,593,240,985,0,3,187,79,563207,0
563243,2709,322,800,-366,3347,-743,6018,806,-19,441,2080,35325,-34,35,127,0,0,2384,1362,0,1600,593,240,995,0,3,187,79,563207,0
563253,8880,-4711,1982,-24,2161,-4424,6458,1062,134,543,2496,35325,-38,35,127,0,0,2438,263,0,1600,593,240,1005,0,3,187,79,563222,0
563263,2312,-2703,1577,918,2834,-5027,6926,931,245,-428,-440,35327,-36,35,127,0,0,2203,-2482,0,1452,447,241,7,1,3,212,96,563254,0
563273,2914,2049,-113,-958,1263,-3577,6811,-602,-1062,-1778,-1920,35313,-38,35,127,0,0,2036,-1658,0,1452,447,241,17,1,3,212,96,563254,0
563283,1738,711,289,-970,-1753,-3493,6406,-1034,-1727,-1229,-3176,35305,-37,35,127,0,0,1806,-2296,0,1452,447,241,27,1,3,212,96,563254,0
563293,2490,-5853,-960,-506,-819,-2389,5784,-1503,-905,-1205,-4232,35300,-18,35,127,0,0,1588,-2186,0,1452,447,241,37,1,3,212,96,563254,0
563303,883,-3602,1814,-403,-1113,-1182,5009,-1753,-726,-785,-4272,35293,36,35,127,0,0,1469,-1098,0,1452,447,241,47,1,3,212,96,563285,0
563313,590,-3383,983,-1723,-972,-1024,4254,-1605,-258,-283,-3672,35284,59,34,127,0,0,1388,-769,0,1452,447,241,57,1,3,212,96,563285,0
563323,379,-4469,192,-1868,-312,-596,3586,-1413,220,-195,-3040,35288,44,35,127,0,0,1342,-417,0,1452,447,241,67,1,3,212,96,563301,0
563333,1025,-1815,-1177,-1382,12,-173,3017,-1176,352,-68,-1928,35297,6,35,127,0,0,1344,10,0,1452,447,241,77,1,3,212,96,563301,0
563343,1394,-1265,-1028,-981,90,-152,2597,-812,467,9,-952,35308,-34,35,127,0,0,1351,65,0,1452,447,241,87,1,3,212,96,563301,0
563353,1685,-1094,-30,-674,359,183,2335,-493,600,-71,-400,35315,-53,35,127,0,0,1353,43,0,1452,447,241,97,1,3,212,96,563332,0
563363,1825,-603,422,-734,262,384,2197,-218,531,27,-32,35324,-52,35,127,0,0,1355,-10,0,1452,447,241,107,1,3,212,96,563332,0
563373,2003,-1225,479,-782,-12,769,2194,74,506,-58,-8,35319,-63,35,127,0,0,1351,-21,0,1452,447,241,117,1,3,212,96,563332,0
563383,1838,-1538,336,-624,-107,1023,2189,-41,269,-180,-72,35321,-54,35,127,0,0,1351,-10,0,1452,447,241,127,1,3,212,96,563363,0
563393,1294,-1944,192,-466,-49,1248,2190,1,-22,-251,-96,35312,-39,35,127,0,0,1351,-10,0,1452,447,241,137,1,3,212,96,563363,0
563403,1111,-2170,240,-425,163,1319,2189,9,14,-245,-16,35316,-56,35,127,0,0,1351,0,0,1452,447,241,147,1,3,212,96,563379,0
563413,1200,-2309,289,-443,315,1594,2191,0,-2,-126,32,35318,-52,35,127,0,0,1366,164,0,1452,447,241,157,1,3,212,96,563379,0
563423,1395,-2075,503,-461,301,1840,2219,83,53,403,312,35316,-73,35,127,0,0,1395,307,0,1452,447,241,167,1,3,212,96,563410,0
563433,1470,-1905,664,-503,139,2161,2312,250,172,570,584,35324,-76,35,127,0,0,1439,406,0,1452,447,241,177,1,3,212,96,563410,0
563443,1410,-1864,702,-555,-33,2438,2468,377,254,466,816,35319,-75,35,127,0,0,1491,538,0,1452,447,241,187,1,3,212,96,563426,0
563454,1246,-1687,551,-592,-147,2697,2691,482,197,453,1048,35307,-45,35,127,0,0,1562,664,0,1452,447,241,198,1,3,212,96,563457,0
563464,1158,-1749,350,-605,-110,2797,2923,534,138,557,1288,35304,-53,35,127,0,0,1628,653,0,1452,447,241,208,1,3,212,96,563457,0
563474,1080,-1851,200,-532,-66,2958,3195,611,129,519,1472,35304,-60,35,127,0,0,1698,741,0,1452,447,241,218,1,3,212,96,563457,0
563484,1015,-1817,205,-458,-41,3061,3495,688,132,541,1616,35302,-61,35,127,0,0,1774,730,0,1452,447,241,228,1,3,212,96,563457,0
563494,913,-1942,276,-395,-49,3194,3821,729,105,501,1760,35303,-54,35,127,0,0,1856,807,0,1452,447,241,238,1,3,212,96,563457,0
563504,873,-2043,299,-331,-99,3310,4168,780,86,488,1880,35313,-47,35,127,0,0,1945,906,0,1452,447,241,248,1,3,212,96,563472,0
563514,690,-2076,213,-245,-204,3429,4535,821,81,502,2032,35321,-44,35,127,0,0,2043,999,0,1452,447,241,258,1,3,212,96,563519,0
563524,489,-2107,183,-200,-255,3447,4926,882,88,487,2240,35320,-35,35,127,0,0,2147,1093,0,1452,447,241,268,1,3,212,96,563519,0
563534,250,-2213,224,-97,-223,3326,5357,973,119,512,2368,35311,-30,35,127,0,0,2258,1016,0,1452,447,241,278,1,3,212,96,563519,0
563544,126,-2251,291,-52,-229,3216,5817,1022,133,421,2392,35298,-42,35,127,0,0,2364,1087,0,1452,447,241,288,1,3,212,96,563535,0
563554,-6,-2146,376,-22,-231,3001,6294,1059,92,413,2416,35296,-49,35,127,0,0,2468,1076,0,1452,447,241,298,1,3,212,96,563535,0
563564,19,-2095,396,-20,-238,2815,6781,1079,51,371,2432,35302,-55,35,127,0,0,2574,1027,0,1452,447,241,308,1,3,212,96,563535,0
563574,98,-1866,350,46,-234,2481,7279,1092,38,324,2376,35314,-43,35,127,0,0,2678,1010,0,1452,447,241,318,1,3,212,96,563535,0
563584,171,-1710,247,76,-206,2233,7756,1030,-18,322,2256,35323,-26,35,127,0,0,2758,884,0,1452,447,241,328,1,3,212,96,563566,0
563594,203,-1641,229,83,-222,1899,8195,941,-116,396,2144,35319,-27,35,127,0,0,2836,758,0,1452,447,241,338,1,3,212,96,563566,0
563604,155,-1591,240,111,-222,1671,8601,882,-130,391,1888,35314,-37,35,127,0,0,2899,631,0,1452,447,241,348,1,3,212,96,563566,0
563614,120,-1593,280,108,-160,1287,8972,798,-130,370,1632,35316,-30,35,127,0,0,2943,450,0,1452,447,241,358,1,3,212,96,563597,0
563624,133,-1627,309,101,-67,995,9303,693,-142,266,1336,35313,-54,35,127,0,0,2966,269,0,1452,447,241,368,1,3,212,96,563597,0
563634,130,-1618,420,62,39,554,9556,583,-175,215,832,35308,-57,35,127,0,0,2979,76,0,1452,447,241,378,1,3,212,96,563597,0
563644,62,-1721,502,29,3,360,9780,445,-222,183,408,35301,-78,35,127,0,0,2975,-16,0,1452,447,241,388,1,3,212,96,563613,0
563654,105,-1725,558,13,19,8,9933,273,-261,-47,-32,35302,-80,35,127,0,0,2955,-164,0,1452,447,241,398,1,3,212,96,563629,0
563664,320,-1822,458,-22,-65,-186,9931,-132,-456,-467,-280,35311,-80,35,127,0,0,2925,-274,0,1452,447,241,408,1,3,212,96,563629,0
563674,172,-1855,366,-2,-178,-406,9830,-245,-498,-373,-432,35312,-57,35,127,0,0,2888,-379,0,1452,447,241,418,1,3,212,96,563675,0
563684,227,-1980,378,-19,-166,-560,9695,-315,-215,-367,-568,35315,-58,35,127,0,0,2846,-433,0,1452,447,241,428,1,3,212,96,563675,0
563694,121,-2029,439,-145,-102,-772,9530,-388,-123,-387,-680,35315,-59,35,127,0,0,2793,-477,0,1452,447,241,438,1,3,212,96,563691,0
563704,70,-2158,500,-248,15,-871,9352,-408,-85,-394,-840,35306,-52,35,127,0,0,2738,-532,0,1452,447,241,448,1,3,212,96,563691,0
563714,220,-2327,402,-278,126,-974,9153,-451,-67,-441,-960,35300,-59,35,127,0,0,2687,-516,0,1452,447,241,458,1,3,212,96,563691,0
563724,342,-2297,297,-269,126,-953,8939,-487,-70,-370,-1000,35302,-60,35,127,0,0,2640,-466,0,1452,447,241,468,1,3,212,96,563691,0
563735,542,-2593,368,-286,9,-764,8692,-485,-44,-320,-880,35310,-66,35,127,0,0,2601,-318,0,1452,447,241,479,1,3,212,96,563691,0
563745,491,-2741,577,-332,-73,-457,8476,-453,26,-243,-640,35319,-62,35,127,0,0,2586,-131,0,1452,447,241,489,1,3,212,96,563722,0
563755,599,-2700,538,-371,-71,-324,8286,-386,44,-169,-288,35321,-59,35,127,0,0,2590,43,0,1452,447,241,499,1,3,212,96,563738,0
563765,822,-2961,276,-399,-148,80,8153,-220,159,264,176,35314,-76,35,127,0,0,2616,307,0,1452,447,241,509,1,3,212,96,563738,0
563775,659,-2951,166,-389,-282,556,8193,184,441,616,496,35306,-85,35,127,0,0,2671,560,0,1452,447,241,519,1,3,212,96,563738,0
563785,345,-3129,355,-544,-454,1161,8328,333,518,632,1024,35316,-87,35,127,0,0,2766,1010,0,1452,447,241,529,1,3,212,96,563754,0
563795,29,-3285,569,-511,-507,1378,8549,554,332,781,1712,35319,-68,35,127,0,0,2891,1263,0,1452,447,241,539,1,3,212,96,563769,0
563805,-260,-3431,582,-559,-583,1569,8888,837,390,954,2432,35321,-41,35,127,0,0,3054,1582,0,1452,447,241,549,1,3,212,96,563769,0
563815,-213,-3504,612,-445,-866,1570,9367,1156,500,979,3296,35312,4,35,127,0,0,3249,2010,0,1452,447,241,559,1,3,212,96,563785,0
563825,-1014,-3638,695,-185,-1755,1673,10009,1529,581,1049,4200,35308,21,35,127,0,0,3465,2175,0,1452,447,241,569,1,3,212,96,563816,0
563835,-986,-3608,816,-55,-2412,1481,10814,1892,627,1100,5112,35307,39,35,127,0,0,3715,2471,0,1452,447,241,579,1,3,212,96,563832,0
563845,-2221,-3584,583,-202,-2096,664,11772,2188,615,1009,5784,35302,38,35,127,0,0,3952,2351,0,1452,447,241,589,1,3,212,96,563832,0
563855,-2728,-3810,981,-198,-2341,142,12819,2346,469,762,6136,35295,51,35,127,0,0,4194,2471,0,1452,447,241,599,1,3,212,96,563832,0
563865,-2090,-4074,488,-12,-2504,-1459,13948,2558,325,683,6288,35291,50,35,127,0,0,4420,2252,0,1452,447,241,609,1,3,212,96,563832,0
563875,-911,-3806,153,-40,-2398,-2706,15152,2665,311,419,5848,35302,41,35,127,0,0,4581,1516,0,1452,447,241,619,1,3,212,96,563832,0
563885,889,-4014,70,-48,-1696,-4466,16292,2416,32,99,4896,35325,10,35,127,0,0,4684,933,0,1452,447,241,629,1,3,212,96,563894,0
563895,774,-4770,496,53,-2878,-5447,17269,2020,-437,-97,3464,35343,-33,35,127,0,0,4730,461,0,1452,447,241,639,1,3,212,96,563894,0
563905,1299,-6443,768,353,-1470,-6285,18058,1602,-678,-189,2208,35351,-70,35,127,0,0,4726,-175,0,1452,447,241,649,1,3,212,96,563894,0
563915,59,-6521,1211,490,-718,-7119,18624,1071,-778,-467,376,35345,-98,35,127,0,0,4649,-878,0,1452,447,241,659,0,3,212,96,563894,0
563925,593,-5172,1163,525,33,-7995,18756,-214,-1235,-1987,-952,35338,-110,35,127,0,0,4543,-1065,0,1452,447,241,669,0,3,212,96,563894,0
563935,652,-4527,1041,273,165,-8377,18521,-610,-1635,-706,-1672,35341,-115,35,127,0,0,4423,-1274,0,1452,447,241,679,0,3,212,96,563910,0
563945,1447,-4126,552,412,332,-8316,18158,-896,-920,-725,-2344,35341,-63,35,127,0,0,4289,-1351,0,1452,447,241,689,0,3,212,96,563910,0
563955,1486,-3563,523,480,66,-8081,17686,-1100,-463,-669,-2848,35340,-33,35,127,0,0,4159,-1307,0,1452,447,241,699,0,3,212,96,563925,0
563966,1463,-2792,721,563,-399,-7920,17083,-1251,-339,-560,-3112,35335,-33,35,127,0,0,4003,-1444,0,1452,447,241,710,0,3,212,96,563957,0
563976,1589,-2369,715,556,-826,-7725,16474,-1389,-241,-625,-3520,35333,-53,35,127,0,0,3837,-1680,0,1452,447,241,720,0,3,212,96,563957,0
563986,1809,-1906,483,472,-1601,-7133,15778,-1593,-276,-688,-3984,35330,-54,35,127,0,0,3667,-1763,0,1452,447,241,730,0,3,212,96,563972,0
563996,1781,-1704,421,427,-2197,-6724,14986,-1803,-352,-657,-4392,35324,-39,35,127,0,0,3474,-1889,0,1452,447,241,740,0,3,212,96,563972,0
564006,1826,-4664,2565,1310,-5592,-5436,14125,-1948,-319,-670,-4920,35316,-28,35,127,0,0,3258,-2197,0,1452,447,241,750,0,3,212,96,563972,0
564016,4426,2411,-608,-666,-5912,-4497,13214,-1943,-242,-252,-4184,35324,-38,35,127,0,0,3142,-1362,0,1452,447,241,760,0,3,212,96,564004,0
564026,620,-1015,-677,-1329,-5656,-4188,12385,-1844,89,-693,-5312,35330,-24,35,127,0,0,2833,-3037,0,1452,447,241,770,0,3,212,96,564004,0
564036,-229,-1237,-706,-241,-5404,-3194,11403,-2284,-125,-1005,-5808,35325,15,35,127,0,0,2590,-2367,0,1452,447,241,780,0,3,212,96,564004,0
564046,-885,-1202,141,565,-5439,-2217,10316,-2400,-529,-474,-5536,35312,11,35,127,0,0,2406,-1829,0,1452,447,241,790,0,3,212,96,564035,0
564056,-1108,-524,1105,560,-4882,-1422,9270,-2243,-122,-168,-4768,35311,2,35,127,0,0,2277,-1246,0,1452,447,241,800,0,3,212,96,564035,0
564066,-748,97,304,261,-4079,-544,8338,-1973,301,-26,-3936,35327,-60,35,127,0,0,2164,-1153,0,1452,447,241,810,0,3,212,96,564035,0
564076,-590,348,-371,258,-3269,263,7514,-1747,423,12,-3360,35338,-79,35,127,0,0,2047,-1148,0,1452,447,241,820,0,3,212,96,564035,0
564086,-1134,410,-1085,496,-1941,1275,6818,-1434,441,-104,-3016,35338,-97,35,127,0,0,1933,-1181,0,1452,447,241,830,0,3,212,96,564066,0
564096,-1373,185,-1064,844,-1071,1854,6230,-1246,468,-397,-2792,35333,-101,35,127,0,0,1839,-862,0,1452,447,241,840,0,3,212,96,564066,0
564106,-1474,42,-741,1346,359,2460,5704,-1128,323,-376,-2424,35334,-94,35,127,0,0,1769,-626,0,1452,447,241,850,0,3,212,96,564066,0
564116,-1387,218,-482,1386,1440,2727,5249,-961,248,-353,-2056,35332,-72,35,127,0,0,1727,-461,0,1452,447,241,860,0,3,212,96,564097,0
564126,-1151,292,-475,1308,2881,3176,4860,-815,265,-355,-1736,35328,-56,35,127,0,0,1686,-335,0,1452,447,241,870,0,3,212,96,564113,0
564136,-887,352,-520,1258,3532,3610,4533,-689,247,-328,-1368,35329,-60,35,127,0,0,1671,-164,0,1452,447,241,880,0,3,212,96,564113,0
564146,-685,565,-347,1137,4313,4304,4269,-531,229,-266,-864,35336,-93,35,127,0,0,1673,43,0,1452,447,241,890,0,3,212,96,564113,0
564156,-588,525,-194,965,4764,4762,4082,-363,269,-252,-320,35349,-89,35,127,0,0,1691,225,0,1452,447,241,900,0,3,212,96,564175,0
564166,-246,429,218,616,5270,5222,4000,-83,337,148,168,35344,-80,35,127,0,0,1727,318,0,1452,447,241,910,0,3,212,96,564191,0
564176,140,363,259,422,5405,5491,4072,225,503,463,544,35349,-69,35,127,0,0,1778,565,0,1452,447,241,920,0,3,212,96,564191,0
