state_time,accelx,accely,accelz,gyrox,gyroy,gyroz,mot_ang,mot_vel,mot_acc,mot_cur,mot_volt,batt_volt,batt_curr,temperature,status_mn,status_ex,status_re,ank_ang,ank_vel,ank_torque,peak_ank_torque,step_energy,step_count,step_time,gait_state,movement,speed,incline,sys_time,eventFlags
224275,-59,-2072,211,-102,40,124,14263,11,-8,317,80,35435,3,34,127,0,0,3818,21,0,1146,41,87,11271,-4,0,42,0,224258,0
224285,-47,-2071,222,-101,32,123,14265,9,8,352,80,35431,-6,34,127,0,0,3816,-21,0,1146,41,87,11281,-4,0,42,0,224274,0
224295,-51,-2075,223,-96,41,117,14264,2,0,327,120,35423,-30,34,127,0,0,3816,0,0,1146,41,87,11291,-4,0,42,0,224274,0
224305,-48,-2077,217,-99,35,109,14263,-4,0,305,80,35440,-21,34,127,0,0,3816,0,0,1146,41,87,11301,-4,0,42,0,224289,0
224315,-45,-2082,222,-102,38,110,14264,1,3,320,80,35451,-5,34,127,0,0,3816,0,0,1146,41,87,11311,-4,0,42,0,224289,0
224325,-55,-2083,217,-99,34,109,14265,5,4,349,64,35450,14,34,127,0,0,3816,-32,0,1146,41,87,11321,-4,0,42,0,224305,0
224335,-56,-2081,217,-103,43,105,14264,-2,-4,304,88,35442,9,34,127,0,0,3816,-10,0,1146,41,87,11331,-4,0,42,0,224305,0
224345,-29,-2080,218,-99,29,101,14265,0,-1,319,72,35446,-2,34,127,0,0,3816,0,0,1146,41,87,11341,-4,0,42,0,224336,0
224355,-41,-2079,215,-102,26,105,14264,1,5,306,72,35450,-9,34,127,0,0,3816,10,0,1146,41,87,11351,-4,0,42,0,224336,0
224365,-53,-2082,210,-97,29,97,14264,-5,2,322,72,35449,-12,34,127,0,0,3816,-21,0,1146,41,87,11361,-4,0,42,0,224336,0
224375,-61,-2082,209,-97,34,98,14264,5,8,311,72,35448,-12,34,127,0,0,3816,0,0,1146,41,87,11371,-4,0,42,0,224352,0
224385,-49,-2080,217,-101,38,85,14264,0,-4,319,80,35448,-15,34,127,0,0,3816,0,0,1146,41,87,11381,-4,0,42,0,224367,0
224395,-36,-2077,212,-102,28,85,14265,6,5,305,72,35452,-16,34,127,0,0,3814,-32,0,1146,41,87,11391,-4,0,42,0,224367,0
224406,-67,-2070,215,-102,34,88,14263,-2,-2,267,56,35449,-12,34,127,0,0,3814,-21,0,1146,41,87,11402,-4,0,42,0,224383,0
224416,-34,-2081,220,-105,33,82,14263,0,3,250,80,35448,3,34,127,0,0,3813,-10,0,1146,41,87,11412,-4,0,42,0,224399,0
224426,-49,-2086,215,-106,31,83,14265,8,3,275,80,35453,-14,34,127,0,0,3816,-5,0,1146,41,87,11422,-4,0,42,0,224399,0
224436,-49,-2083,219,-107,39,81,14264,-4,0,274,56,35453,-26,34,127,0,0,3817,27,0,1146,41,87,11432,-4,0,42,0,224430,0
224446,-33,-2084,220,-110,34,81,14264,0,4,249,56,35456,-32,34,127,0,0,3814,10,0,1146,41,87,11442,-4,0,42,0,224430,0
224456,-42,-2078,214,-112,36,76,14263,6,0,212,56,35451,-20,34,127,0,0,3814,5,0,1146,41,87,11452,-4,0,42,0,224445,0
224466,-36,-2079,223,-115,34,76,14262,-8,-2,164,40,35441,-4,34,127,0,0,3812,21,0,1146,41,87,11462,-4,0,42,0,224445,0
224476,-54,-2073,233,-116,30,70,14261,0,2,148,32,35448,1,34,127,0,0,3812,16,0,1146,41,87,11472,-4,0,42,0,224461,0
224486,-49,-2076,221,-122,28,53,14260,-9,-1,155,40,35449,1,34,127,0,0,3808,-5,0,1146,41,87,11482,-4,0,42,0,224477,0
224496,-57,-2076,221,-120,35,45,14258,-12,-11,65,16,35450,1,34,127,0,0,3810,0,0,1146,41,87,11492,-4,0,42,0,224477,0
224506,-40,-2080,212,-124,39,26,14258,-1,-2,63,0,35442,-1,34,127,0,0,3807,-10,0,1146,41,87,11502,-4,0,42,0,224477,0
224516,-32,-2086,213,-120,32,19,14252,-9,-2,-4,-16,35436,-12,34,127,0,0,3805,-10,0,1146,41,87,11512,-4,0,42,0,224508,0
224526,-31,-2088,229,-127,31,16,14247,-30,-14,-86,-56,35448,-6,34,127,0,0,3804,0,0,1146,41,87,11522,-4,0,42,0,224508,0
224536,-50,-2086,232,-131,34,3,14239,-28,-16,-93,-56,35446,-5,34,127,0,0,3799,-54,0,1146,41,87,11532,-4,0,42,0,224508,0
224546,-29,-2091,210,-133,34,2,14212,-69,-35,-61,-32,35448,-15,34,127,0,0,3800,10,0,1146,41,87,11542,-4,0,42,0,224539,0
224556,-61,-2079,189,-132,34,3,14206,3,3,-52,-40,35453,-18,34,127,0,0,3794,0,0,1146,41,87,11552,-4,0,42,0,224539,0
224566,-14,-2073,184,-121,34,0,14205,-4,48,-167,-88,35455,-28,34,127,0,0,3790,-65,0,1146,41,87,11562,-4,0,42,0,224539,0
224576,-25,-2072,194,-118,34,-1,14197,-12,-6,-289,-72,35462,-27,34,127,0,0,3783,-43,0,1146,41,87,11572,-4,0,42,0,224555,0
224586,-16,-2081,199,-113,36,2,14196,-4,6,-346,-112,35453,-29,34,127,0,0,3782,-76,0,1146,41,87,11582,-4,0,42,0,224555,0
224596,-14,-2076,211,-116,29,9,14192,-12,7,-392,-128,35456,-39,34,127,0,0,3780,-76,0,1146,41,87,11592,-4,0,42,0,224648,0
224606,-10,-2076,202,-110,37,16,14186,-18,-10,-451,-168,35452,-45,34,127,0,0,3779,-65,0,1146,41,87,11602,-4,0,42,0,224648,0
224616,-6,-2078,199,-108,33,11,14176,-27,-15,-481,-168,35449,-45,34,127,0,0,3780,0,0,1146,41,87,11612,-4,0,42,0,224648,0
224626,-10,-2081,210,-102,31,18,14150,-79,-33,-387,-144,35445,-38,34,127,0,0,3774,-27,0,1146,41,87,11622,-4,0,42,0,224648,0
224636,-5,-2085,215,-102,44,15,14110,-78,-59,-222,-88,35438,-47,34,127,0,0,3769,-71,0,1146,41,87,11632,-4,0,42,0,224648,0
224646,16,-2084,215,-98,40,29,14080,-68,-3,-176,-72,35443,-36,34,127,0,0,3771,-32,0,1146,41,87,11642,-4,0,42,0,224664,0
224656,-13,-2077,210,-108,45,27,14064,5,42,-71,-40,35444,-29,34,127,0,0,3771,16,0,1146,41,87,11652,-4,0,42,0,224664,0
224666,27,-2074,211,-110,26,56,14063,-16,69,-182,-64,35446,-36,34,127,0,0,3769,54,0,1146,41,87,11662,-4,0,42,0,224664,0
224676,-24,-2078,198,-108,32,57,14064,0,17,-203,-64,35448,-18,34,127,0,0,3766,-10,0,1146,41,87,11672,-4,0,42,0,224664,0
224687,-14,-2074,197,-108,44,68,14061,-5,1,-253,-80,35450,-8,34,127,0,0,3763,-21,0,1146,41,87,11683,-4,0,42,0,224664,0
224697,14,-2086,203,-98,47,86,14060,5,-2,-273,-112,35460,4,34,127,0,0,3761,-32,0,1146,41,87,11693,-4,0,42,0,224664,0
224707,7,-2076,203,-102,39,88,14053,-16,-10,-283,-64,35461,8,34,127,0,0,3761,-10,0,1146,41,87,11703,-4,0,42,0,224711,0
224717,6,-2080,200,-99,32,104,14050,-14,0,-351,-104,35471,-7,34,127,0,0,3761,0,0,1146,41,87,11713,-4,0,42,0,224711,0
224727,-6,-2083,201,-96,38,109,14038,-31,-10,-287,-88,35469,-2,34,127,0,0,3759,-10,0,1146,41,87,11723,-4,0,42,0,224727,0
224737,10,-2077,195,-92,38,122,14015,-70,-35,-196,-40,35461,-23,34,127,0,0,3761,43,0,1146,41,87,11733,-4,0,42,0,224727,0
224747,-15,-2085,199,-90,40,123,14007,1,-1,-21,-64,35447,-14,34,127,0,0,3761,32,0,1146,41,87,11743,-4,0,42,0,224727,0
224757,17,-2072,205,-94,32,139,14009,-1,56,-57,16,35450,-30,34,127,0,0,3759,32,0,1146,41,87,11753,-4,0,42,0,224727,0
224767,27,-2079,201,-92,41,134,14010,-1,13,-34,-32,35468,-21,34,127,0,0,3761,21,0,1146,41,87,11763,-4,0,42,0,224758,0
224777,10,-2081,203,-93,36,135,14008,-8,-2,-55,-16,35473,-33,34,127,0,0,3759,32,0,1146,41,87,11773,-4,0,42,0,224758,0
224787,23,-2081,202,-91,43,138,14010,3,0,-30,-104,35469,-29,34,127,0,0,3759,-21,0,1146,41,87,11783,-4,0,42,0,224758,0
224797,19,-2086,202,-89,35,144,14009,13,5,-13,-72,35459,-31,34,127,0,0,3759,-21,0,1146,41,87,11793,-4,0,42,0,224789,0
224807,-42,-2084,200,-88,43,148,14009,12,1,-31,0,35470,-30,34,127,0,0,3759,0,0,1146,41,87,11803,-4,0,42,0,224789,0
224817,-30,-2086,198,-86,39,149,14009,-12,4,-16,0,35471,-18,34,127,0,0,3763,32,0,1146,41,87,11813,-4,0,42,0,224789,0
224827,-18,-2083,201,-88,47,153,14012,1,1,39,-8,35464,-21,34,127,0,0,3761,0,0,1146,41,87,11823,-4,0,42,0,224820,0
224837,-13,-2081,203,-80,45,149,14011,9,1,-7,-40,35459,-13,35,127,0,0,3761,10,0,1146,41,87,11833,-4,0,42,0,224836,0
224847,-3,-2082,206,-89,41,152,14011,0,-2,22,0,35459,-17,34,127,0,0,3761,0,0,1146,41,87,11843,-4,0,42,0,224836,0
224857,-17,-2083,207,-85,37,147,14010,3,-5,0,-32,35459,-20,34,127,0,0,3761,10,0,1146,41,87,11853,-4,0,42,0,224836,0
224867,-33,-2072,207,-87,44,150,14010,-4,0,7,0,35456,-17,34,127,0,0,3763,21,0,1146,41,87,11863,-4,0,42,0,224867,0
224877,-32,-2078,210,-88,41,149,14011,9,2,0,0,35468,-28,34,127,0,0,3761,0,0,1146,41,87,11873,-4,0,42,0,224867,0
224887,-30,-2077,197,-84,32,143,14010,2,2,9,32,35463,-36,34,127,0,0,3766,43,0,1146,41,87,11883,-4,0,42,0,224867,0
224897,-23,-2086,204,-80,37,138,14012,2,3,94,16,35461,-35,34,127,0,0,3763,0,0,1146,41,87,11893,-4,0,42,0,224867,0
224908,-32,-2085,200,-81,35,136,14011,-4,-1,84,24,35462,-28,34,127,0,0,3763,27,0,1146,41,87,11904,-4,0,42,0,224898,0
224918,-28,-2078,207,-81,39,126,14012,2,-1,106,16,35477,-36,34,127,0,0,3763,0,0,1146,41,87,11914,-4,0,42,0,224898,0
224928,-10,-2080,204,-80,39,125,14013,10,4,111,16,35476,-46,34,127,0,0,3767,0,0,1146,41,87,11924,-4,0,42,0,224898,0
224938,-23,-2084,211,-80,35,130,14012,5,5,139,16,35473,-43,34,127,0,0,3763,-21,0,1146,41,87,11934,-4,0,42,0,224930,0
224948,-8,-2079,207,-74,36,128,14012,-1,-10,102,40,35468,-26,34,127,0,0,3766,21,0,1146,41,87,11944,-4,0,42,0,224930,0
224958,-27,-2080,209,-82,30,123,14013,4,1,131,16,35472,-28,34,127,0,0,3763,-32,0,1146,41,87,11954,-4,0,42,0,224961,0
224968,-45,-2083,208,-79,36,125,14013,8,-7,98,40,35467,-32,34,127,0,0,3762,5,0,1146,41,87,11964,-4,0,42,0,224977,0
224978,-15,-2080,197,-78,34,118,14011,-6,1,75,24,35470,-18,34,127,0,0,3767,32,0,1146,41,87,11974,-4,0,42,0,224992,0
224988,-22,-2093,195,-74,38,119,14015,4,2,127,16,35468,-12,34,127,0,0,3767,0,0,1146,41,87,11984,-4,0,42,0,224992,0
224998,-14,-2079,201,-72,43,126,14013,2,-3,74,16,35460,-15,34,127,0,0,3763,27,0,1146,41,87,11994,-4,0,42,0,225008,0
225008,1,-2082,206,-76,38,122,14015,9,-5,111,16,35460,-36,34,127,0,0,3763,-43,0,1146,41,87,12004,-4,0,42,0,225008,0
225018,-27,-2076,200,-70,33,135,14013,9,1,107,16,35464,-30,34,127,0,0,3763,-16,0,1146,41,87,12014,-4,0,42,0,225008,0
225028,-24,-2074,202,-73,33,122,14013,9,-3,105,16,35466,-25,34,127,0,0,3763,-27,0,1146,41,87,12024,-4,0,42,0,225008,0
225038,-20,-2084,210,-73,37,129,14015,12,1,99,40,35473,-17,34,127,0,0,3766,21,0,1146,41,87,12034,-4,0,42,0,225008,0
225048,-16,-2080,209,-73,37,131,14014,0,2,135,16,35485,-34,35,127,0,0,3767,0,0,1146,41,87,12044,-4,0,42,0,225055,0
225058,-14,-2078,211,-71,33,141,14014,3,-1,109,40,35492,-43,34,127,0,0,3766,43,0,1146,41,87,12054,-4,0,42,0,225055,0
225068,-16,-2080,195,-72,28,135,14014,7,1,148,40,35492,-20,34,127,0,0,3766,0,0,1146,41,87,12064,-4,0,42,0,225055,0
225078,-32,-2081,190,-71,33,135,14016,14,1,172,32,35465,-6,34,127,0,0,3769,5,0,1146,41,87,12074,-4,0,42,0,225055,0
225088,-43,-2077,201,-63,33,134,14014,-6,-1,194,64,35457,-5,34,127,0,0,3765,10,0,1146,41,87,12084,-4,0,42,0,225055,0
225098,-15,-2074,229,-71,35,124,14013,-6,0,150,64,35450,-20,34,127,0,0,3768,38,0,1146,41,87,12094,-4,0,42,0,225086,0
225108,-28,-2079,222,-75,33,125,14016,1,4,197,56,35460,-17,34,127,0,0,3771,38,0,1146,41,87,12104,-4,0,42,0,225102,0
225118,-4,-2077,203,-80,28,116,14017,0,-1,216,32,35464,-14,34,127,0,0,3772,65,0,1146,41,87,12114,-4,0,42,0,225117,0
225128,-44,-2080,198,-78,35,114,14018,-5,-3,259,80,35461,-16,34,127,0,0,3767,10,0,1146,41,87,12124,-4,0,42,0,225117,0
225138,-6,-2086,211,-76,34,97,14018,-7,0,198,56,35460,-33,34,127,0,0,3771,49,0,1146,41,87,12134,-4,0,42,0,225117,0
225148,-38,-2086,225,-76,38,107,14020,5,1,235,24,35466,-40,34,127,0,0,3766,-38,0,1146,41,87,12144,-4,0,42,0,225117,0
225159,-33,-2082,218,-84,35,108,14020,11,4,223,24,35475,-34,34,127,0,0,3770,0,0,1146,41,87,12155,-4,0,42,0,225164,0
225169,1,-2086,197,-92,28,112,14020,15,8,234,96,35482,-34,34,127,0,0,3768,-10,0,1146,41,87,12165,-4,0,42,0,225164,0
225179,-10,-2084,201,-84,27,100,14020,0,2,207,64,35480,-51,35,127,0,0,3766,-32,0,1146,41,87,12175,-4,0,42,0,225164,0
225189,-24,-2085,213,-92,35,98,14019,5,2,177,64,35473,-55,34,127,0,0,3770,21,0,1146,41,87,12185,-4,0,42,0,225180,0
225199,-28,-2086,212,-91,28,105,14018,0,2,176,104,35467,-40,34,127,0,0,3766,0,0,1146,41,87,12195,-4,0,42,0,225180,0
225209,-30,-2084,215,-91,32,101,14018,0,0,152,32,35469,-24,34,127,0,0,3766,-21,0,1146,41,87,12205,-4,0,42,0,225195,0
225219,-29,-2077,211,-94,26,110,14017,2,2,154,72,35476,-11,34,127,0,0,3770,43,0,1146,41,87,12215,-4,0,42,0,225195,0
225229,10,-2083,199,-89,37,105,14020,0,4,217,72,35475,-29,34,127,0,0,3766,-10,0,1146,41,87,12225,-4,0,42,0,225211,0
225239,8,-2085,201,-87,36,104,14016,-16,-4,144,32,35483,-39,34,127,0,0,3768,32,0,1146,41,87,12235,-4,0,42,0,225226,0
225249,1,-2078,217,-89,42,122,14021,10,4,178,64,35480,-38,34,127,0,0,3766,-21,0,1146,41,87,12245,-4,0,42,0,225242,0
225259,-7,-2080,210,-87,35,115,14018,1,0,160,32,35473,-31,34,127,0,0,3766,-21,0,1146,41,87,12255,-4,0,42,0,225242,0
225269,-13,-2079,205,-89,40,124,14017,0,-4,158,64,35462,-43,34,127,0,0,3766,0,0,1146,41,87,12265,-4,0,42,0,225258,0
225279,1,-2080,202,-82,32,120,14016,-11,3,149,72,35462,-41,34,127,0,0,3766,21,0,1146,41,87,12275,-4,0,42,0,225258,0
225289,-9,-2074,207,-82,47,121,14018,-14,4,156,32,35480,-23,34,127,0,0,3770,43,0,1146,41,87,12285,-4,0,42,0,225289,0
225299,-26,-2085,199,-82,44,136,14019,2,-1,174,32,35482,-15,34,127,0,0,3768,21,0,1146,41,87,12295,-4,0,42,0,225289,0
225309,-19,-2087,211,-85,41,135,14019,5,4,201,24,35470,-37,34,127,0,0,3768,0,0,1146,41,87,12305,-4,0,42,0,225289,0
225319,-27,-2082,209,-83,37,139,14018,-12,-6,184,32,35470,-38,34,127,0,0,3768,21,0,1146,41,87,12315,-4,0,42,0,225289,0
225329,3,-2081,201,-85,40,132,14017,-4,-6,158,32,35480,-50,34,127,0,0,3770,65,0,1146,41,87,12325,-4,0,42,0,225320,0
225339,-13,-2085,200,-84,38,139,14021,4,11,250,16,35485,-30,34,127,0,0,3766,-32,0,1146,41,87,12335,-4,0,42,0,225320,0
225349,-22,-2084,204,-81,42,136,14017,11,-10,184,56,35479,-22,34,127,0,0,3766,-10,0,1146,41,87,12345,-4,0,42,0,225320,0
225359,-10,-2078,208,-81,40,129,14017,-19,-5,137,32,35469,-24,34,127,0,0,3766,10,0,1146,41,87,12355,-4,0,42,0,225336,0
225369,-13,-2083,214,-81,42,136,14020,8,4,189,16,35468,-19,34,127,0,0,3768,0,0,1146,41,87,12365,-4,0,42,0,225351,0
225379,-34,-2085,208,-88,37,136,14019,5,2,215,64,35471,-21,34,127,0,0,3770,10,0,1146,41,87,12375,-4,0,42,0,225367,0
225389,3,-2086,212,-86,38,146,14019,-6,-5,230,56,35463,-18,34,127,0,0,3770,54,0,1146,41,87,12385,-4,0,42,0,225367,0
225400,-16,-2086,213,-84,39,146,14020,-9,0,200,48,35457,-33,34,127,0,0,3768,5,0,1146,41,87,12396,-4,0,42,0,225383,0
225410,-28,-2077,211,-85,28,151,14019,0,-2,200,72,35461,-48,34,127,0,0,3770,49,0,1146,41,87,12406,-4,0,42,0,225383,0
225420,-18,-2083,211,-88,35,142,14024,6,-1,268,72,35464,-48,34,127,0,0,3773,32,0,1146,41,87,12416,-4,0,42,0,225414,0
225430,-29,-2071,212,-87,42,135,14023,0,-3,287,64,35468,-31,34,127,0,0,3770,10,0,1146,41,87,12426,-4,0,42,0,225414,0
225440,-34,-2069,200,-94,38,129,14024,4,0,304,64,35462,-47,34,127,0,0,3773,-10,0,1146,41,87,12436,-4,0,42,0,225414,0
225450,-27,-2074,214,-93,35,123,14024,0,0,314,88,35461,-41,34,127,0,0,3772,16,0,1146,41,87,12446,-4,0,42,0,225430,0
225460,-48,-2071,215,-98,37,120,14025,-1,-4,296,64,35467,-26,34,127,0,0,3770,-16,0,1146,41,87,12456,-4,0,42,0,225445,0
225470,-40,-2082,206,-95,32,106,14026,-1,-1,278,88,35480,-21,34,127,0,0,3772,10,0,1146,41,87,12466,-4,0,42,0,225445,0
225480,-38,-2082,206,-94,35,108,14026,1,-5,299,64,35475,-25,34,127,0,0,3773,32,0,1146,41,87,12476,-4,0,42,0,225461,0
225490,-41,-2078,208,-102,31,95,14026,-6,-8,280,88,35470,-41,34,127,0,0,3772,43,0,1146,41,87,12486,-4,0,42,0,225476,0
225500,-16,-2085,201,-100,35,95,14026,-5,0,253,56,35475,-47,34,127,0,0,3770,10,0,1146,41,87,12496,-4,0,42,0,225492,0
225510,-9,-2078,202,-95,31,92,14026,10,-2,262,56,35475,-30,34,127,0,0,3770,0,0,1146,41,87,12506,-4,0,42,0,225492,0
225520,-19,-2077,208,-99,35,86,14026,3,0,262,56,35470,-20,34,127,0,0,3770,-27,0,1146,41,87,12516,-4,0,42,0,225492,0
225530,-21,-2081,208,-93,35,89,14026,1,-2,259,56,35466,-30,34,127,0,0,3770,0,0,1146,41,87,12526,-4,0,42,0,225523,0
225540,-16,-2093,203,-100,34,90,14027,5,6,247,56,35474,-45,34,127,0,0,3770,0,0,1146,41,87,12536,-4,0,42,0,225523,0
225550,-15,-2090,206,-99,42,93,14024,-16,-6,175,48,35472,-66,34,127,0,0,3768,21,0,1146,41,87,12546,-4,0,42,0,225523,0
225560,-4,-2087,200,-96,43,97,14024,0,1,208,64,35457,-59,34,127,0,0,3767,0,0,1146,41,87,12556,-4,0,42,0,225539,0
225570,-12,-2087,194,-99,40,95,14024,0,7,205,64,35449,-61,34,127,0,0,3767,-32,0,1146,41,87,12566,-4,0,42,0,225555,0
225580,-22,-2092,196,-96,38,104,14024,-1,-5,157,40,35461,-62,34,127,0,0,3768,16,0,1146,41,87,12576,-4,0,42,0,225555,0
225590,19,-2079,198,-88,34,108,14023,-10,-1,157,24,35474,-55,34,127,0,0,3769,27,0,1146,41,87,12586,-4,0,42,0,225586,0
225600,-13,-2082,188,-88,37,122,14021,-11,-6,109,24,35479,-43,34,127,0,0,3769,60,0,1146,41,87,12596,-4,0,42,0,225586,0
225610,20,-2084,198,-78,42,120,14023,-2,1,152,24,35476,-34,34,127,0,0,3766,5,0,1146,41,87,12606,-4,0,42,0,225586,0
225620,2,-2078,203,-79,37,123,14021,-1,3,119,24,35470,-39,34,127,0,0,3766,0,0,1146,41,87,12616,-4,0,42,0,225601,0
225630,-6,-2076,205,-77,40,132,14021,-2,-2,117,24,35476,-55,34,127,0,0,3766,0,0,1146,41,87,12626,-4,0,42,0,225617,0
225640,-9,-2074,205,-78,41,137,14022,2,1,132,24,35477,-55,34,127,0,0,3766,-5,0,1146,41,87,12636,-4,0,42,0,225617,0
225651,-29,-2071,204,-79,41,136,14021,-2,0,119,24,35475,-55,34,127,0,0,3766,0,0,1146,41,87,12647,-4,0,42,0,225633,0
225661,-36,-2076,202,-73,43,140,14023,13,3,173,48,35472,-55,34,127,0,0,3768,0,0,1146,41,87,12657,-4,0,42,0,225648,0
225671,-35,-2077,207,-74,44,132,14024,0,2,197,56,35480,-51,34,127,0,0,3766,-43,0,1146,41,87,12667,-4,0,42,0,225664,0
225681,-23,-2079,210,-75,40,123,14021,3,-8,115,24,35475,-49,34,127,0,0,3768,21,0,1146,41,87,12677,-4,0,42,0,225664,0
225691,-46,-2077,217,-79,40,123,14021,-6,4,141,24,35467,-31,34,127,0,0,3766,0,0,1146,41,87,12687,-4,0,42,0,225664,0
225701,-30,-2080,210,-80,38,116,14022,7,3,120,56,35453,-30,34,127,0,0,3768,21,0,1146,41,87,12697,-4,0,42,0,225789,0
225711,-44,-2084,210,-78,40,107,14022,-1,2,134,24,35468,-40,34,127,0,0,3766,0,0,1146,41,87,12707,-4,0,42,0,225789,0
225721,-19,-2085,208,-82,29,105,14021,4,-3,112,24,35469,-47,34,127,0,0,3766,0,0,1146,41,87,12717,-4,0,42,0,225789,0
225731,-17,-2085,207,-82,30,107,14020,-7,-4,97,64,35466,-49,35,127,0,0,3768,54,0,1146,41,87,12727,-4,0,42,0,225804,0
225741,-6,-2080,201,-86,26,104,14022,-18,2,145,24,35459,-52,35,127,0,0,3766,0,0,1146,41,87,12737,-4,0,42,0,225804,0
225751,-20,-2088,206,-88,32,105,14023,21,1,181,0,35456,-63,34,127,0,0,3768,10,0,1146,41,87,12747,-4,0,42,0,225804,0
225761,-25,-2076,208,-79,29,113,14022,2,2,206,8,35459,-59,34,127,0,0,3766,-21,0,1146,41,87,12757,-4,0,42,0,225804,0
225771,-14,-2079,207,-86,31,115,14021,-2,-3,126,24,35455,-50,34,127,0,0,3766,0,0,1146,41,87,12767,-4,0,42,0,225804,0
225781,-10,-2077,203,-85,32,112,14022,2,2,146,8,35453,-59,34,127,0,0,3766,-10,0,1146,41,87,12777,-4,0,42,0,225804,0
225791,-25,-2086,198,-84,24,112,14020,-5,1,121,24,35454,-54,34,127,0,0,3768,21,0,1146,41,87,12787,-4,0,42,0,225804,0
225801,3,-2078,206,-83,32,116,14021,0,-1,137,24,35457,-62,34,127,0,0,3766,0,0,1146,41,87,12797,-4,0,42,0,225804,0
225811,-12,-2082,206,-88,39,114,14020,0,4,115,24,35459,-58,34,127,0,0,3766,10,0,1146,41,87,12807,-4,0,42,0,225804,0
225821,1,-2085,193,-78,34,115,14021,-5,-1,153,16,35459,-45,34,127,0,0,3766,-10,0,1146,41,87,12817,-4,0,42,0,225804,0
225831,-24,-2081,202,-75,28,122,14020,0,-3,126,64,35463,-49,35,127,0,0,3766,0,0,1146,41,87,12827,-4,0,42,0,225820,0
225841,-36,-2083,202,-71,34,117,14021,-5,-3,137,16,35477,-63,35,127,0,0,3766,-10,0,1146,41,87,12837,-4,0,42,0,225820,0
225851,-42,-2078,220,-75,33,114,14022,7,0,141,24,35501,-56,34,127,0,0,3766,-21,0,1146,41,87,12847,-4,0,42,0,225836,0
225861,-2,-2074,221,-86,39,120,14022,7,-2,122,24,35513,-54,34,127,0,0,3766,0,0,1146,41,87,12857,-4,0,42,0,225851,0
225871,4,-2079,220,-88,38,120,14020,-4,-4,117,24,35503,-59,34,127,0,0,3766,0,0,1146,41,87,12867,-4,0,42,0,225851,0
225881,-23,-2081,197,-86,28,126,14020,-4,0,117,24,35487,-75,34,127,0,0,3768,21,0,1146,41,87,12877,-4,0,42,0,225898,0
225891,-37,-2081,198,-82,43,126,14022,5,3,146,56,35486,-64,34,127,0,0,3768,21,0,1146,41,87,12887,-4,0,42,0,225898,0
225901,-13,-2084,209,-82,34,119,14021,0,1,137,96,35487,-56,35,127,0,0,3766,0,0,1146,41,87,12897,-4,0,42,0,225898,0
225911,1,-2080,212,-79,45,108,14020,-15,-2,113,64,35484,-51,34,127,0,0,3766,0,0,1146,41,87,12907,-4,0,42,0,225898,0
225921,-35,-2080,210,-82,29,117,14021,5,1,109,24,35473,-55,34,127,0,0,3766,0,0,1146,41,87,12917,-4,0,42,0,225898,0
225932,-19,-2079,207,-81,36,117,14020,-2,1,132,24,35471,-63,34,127,0,0,3766,-5,0,1146,41,87,12928,-4,0,42,0,225914,0
225942,-35,-2083,205,-82,40,113,14020,-3,-5,138,24,35476,-74,35,127,0,0,3766,-5,0,1146,41,87,12938,-4,0,42,0,225914,0
225952,-19,-2078,216,-85,32,109,14020,-5,1,117,24,35478,-71,35,127,0,0,3766,0,0,1146,41,87,12948,-4,0,42,0,225945,0
225962,-12,-2077,213,-86,39,114,14021,-1,-1,115,24,35497,-68,35,127,0,0,3766,0,0,1146,41,87,12958,-4,0,42,0,225945,0
225972,-14,-2077,202,-83,40,115,14020,-3,7,116,24,35493,-53,34,127,0,0,3766,0,0,1146,41,87,12968,-4,0,42,0,225945,0
225982,-18,-2077,191,-83,36,112,14020,1,-2,115,24,35485,-50,35,127,0,0,3766,0,0,1146,41,87,12978,-4,0,42,0,225976,0
225992,-9,-2078,198,-82,32,114,14021,0,-6,119,48,35472,-37,34,127,0,0,3765,5,0,1146,41,87,12988,-4,0,42,0,225976,0
226002,7,-2086,212,-76,37,111,14022,-4,-1,132,48,35469,-41,34,127,0,0,3765,0,0,1146,41,87,12998,-4,0,42,0,225992,0
226012,20,-2083,219,-78,40,121,14020,-6,-8,92,24,35474,-45,34,127,0,0,3766,27,0,1146,41,87,13008,-4,0,42,0,225992,0
226022,-6,-2086,212,-90,39,122,14019,-1,-2,83,32,35478,-46,34,127,0,0,3766,16,0,1146,41,87,13018,-4,0,42,0,226008,0
226032,-7,-2086,200,-85,40,123,14021,2,3,119,24,35486,-40,34,127,0,0,3766,0,0,1146,41,87,13028,-4,0,42,0,226008,0
226042,-16,-2077,193,-87,40,122,14021,3,1,123,24,35486,-37,35,127,0,0,3766,0,0,1146,41,87,13038,-4,0,42,0,226023,0
226052,-19,-2078,201,-78,39,122,14020,0,0,114,24,35483,-55,34,127,0,0,3766,0,0,1146,41,87,13048,-4,0,42,0,226039,0
226062,7,-2080,212,-79,33,124,14019,-6,-7,81,32,35485,-72,34,127,0,0,3762,10,0,1146,41,87,13058,-4,0,42,0,226054,0
226072,25,-2082,216,-78,38,125,14020,-1,3,94,0,35480,-62,34,127,0,0,3763,-49,0,1146,41,87,13068,-4,0,42,0,226054,0
226082,-36,-2087,211,-81,39,135,14020,13,1,106,24,35477,-64,34,127,0,0,3766,-10,0,1146,41,87,13078,-4,0,42,0,226054,0
226092,-20,-2083,204,-78,40,134,14020,-5,-1,105,0,35477,-62,34,127,0,0,3767,21,0,1146,41,87,13088,-4,0,42,0,226086,0
226102,-34,-2082,206,-71,38,137,14019,0,1,94,32,35484,-58,34,127,0,0,3766,16,0,1146,41,87,13098,-4,0,42,0,226101,0
226112,-17,-2072,204,-77,32,139,14017,-12,2,63,32,35483,-60,34,127,0,0,3769,82,0,1146,41,87,13108,-4,0,42,0,226101,0
226122,20,-2075,210,-80,40,129,14021,-4,-1,99,24,35471,-58,35,127,0,0,3766,43,0,1146,41,87,13118,-4,0,42,0,226101,0
226132,-30,-2082,207,-80,37,132,14019,1,-3,101,32,35474,-47,34,127,0,0,3766,27,0,1146,41,87,13128,-4,0,42,0,226117,0
226142,-39,-2078,214,-79,32,128,14019,-16,-7,128,32,35480,-52,34,127,0,0,3766,0,0,1146,41,87,13138,-4,0,42,0,226117,0
226153,-29,-2084,212,-82,39,122,14020,-4,-4,124,24,35491,-57,34,127,0,0,3766,0,0,1146,41,87,13149,-4,0,42,0,226148,0
226163,-16,-2088,212,-81,40,117,14021,5,-3,155,16,35489,-53,34,127,0,0,3763,-32,0,1146,41,87,13159,-4,0,42,0,226148,0
226173,-50,-2083,210,-85,39,116,14018,-2,-6,115,32,35483,-70,34,127,0,0,3766,0,0,1146,41,87,13169,-4,0,42,0,226164,0
226183,-22,-2081,209,-79,37,119,14020,0,5,119,24,35470,-61,34,127,0,0,3766,0,0,1146,41,87,13179,-4,0,42,0,226164,0
226193,-16,-2089,208,-82,40,112,14020,4,3,133,24,35467,-66,34,127,0,0,3766,0,0,1146,41,87,13189,-4,0,42,0,226179,0
226203,-16,-2089,215,-84,31,107,14019,1,-1,130,32,35468,-48,34,127,0,0,3766,0,0,1146,41,87,13199,-4,0,42,0,226195,0
226213,-11,-2086,214,-84,32,109,14018,-10,1,102,-8,35472,-53,34,127,0,0,3766,21,0,1146,41,87,13209,-4,0,42,0,226195,0
226223,-20,-2082,214,-78,35,112,14020,-3,7,94,0,35479,-55,34,127,0,0,3766,10,0,1146,41,87,13219,-4,0,42,0,226195,0
226233,12,-2079,204,-86,39,110,14018,-1,3,86,40,35483,-64,34,127,0,0,3763,10,0,1146,41,87,13229,-4,0,42,0,226242,0
226243,5,-2080,199,-85,34,114,14019,0,-10,90,32,35483,-53,34,127,0,0,3763,0,0,1146,41,87,13239,-4,0,42,0,226242,0
226253,-21,-2078,203,-82,36,108,14018,-4,3,102,-8,35478,-65,35,127,0,0,3763,-32,0,1146,41,87,13249,-4,0,42,0,226242,0
226263,-29,-2075,203,-87,41,115,14018,7,-6,42,8,35477,-71,34,127,0,0,3763,0,0,1146,41,87,13259,-4,0,42,0,226257,0
226273,-23,-2075,211,-79,40,117,14018,3,6,63,0,35482,-76,34,127,0,0,3763,-10,0,1146,41,87,13269,-4,0,42,0,226257,0
226283,-5,-2073,209,-83,40,118,14018,-1,1,58,8,35477,-56,35,127,0,0,3763,0,0,1146,41,87,13279,-4,0,42,0,226257,0
226293,-18,-2085,219,-84,40,120,14020,7,-3,46,56,35474,-47,34,127,0,0,3766,10,0,1146,41,87,13289,-4,0,42,0,226289,0
226303,-24,-2078,211,-84,37,122,14019,0,1,66,8,35469,-48,35,127,0,0,3763,10,0,1146,41,87,13299,-4,0,42,0,226289,0
226313,-2,-2090,216,-85,36,118,14017,-11,-1,19,-16,35466,-46,34,127,0,0,3763,21,0,1146,41,87,13309,-4,0,42,0,226289,0
226323,-13,-2083,215,-91,37,115,14018,10,1,75,-32,35472,-48,34,127,0,0,3763,-10,0,1146,41,87,13319,-4,0,42,0,226304,0
226333,-18,-2082,211,-92,36,119,14018,8,12,59,-16,35474,-47,34,127,0,0,3761,-32,0,1146,41,87,13329,-4,0,42,0,226320,0
226343,-15,-2088,210,-87,36,116,14016,3,0,7,-16,35489,-52,34,127,0,0,3763,0,0,1146,41,87,13339,-4,0,42,0,226336,0
226353,-1,-2079,202,-93,45,110,14015,-4,8,51,0,35485,-61,34,127,0,0,3763,0,0,1146,41,87,13349,-4,0,42,0,226336,0
226363,-33,-2082,205,-82,33,104,14015,-2,4,32,-16,35480,-52,34,127,0,0,3763,-21,0,1146,41,87,13359,-4,0,42,0,226351,0
226373,-3,-2090,211,-85,40,111,14016,7,-1,41,16,35468,-54,34,127,0,0,3763,0,0,1146,41,87,13369,-4,0,42,0,226367,0
226383,-18,-2081,209,-86,29,102,14015,5,3,82,0,35466,-55,34,127,0,0,3763,-10,0,1146,41,87,13379,-4,0,42,0,226367,0
226393,-45,-2080,206,-94,31,107,14016,1,0,102,-40,35466,-74,34,127,0,0,3763,-21,0,1146,41,87,13389,-4,0,42,0,226398,0
226404,-21,-2074,201,-86,40,108,14014,-9,-6,35,-8,35471,-58,34,127,0,0,3765,21,0,1146,41,87,13400,-4,0,42,0,226398,0
226414,-22,-2081,192,-85,30,102,14016,-1,0,34,-16,35468,-61,34,127,0,0,3761,-32,0,1146,41,87,13410,-4,0,42,0,226398,0
226424,-21,-2084,203,-89,41,100,14014,6,-2,-32,16,35466,-46,34,127,0,0,3760,21,0,1146,41,87,13420,-4,0,42,0,226398,0
226434,15,-2080,213,-82,35,96,14014,-5,5,-19,-8,35475,-58,34,127,0,0,3761,0,0,1146,41,87,13430,-4,0,42,0,226414,0
226444,-9,-2084,213,-87,40,106,14014,0,-1,-39,-32,35482,-51,34,127,0,0,3759,-21,0,1146,41,87,13440,-4,0,42,0,226507,0
226454,-12,-2083,211,-88,33,105,14009,-7,-8,-75,-24,35483,-61,34,127,0,0,3762,32,0,1146,41,87,13450,-4,0,42,0,226507,0
226464,-10,-2085,206,-89,34,109,14011,-7,0,-22,-24,35470,-73,34,127,0,0,3759,-10,0,1146,41,87,13460,-4,0,42,0,226507,0
226474,-26,-2077,205,-90,35,103,14009,-1,0,-90,-24,35466,-74,34,127,0,0,3759,5,0,1146,41,87,13470,-4,0,42,0,226523,0
226484,-15,-2076,210,-88,38,112,14010,-2,1,-57,-24,35456,-70,34,127,0,0,3762,5,0,1146,41,87,13480,-4,0,42,0,226523,0
226494,5,-2079,209,-84,38,109,14011,4,3,-31,-48,35454,-61,34,127,0,0,3760,-10,0,1146,41,87,13490,-4,0,42,0,226523,0
226504,-39,-2082,206,-90,35,112,14008,-7,-6,-71,-40,35451,-61,34,127,0,0,3760,10,0,1146,41,87,13500,-4,0,42,0,226523,0
226514,-3,-2079,208,-89,38,117,14007,-7,6,-128,-16,35458,-50,34,127,0,0,3759,49,0,1146,41,87,13510,-4,0,42,0,226523,0
226524,-20,-2075,207,-84,44,122,14007,-5,4,-107,-16,35451,-48,34,127,0,0,3759,21,0,1146,41,87,13520,-4,0,42,0,226523,0
226534,27,-2085,208,-85,41,115,14006,-11,3,-133,-16,35446,-46,34,127,0,0,3756,16,0,1146,41,87,13530,-4,0,42,0,226523,0
226544,15,-2084,212,-85,38,120,14006,2,-5,-136,-16,35441,-46,35,127,0,0,3756,-10,0,1146,41,87,13540,-4,0,42,0,226523,0
226554,-32,-2075,213,-88,37,133,14007,-1,-3,-130,-16,35461,-66,34,127,0,0,3756,-21,0,1146,41,87,13550,-4,0,42,0,226523,0
226564,0,-2085,213,-89,39,129,14008,9,0,-118,-16,35498,-64,34,127,0,0,3759,16,0,1146,41,87,13560,-4,0,42,0,226554,0
226574,-16,-2085,211,-88,34,123,14005,-14,2,-125,-16,35496,-62,34,127,0,0,3756,16,0,1146,41,87,13570,-4,0,42,0,226554,0
226584,6,-2077,202,-84,41,126,14006,9,-3,-86,-40,35471,-41,34,127,0,0,3760,-16,0,1146,41,87,13580,-4,0,42,0,226570,0
226594,-28,-2084,211,-90,36,135,14007,2,4,-39,-40,35442,-47,34,127,0,0,3757,-38,0,1146,41,87,13590,-4,0,42,0,226570,0
226604,-21,-2086,210,-89,38,129,14006,11,-6,-75,-40,35451,-42,34,127,0,0,3757,-49,0,1146,41,87,13600,-4,0,42,0,226586,0
226614,-25,-2083,210,-86,39,132,14002,-7,0,-150,-32,35448,-44,34,127,0,0,3757,0,0,1146,41,87,13610,-4,0,42,0,226586,0
226624,6,-2085,205,-88,45,130,14004,-11,0,-162,-32,35450,-21,34,127,0,0,3757,0,0,1146,41,87,13620,-4,0,42,0,226617,0
226634,-11,-2087,209,-83,37,129,14004,-3,7,-152,-32,35439,-30,34,127,0,0,3757,0,0,1146,41,87,13630,-4,0,42,0,226632,0
226644,-22,-2083,206,-87,38,130,14006,21,4,-98,-16,35442,-24,34,127,0,0,3756,-38,0,1146,41,87,13640,-4,0,42,0,226632,0
226654,-30,-2079,207,-82,42,130,14006,16,1,-63,-32,35443,-8,34,127,0,0,3760,-16,0,1146,41,87,13650,-4,0,42,0,226632,0
226665,16,-2085,211,-92,36,125,14003,-11,-1,-104,0,35447,-16,34,127,0,0,3761,43,0,1146,41,87,13661,-4,0,42,0,226632,0
226675,-7,-2079,207,-90,39,128,14007,2,8,-44,-16,35445,-21,34,127,0,0,3757,-32,0,1146,41,87,13671,-4,0,42,0,226664,0
226685,-35,-2085,207,-87,38,126,14002,0,-4,-131,0,35448,-40,34,127,0,0,3759,21,0,1146,41,87,13681,-4,0,42,0,226664,0
226695,-29,-2079,202,-84,37,126,14004,-6,-4,-88,-8,35446,-33,34,127,0,0,3757,-10,0,1146,41,87,13691,-4,0,42,0,226664,0
226705,-47,-2077,203,-83,41,122,14003,5,8,-135,0,35444,-20,34,127,0,0,3757,0,0,1146,41,87,13701,-4,0,42,0,226711,0
226715,-11,-2073,203,-84,38,114,14002,-9,-1,-157,-32,35438,-22,34,127,0,0,3759,21,0,1146,41,87,13711,-4,0,42,0,226711,0
226725,14,-2085,197,-79,35,123,14005,8,5,-86,-48,35436,-28,34,127,0,0,3757,-10,0,1146,41,87,13721,-4,0,42,0,226711,0
226735,-33,-2077,202,-79,43,124,14005,13,-5,-120,0,35437,-33,34,127,0,0,3757,10,0,1146,41,87,13731,-4,0,42,0,226726,0
226745,-11,-2082,206,-81,41,112,14001,-14,-5,-122,8,35438,-27,34,127,0,0,3757,0,0,1146,41,87,13741,-4,0,42,0,226726,0
226755,10,-2088,215,-82,40,117,14004,0,1,-156,-32,35442,-13,34,127,0,0,3757,0,0,1146,41,87,13751,-4,0,42,0,226726,0
226765,-5,-2090,192,-75,36,128,14005,11,8,-147,-40,35454,-13,34,127,0,0,3757,0,0,1146,41,87,13761,-4,0,42,0,226757,0
226775,-10,-2084,196,-78,36,126,14003,2,0,-126,-32,35459,-25,34,127,0,0,3757,0,0,1146,41,87,13771,-4,0,42,0,226757,0
226785,-11,-2079,206,-73,34,126,14003,0,1,-113,-32,35455,-17,34,127,0,0,3757,0,0,1146,41,87,13781,-4,0,42,0,226757,0
226795,-15,-2079,203,-69,43,125,14003,6,1,-133,-32,35443,-8,34,127,0,0,3757,-10,0,1146,41,87,13791,-4,0,42,0,226773,0
226805,1,-2078,193,-65,38,141,14003,7,-2,-139,-32,35442,-23,34,127,0,0,3757,0,0,1146,41,87,13801,-4,0,42,0,226867,0
226815,4,-2073,197,-58,44,149,14003,0,0,-102,-48,35451,-25,34,127,0,0,3757,0,0,1146,41,87,13811,-4,0,42,0,226867,0
226825,-7,-2087,208,-58,50,161,14004,-4,-3,-57,-8,35451,-28,34,127,0,0,3757,-32,0,1146,41,87,13821,-4,0,42,0,226867,0
226835,0,-2089,214,-60,44,164,14002,-6,-10,-104,-8,35439,-7,34,127,0,0,3759,10,0,1146,41,87,13831,-4,0,42,0,226882,0
226845,-5,-2081,204,-49,54,192,14004,-9,5,-56,-8,35426,-1,34,127,0,0,3761,21,0,1146,41,87,13841,-4,0,42,0,226882,0
226855,-4,-2091,209,-53,51,207,14007,7,10,-4,-16,35432,-14,34,127,0,0,3759,-21,0,1146,41,87,13851,-4,0,42,0,226882,0
226865,8,-2072,215,-50,44,228,14005,1,-3,-10,-24,35440,-21,34,127,0,0,3763,54,0,1146,41,87,13861,-4,0,42,0,226882,0
226875,-4,-2077,211,-46,45,248,14010,11,12,94,0,35444,-12,34,127,0,0,3766,32,0,1146,41,87,13871,-4,0,42,0,226882,0
226885,-27,-2059,214,-52,37,273,14013,24,4,182,80,35435,-4,34,127,0,0,3768,32,0,1146,41,87,13881,-4,0,42,0,226882,0
226895,3,-2065,201,-51,38,268,14017,9,10,297,104,35428,-22,34,127,0,0,3772,21,0,1146,41,87,13891,-4,0,42,0,226882,0
226906,-15,-2070,214,-53,36,274,14025,13,6,376,112,35446,-30,34,127,0,0,3778,16,0,1146,41,87,13902,-4,0,42,0,226882,0
226916,-37,-2061,205,-51,38,274,14039,41,17,419,128,35468,-22,34,127,0,0,3782,21,0,1146,41,87,13912,-4,0,42,0,226882,0
226926,-32,-2057,216,-55,31,280,14075,92,54,270,104,35477,-10,34,127,0,0,3783,43,0,1146,41,87,13922,-4,0,42,0,226929,0
226936,-18,-2064,218,-51,28,266,14089,8,-1,374,120,35471,-12,34,127,0,0,3791,10,0,1146,41,87,13932,-4,0,42,0,226929,0
226946,-66,-2072,208,-49,40,254,14093,19,-67,481,136,35455,-15,34,127,0,0,3793,32,0,1146,41,87,13942,-4,0,42,0,226929,0
226956,-55,-2092,198,-51,36,238,14105,44,0,481,160,35445,-13,34,127,0,0,3797,43,0,1146,41,87,13952,-4,0,42,0,226929,0
226966,-53,-2081,213,-43,38,234,14138,104,59,392,144,35440,1,34,127,0,0,3799,21,0,1146,41,87,13962,-4,0,42,0,226945,0
226976,-17,-2093,228,-48,27,226,14178,86,57,304,88,35438,-18,34,127,0,0,3804,21,0,1146,41,87,13972,-4,0,42,0,226960,0
226986,-32,-2093,235,-57,23,231,14215,45,3,134,56,35443,-44,34,127,0,0,3805,49,0,1146,41,87,13982,-4,0,42,0,226960,0
226996,-85,-2089,236,-61,31,193,14212,0,-92,340,88,35450,-51,34,127,0,0,3807,-10,0,1146,41,87,13992,-4,0,42,0,226976,0
227006,-52,-2082,225,-70,43,177,14214,-1,-63,351,88,35448,-40,34,127,0,0,3811,32,0,1146,41,87,14002,-4,0,42,0,226992,0
227016,-63,-2079,237,-79,36,166,14216,1,14,429,80,35442,-34,34,127,0,0,3811,-27,0,1146,41,87,14012,-4,0,42,0,227007,0
227026,-87,-2110,243,-88,27,149,14217,2,5,418,128,35442,-49,34,127,0,0,3812,32,0,1146,41,87,14022,-4,0,42,0,227007,0
227036,-75,-2098,233,-93,37,138,14221,5,2,452,96,35448,-53,34,127,0,0,3810,-38,0,1146,41,87,14032,-4,0,42,0,227039,0
227046,-101,-2105,230,-95,35,113,14222,8,1,457,88,35459,-34,34,127,0,0,3810,-76,0,1146,41,87,14042,-4,0,42,0,227039,0
227056,-80,-2103,232,-103,34,103,14223,19,-5,466,88,35456,-22,34,127,0,0,3813,-49,0,1146,41,87,14052,-4,0,42,0,227039,0
227066,-76,-2099,234,-108,25,91,14224,2,-1,474,112,35447,-24,34,127,0,0,3812,-43,0,1146,41,87,14062,-4,0,42,0,227039,0
227076,-80,-2104,230,-119,27,85,14223,-9,-3,386,88,35463,-35,34,127,0,0,3813,27,0,1146,41,87,14072,-4,0,42,0,227070,0
227086,-36,-2097,225,-119,28,81,14224,-1,0,360,88,35460,-39,34,127,0,0,3810,21,0,1146,41,87,14082,-4,0,42,0,227070,0
227096,-28,-2081,222,-117,39,78,14224,3,2,357,64,35462,-20,34,127,0,0,3807,-27,0,1146,41,87,14092,-4,0,42,0,227085,0
227106,-24,-2088,220,-119,41,83,14222,-4,-7,315,72,35442,-14,34,127,0,0,3807,-27,0,1146,41,87,14102,-4,0,42,0,227085,0
227116,-2,-2063,221,-121,40,91,14223,2,1,304,64,35456,-39,34,127,0,0,3807,-27,0,1146,41,87,14112,-4,0,42,0,227101,0
227126,-11,-2048,232,-133,29,110,14224,1,3,314,64,35470,-47,34,127,0,0,3811,16,0,1146,41,87,14122,-4,0,42,0,227117,0
227136,-36,-2048,239,-140,42,114,14223,-1,0,326,64,35477,-33,34,127,0,0,3807,-16,0,1146,41,87,14132,-4,0,42,0,227117,0
227146,-36,-2028,234,-155,42,126,14224,14,12,307,64,35464,-17,34,127,0,0,3807,-27,0,1146,41,87,14142,-4,0,42,0,227117,0
227157,-40,-2040,220,-164,40,124,14223,1,4,292,64,35458,-21,34,127,0,0,3807,0,0,1146,41,87,14153,-4,0,42,0,227132,0
227167,-50,-2032,215,-163,30,114,14222,-5,-4,299,72,35464,-34,34,127,0,0,3807,0,0,1146,41,87,14163,-4,0,42,0,227210,0
227177,-62,-2044,205,-179,41,104,14221,-2,0,293,32,35462,-24,34,127,0,0,3807,0,0,1146,41,87,14173,-4,0,42,0,227210,0
227187,-65,-2065,213,-182,46,99,14223,1,-2,299,64,35445,-14,34,127,0,0,3810,21,0,1146,41,87,14183,-4,0,42,0,227226,0
227197,-55,-2074,212,-181,34,74,14222,-3,0,313,72,35442,-30,34,127,0,0,3807,-10,0,1146,41,87,14193,-4,0,42,0,227226,0
227207,-67,-2084,200,-185,43,60,14222,8,-1,279,32,35442,-40,34,127,0,0,3807,-10,0,1146,41,87,14203,-4,0,42,0,227226,0
227217,-62,-2092,192,-174,44,46,14220,-4,-1,243,16,35447,-42,34,127,0,0,3803,-32,0,1146,41,87,14213,-4,0,42,0,227226,0
227227,-49,-2109,185,-173,39,36,14214,-9,-5,140,48,35447,-29,34,127,0,0,3799,-43,0,1146,41,87,14223,-4,0,42,0,227226,0
227237,-25,-2123,183,-165,44,32,14211,-15,1,12,-8,35437,-21,34,127,0,0,3796,-10,0,1146,41,87,14233,-4,0,42,0,227226,0
227247,-19,-2127,193,-160,42,43,14209,-6,0,-41,-24,35441,-44,34,127,0,0,3796,0,0,1146,41,87,14243,-4,0,42,0,227226,0
227257,-18,-2118,189,-144,35,38,14207,0,2,-73,-56,35444,-46,34,127,0,0,3794,-10,0,1146,41,87,14253,-4,0,42,0,227242,0
227267,-14,-2126,174,-141,42,46,14202,-12,-1,-178,-88,35447,-33,34,127,0,0,3790,-32,0,1146,41,87,14263,-4,0,42,0,227242,0
227277,-15,-2113,180,-134,29,48,14196,-3,-8,-225,-80,35456,-21,34,127,0,0,3790,0,0,1146,41,87,14273,-4,0,42,0,227273,0
227287,-22,-2111,183,-130,30,53,14196,-1,10,-289,-88,35459,-23,34,127,0,0,3788,-21,0,1146,41,87,14283,-4,0,42,0,227273,0
227297,-32,-2088,192,-119,33,65,14194,-4,11,-335,-112,35461,-27,34,127,0,0,3785,-21,0,1146,41,87,14293,-4,0,42,0,227273,0
227307,-34,-2085,193,-104,39,59,14191,-7,-4,-361,-104,35445,-19,34,127,0,0,3785,0,0,1146,41,87,14303,-4,0,42,0,227289,0
227317,-28,-2072,193,-109,39,59,14191,0,4,-373,-104,35439,0,34,127,0,0,3785,-10,0,1146,41,87,14313,-4,0,42,0,227304,0
227327,-27,-2068,204,-109,37,63,14187,-16,4,-406,-128,35448,-12,34,127,0,0,3781,-21,0,1146,41,87,14323,-4,0,42,0,227304,0
227337,-10,-2069,201,-109,37,70,14185,-6,-5,-403,-152,35456,-35,34,127,0,0,3783,-21,0,1146,41,87,14333,-4,0,42,0,227320,0
227347,-10,-2070,199,-117,39,78,14181,-6,-4,-421,-120,35459,-57,34,127,0,0,3779,-54,0,1146,41,87,14343,-4,0,42,0,227335,0
227357,-27,-2062,200,-117,27,88,14169,-35,-11,-464,-168,35455,-52,34,127,0,0,3779,0,0,1146,41,87,14353,-4,0,42,0,227335,0
227367,-22,-2063,194,-112,34,96,14135,-88,-59,-258,-56,35448,-63,34,127,0,0,3777,-10,0,1146,41,87,14363,-4,0,42,0,227351,0
227377,-17,-2062,185,-112,43,87,14115,-16,-30,-132,-16,35447,-67,34,127,0,0,3777,0,0,1146,41,87,14373,-4,0,42,0,227382,0
227387,28,-2066,184,-107,35,94,14120,-1,86,-179,-56,35444,-66,34,127,0,0,3779,0,0,1146,41,87,14383,-4,0,42,0,227382,0
227397,-30,-2077,191,-109,29,107,14118,15,30,-120,-32,35450,-51,34,127,0,0,3779,0,0,1146,41,87,14393,-4,0,42,0,227382,0
227407,-32,-2086,195,-106,31,105,14119,-9,-4,-158,-56,35445,-36,34,127,0,0,3777,-21,0,1146,41,87,14403,-4,0,42,0,227382,0
227418,-26,-2086,193,-108,43,95,14118,14,-2,-142,-32,35438,-36,34,127,0,0,3779,16,0,1146,41,87,14414,-4,0,42,0,227413,0
227428,-8,-2085,192,-102,40,100,14115,-25,-3,-200,-48,35453,-37,34,127,0,0,3773,5,0,1146,41,87,14424,-4,0,42,0,227413,0
227438,-38,-2094,196,-102,33,96,14118,19,-5,-177,-48,35456,-24,34,127,0,0,3777,-38,0,1146,41,87,14434,-4,0,42,0,227413,0
227448,-35,-2091,194,-106,35,102,14115,-5,6,-190,-64,35458,-11,34,127,0,0,3774,-10,0,1146,41,87,14444,-4,0,42,0,227429,0
227458,-54,-2100,192,-100,39,85,14114,8,-7,-187,-40,35457,-26,34,127,0,0,3773,-43,0,1146,41,87,14454,-4,0,42,0,227445,0
227468,-5,-2101,199,-95,38,85,14110,-11,-1,-227,-64,35458,-46,34,127,0,0,3778,16,0,1146,41,87,14464,-4,0,42,0,227445,0
227478,-10,-2094,198,-95,34,93,14110,-4,2,-191,-64,35461,-53,34,127,0,0,3774,-16,0,1146,41,87,14474,-4,0,42,0,227445,0
227488,-12,-2091,194,-98,28,90,14106,-9,-3,-216,-48,35460,-51,34,127,0,0,3778,32,0,1146,41,87,14484,-4,0,42,0,227476,0
227498,-17,-2089,192,-96,31,101,14100,-18,-6,-130,-40,35462,-52,34,127,0,0,3774,10,0,1146,41,87,14494,-4,0,42,0,227476,0
227508,-22,-2089,184,-91,35,92,14094,-19,1,-123,-32,35457,-58,34,127,0,0,3774,0,0,1146,41,87,14504,-4,0,42,0,227601,0
227518,-13,-2080,186,-90,34,88,14082,-32,-12,-117,-56,35455,-29,34,127,0,0,3777,54,0,1146,41,87,14514,-4,0,42,0,227601,0
227528,-39,-2079,180,-86,30,85,14076,5,-1,-27,-40,35451,-29,34,127,0,0,3770,0,0,1146,41,87,14524,-4,0,42,0,227601,0
227538,-25,-2089,185,-84,35,81,14070,-24,15,-177,-8,35454,-15,34,127,0,0,3772,60,0,1146,41,87,14534,-4,0,42,0,227601,0
227548,-49,-2071,193,-76,38,86,14070,-11,11,-138,-32,35449,-7,34,127,0,0,3767,10,0,1146,41,87,14544,-4,0,42,0,227601,0
227558,-27,-2078,197,-82,32,78,14071,1,0,-181,-24,35449,-9,34,127,0,0,3767,-16,0,1146,41,87,14554,-4,0,42,0,227617,0
227568,-31,-2067,200,-84,28,78,14066,-19,-6,-216,-40,35449,-8,34,127,0,0,3765,0,0,1146,41,87,14564,-4,0,42,0,227617,0
227578,-17,-2073,200,-78,27,72,14064,-9,-3,-231,-64,35451,7,34,127,0,0,3766,0,0,1146,41,87,14574,-4,0,42,0,227617,0
227588,-15,-2071,193,-86,29,76,14064,1,4,-222,-64,35447,-3,34,127,0,0,3766,0,0,1146,41,87,14584,-4,0,42,0,227617,0
227598,-10,-2071,193,-80,33,78,14063,-7,5,-242,-64,35445,-12,34,127,0,0,3762,-16,0,1146,41,87,14594,-4,0,42,0,227617,0
227608,4,-2076,187,-80,35,80,14062,0,-6,-258,-80,35442,-31,34,127,0,0,3767,-10,0,1146,41,87,14604,-4,0,42,0,227617,0
227618,-2,-2081,196,-80,41,89,14058,-11,0,-254,-72,35442,-18,34,127,0,0,3763,10,0,1146,41,87,14614,-4,0,42,0,227617,0
227628,-1,-2087,192,-80,39,88,14055,-16,1,-320,-120,35443,-20,34,127,0,0,3762,-27,0,1146,41,87,14624,-4,0,42,0,227617,0
227638,-7,-2088,196,-78,31,98,14043,-27,-23,-293,-72,35458,-38,34,127,0,0,3758,10,0,1146,41,87,14634,-4,0,42,0,227617,0
227649,6,-2088,188,-77,37,105,14021,-64,-30,-276,-40,35485,-36,34,127,0,0,3759,32,0,1146,41,87,14645,-4,0,42,0,227617,0
227659,-31,-2088,185,-75,42,100,14003,-19,-20,-55,-32,35494,-17,35,127,0,0,3759,10,0,1146,41,87,14655,-4,0,42,0,227679,0
227669,32,-2084,199,-76,31,105,14004,-16,58,-118,-40,35493,0,34,127,0,0,3757,21,0,1146,41,87,14665,-4,0,42,0,227695,0
227679,-19,-2090,203,-74,33,112,14004,16,30,-124,0,35467,-6,34,127,0,0,3755,-32,0,1146,41,87,14675,-4,0,42,0,227695,0
227689,-44,-2092,194,-76,36,108,14001,-9,-7,-172,-16,35459,-31,34,127,0,0,3759,32,0,1146,41,87,14685,-4,0,42,0,227695,0
227699,-18,-2090,190,-75,38,109,14004,-9,-2,-123,-32,35448,-36,34,127,0,0,3757,0,0,1146,41,87,14695,-4,0,42,0,227695,0
227709,-6,-2084,194,-72,39,110,14003,3,-1,-141,16,35452,-43,34,127,0,0,3757,10,0,1146,41,87,14705,-4,0,42,0,227695,0
227719,0,-2082,199,-71,32,103,14002,-2,5,-109,32,35452,-49,34,127,0,0,3757,-32,0,1146,41,87,14715,-4,0,42,0,227695,0
227729,-32,-2077,206,-80,39,101,14001,-14,-7,-156,-32,35451,-52,34,127,0,0,3755,-21,0,1146,41,87,14725,-4,0,42,0,227710,0
227739,5,-2081,208,-85,40,99,14003,3,4,-130,-32,35454,-34,34,127,0,0,3757,10,0,1146,41,87,14735,-4,0,42,0,227726,0
227749,3,-2083,201,-84,38,105,14002,-5,1,-180,-80,35463,-19,34,127,0,0,3757,43,0,1146,41,87,14745,-4,0,42,0,227742,0
227759,-38,-2076,191,-79,41,105,14001,3,-1,-159,-88,35460,-21,34,127,0,0,3755,21,0,1146,41,87,14755,-4,0,42,0,227742,0
227769,-21,-2076,189,-83,32,97,13999,7,2,-190,-88,35456,-26,34,127,0,0,3752,-32,0,1146,41,87,14765,-4,0,42,0,227742,0
227779,-31,-2081,195,-76,36,95,13999,7,1,-199,-48,35462,-32,34,127,0,0,3755,0,0,1146,41,87,14775,-4,0,42,0,227788,0
227789,-12,-2079,187,-81,37,90,13997,-13,3,-203,-80,35468,-23,34,127,0,0,3755,10,0,1146,41,87,14785,-4,0,42,0,227788,0
227799,-19,-2085,201,-80,40,96,13998,1,3,-240,-72,35469,-32,34,127,0,0,3750,-21,0,1146,41,87,14795,-4,0,42,0,227788,0
227809,-14,-2085,196,-76,44,91,13996,-2,1,-284,-88,35459,-25,34,127,0,0,3755,32,0,1146,41,87,14805,-4,0,42,0,227788,0
227819,-22,-2083,189,-77,36,99,13996,5,1,-259,-88,35455,-39,34,127,0,0,3750,10,0,1146,41,87,14815,-4,0,42,0,227804,0
227829,-1,-2084,202,-79,33,101,13994,1,3,-269,-88,35457,-40,34,127,0,0,3748,-32,0,1146,41,87,14825,-4,0,42,0,227820,0
227839,5,-2079,201,-81,29,99,13992,-8,-2,-298,-80,35467,-27,34,127,0,0,3748,-21,0,1146,41,87,14835,-4,0,42,0,227820,0
227849,4,-2081,200,-79,42,103,13988,-16,-10,-323,-72,35468,-31,34,127,0,0,3750,32,0,1146,41,87,14845,-4,0,42,0,227820,0
227859,-1,-2083,192,-78,33,104,13988,3,0,-286,-112,35468,-35,34,127,0,0,3750,-21,0,1146,41,87,14855,-4,0,42,0,227851,0
227869,-16,-2084,195,-79,39,110,13985,-2,2,-278,-64,35473,-55,34,127,0,0,3750,10,0,1146,41,87,14865,-4,0,42,0,227851,0
227879,-21,-2082,198,-82,36,113,13985,-8,-1,-332,-112,35475,-58,34,127,0,0,3746,0,0,1146,41,87,14875,-4,0,42,0,227851,0
227889,-18,-2088,196,-78,36,109,13976,-26,-7,-330,-96,35474,-38,34,127,0,0,3746,0,0,1146,41,87,14885,-4,0,42,0,227882,0
227899,-9,-2086,198,-71,41,103,13960,-40,-22,-202,-64,35469,-42,34,127,0,0,3748,0,0,1146,41,87,14895,-4,0,42,0,227898,0
227909,-15,-2083,195,-72,44,102,13946,-12,-14,1,8,35470,-59,35,127,0,0,3746,-21,0,1146,41,87,14905,-4,0,42,0,227898,0
227920,33,-2085,203,-77,32,99,13944,-26,32,-113,-32,35466,-56,34,127,0,0,3749,27,0,1146,41,87,14916,-4,0,42,0,227929,0
227930,5,-2082,192,-76,34,101,13945,1,13,-110,-56,35464,-50,34,127,0,0,3747,5,0,1146,41,87,14926,-4,0,42,0,227929,0
227940,-17,-2077,194,-71,40,98,13944,5,2,-99,-32,35464,-44,34,127,0,0,3749,32,0,1146,41,87,14936,-4,0,42,0,227945,0
227950,12,-2082,201,-70,41,100,13941,-7,6,-92,-24,35460,-45,34,127,0,0,3743,5,0,1146,41,87,14946,-4,0,42,0,227945,0
227960,13,-2085,202,-71,34,105,13941,0,-2,-149,-24,35463,-44,34,127,0,0,3743,-16,0,1146,41,87,14956,-4,0,42,0,227945,0
227970,3,-2072,203,-77,31,106,13940,-13,-4,-167,-48,35467,-53,34,127,0,0,3744,-5,0,1146,41,87,14966,-4,0,42,0,227945,0
227980,2,-2087,196,-75,40,102,13942,0,-2,-129,-72,35478,-60,34,127,0,0,3745,-49,0,1146,41,87,14976,-4,0,42,0,227991,0
227990,-35,-2082,200,-75,34,99,13937,-4,1,-170,-40,35489,-75,34,127,0,0,3740,-16,0,1146,41,87,14986,-4,0,42,0,227991,0
228000,-1,-2081,207,-77,35,99,13937,-1,-7,-185,-40,35484,-69,34,127,0,0,3740,-16,0,1146,41,87,14996,-4,0,42,0,227991,0
228010,-6,-2081,204,-79,30,87,13935,-14,1,-226,-64,35479,-77,34,127,0,0,3741,0,0,1146,41,87,15006,-4,0,42,0,227991,0
228020,-6,-2079,202,-77,38,95,13936,1,-4,-208,-88,35468,-64,34,127,0,0,3743,-5,0,1146,41,87,15016,-4,0,42,0,227991,0
228030,-24,-2075,194,-79,41,93,13935,3,4,-205,-64,35466,-73,34,127,0,0,3741,0,0,1146,41,87,15026,-4,0,42,0,228023,0
228040,8,-2085,191,-78,41,92,13934,-1,4,-217,-104,35469,-60,34,127,0,0,3740,-38,0,1146,41,87,15036,-4,0,42,0,228023,0
228050,-7,-2084,192,-78,40,93,13932,0,-2,-241,-56,35468,-53,34,127,0,0,3735,-43,0,1146,41,87,15046,-4,0,42,0,228038,0
228060,12,-2081,204,-77,36,97,13927,-21,-1,-324,-72,35469,-54,34,127,0,0,3736,0,0,1146,41,87,15056,-4,0,42,0,228038,0
228070,12,-2083,202,-80,35,100,13928,2,-1,-317,-72,35469,-64,34,127,0,0,3739,38,0,1146,41,87,15066,-4,0,42,0,228054,0
228080,7,-2080,196,-77,32,108,13928,3,7,-273,-96,35475,-71,34,127,0,0,3737,-10,0,1146,41,87,15076,-4,0,42,0,228070,0
228090,-6,-2086,202,-75,38,109,13925,-8,-3,-312,-88,35471,-64,34,127,0,0,3737,0,0,1146,41,87,15086,-4,0,42,0,228070,0
228100,-6,-2083,198,-81,37,107,13926,1,-2,-315,-88,35468,-67,34,127,0,0,3740,32,0,1146,41,87,15096,-4,0,42,0,228085,0
228110,18,-2085,203,-77,36,110,13927,1,2,-308,-144,35470,-69,34,127,0,0,3739,5,0,1146,41,87,15106,-4,0,42,0,228085,0
228120,-20,-2080,206,-78,42,116,13919,-18,-8,-328,-104,35469,-63,34,127,0,0,3738,54,0,1146,41,87,15116,-4,0,42,0,228101,0
228130,3,-2085,201,-82,39,122,13918,1,-1,-330,-96,35467,-77,34,127,0,0,3735,0,0,1146,41,87,15126,-4,0,42,0,228101,0
228140,5,-2075,192,-72,39,122,13916,11,8,-287,-96,35480,-92,34,127,0,0,3735,-32,0,1146,41,87,15136,-4,0,42,0,228132,0
228150,-13,-2083,180,-77,37,124,13914,0,2,-318,-88,35495,-99,34,127,0,0,3735,-21,0,1146,41,87,15146,-4,0,42,0,228132,0
228161,6,-2083,185,-71,40,121,13909,-14,-2,-310,-80,35491,-94,34,127,0,0,3735,21,0,1146,41,87,15157,-4,0,42,0,228132,0
228171,1,-2074,201,-66,39,118,13903,-11,-6,-221,-80,35468,-72,34,127,0,0,3737,10,0,1146,41,87,15167,-4,0,42,0,228148,0
228181,17,-2073,188,-71,43,128,13900,-18,5,-239,-64,35468,-62,34,127,0,0,3735,21,0,1146,41,87,15177,-4,0,42,0,228163,0
228191,-9,-2077,182,-69,41,120,13894,-2,-6,-135,-24,35478,-55,34,127,0,0,3735,-21,0,1146,41,87,15187,-4,0,42,0,228163,0
228201,-20,-2073,186,-62,41,119,13893,-2,7,-142,-64,35483,-79,34,127,0,0,3737,21,0,1146,41,87,15197,-4,0,42,0,228210,0
228211,-13,-2082,198,-65,42,122,13891,-14,8,-141,-48,35483,-102,34,127,0,0,3733,-10,0,1146,41,87,15207,-4,0,42,0,228210,0
228221,4,-2079,216,-70,42,122,13888,-7,-3,-182,-24,35472,-96,35,127,0,0,3735,21,0,1146,41,87,15217,-4,0,42,0,228210,0
228231,8,-2082,230,-73,33,136,13885,-7,-1,-166,16,35469,-111,34,127,0,0,3737,65,0,1146,41,87,15227,-4,0,42,0,228210,0
228241,36,-2091,213,-81,30,124,13885,-16,12,-144,16,35463,-95,34,127,0,0,3735,32,0,1146,41,87,15237,-4,0,42,0,228210,0
228251,25,-2100,201,-78,34,123,13886,10,0,-69,-8,35466,-90,34,127,0,0,3735,-21,0,1146,41,87,15247,-4,0,42,0,228241,0
228261,-37,-2072,212,-82,36,136,13883,-7,-5,-85,8,35466,-83,34,127,0,0,3735,-21,0,1146,41,87,15257,-4,0,42,0,228241,0
228271,-4,-2089,219,-84,46,116,13885,2,-3,-103,-32,35465,-92,34,127,0,0,3737,0,0,1146,41,87,15267,-4,0,42,0,228351,0
228281,24,-2081,212,-95,31,128,13885,3,5,-81,-72,35457,-104,34,127,0,0,3735,-10,0,1146,41,87,15277,-4,0,42,0,228351,0
228291,16,-2082,211,-97,34,138,13883,-4,-1,-108,-64,35460,-103,34,127,0,0,3735,32,0,1146,41,87,15287,-4,0,42,0,228351,0
228301,18,-2080,202,-100,34,121,13883,-7,2,-117,-32,35459,-98,34,127,0,0,3737,43,0,1146,41,87,15297,-4,0,42,0,228366,0
228311,-23,-2089,205,-104,22,131,13881,-13,2,-146,-16,35461,-99,34,127,0,0,3737,54,0,1146,41,87,15307,-4,0,42,0,228366,0
228321,4,-2076,198,-104,37,122,13885,15,11,-44,-48,35463,-107,34,127,0,0,3737,0,0,1146,41,87,15317,-4,0,42,0,228366,0
228331,-30,-2077,190,-104,37,121,13882,-11,-5,-41,0,35460,-92,34,127,0,0,3735,21,0,1146,41,87,15327,-4,0,42,0,228366,0
228341,-16,-2079,203,-109,30,91,13883,-9,-5,-94,8,35456,-96,34,127,0,0,3735,10,0,1146,41,87,15337,-4,0,42,0,228366,0
228351,-30,-2068,217,-116,37,90,13881,-21,1,-158,-48,35457,-91,34,127,0,0,3733,0,0,1146,41,87,15347,-4,0,42,0,228366,0
228361,-40,-2077,203,-122,37,64,13877,-3,-13,-190,-32,35459,-102,34,127,0,0,3730,-21,0,1146,41,87,15357,-4,0,42,0,228366,0
228371,-35,-2065,201,-119,36,53,13877,2,1,-225,-64,35457,-99,34,127,0,0,3728,-43,0,1146,41,87,15367,-4,0,42,0,228366,0
228381,-37,-2075,193,-117,41,31,13869,-19,-12,-283,-72,35455,-99,34,127,0,0,3724,-65,0,1146,41,87,15377,-4,0,42,0,228366,0
228391,-15,-2080,169,-114,49,25,13860,-22,-13,-370,-144,35455,-81,34,127,0,0,3719,-54,0,1146,41,87,15387,-4,0,42,0,228366,0
228402,-1,-2067,150,-91,58,16,13844,-49,-14,-405,-120,35458,-101,34,127,0,0,3719,5,0,1146,41,87,15398,-4,0,42,0,228386,0
228412,1,-2075,167,-84,53,8,13802,-109,-63,-222,-88,35479,-119,34,127,0,0,3712,-54,0,1146,41,87,15408,-4,0,42,0,228386,0
228422,-40,-2087,193,-84,63,-3,13784,-11,-10,-283,-88,35491,-115,34,127,0,0,3711,-21,0,1146,41,87,15418,-4,0,42,0,228402,0
228432,5,-2101,221,-87,51,-13,13784,-14,87,-421,-160,35497,-109,34,127,0,0,3704,-54,0,1146,41,87,15428,-4,0,42,0,228418,0
228442,-44,-2096,248,-109,42,-33,13762,-64,-13,-430,-144,35488,-81,34,127,0,0,3699,-54,0,1146,41,87,15438,-4,0,42,0,228418,0
228452,-62,-2107,249,-117,42,-64,13729,-70,-63,-393,-152,35471,-74,34,127,0,0,3692,-54,0,1146,41,87,15448,-4,0,42,0,228449,0
228462,-68,-2104,225,-127,46,-98,13712,-41,16,-506,-232,35468,-68,34,127,0,0,3688,-76,0,1146,41,87,15458,-4,0,42,0,228449,0
228472,-39,-2101,241,-134,35,-142,13664,-125,-31,-322,-192,35465,-72,34,127,0,0,3680,-93,0,1146,41,87,15468,-4,0,42,0,228464,0
228482,-29,-2094,236,-147,39,-170,13602,-150,-96,-295,-160,35465,-94,34,127,0,0,3671,-5,0,1146,41,87,15478,-4,0,42,0,228464,0
228492,-83,-2092,213,-147,45,-180,13557,-99,5,-364,-184,35456,-109,34,127,0,0,3660,-65,0,1146,41,87,15488,-4,0,42,0,228480,0
228502,-26,-2076,185,-148,46,-196,13506,-113,20,-354,-200,35464,-108,34,127,0,0,3652,-43,0,1146,41,87,15498,-4,0,42,0,228480,0
228512,73,-2084,188,-145,38,-201,13446,-111,-30,-251,-152,35467,-101,34,127,0,0,3646,-49,0,1146,41,87,15508,-4,0,42,0,228496,0
228522,83,-2079,207,-153,34,-184,13410,-55,35,-277,-144,35472,-68,34,127,0,0,3633,-82,0,1146,41,87,15518,-4,0,42,0,228511,0
228532,56,-2088,219,-169,28,-148,13402,-21,98,-560,-216,35482,-72,34,127,0,0,3627,-60,0,1146,41,87,15528,-4,0,42,0,228511,0
228542,61,-2085,231,-176,26,-118,13381,-60,29,-568,-280,35480,-76,34,127,0,0,3618,-131,0,1146,41,87,15538,-4,0,42,0,228527,0
228552,109,-2080,211,-187,17,-111,13324,-135,-93,-422,-216,35473,-87,34,127,0,0,3614,-54,0,1146,41,87,15548,-4,0,42,0,228527,0
228562,92,-2067,190,-181,35,-87,13262,-125,-80,-296,-136,35452,-65,34,127,0,0,3603,-71,0,1146,41,87,15558,-4,0,42,0,228543,0
228572,104,-2068,189,-181,30,-56,13209,-106,18,-248,-128,35463,-64,35,127,0,0,3601,-71,0,1146,41,87,15568,-4,0,42,0,228543,0
228582,83,-2070,205,-188,19,-28,13180,-63,56,-249,-64,35466,-67,34,127,0,0,3598,-10,0,1146,41,87,15578,-4,0,42,0,228574,0
228592,65,-2069,189,-183,25,-24,13161,-40,61,-243,-88,35476,-65,34,127,0,0,3594,-5,0,1146,41,87,15588,-4,0,42,0,228574,0
228602,94,-2087,172,-185,21,13,13158,-9,55,-338,-136,35467,-73,34,127,0,0,3590,-54,0,1146,41,87,15598,-4,0,42,0,228589,0
228612,90,-2087,181,-189,20,22,13154,-12,26,-405,-152,35466,-87,34,127,0,0,3588,-38,0,1146,41,87,15608,-4,0,42,0,228589,0
228622,94,-2098,184,-189,24,45,13146,-14,-12,-440,-128,35474,-96,34,127,0,0,3584,-32,0,1146,41,87,15618,-4,0,42,0,228605,0
228632,103,-2098,171,-182,24,77,13139,-18,-6,-469,-144,35482,-100,35,127,0,0,3585,-10,0,1146,41,87,15628,-4,0,42,0,228621,0
228642,103,-2093,153,-172,23,117,13115,-59,-25,-363,-128,35481,-88,34,127,0,0,3587,43,0,1146,41,87,15638,-4,0,42,0,228621,0
228653,83,-2088,141,-154,47,128,13089,-13,-31,-124,-48,35470,-95,34,127,0,0,3583,-10,0,1146,41,87,15649,-4,0,42,0,228652,0
228663,114,-2095,158,-134,32,147,13091,-8,59,-223,-80,35474,-106,34,127,0,0,3585,21,0,1146,41,87,15659,-4,0,42,0,228668,0
228673,77,-2093,151,-121,24,201,13094,17,49,-122,-64,35476,-109,34,127,0,0,3588,0,0,1146,41,87,15669,-4,0,42,0,228668,0
228683,83,-2098,150,-123,24,213,13093,-2,-5,-68,0,35465,-116,34,127,0,0,3592,43,0,1146,41,87,15679,-4,0,42,0,228668,0
228693,72,-2100,155,-132,17,219,13099,11,7,65,32,35472,-101,34,127,0,0,3594,54,0,1146,41,87,15689,-4,0,42,0,228668,0
228703,58,-2096,155,-124,30,220,13108,9,13,194,64,35473,-117,34,127,0,0,3599,21,0,1146,41,87,15699,-4,0,42,0,228683,0
228713,40,-2058,166,-117,36,217,13114,22,4,292,112,35480,-117,34,127,0,0,3603,10,0,1146,41,87,15709,-4,0,42,0,228730,0
228723,54,-2066,171,-124,29,226,13126,25,10,330,112,35477,-121,34,127,0,0,3605,32,0,1146,41,87,15719,-4,0,42,0,228730,0
228733,50,-2051,163,-114,29,225,13148,69,33,295,72,35473,-113,35,127,0,0,3610,43,0,1146,41,87,15729,-4,0,42,0,228746,0
228743,55,-2045,173,-116,33,242,13179,53,41,150,40,35467,-115,35,127,0,0,3612,32,0,1146,41,87,15739,-4,0,42,0,228746,0
228753,20,-2062,183,-116,49,229,13179,0,-54,325,88,35463,-96,34,127,0,0,3616,43,0,1146,41,87,15749,-4,0,42,0,228746,0
228763,90,-2059,184,-120,60,234,13187,21,-43,398,120,35461,-69,35,127,0,0,3618,21,0,1146,41,87,15759,-4,0,42,0,228746,0
228773,73,-2077,188,-133,30,257,13204,44,35,386,96,35473,-62,35,127,0,0,3625,21,0,1146,41,87,15769,-4,0,42,0,228746,0
228783,70,-2086,188,-148,32,279,13239,70,53,264,120,35493,-71,34,127,0,0,3627,65,0,1146,41,87,15779,-4,0,42,0,228761,0
228793,28,-2087,207,-159,42,275,13247,8,-24,385,104,35493,-87,34,127,0,0,3632,21,0,1146,41,87,15789,-4,0,42,0,228761,0
228803,33,-2084,191,-162,50,276,13254,11,-53,437,144,35485,-83,34,127,0,0,3636,43,0,1146,41,87,15799,-4,0,42,0,228792,0
228813,29,-2091,168,-162,42,280,13278,75,35,386,160,35473,-72,35,127,0,0,3638,32,0,1146,41,87,15809,-4,0,42,0,228808,0
228823,56,-2090,177,-166,36,295,13317,67,68,228,72,35481,-58,35,127,0,0,3645,65,0,1146,41,87,15819,-4,0,42,0,228808,0
228833,-14,-2096,188,-170,52,281,13334,48,-22,379,96,35483,-63,35,127,0,0,3647,21,0,1146,41,87,15829,-4,0,42,0,228808,0
228843,49,-2089,175,-171,53,288,13368,64,-11,256,88,35489,-69,34,127,0,0,3649,32,0,1146,41,87,15839,-4,0,42,0,228824,0
228853,38,-2099,176,-180,44,287,13381,23,-14,329,104,35480,-77,34,127,0,0,3656,43,0,1146,41,87,15849,-4,0,42,0,228839,0
228863,28,-2100,164,-179,46,287,13414,91,-2,254,64,35477,-86,35,127,0,0,3658,10,0,1146,41,87,15859,-4,0,42,0,228839,0
228873,42,-2100,180,-189,46,286,13433,11,21,177,80,35471,-105,34,127,0,0,3662,65,0,1146,41,87,15869,-4,0,42,0,228855,0
228883,-11,-2104,183,-192,56,295,13437,10,-67,378,88,35475,-101,34,127,0,0,3662,0,0,1146,41,87,15879,-4,0,42,0,228871,0
228893,12,-2087,173,-198,54,291,13439,5,-26,383,176,35477,-89,34,127,0,0,3671,87,0,1146,41,87,15889,-4,0,42,0,228871,0
228903,7,-2089,159,-204,47,317,13459,64,31,473,128,35475,-70,34,127,0,0,3676,43,0,1146,41,87,15899,-4,0,42,0,228886,0
228914,57,-2085,143,-187,32,337,13498,53,68,338,128,35477,-72,34,127,0,0,3678,65,0,1146,41,87,15910,-4,0,42,0,228917,0
228924,8,-2074,146,-182,29,337,13500,8,-53,548,176,35491,-76,34,127,0,0,3685,32,0,1146,41,87,15920,-4,0,42,0,228917,0
228934,21,-2071,152,-177,39,341,13515,40,-35,593,216,35490,-69,34,127,0,0,3692,65,0,1146,41,87,15930,-4,0,42,0,228917,0
228944,-18,-2063,131,-166,43,343,13560,118,83,433,216,35480,-67,35,127,0,0,3697,71,0,1146,41,87,15940,-4,0,42,0,228917,0
228954,-1,-2058,113,-165,29,357,13613,126,77,332,136,35474,-74,34,127,0,0,3706,54,0,1146,41,87,15950,-4,0,42,0,228949,0
228964,49,-2067,115,-160,19,361,13644,42,-21,458,192,35475,-85,34,127,0,0,3711,65,0,1146,41,87,15960,-4,0,42,0,228949,0
228974,-64,-2086,126,-137,36,353,13676,85,-51,446,200,35471,-97,34,127,0,0,3717,54,0,1146,41,87,15970,-4,0,42,0,228949,0
228984,-47,-2085,164,-130,46,316,13712,81,15,466,216,35471,-96,34,127,0,0,3723,16,0,1146,41,87,15980,-4,0,42,0,228964,0
228994,-49,-2089,192,-142,34,297,13772,133,50,307,120,35477,-94,34,127,0,0,3728,-21,0,1146,41,87,15990,-4,0,42,0,229074,0
229004,-52,-2106,208,-145,33,281,13810,77,3,278,144,35479,-83,34,127,0,0,3737,43,0,1146,41,87,16000,-4,0,42,0,229074,0
229014,-36,-2106,186,-161,25,244,13818,-13,-99,465,176,35475,-86,34,127,0,0,3741,54,0,1146,41,87,16010,-4,0,42,0,229074,0
229024,-87,-2085,164,-167,38,221,13826,33,-71,621,200,35474,-80,35,127,0,0,3746,10,0,1146,41,87,16020,-4,0,42,0,229074,0
229034,-53,-2092,170,-160,40,191,13840,39,17,581,200,35477,-100,34,127,0,0,3751,65,0,1146,41,87,16030,-4,0,42,0,229089,0
229044,-54,-2084,169,-167,43,163,13875,96,52,428,128,35480,-107,34,127,0,0,3751,32,0,1146,41,87,16040,-4,0,42,0,229089,0
229054,-33,-2090,167,-179,36,162,13898,33,26,383,128,35479,-107,35,127,0,0,3752,21,0,1146,41,87,16050,-4,0,42,0,229089,0
229064,-30,-2093,162,-187,43,153,13911,27,-45,401,104,35474,-105,35,127,0,0,3752,-27,0,1146,41,87,16060,-4,0,42,0,229089,0
229074,-31,-2111,135,-186,28,141,13929,41,-7,298,88,35473,-96,35,127,0,0,3751,-21,0,1146,41,87,16070,-4,0,42,0,229089,0
229084,-35,-2117,142,-176,28,118,13934,-6,-10,284,80,35472,-112,34,127,0,0,3755,16,0,1146,41,87,16080,-4,0,42,0,229089,0
229094,-63,-2088,195,-182,45,84,13936,1,-39,343,104,35473,-110,34,127,0,0,3754,0,0,1146,41,87,16090,-4,0,42,0,229089,0
229104,-13,-2081,200,-203,41,73,13937,-1,-7,317,48,35472,-112,35,127,0,0,3752,-38,0,1146,41,87,16100,-4,0,42,0,229089,0
229114,-34,-2073,120,-214,26,69,13935,-6,-11,225,32,35474,-87,35,127,0,0,3747,-43,0,1146,41,87,16110,-4,0,42,0,229089,0
229124,-20,-2059,89,-206,40,56,13935,10,-3,174,56,35489,-93,34,127,0,0,3749,-49,0,1146,41,87,16120,-4,0,42,0,229105,0
229134,-13,-2071,104,-173,74,49,13933,-10,7,171,16,35497,-103,34,127,0,0,3751,-5,0,1146,41,87,16130,-4,0,42,0,229105,0
229144,34,-2079,134,-161,72,59,13930,-14,-7,51,-32,35497,-93,34,127,0,0,3744,-16,0,1146,41,87,16140,-4,0,42,0,229121,0
229155,69,-2080,162,-178,40,104,13923,-5,-10,-36,24,35494,-99,34,127,0,0,3744,0,0,1146,41,87,16151,-4,0,42,0,229136,0
229165,26,-2083,141,-195,17,143,13923,-7,8,-73,-48,35492,-94,34,127,0,0,3744,21,0,1146,41,87,16161,-4,0,42,0,229167,0
229175,-24,-2091,117,-197,13,149,13923,-1,7,-72,-40,35490,-94,34,127,0,0,3744,0,0,1146,41,87,16171,-4,0,42,0,229167,0
229185,-55,-2081,104,-173,45,144,13921,3,-2,-68,-48,35481,-89,35,127,0,0,3741,-10,0,1146,41,87,16181,-4,0,42,0,229167,0
229195,-29,-2084,83,-152,63,132,13921,3,5,-68,-8,35474,-88,35,127,0,0,3741,-10,0,1146,41,87,16191,-4,0,42,0,229167,0
229205,12,-2085,90,-126,55,161,13919,-7,7,-101,-32,35471,-93,35,127,0,0,3744,43,0,1146,41,87,16201,-4,0,42,0,229183,0
229215,-1,-2089,138,-117,39,197,13922,2,3,-43,0,35475,-89,34,127,0,0,3744,-10,0,1146,41,87,16211,-4,0,42,0,229214,0
229225,45,-2092,129,-115,53,222,13922,11,3,23,32,35472,-98,34,127,0,0,3748,32,0,1146,41,87,16221,-4,0,42,0,229214,0
229235,76,-2104,128,-127,34,250,13928,0,6,107,96,35464,-98,34,127,0,0,3755,65,0,1146,41,87,16231,-4,0,42,0,229214,0
229245,26,-2110,126,-130,14,283,13939,29,17,322,136,35462,-96,34,127,0,0,3761,76,0,1146,41,87,16241,-4,0,42,0,229214,0
229255,-18,-2102,145,-130,21,291,13948,10,14,419,160,35478,-80,34,127,0,0,3766,54,0,1146,41,87,16251,-4,0,42,0,229246,0
229265,-58,-2117,149,-125,31,235,13959,29,-3,541,176,35473,-70,34,127,0,0,3770,54,0,1146,41,87,16261,-4,0,42,0,229246,0
229275,-100,-2087,164,-130,69,197,13982,60,19,473,152,35456,-67,34,127,0,0,3770,21,0,1146,41,87,16271,-4,0,42,0,229246,0
229285,-27,-2098,191,-150,45,184,14015,55,44,306,88,35445,-69,34,127,0,0,3770,10,0,1146,41,87,16281,-4,0,42,0,229277,0
229295,-66,-2090,139,-159,21,171,14010,-8,-60,374,112,35449,-67,34,127,0,0,3774,54,0,1146,41,87,16291,-4,0,42,0,229277,0
229305,-88,-2074,78,-145,35,143,14015,0,-52,401,72,35452,-60,34,127,0,0,3772,-32,0,1146,41,87,16301,-4,0,42,0,229277,0
229315,-120,-2073,65,-128,54,117,14013,11,-2,391,136,35460,-52,34,127,0,0,3774,21,0,1146,41,87,16311,-4,0,42,0,229308,0
229325,-50,-2069,104,-113,50,107,14013,-6,-4,390,144,35464,-51,34,127,0,0,3774,10,0,1146,41,87,16321,-4,0,42,0,229308,0
229335,-1,-2074,115,-119,35,111,14015,0,7,415,104,35460,-34,34,127,0,0,3770,-54,0,1146,41,87,16331,-4,0,42,0,229308,0
229345,-33,-2072,124,-125,28,116,14013,2,-15,333,88,35441,-30,34,127,0,0,3770,-10,0,1146,41,87,16341,-4,0,42,0,229324,0
229355,-38,-2072,118,-126,31,113,14012,-6,0,321,128,35440,-33,34,127,0,0,3772,32,0,1146,41,87,16351,-4,0,42,0,229339,0
229365,-44,-2076,128,-132,47,80,14014,-3,10,337,120,35433,-37,34,127,0,0,3770,-10,0,1146,41,87,16361,-4,0,42,0,229355,0
229375,-72,-2074,151,-130,42,70,14012,-2,-3,316,88,35432,-34,34,127,0,0,3770,0,0,1146,41,87,16371,-4,0,42,0,229355,0
229385,-74,-2082,140,-144,38,49,14013,-3,-3,280,32,35431,-31,34,127,0,0,3766,-54,0,1146,41,87,16381,-4,0,42,0,229417,0
229395,-66,-2082,113,-135,53,24,14009,3,-6,206,48,35432,-32,34,127,0,0,3763,-21,0,1146,41,87,16391,-4,0,42,0,229433,0
229405,-29,-2085,106,-132,42,6,14004,-24,-2,76,-24,35429,-44,34,127,0,0,3761,10,0,1146,41,87,16401,-4,0,42,0,229433,0
229415,-66,-2092,123,-130,48,9,14001,-3,-10,14,-40,35428,-33,34,127,0,0,3757,-10,0,1146,41,87,16411,-4,0,42,0,229433,0
229425,-56,-2095,132,-131,28,-12,13993,-21,-5,-130,-72,35426,-32,34,127,0,0,3750,-54,0,1146,41,87,16421,-4,0,42,0,229433,0
229435,-31,-2094,122,-132,36,-24,13981,-24,-12,-206,-104,35429,-19,34,127,0,0,3748,-65,0,1146,41,87,16431,-4,0,42,0,229449,0
229445,-4,-2098,102,-127,49,-20,13954,-80,-40,-194,-96,35427,-30,34,127,0,0,3744,-21,0,1146,41,87,16441,-4,0,42,0,229449,0
229455,-10,-2095,105,-120,57,-19,13921,-41,-43,-63,-40,35433,-44,34,127,0,0,3739,-21,0,1146,41,87,16451,-4,0,42,0,229449,0
229466,74,-2084,133,-117,32,39,13919,-14,65,-286,-80,35444,-74,34,127,0,0,3734,-21,0,1146,41,87,16462,-4,0,42,0,229449,0
229476,53,-2091,134,-125,18,73,13910,-16,26,-267,-88,35451,-59,34,127,0,0,3735,-21,0,1146,41,87,16472,-4,0,42,0,229449,0
229486,42,-2092,94,-117,35,106,13894,-46,-29,-221,-80,35459,-57,34,127,0,0,3739,27,0,1146,41,87,16482,-4,0,42,0,229480,0
229496,13,-2097,91,-102,46,122,13876,-30,-19,-78,-16,35446,-47,34,127,0,0,3732,0,0,1146,41,87,16492,-4,0,42,0,229480,0
229506,63,-2099,119,-97,51,147,13874,3,31,-177,-40,35441,-55,34,127,0,0,3736,32,0,1146,41,87,16502,-4,0,42,0,229480,0
229516,21,-2100,139,-103,43,165,13876,0,40,-67,-40,35431,-51,34,127,0,0,3736,16,0,1146,41,87,16512,-4,0,42,0,229511,0
229526,-10,-2094,134,-111,36,175,13874,-10,-2,-98,-40,35430,-61,34,127,0,0,3733,-16,0,1146,41,87,16522,-4,0,42,0,229511,0
229536,-16,-2104,108,-111,27,175,13879,34,-2,-31,8,35424,-73,34,127,0,0,3734,-54,0,1146,41,87,16532,-4,0,42,0,229511,0
229546,-26,-2087,114,-109,25,169,13876,-1,13,15,24,35436,-84,34,127,0,0,3739,27,0,1146,41,87,16542,-4,0,42,0,229542,0
229556,-22,-2101,120,-100,34,158,13879,-12,-1,58,24,35453,-60,34,127,0,0,3739,43,0,1146,41,87,16552,-4,0,42,0,229542,0
229566,55,-2088,151,-105,28,28,13885,21,10,174,40,35454,-49,34,127,0,0,3738,-43,0,1146,41,87,16562,-4,0,42,0,229558,0
229576,599,-2043,102,-102,51,-310,13884,-3,-1,146,-8,35436,-58,34,127,0,0,3730,-153,0,1146,41,87,16572,-4,0,42,0,229558,0
229586,-93,-2028,126,-98,53,-269,13865,-56,-39,-223,-216,35437,-81,34,127,0,0,3712,-280,0,1146,41,87,16582,-4,0,42,0,229605,0
229596,-27,-2049,245,-127,-78,131,13803,-182,-125,-383,-168,35456,-98,34,127,0,0,3712,27,0,1146,41,87,16592,-4,0,42,0,229605,0
229606,13,-2171,84,-184,-18,30,13745,-87,-92,-57,-16,35456,-77,34,127,0,0,3711,27,0,1146,41,87,16602,-4,0,42,0,229620,0
229616,387,-2105,-118,-96,123,-282,13754,27,154,-103,-56,35442,-54,34,127,0,0,3705,-71,0,1146,41,87,16612,-4,0,42,0,229620,0
229626,306,-1996,57,-35,139,-518,13736,-59,74,-360,-256,35427,-34,34,127,0,0,3683,-252,0,1146,41,87,16622,-4,0,42,0,229620,0
229636,347,-2051,265,-73,11,-278,13678,-172,-129,-524,-296,35434,-37,34,127,0,0,3670,-93,0,1146,41,87,16632,-4,0,42,0,229620,0
229646,228,-2147,273,-165,-82,-86,13582,-212,-156,-295,-216,35438,-40,34,127,0,0,3659,-65,0,1146,41,87,16642,-4,0,42,0,229620,0
229657,152,-2081,-58,-142,39,-369,13501,-130,-13,-216,-104,35443,-33,34,127,0,0,3649,-131,0,1146,41,87,16653,-4,0,42,0,229636,0
229667,197,-2030,-71,-83,116,-465,13446,-103,87,-289,-160,35449,-18,34,127,0,0,3636,-142,0,1146,41,87,16663,-4,0,42,0,229667,0
229677,332,-2068,138,-27,51,-265,13399,-89,46,-352,-216,35457,-25,34,127,0,0,3629,-87,0,1146,41,87,16673,-4,0,42,0,229667,0
229687,456,-2072,198,-23,-41,-74,13365,-80,48,-374,-128,35449,-30,34,127,0,0,3629,0,0,1146,41,87,16683,-4,0,42,0,229667,0
229697,278,-2173,103,36,-112,5,13341,-22,40,-209,-16,35437,-54,34,127,0,0,3634,54,0,1146,41,87,16693,-4,0,42,0,229667,0
229707,265,-2135,38,82,-47,-96,13357,36,99,-100,-8,35436,-47,34,127,0,0,3640,21,0,1146,41,87,16703,-4,0,42,0,229699,0
229717,215,-2189,71,72,0,-196,13360,14,53,122,24,35448,-47,34,127,0,0,3643,0,0,1146,41,87,16713,-4,0,42,0,229699,0
229727,241,-2283,94,102,-52,-179,13363,-3,-20,121,24,35457,-49,34,127,0,0,3643,0,0,1146,41,87,16723,-4,0,42,0,229714,0
229737,112,-2239,52,129,-117,-162,13364,0,-11,132,24,35452,-35,34,127,0,0,3643,-21,0,1146,41,87,16733,-4,0,42,0,229714,0
229747,25,-2186,115,134,-93,-214,13364,4,-6,133,56,35444,-32,34,127,0,0,3645,10,0,1146,41,87,16743,-4,0,42,0,229792,0
229757,47,-2144,125,106,-76,-317,13367,7,6,183,40,35454,-51,34,127,0,0,3647,21,0,1146,41,87,16753,-4,0,42,0,229792,0
229767,115,-2132,178,104,-130,-345,13367,4,6,207,40,35456,-77,34,127,0,0,3645,0,0,1146,41,87,16763,-4,0,42,0,229808,0
229777,62,-2131,128,24,-172,-255,13368,-1,2,188,40,35451,-54,34,127,0,0,3647,32,0,1146,41,87,16773,-4,0,42,0,229808,0
229787,56,-2231,87,-6,-139,-222,13372,21,5,321,88,35435,-41,34,127,0,0,3660,131,0,1146,41,87,16783,-4,0,42,0,229808,0
229797,-39,-2148,-11,-24,31,-306,13414,136,91,379,200,35432,-53,34,127,0,0,3671,109,0,1146,41,87,16793,-4,0,42,0,229808,0
229807,113,-2141,-47,-22,136,-361,13488,155,136,254,128,35437,-59,34,127,0,0,3680,98,0,1146,41,87,16803,-4,0,42,0,229808,0
229817,230,-2072,35,-11,180,-365,13525,53,-28,319,136,35441,-49,34,127,0,0,3682,54,0,1146,41,87,16813,-4,0,42,0,229808,0
229827,231,-2058,115,-34,167,-320,13551,67,-91,333,144,35439,-24,34,127,0,0,3693,76,0,1146,41,87,16823,-4,0,42,0,229808,0
229837,221,-2075,193,-64,185,-263,13581,73,1,433,184,35441,-31,34,127,0,0,3700,65,0,1146,41,87,16833,-4,0,42,0,229808,0
229847,244,-2056,224,-100,214,-232,13632,113,40,359,200,35463,-62,34,127,0,0,3711,76,0,1146,41,87,16843,-4,0,42,0,229839,0
229857,266,-1989,235,-131,210,-225,13668,81,2,458,192,35484,-88,34,127,0,0,3719,87,0,1146,41,87,16853,-4,0,42,0,229839,0
229867,316,-1997,248,-126,158,-208,13713,91,-3,438,232,35477,-81,34,127,0,0,3728,109,0,1146,41,87,16863,-4,0,42,0,229839,0
229877,260,-2044,298,-134,62,-166,13775,147,48,350,160,35461,-64,34,127,0,0,3739,87,0,1146,41,87,16873,-4,0,42,0,229870,0
229887,240,-2082,308,-143,51,-144,13829,83,17,345,184,35452,-60,34,127,0,0,3746,109,0,1146,41,87,16883,-4,0,42,0,229870,0
229897,257,-2049,307,-170,25,-175,13854,63,-79,532,184,35458,-68,34,127,0,0,3755,65,0,1146,41,87,16893,-4,0,42,0,229886,0
229908,312,-2078,263,-181,-24,-170,13906,101,0,446,184,35453,-60,34,127,0,0,3759,21,0,1146,41,87,16904,-4,0,42,0,229886,0
229918,237,-2041,243,-184,-117,-147,13952,99,33,368,112,35445,-27,34,127,0,0,3768,54,0,1146,41,87,16914,-4,0,42,0,229902,0
229928,200,-2060,226,-185,-162,-144,13974,42,-49,467,168,35450,-26,34,127,0,0,3770,32,0,1146,41,87,16924,-4,0,42,0,229917,0
229938,102,-2073,170,-181,-173,-188,14008,82,-31,341,120,35455,-27,34,127,0,0,3769,-10,0,1146,41,87,16934,-4,0,42,0,229917,0
229948,69,-2076,145,-175,-146,-240,14013,-15,-29,368,136,35456,-29,34,127,0,0,3774,21,0,1146,41,87,16944,-4,0,42,0,229933,0
229958,40,-2041,77,-188,-117,-323,14013,-3,-64,436,136,35457,-27,34,127,0,0,3771,-21,0,1146,41,87,16954,-4,0,42,0,229933,0
229968,53,-2057,71,-206,-101,-368,14013,-9,-17,391,112,35454,-15,34,127,0,0,3772,-5,0,1146,41,87,16964,-4,0,42,0,229948,0
229978,53,-2124,61,-199,-105,-416,14012,-11,-4,367,88,35470,-39,35,127,0,0,3770,-38,0,1146,41,87,16974,-4,0,42,0,229980,0
229988,39,-2115,66,-189,-90,-459,14011,-7,0,283,72,35468,-39,34,127,0,0,3765,-49,0,1146,41,87,16984,-4,0,42,0,229980,0
229998,53,-2144,96,-194,-63,-510,14009,-2,-6,178,0,35469,-29,34,127,0,0,3758,-98,0,1146,41,87,16994,-4,0,42,0,229980,0
230008,91,-2168,116,-195,-25,-518,13995,-31,-20,-16,8,35454,-10,34,127,0,0,3756,0,0,1146,41,87,17004,-4,0,42,0,229980,0
230018,147,-2123,111,-217,24,-484,13992,-15,1,-160,-56,35451,-2,34,127,0,0,3752,-21,0,1146,41,87,17014,-4,0,42,0,230011,0
230028,236,-2143,85,-206,63,-459,13983,-23,1,-128,-40,35456,-2,34,127,0,0,3752,-5,0,1146,41,87,17024,-4,0,42,0,230011,0
230038,396,-2034,104,-196,73,-403,13983,-1,4,-170,-40,35458,3,34,127,0,0,3752,16,0,1146,41,87,17034,-4,0,42,0,230011,0
230048,428,-1992,125,-196,48,-375,13982,3,17,-161,-40,35446,7,34,127,0,0,3752,5,0,1146,41,87,17044,-4,0,42,0,230027,0
230058,428,-2018,150,-206,7,-314,13979,-2,-5,-133,-32,35439,-4,34,127,0,0,3752,16,0,1146,41,87,17054,-4,0,42,0,230042,0
230068,369,-2036,164,-205,-19,-264,13978,-1,0,-136,-32,35445,-24,34,127,0,0,3749,-27,0,1146,41,87,17064,-4,0,42,0,230089,0
230078,321,-2030,152,-223,-39,-229,13976,-7,-1,-111,-48,35454,-19,34,127,0,0,3750,-49,0,1146,41,87,17074,-4,0,42,0,230089,0
230088,335,-2032,139,-219,-41,-245,13974,-1,-2,-124,-48,35455,-25,34,127,0,0,3750,-32,0,1146,41,87,17084,-4,0,42,0,230089,0
230098,266,-1997,138,-217,-42,-263,13957,-57,-22,-166,-56,35452,-32,34,127,0,0,3743,-10,0,1146,41,87,17094,-4,0,42,0,230089,0
230108,278,-2003,105,-206,-9,-251,13924,-51,-58,-105,-40,35453,-50,34,127,0,0,3735,-76,0,1146,41,87,17104,-4,0,42,0,230105,0
230118,352,-1973,64,-197,-7,-143,13912,-27,14,-279,-88,35460,-64,34,127,0,0,3735,-16,0,1146,41,87,17114,-4,0,42,0,230120,0
230128,384,-1991,73,-192,-26,-94,13894,-53,30,-218,-72,35461,-70,34,127,0,0,3733,-32,0,1146,41,87,17124,-4,0,42,0,230120,0
230138,415,-1962,42,-164,-36,-59,13868,-41,-32,-102,-24,35451,-62,34,127,0,0,3733,32,0,1146,41,87,17134,-4,0,42,0,230152,0
230148,394,-1960,40,-157,-41,-23,13869,9,48,-133,-24,35450,-72,34,127,0,0,3729,0,0,1146,41,87,17144,-4,0,42,0,230152,0
230159,339,-1980,53,-158,-50,14,13869,7,48,-153,-32,35453,-66,34,127,0,0,3728,-32,0,1146,41,87,17155,-4,0,42,0,230152,0
230169,263,-2053,83,-169,-45,8,13866,-1,-11,-210,-104,35456,-63,34,127,0,0,3728,-21,0,1146,41,87,17165,-4,0,42,0,230152,0
230179,257,-2074,89,-159,-27,-5,13862,-11,-1,-275,-80,35461,-62,34,127,0,0,3722,-54,0,1146,41,87,17175,-4,0,42,0,230152,0
230189,279,-2050,111,-166,-6,-5,13851,-35,-17,-353,-96,35444,-49,34,127,0,0,3719,-43,0,1146,41,87,17185,-4,0,42,0,230167,0
230199,277,-2065,109,-172,-32,5,13810,-129,-65,-294,-128,35460,-69,34,127,0,0,3713,-10,0,1146,41,87,17195,-4,0,42,0,230245,0
230209,195,-2068,115,-145,-54,-27,13771,-45,-63,-157,-64,35465,-53,34,127,0,0,3708,-54,0,1146,41,87,17205,-4,0,42,0,230261,0
230219,265,-2104,105,-146,-71,-42,13755,-37,61,-284,-104,35468,-52,34,127,0,0,3702,-65,0,1146,41,87,17215,-4,0,42,0,230261,0
230229,176,-2073,114,-154,-93,-87,13736,-39,31,-336,-144,35452,-45,34,127,0,0,3695,-43,0,1146,41,87,17225,-4,0,42,0,230261,0
230239,183,-2137,87,-159,-86,-105,13728,-11,18,-445,-136,35448,-57,34,127,0,0,3691,-76,0,1146,41,87,17235,-4,0,42,0,230261,0
230249,216,-2148,58,-154,-40,-97,13712,-55,6,-526,-256,35455,-64,34,127,0,0,3684,-54,0,1146,41,87,17245,-4,0,42,0,230261,0
230259,236,-2108,42,-153,-23,-99,13656,-144,-97,-279,-128,35458,-50,34,127,0,0,3682,-43,0,1146,41,87,17255,-4,0,42,0,230261,0
230269,241,-2121,22,-152,4,-124,13603,-102,-81,-106,-72,35451,-55,34,127,0,0,3680,-32,0,1146,41,87,17265,-4,0,42,0,230261,0
230279,219,-2122,48,-152,20,-126,13603,25,112,-224,-56,35448,-67,34,127,0,0,3676,-21,0,1146,41,87,17275,-4,0,42,0,230261,0
230289,213,-2125,97,-164,7,-170,13598,-16,103,-297,-104,35444,-92,34,127,0,0,3678,10,0,1146,41,87,17285,-4,0,42,0,230277,0
230299,168,-2165,107,-167,-10,-196,13600,5,-4,-321,-136,35461,-65,34,127,0,0,3673,-54,0,1146,41,87,17295,-4,0,42,0,230277,0
230309,116,-2208,154,-166,-18,-259,13596,-1,7,-362,-152,35472,-50,34,127,0,0,3673,-32,0,1146,41,87,17305,-4,0,42,0,230277,0
230319,148,-2198,157,-169,-25,-302,13593,-6,-5,-408,-136,35476,-36,34,127,0,0,3671,0,0,1146,41,87,17315,-4,0,42,0,230323,0
230329,135,-2180,153,-172,-89,-370,13590,-11,1,-461,-144,35476,-47,34,127,0,0,3671,32,0,1146,41,87,17325,-4,0,42,0,230323,0
230339,101,-2175,138,-163,-127,-434,13572,-50,-27,-406,-176,35468,-53,34,127,0,0,3671,32,0,1146,41,87,17335,-4,0,42,0,230323,0
230349,60,-2185,121,-157,-169,-563,13541,-60,-53,-202,-72,35459,-44,34,127,0,0,3665,-21,0,1146,41,87,17345,-4,0,42,0,230339,0
230359,35,-2225,119,-157,-181,-667,13531,3,21,-260,-40,35449,-52,34,127,0,0,3665,-21,0,1146,41,87,17355,-4,0,42,0,230339,0
230369,-29,-2240,109,-198,-141,-806,13528,-23,56,-373,-120,35449,-54,34,127,0,0,3660,-21,0,1146,41,87,17365,-4,0,42,0,230339,0
230379,-11,-2235,39,-212,-47,-886,13506,-58,-30,-303,-152,35457,-58,34,127,0,0,3656,-43,0,1146,41,87,17375,-4,0,42,0,230370,0
230389,120,-2159,-18,-224,67,-1004,13467,-71,-76,-166,-120,35462,-39,34,127,0,0,3647,-109,0,1146,41,87,17385,-4,0,42,0,230370,0
230399,197,-2125,-6,-235,77,-1022,13453,-39,23,-386,-152,35459,-31,34,127,0,0,3645,-32,0,1146,41,87,17395,-4,0,42,0,230370,0
230410,207,-2132,35,-251,105,-1089,13424,-62,14,-289,-128,35454,-31,34,127,0,0,3640,-54,0,1146,41,87,17406,-4,0,42,0,230386,0
230420,194,-2109,53,-248,113,-1132,13413,0,3,-356,-120,35461,-30,34,127,0,0,3635,-65,0,1146,41,87,17416,-4,0,42,0,230417,0
230430,233,-2153,46,-247,131,-1134,13411,-15,51,-486,-144,35461,-37,34,127,0,0,3633,-21,0,1146,41,87,17426,-4,0,42,0,230417,0
230440,304,-2160,50,-263,163,-1152,13405,-18,3,-553,-136,35456,-42,34,127,0,0,3633,21,0,1146,41,87,17436,-4,0,42,0,230417,0
230450,403,-2096,54,-271,252,-1190,13403,-4,0,-516,-128,35451,-36,34,127,0,0,3629,-27,0,1146,41,87,17446,-4,0,42,0,230417,0
230460,510,-2069,68,-289,296,-1174,13402,-8,4,-521,-152,35446,-41,34,127,0,0,3637,21,0,1146,41,87,17456,-4,0,42,0,230448,0
230470,673,-1937,19,-299,359,-1086,13403,-3,-1,-476,-128,35453,-50,34,127,0,0,3633,10,0,1146,41,87,17466,-4,0,42,0,230448,0
230480,746,-1877,8,-298,368,-989,13403,-2,1,-459,-104,35452,-37,34,127,0,0,3641,82,0,1146,41,87,17476,-4,0,42,0,230448,0
230490,869,-1825,9,-278,356,-863,13407,4,5,-335,-64,35454,-61,34,127,0,0,3643,65,0,1146,41,87,17486,-4,0,42,0,230464,0
230500,871,-1780,71,-275,314,-768,13409,1,5,-248,-48,35466,-66,34,127,0,0,3645,38,0,1146,41,87,17496,-4,0,42,0,230480,0
230510,896,-1789,154,-277,257,-632,13415,20,6,-118,-32,35471,-67,34,127,0,0,3650,21,0,1146,41,87,17506,-4,0,42,0,230495,0
230520,889,-1821,195,-290,181,-550,13420,15,4,8,32,35470,-53,34,127,0,0,3654,38,0,1146,41,87,17516,-4,0,42,0,230495,0
230530,844,-1887,223,-284,102,-416,13427,16,-1,108,88,35457,-40,34,127,0,0,3657,60,0,1146,41,87,17526,-4,0,42,0,230511,0
230540,863,-1902,188,-274,86,-330,13436,16,4,238,96,35459,-47,34,127,0,0,3662,54,0,1146,41,87,17536,-4,0,42,0,230511,0
230550,926,-1838,149,-264,20,-229,13448,37,5,359,160,35458,-42,34,127,0,0,3671,120,0,1146,41,87,17546,-4,0,42,0,230558,0
230560,929,-1833,125,-253,-27,-156,13487,88,61,267,88,35463,-51,34,127,0,0,3674,76,0,1146,41,87,17556,-4,0,42,0,230558,0
230570,885,-1874,108,-230,-117,-30,13496,-3,0,342,112,35456,-24,34,127,0,0,3679,65,0,1146,41,87,17566,-4,0,42,0,230558,0
230580,761,-1898,116,-205,-176,26,13497,9,-72,450,152,35450,-32,34,127,0,0,3680,38,0,1146,41,87,17576,-4,0,42,0,230558,0
230590,663,-1992,98,-184,-234,51,13504,23,-4,537,192,35450,-23,34,127,0,0,3691,87,0,1146,41,87,17586,-4,0,42,0,230573,0
230600,583,-2016,98,-181,-250,52,13531,86,49,540,208,35458,-36,34,127,0,0,3691,65,0,1146,41,87,17596,-4,0,42,0,230573,0
230610,527,-2041,31,-184,-265,61,13577,80,77,281,144,35467,-45,34,127,0,0,3693,71,0,1146,41,87,17606,-4,0,42,0,230605,0
230620,450,-2030,-28,-168,-260,35,13614,85,11,241,88,35471,-37,34,127,0,0,3702,98,0,1146,41,87,17616,-4,0,42,0,230605,0
230630,436,-2036,-118,-133,-215,10,13625,-2,-64,378,136,35464,-51,34,127,0,0,3699,5,0,1146,41,87,17626,-4,0,42,0,230605,0
230640,387,-2038,-136,-102,-191,-29,13627,16,-71,487,200,35452,-55,34,127,0,0,3705,27,0,1146,41,87,17636,-4,0,42,0,230620,0
230650,436,-2099,-111,-94,-159,-91,13642,30,12,532,224,35460,-83,34,127,0,0,3713,71,0,1146,41,87,17646,-4,0,42,0,230636,0
230661,338,-2114,-43,-89,-127,-166,13684,105,71,431,208,35459,-84,34,127,0,0,3719,76,0,1146,41,87,17657,-4,0,42,0,230651,0
230671,340,-2150,-40,-96,-117,-227,13726,99,52,420,176,35461,-84,34,127,0,0,3728,98,0,1146,41,87,17667,-4,0,42,0,230651,0
230681,304,-2187,-24,-88,-112,-328,13783,108,35,299,112,35458,-70,34,127,0,0,3733,76,0,1146,41,87,17677,-4,0,42,0,230651,0
230691,265,-2180,-12,-82,-93,-434,13817,51,-16,292,144,35467,-68,34,127,0,0,3739,76,0,1146,41,87,17687,-4,0,42,0,230683,0
230701,254,-2165,-31,-81,-34,-549,13821,8,-107,527,176,35464,-62,34,127,0,0,3746,65,0,1146,41,87,17697,-4,0,42,0,230683,0
230711,345,-2145,-53,-87,52,-603,13832,35,-49,638,232,35466,-69,34,127,0,0,3752,76,0,1146,41,87,17707,-4,0,42,0,230683,0
230721,475,-2075,-36,-101,99,-660,13866,107,65,600,216,35460,-61,34,127,0,0,3761,87,0,1146,41,87,17717,-4,0,42,0,230698,0
230731,544,-2052,-17,-124,92,-676,13923,123,89,430,200,35468,-78,34,127,0,0,3766,98,0,1146,41,87,17727,-4,0,42,0,230730,0
230741,494,-2106,46,-111,32,-705,13969,93,25,409,176,35458,-65,34,127,0,0,3772,54,0,1146,41,87,17737,-4,0,42,0,230730,0
230751,425,-2174,78,-83,-52,-738,14014,105,-28,401,216,35458,-53,34,127,0,0,3785,120,0,1146,41,87,17747,-4,0,42,0,230745,0
230761,378,-2268,151,-48,-173,-832,14058,110,-6,527,304,35457,-37,34,127,0,0,3803,153,0,1146,41,87,17757,-4,0,42,0,230745,0
230771,358,-2335,209,-29,-244,-928,14122,148,42,517,304,35466,-56,34,127,0,0,3816,142,0,1146,41,87,17767,-4,0,7,0,230745,0
230781,298,-2379,218,10,-368,-1109,14210,221,85,442,328,35473,-47,34,127,0,0,3834,175,0,1146,41,87,17777,-4,0,7,0,230761,0
230791,301,-2384,198,47,-490,-1175,14301,176,55,453,320,35474,-47,34,127,0,0,3856,208,0,1146,41,87,17787,-4,0,8,0,230776,0
230801,212,-2451,138,98,-606,-1349,14396,207,3,443,376,35471,-48,34,127,0,0,3875,219,0,1146,41,87,17797,-4,0,8,0,230776,0
230811,238,-2525,115,135,-651,-1486,14494,211,14,498,376,35472,-60,34,127,0,0,3897,208,0,1146,41,87,17807,-4,0,8,0,230808,0
230821,212,-2641,100,205,-684,-1686,14603,236,24,450,440,35476,-35,34,127,0,0,3919,208,0,1146,41,87,17817,-4,0,8,0,230808,0
230831,294,-2566,109,233,-664,-1794,14712,247,17,515,480,35476,-32,34,127,0,0,3941,186,0,1146,41,87,17827,-4,0,9,0,230808,0
230841,378,-2418,128,219,-696,-1906,14831,259,16,452,480,35468,-18,34,127,0,0,3966,241,0,1146,41,87,17837,-4,0,9,0,230808,0
230851,500,-2402,103,169,-705,-1975,14953,263,1,467,512,35468,-22,34,127,0,0,3994,285,0,1146,41,87,17847,-4,0,10,0,230933,0
230861,520,-2371,101,138,-679,-2035,15091,304,40,477,480,35478,-35,34,127,0,0,4027,318,0,1146,41,87,17857,-4,0,11,0,230933,0
230871,578,-2307,126,114,-649,-2060,15230,310,39,478,544,35478,-34,34,127,0,0,4058,340,0,1146,41,87,17867,-4,0,11,0,230933,0
230881,641,-2159,135,81,-655,-2087,15376,335,16,498,600,35467,-50,34,127,0,0,4089,307,0,1146,41,87,17877,-4,0,12,0,230933,0
230891,714,-2103,75,53,-682,-2079,15527,331,30,513,680,35458,-49,34,127,0,0,4119,340,0,1146,41,87,17887,-4,0,13,0,230948,0
230901,719,-1992,152,35,-745,-2026,15683,354,16,472,664,35459,-62,34,127,0,0,4155,329,0,1146,41,87,17897,-4,0,14,0,230948,0
230911,708,-1923,133,38,-806,-2023,15851,396,38,463,720,35462,-60,34,127,0,0,4190,340,0,1146,41,87,17907,-4,0,15,0,230948,0
230921,758,-1776,98,48,-850,-1955,16016,354,20,488,712,35462,-41,34,127,0,0,4225,340,0,1146,41,87,17917,-4,0,15,0,230948,0
230931,445,-1528,135,119,-670,-1718,16175,347,-18,525,736,35464,-34,34,127,0,0,4253,296,0,1146,41,87,17927,-4,0,16,0,230948,0
230941,181,-1531,-63,247,74,-1272,16334,339,-13,534,624,35467,-40,34,127,0,0,4267,87,0,1146,41,87,17937,-4,0,17,0,230948,0
230951,-196,-1432,118,469,358,-959,16478,291,-25,358,256,35466,-54,34,127,0,0,4256,-131,0,1146,41,87,17947,-4,0,18,0,230948,0
230961,-303,-1314,215,695,652,-357,16558,123,-150,-2,-56,35465,-54,34,127,0,0,4238,-175,0,1146,41,87,17957,-4,0,20,0,230948,0
230972,-187,-1236,247,774,807,114,16506,-143,-372,-272,-208,35465,-56,34,127,0,0,4217,-192,0,1146,41,87,17968,-4,0,21,0,230948,0
230982,-125,-1201,193,862,856,861,16407,-248,-318,-176,-176,35477,-53,34,127,0,0,4198,-164,0,1146,41,87,17978,-4,0,24,0,230964,0
230992,-198,-1238,159,926,780,1282,16302,-231,-102,-160,-216,35495,-65,34,127,0,0,4178,-181,0,1146,41,87,17988,-4,0,25,0,230979,0
231002,-111,-1320,167,951,648,1967,16192,-236,-15,-195,-216,35508,-90,34,127,0,0,4149,-263,0,1146,41,87,17998,-4,0,28,0,230979,0
231012,-34,-1410,203,951,507,2471,16088,-238,0,-255,-232,35502,-94,34,127,0,0,4127,-219,0,1146,41,87,18008,-4,0,30,0,230995,0
231022,-7,-1529,217,870,300,3149,15981,-233,3,-228,-240,35489,-78,34,127,0,0,4112,-203,0,1146,41,87,18018,-4,0,33,0,231026,0
231032,-13,-1642,207,824,200,3520,15879,-218,-5,-198,-176,35478,-76,34,127,0,0,4095,-175,0,1146,41,87,18028,-4,0,35,0,231042,0
231042,-27,-1786,118,792,37,3995,15787,-185,24,-178,-168,35478,-70,34,127,0,0,4078,-170,0,1146,41,87,18038,-4,0,38,0,231042,0
231052,-55,-1862,91,795,-66,4324,15728,-114,79,-318,-224,35477,-58,34,127,0,0,4063,-203,0,1146,41,87,18048,-4,0,41,0,231042,0
231062,-71,-1952,157,751,-169,4801,15655,-209,32,-331,-168,35469,-48,35,127,0,0,4055,-27,0,1146,41,87,18058,-4,0,44,0,231042,0
231072,-191,-1978,190,710,-188,5038,15574,-144,-58,-142,-56,35467,-44,34,127,0,0,4050,-16,0,1146,41,87,18068,-4,0,47,0,231042,0
231082,-208,-2069,88,702,-159,5362,15541,-47,88,-48,-8,35474,-63,34,127,0,0,4051,43,0,1146,41,87,18078,-4,0,51,0,231058,0
231092,-215,-2081,6,736,-120,5558,15550,14,175,-56,-48,35492,-69,34,127,0,0,4056,0,0,1146,41,87,18088,-4,0,53,0,231073,0
231102,-243,-2124,-20,803,-38,5837,15549,26,63,91,40,35493,-90,34,127,0,0,4061,54,0,1146,41,87,18098,-4,0,57,15,231089,0
231112,-239,-2167,22,835,12,5972,15561,22,14,254,152,35489,-102,34,127,0,0,4078,197,0,1146,41,87,18108,-4,0,60,12,231104,0
231122,-342,-2301,140,857,44,6061,15602,124,68,433,248,35478,-93,34,127,0,0,4092,181,0,1146,41,87,18118,-4,0,65,9,231104,0
231132,-339,-2381,231,865,-3,6140,15680,171,133,392,360,35479,-93,34,127,0,0,4125,346,0,1146,41,87,18128,-4,0,67,8,231104,0
231142,-333,-2410,193,854,-93,6230,15781,269,110,552,584,35476,-74,34,127,0,0,4173,532,0,1146,41,87,18138,-4,0,72,5,231136,0
231152,-230,-2419,148,830,-207,6289,15938,359,152,548,856,35476,-58,34,127,0,0,4234,681,0,1146,41,87,18148,-4,0,75,4,231151,0
231162,-357,-2358,186,732,-330,6166,16129,447,168,651,1160,35478,-45,34,127,0,0,4300,675,0,1146,41,87,18158,-4,0,79,3,231151,0
231172,-374,-2384,152,702,-290,6017,16368,544,163,611,1344,35473,-47,35,127,0,0,4360,626,0,1146,41,87,18168,-4,0,82,2,231151,0
231183,-362,-2388,68,647,-114,5883,16667,625,143,598,1504,35465,-54,34,127,0,0,4436,681,0,1146,41,87,18179,-4,0,86,1,231151,0
231193,-478,-2279,109,548,148,5876,16960,654,90,638,1632,35470,-43,34,127,0,0,4508,714,0,1146,41,87,18189,-4,0,89,0,231183,0
231203,-452,-2167,57,506,371,5832,17281,730,85,652,1744,35463,-44,34,127,0,0,4583,747,0,1146,41,87,18199,-4,0,93,0,231183,0
231213,-288,-2109,-86,502,703,5640,17630,785,104,671,1928,35458,-32,35,127,0,0,4660,769,0,1146,41,87,18209,-4,0,96,0,231183,0
231223,-224,-2105,-71,513,854,5396,18005,830,106,579,2008,35459,-42,34,127,0,0,4739,758,0,1146,41,87,18219,-4,0,100,0,231198,0
231233,58,-1804,-28,469,1131,4817,18403,885,96,604,2080,35458,-29,34,127,0,0,4807,692,0,1146,41,87,18229,-4,0,102,0,231245,0
231243,64,-1664,125,343,1164,4408,18803,870,44,474,1888,35457,-41,35,127,0,0,4866,593,0,1146,41,87,18239,-4,0,106,0,231245,0
231253,87,-1740,6,253,810,3767,19180,816,-39,479,1904,35455,-61,34,127,0,0,4943,791,0,1146,41,87,18249,-4,0,108,0,231245,0
231263,218,-1785,-19,309,402,3080,19553,845,-45,614,2048,35459,-64,34,127,0,0,5025,812,0,1146,41,87,18259,-4,0,111,-1,231245,0
231273,840,-1844,66,394,-77,1788,19942,864,32,604,2176,35462,-64,34,127,0,0,5110,834,0,1146,41,87,18269,-4,0,113,-1,231261,0
231283,1129,-1819,226,331,-290,803,20346,884,66,490,2048,35464,-46,34,127,0,0,5170,582,0,1146,41,87,18279,-4,0,116,-1,231261,0
231293,1405,-1801,222,198,-642,-790,20730,806,-5,342,1696,35463,-15,34,127,0,0,5200,263,0,1146,41,87,18289,-4,0,117,-2,231292,0
231303,1558,-1815,172,193,-1160,-1831,21063,685,-141,204,1200,35470,-18,34,127,0,0,5216,131,0,1146,41,87,18299,-4,0,118,-2,231292,0
231313,9860,-15947,-261,-433,-3604,-7322,21345,620,-201,107,976,35466,-32,34,127,0,0,5205,-65,0,1146,41,87,18309,-4,0,119,-3,231292,0
231323,1580,-3982,6808,2498,-2623,-8839,21493,-23,-289,-1836,-2400,35462,-43,34,127,0,0,4864,-3614,0,1146,41,87,18319,-4,0,118,-3,231292,0
231333,2050,1322,-15,-422,-20,-11536,20996,-1377,-1516,-2125,-4544,35451,-46,35,127,0,0,4543,-3350,0,1146,41,87,18329,-4,0,116,-3,231323,0
231343,-2980,-1026,306,-925,-410,-10660,20064,-2426,-2077,-2442,-7720,35420,18,34,127,0,0,4100,-4372,0,1146,41,87,18339,-4,0,113,-3,231323,0
231353,-3775,-624,-2493,71,-2414,-6321,18612,-3382,-1852,-904,-7784,35398,130,35,127,0,0,3889,-1911,0,1146,41,87,18349,-4,0,111,-4,231323,0
231363,97,-1164,-1610,-793,-2146,-7138,17144,-3095,-1049,91,-6088,35407,186,34,127,0,0,3737,-1636,0,1146,41,87,18359,-4,0,109,-4,231378,0
231373,453,-3667,-1408,188,1034,-7819,15858,-2753,372,60,-5872,35440,132,34,127,0,0,3531,-1944,0,1146,41,87,18369,-4,0,108,-3,231382,0
231383,905,-1523,-1514,94,3087,-8119,14675,-2532,549,-103,-5752,35469,27,35,127,0,0,3306,-2307,0,1146,41,87,18379,-4,0,106,-3,231382,0
231393,3708,242,-970,-91,823,-6240,13578,-2356,361,-235,-5400,35468,-62,34,127,0,0,3128,-1790,0,1146,41,87,18389,-4,0,106,-3,231382,0
231403,2542,-969,-739,-32,-193,-4486,12573,-2146,344,-175,-4960,35459,-58,34,127,0,0,2986,-1362,0,1146,41,87,18399,-4,0,104,-3,231382,0
231414,867,-2311,894,788,-398,-3929,11582,-1903,371,-118,-4128,35462,-50,35,127,0,0,2863,-1082,0,1146,41,87,18410,-4,0,103,-3,231398,0
231424,840,-2146,1208,1018,314,-4309,10796,-1665,394,-170,-3712,35469,-56,35,127,0,0,2733,-1334,0,1146,41,87,18420,-4,0,102,-3,231398,0
231434,1619,-1478,900,713,703,-3648,10078,-1577,343,-422,-3544,35478,-58,34,127,0,0,2600,-988,0,1146,41,87,18430,-4,0,100,-3,231414,0
231444,1756,-1820,543,562,150,-2600,9404,-1453,208,-343,-3232,35470,-46,34,127,0,0,2501,-884,0,1146,41,87,18440,-4,0,100,-3,231445,0
231454,1170,-2781,652,1077,-382,-1696,8801,-1283,206,-219,-2640,35468,-45,34,127,0,0,2440,-532,0,1146,41,87,18450,-4,0,98,-3,231445,0
231464,769,-2511,789,1149,-168,-1646,8291,-1063,315,-153,-2032,35461,-58,34,127,0,0,2403,-346,0,1146,41,87,18460,-4,0,97,-3,231445,0
231474,442,-2615,891,738,-109,-1306,7870,-867,352,-121,-1496,35459,-72,35,127,0,0,2365,-302,0,1146,41,87,18470,-4,0,95,-3,231445,0
231484,704,-2813,691,506,-399,-815,7537,-675,339,-128,-912,35464,-66,34,127,0,0,2367,76,0,1146,41,87,18480,-4,0,95,-3,231461,0
231494,925,-2732,364,664,-335,-638,7310,-426,371,-163,-352,35471,-90,34,127,0,0,2376,142,0,1146,41,87,18490,-4,0,93,-3,231476,0
231504,1202,-2279,564,749,-140,-615,7199,-139,425,-16,32,35475,-91,34,127,0,0,2388,131,0,1146,41,87,18500,-4,0,93,-2,231507,0
231514,1481,-1932,859,431,-435,-21,7241,111,523,60,128,35470,-100,34,127,0,0,2415,296,0,1146,41,87,18510,-4,0,92,-2,231507,0
231524,1194,-1821,990,215,-621,511,7318,202,347,392,456,35460,-75,34,127,0,0,2473,571,0,1146,41,87,18520,-4,0,91,-2,231507,0
231534,839,-2002,707,1,-654,852,7460,353,182,486,768,35460,-91,34,127,0,0,2541,686,0,1146,41,87,18530,-4,0,90,-1,231523,0
231544,839,-2245,906,52,-458,812,7654,469,231,488,1040,35466,-104,34,127,0,0,2608,642,0,1146,41,87,18540,-4,0,89,-1,231523,0
231554,914,-2214,1123,45,-513,866,7883,528,170,543,1248,35481,-113,35,127,0,0,2681,697,0,1146,41,87,18550,-4,0,88,0,231632,0
231564,1038,-2295,1169,-120,-851,1066,8142,593,127,610,1512,35482,-83,34,127,0,0,2765,862,0,1146,41,87,18560,-4,0,88,0,231632,0
231574,852,-2303,929,-306,-1376,1240,8442,698,136,654,1768,35472,-64,34,127,0,0,2858,884,0,1146,41,87,18570,-4,0,87,0,231632,0
231584,548,-2277,611,-405,-1548,1272,8794,810,176,679,2096,35452,-39,34,127,0,0,2973,1065,0,1146,41,87,18580,-4,0,86,0,231648,0
231594,524,-2215,566,-369,-1410,1209,9207,957,211,656,2472,35450,-47,35,127,0,0,3097,1252,0,1146,41,87,18590,-4,0,85,1,231648,0
231604,421,-2172,527,-391,-1328,1140,9687,1094,248,636,2712,35450,-58,34,127,0,0,3216,1192,0,1146,41,87,18600,-4,0,84,2,231648,0
231614,361,-2302,738,-411,-1110,1071,10217,1191,225,553,2912,35447,-57,34,127,0,0,3335,1120,0,1146,41,87,18610,-4,0,84,2,231648,0
231624,390,-2196,782,-525,-1050,1081,10782,1264,169,504,3024,35447,-45,35,127,0,0,3460,1241,0,1146,41,87,18620,-4,0,83,3,231648,0
231634,620,-2045,646,-732,-1147,945,11367,1292,98,506,3144,35446,-35,34,127,0,0,3581,1208,0,1146,41,87,18630,-4,0,82,4,231648,0
231644,484,-2008,490,-809,-1103,910,11957,1296,45,477,3216,35456,-27,35,127,0,0,3710,1252,0,1146,41,87,18640,-4,0,82,5,231648,0
231654,504,-1973,257,-908,-973,750,12556,1340,33,558,3336,35454,-22,34,127,0,0,3823,1137,0,1146,41,87,18650,-4,0,81,6,231648,0
231664,493,-2124,240,-895,-978,665,13172,1354,49,472,3344,35453,-17,34,127,0,0,3939,1137,0,1146,41,87,18660,-4,0,80,6,231648,0
231675,334,-2149,397,-880,-978,591,13863,1381,42,465,3264,35444,-1,34,127,0,0,4064,1131,0,1146,41,87,18671,-4,0,79,7,231664,0
231685,191,-2153,470,-998,-931,547,14485,1373,20,496,3184,35460,-6,34,127,0,0,4187,1186,0,1146,41,87,18681,-4,0,79,8,231664,0
231695,217,-2252,388,-1001,-930,437,15120,1402,9,538,3264,35471,-18,34,127,0,0,4313,1241,0,1146,41,87,18691,-4,0,78,9,231695,0
231705,40,-1970,338,-906,-951,385,15760,1408,37,537,3272,35472,-19,34,127,0,0,4438,1241,0,1146,41,87,18701,-4,0,78,10,231695,0
231715,520,-2103,357,-841,-1166,85,16398,1402,4,570,3280,35468,-28,34,127,0,0,4554,1120,0,1146,41,87,18711,-4,0,77,11,231695,0
231725,95,-2161,573,-872,-1553,-146,17019,1342,-41,464,3216,35458,-23,34,127,0,0,4664,1120,0,1146,41,87,18721,-4,0,76,12,231695,0
231735,-160,-2299,629,-1001,-1745,-363,17622,1333,-66,535,3184,35457,-37,34,127,0,0,4781,1142,0,1146,41,87,18731,-4,0,76,13,231726,0
231745,-605,-2499,575,-1190,-1629,-804,18173,1355,-16,524,3168,35462,-36,35,127,0,0,4884,1054,0,1146,41,87,18741,-4,0,75,14,231726,0
231755,-974,-2376,353,-1126,-1365,-1266,18777,1312,0,481,2992,35459,-39,35,127,0,0,4981,944,0,1146,41,87,18751,-4,0,74,15,231726,0
231765,-660,-2007,23,-1130,-840,-2041,19356,1236,-73,380,2744,35462,-36,34,127,0,0,5062,780,0,1146,41,87,18761,-4,0,74,16,231757,0
231775,-300,-1944,-18,-1017,-533,-2398,19877,1104,-168,361,2488,35465,-50,34,127,0,0,5128,659,0,1146,41,87,18771,-4,0,73,18,231757,0
231785,-309,-1988,-215,-998,-812,-2848,20340,977,-221,312,2096,35467,-43,34,127,0,0,5178,472,0,1146,41,87,18781,-4,0,73,18,231773,0
231795,-244,-2113,-14,-1024,-984,-3109,20738,819,-239,312,1824,35460,-50,34,127,0,0,5229,527,0,1146,41,87,18791,-4,0,72,20,231773,0
231805,-656,-2127,168,-1096,-1123,-3714,21089,747,-217,361,1648,35475,-66,35,127,0,0,5275,406,0,1146,41,87,18801,-4,0,72,21,231789,0
231815,-798,-2078,184,-1147,-992,-4108,21410,685,-140,350,1448,35485,-70,34,127,0,0,5312,329,0,1146,41,87,18811,-4,0,72,22,231789,0
231825,-859,-2039,37,-1173,-760,-4769,21700,621,-116,282,1152,35487,-75,35,127,0,0,5337,230,0,1146,41,87,18821,-4,0,71,23,231804,0
231835,-750,-2043,-62,-1148,-717,-5260,21943,505,-146,275,840,35477,-73,34,127,0,0,5354,164,0,1146,41,87,18831,-4,0,71,24,231820,0
231845,-652,-1984,-216,-1039,-846,-6045,22141,404,-218,287,528,35477,-77,34,127,0,0,5359,54,0,1146,41,87,18841,-4,0,71,25,231820,0
231855,-688,-2073,-210,-979,-1099,-6417,22285,282,-199,250,200,35481,-90,34,127,0,0,5356,10,0,1146,41,87,18851,-4,0,71,26,231835,0
231865,-885,-2329,-16,-839,-1585,-6902,22368,143,-170,127,32,35480,-90,34,127,0,0,5359,43,0,1146,41,87,18861,-4,0,71,27,231851,0
231875,-1484,-2287,180,-689,-1822,-6889,22391,27,-234,179,-8,35471,-99,34,127,0,0,5359,-10,0,1146,41,87,18871,-4,0,71,28,231867,0
231885,-1793,-2974,474,-715,-2369,-6810,22403,21,-135,248,264,35467,-91,34,127,0,0,5409,549,0,1146,41,87,18881,-4,0,71,29,231867,0
231895,-18,-3992,349,-976,-2097,-7391,22486,288,99,1044,736,35467,-94,34,127,0,0,5521,1153,0,1146,41,87,18891,-4,0,71,30,231867,0
231906,-639,-4309,686,-1156,-2409,-7849,22562,-193,162,-1648,-1776,35477,-87,34,127,0,0,5550,43,0,1146,41,87,18902,-4,0,72,31,231882,0
231916,-1337,-3886,1401,-1257,-2647,-6295,22177,-1064,-981,-1356,-3200,35478,-73,34,127,0,0,5618,747,0,1146,41,87,18912,-4,0,72,32,231914,0
231926,-2163,-3025,1841,-1712,-3257,-4731,21586,-1344,-1280,-553,-3016,35468,-29,34,127,0,0,5807,2048,0,1146,41,87,18922,-4,0,73,33,231914,0
231936,-299,-2141,1456,-1820,-2181,-4758,21028,-1142,-325,-53,-1912,35461,-33,35,127,0,0,6052,2351,0,1146,41,87,18932,-4,0,74,34,231914,0
231946,1153,-2153,-667,-2037,1794,-6652,20595,-892,324,-238,-2752,35470,-50,35,127,0,0,6053,-285,0,1146,41,87,18942,-4,0,76,34,231914,0
231956,1215,-2752,-273,-1784,3657,-6678,20012,-1614,3,-2413,-5864,35468,-12,34,127,0,0,5853,-2136,0,1146,41,87,18952,-4,0,77,34,232007,0
231966,926,-2579,1004,-1403,5007,-5540,18852,-2946,-1440,-2409,-8712,35430,130,34,127,0,0,5601,-2592,0,1146,41,87,18962,-4,0,79,34,232007,0
231976,401,-2200,1555,-1475,5058,-5050,17175,-3952,-2133,-1702,-7000,35372,304,34,127,0,0,5330,-2680,0,1146,41,87,18972,-4,0,81,34,232023,0
231986,464,-1728,1606,-1472,4821,-4807,15966,-1506,-268,6846,2544,35405,114,34,127,0,0,5062,-2664,0,1146,41,87,18982,-4,0,83,34,232023,0
231996,1453,-1655,1347,-1686,3912,-2880,16490,1695,4453,2743,5224,35404,86,34,127,0,0,4881,-1691,0,1146,41,87,18992,-4,0,85,34,232023,0
232006,1801,-1339,1160,-1805,3443,-285,17477,2317,4223,960,4048,35426,-10,35,127,0,0,4787,-856,0,1146,41,87,19002,-4,0,88,33,232023,0
232016,1388,-784,1167,-1832,2817,952,18362,1738,659,-644,1760,35408,80,34,127,0,0,4742,-379,0,1146,41,87,19012,-4,0,90,33,232023,0
232026,1696,-527,1173,-2060,2205,1797,18899,965,-906,-628,192,35434,-28,34,127,0,0,4696,-565,0,1146,41,87,19022,-4,0,93,32,232023,0
232036,2315,-714,1245,-2259,1887,2919,19006,-182,-1485,-1649,-704,35462,-93,34,127,0,0,4629,-670,0,1146,41,87,19032,-4,0,95,31,232023,0
232046,2333,-686,1245,-2569,1679,4832,18814,-486,-1471,-508,-1176,35473,-88,34,127,0,0,4550,-774,0,1146,41,87,19042,-4,0,97,30,232023,0
232056,2186,-552,1215,-2701,1411,5989,18542,-638,-696,-387,-1368,35480,-41,34,127,0,0,4476,-697,0,1146,41,87,19052,-4,0,99,30,232023,0
232066,1708,-234,953,-2664,593,7106,18234,-701,-220,-412,-1720,35480,-31,34,127,0,0,4381,-961,0,1146,41,87,19062,-4,0,102,29,232054,0
232076,1661,-88,686,-2510,-16,7851,17878,-822,-155,-516,-2016,35464,-10,34,127,0,0,4281,-966,0,1146,41,87,19072,-4,0,104,28,232054,0
232086,1599,77,420,-2024,-960,9206,17468,-925,-199,-446,-2136,35443,1,34,127,0,0,4197,-829,0,1146,41,87,19082,-4,0,107,27,232070,0
232096,1438,290,238,-1480,-1480,10115,17041,-933,-135,-281,-1920,35419,-16,34,127,0,0,4149,-538,0,1146,41,87,19092,-4,0,109,26,232070,0
232106,1249,525,-57,-524,-2082,11186,16642,-838,24,-152,-1456,35427,-25,34,127,0,0,4116,-274,0,1146,41,87,19102,-4,0,112,25,232101,0
232116,1119,479,-104,190,-2307,11747,16300,-714,162,-91,-1016,35434,-29,34,127,0,0,4095,-214,0,1146,41,87,19112,-4,0,114,24,232101,0
232126,785,59,5,1324,-2122,12409,16022,-558,232,-91,-592,35436,-30,34,127,0,0,4085,-109,0,1146,41,87,19122,-4,0,116,23,232101,0
232136,418,-307,130,1983,-1589,12652,15815,-418,261,-104,-288,35433,-31,34,127,0,0,4078,-71,0,1146,41,87,19132,-4,0,118,22,232117,0
232146,-101,-736,443,2702,-286,12632,15686,-220,294,-91,-96,35440,-28,34,127,0,0,4071,-16,0,1146,41,87,19142,-4,0,121,20,232164,0
232157,-229,-1362,258,3466,1209,12333,15640,-29,318,61,-8,35447,-12,34,127,0,0,4078,54,0,1146,41,87,19153,-4,0,123,20,232164,0
232167,-48,-1735,29,3867,2079,12230,15661,76,269,234,240,35450,0,34,127,0,0,4115,406,0,1146,41,87,19163,-4,0,126,18,232179,0
232177,-286,-1468,-33,4282,3134,11901,15747,249,227,622,704,35440,-14,34,127,0,0,4190,802,0,1146,41,87,19173,-4,0,127,17,232179,0
232187,-43,-1556,84,4049,3566,11736,15941,480,337,699,1536,35436,-16,34,127,0,0,4333,1483,0,1146,41,87,19183,-4,0,130,16,232179,0
232197,197,-2204,486,3465,3965,11259,16285,904,485,1220,2880,35428,-19,34,127,0,0,4539,2109,0,1146,41,87,19193,-4,0,132,15,232179,0
232207,552,-2550,708,3179,4202,10449,16866,1434,751,1326,4248,35426,29,34,127,0,0,4783,2449,0,1146,41,87,19203,-4,0,135,14,232179,0
232217,1388,-2997,535,2897,4724,8297,17685,1949,918,1089,5056,35419,57,34,127,0,0,4996,2065,0,1146,41,87,19213,-4,0,137,14,232195,0
232227,1692,-2760,648,2151,4970,6849,18638,2111,728,518,5080,35420,66,34,127,0,0,5135,1307,0,1146,41,87,19223,-4,0,140,13,232210,0
232237,1637,-3591,1215,1237,4483,4978,19569,1995,217,230,4184,35425,49,34,127,0,0,5220,812,0,1146,41,87,19233,-4,0,141,13,232210,0
232247,1635,-3472,737,862,3871,3452,20381,1689,-273,2,3144,35422,3,34,127,0,0,5262,340,0,1146,41,87,19243,-4,0,143,12,232226,0
232257,2174,-1977,-569,663,2485,1587,21039,1337,-531,-140,2024,35432,-17,34,127,0,0,5291,285,0,1146,41,87,19253,-4,0,144,12,232226,0
232267,2769,-1122,-1043,671,1274,306,21544,1010,-591,-127,1312,35439,-39,34,127,0,0,5323,340,0,1146,41,87,19263,-4,0,146,12,232257,0
232277,3151,-140,-899,707,-1023,-1919,21920,750,-534,-63,808,35451,-44,34,127,0,0,5337,109,0,1146,41,87,19273,-4,0,146,12,232257,0
232287,3234,-113,-492,742,-2711,-2886,22176,478,-473,-7,256,35447,-44,34,127,0,0,5332,-54,0,1146,41,87,19283,-4,0,146,11,232257,0
232297,12586,-16789,114,-132,-6729,-9354,22325,279,-438,-118,144,35439,-44,34,127,0,0,5302,-395,0,2231,638,88,1,1,0,146,11,232367,0
232307,4740,-4951,6593,3452,-4393,-12407,22265,-540,-559,-2411,-3992,35434,-36,34,127,0,0,4787,-5657,0,2231,638,88,11,1,0,145,11,232367,0
232317,-1296,4481,-1415,272,-3160,-12649,21397,-2452,-1990,-3457,-7792,35396,106,34,127,0,0,4333,-4350,0,2231,638,88,21,1,0,143,11,232367,0
232327,-1084,2966,-2643,-2635,-2919,-12694,19942,-3482,-2731,-1542,-9472,35356,251,34,127,0,0,3904,-4229,0,2231,638,88,31,1,0,141,11,232367,0
232337,219,-5596,-3732,113,-808,-7805,17977,-4579,-2078,292,-9440,35340,300,34,127,0,0,3548,-3581,0,2231,638,88,41,1,0,139,11,232382,0
232347,-1699,-2159,-3748,972,-81,-8070,15959,-4312,-1121,519,-9104,35375,137,34,127,0,0,3197,-3449,0,2231,638,88,51,1,0,137,11,232382,0
232357,1615,-1681,-1667,1778,4925,-10077,14091,-4039,244,-2,-8856,35420,-25,34,127,0,0,2830,-3669,0,2231,638,88,61,1,0,136,11,232382,0
232367,3636,684,776,1932,1458,-9183,12306,-3862,443,94,-8800,35443,-91,34,127,0,0,2480,-3372,0,2231,638,88,71,1,0,135,11,232382,0
232377,3725,-3225,531,1284,315,-4692,10575,-3780,269,52,-8136,35433,-30,34,127,0,0,2199,-2713,0,2231,638,88,81,1,0,135,11,232382,0
232387,784,-7007,2614,1629,-572,-2121,8965,-3413,313,168,-6688,35430,-16,34,127,0,0,2047,-1340,0,2231,638,88,91,1,0,135,11,232382,0
232398,736,-1527,2270,847,-1299,-3220,7487,-2706,755,679,-4224,35429,-48,34,127,0,0,1983,-703,0,2231,638,88,102,1,0,135,11,232382,0
232408,124,-4420,1476,338,12,-3302,6505,-1947,1175,369,-3104,35451,-86,35,127,0,0,1889,-906,0,2231,638,88,112,1,0,135,11,232382,0
232418,1057,-2736,-819,-185,695,-2486,5792,-1424,1189,123,-2416,35472,-104,34,127,0,0,1796,-895,0,2231,638,88,122,1,0,135,11,232398,0
232428,1953,-3327,-9,319,400,-1719,5270,-1046,874,-45,-1896,35471,-69,34,127,0,0,1758,-390,0,2231,638,88,132,1,0,135,11,232429,0
232438,2824,-2709,1521,-50,388,-910,4887,-764,627,-133,-1240,35450,-50,34,127,0,0,1752,-5,0,2231,638,88,142,1,0,135,11,232429,0
232448,2527,-2893,3248,-770,99,-161,4620,-528,489,-152,-552,35432,-25,34,127,0,0,1781,340,0,2231,638,88,152,1,0,135,11,232445,0
232458,2143,-3307,3976,-2093,-599,1760,4469,-187,420,580,520,35432,-36,34,127,0,0,1879,1082,0,2231,638,88,162,1,0,135,11,232445,0
232468,2540,-3092,3251,-2877,-1319,2988,4620,464,797,962,1752,35435,-14,34,127,0,0,2061,1878,0,2231,638,88,172,1,0,135,11,232445,0
232478,1877,-3538,2177,-3087,-2028,3953,4986,968,984,1220,3016,35436,0,34,127,0,0,2287,2268,0,2231,638,88,182,1,0,135,11,232460,0
232488,972,-3589,1330,-2929,-2207,4334,5575,1436,842,1094,4160,35427,28,34,127,0,0,2549,2669,0,2231,638,88,192,1,0,135,11,232460,0
232498,331,-3423,795,-2221,-2196,4103,6397,1983,871,1216,5256,35416,65,34,127,0,0,2844,2927,0,2231,638,88,202,1,0,135,11,232507,0
232508,-548,-3667,578,-1476,-2115,3941,7431,2377,864,867,5984,35400,112,34,127,0,0,3142,3092,0,2231,638,88,212,1,0,135,11,232507,0
232518,-828,-3551,524,-1179,-2842,3857,8591,2646,641,1191,7112,35384,130,34,127,0,0,3474,3350,0,2231,638,88,222,1,0,135,11,232507,0
232528,-1569,-2980,531,-1064,-3517,3558,9941,3114,595,1149,8056,35367,160,34,127,0,0,3835,3576,0,2231,638,88,232,1,0,135,11,232523,0
232538,-2131,-2581,-286,-878,-4400,2485,11477,3476,740,1074,8768,35360,184,34,127,0,0,4193,3537,0,2231,638,88,242,1,0,135,11,232523,0
232548,-2629,-2256,-890,-782,-4549,1157,13087,3581,499,748,9088,35351,210,34,127,0,0,4514,3224,0,2231,638,88,252,1,0,135,11,232523,0
232558,-1985,-1715,-706,-309,-4230,-1908,14797,3815,323,335,8392,35367,190,34,127,0,0,4736,2120,0,2231,638,88,262,1,0,135,11,232554,0
232568,-1427,-1700,204,-99,-3990,-3466,16448,3483,107,-105,6720,35392,129,34,127,0,0,4869,1224,0,2231,638,88,272,1,0,135,11,232554,0
232578,-1441,-2725,992,-168,-4326,-5346,17837,2858,-634,-536,4648,35422,21,34,127,0,0,4928,681,0,2231,638,88,282,1,0,135,11,232554,0
232588,-1024,-3134,724,-447,-4242,-6093,18908,2128,-1122,-662,3048,35443,-62,34,127,0,0,4982,571,0,2231,638,88,292,1,0,135,11,232570,0
232598,-744,-3204,53,-970,-3570,-7412,19673,1514,-1206,-333,2256,35462,-91,34,127,0,0,5066,845,0,2231,638,88,302,1,0,135,11,232585,0
232608,-75,-3150,70,-903,-2239,-8741,20230,1123,-990,-64,1848,35466,-71,34,127,0,0,5114,401,0,2231,638,88,312,1,0,135,11,232585,0
232618,-522,-3411,25,-702,882,-10679,20645,813,-658,-98,408,35456,-49,34,127,0,0,5019,-1076,0,2231,638,88,322,1,0,135,11,232585,0
232628,-514,-3076,364,-587,1964,-10809,20729,-240,-881,-1872,-1176,35442,-29,34,127,0,0,4897,-1246,0,2231,638,88,332,0,0,135,11,232601,0
232638,-687,-2037,587,-614,2747,-10706,20467,-672,-1387,-769,-1880,35435,-11,34,127,0,0,4792,-999,0,2231,638,88,342,0,0,135,11,232648,0
232648,-342,-1591,357,-616,2920,-10551,20103,-845,-841,-541,-2056,35437,4,34,127,0,0,4712,-791,0,2231,638,88,352,0,0,135,11,232648,0
232658,-237,-1154,182,-652,2793,-10389,19697,-909,-271,-364,-2104,35435,-7,34,127,0,0,4639,-741,0,2231,638,88,362,0,0,135,11,232648,0
232668,-101,-1077,171,-618,2438,-10168,19279,-924,-98,-331,-2072,35438,-16,35,127,0,0,4558,-807,0,2231,638,88,372,0,0,135,11,232648,0
232679,79,-967,98,-619,1478,-9677,18820,-909,-21,-309,-1896,35445,-20,34,127,0,0,4497,-516,0,2231,638,88,383,0,0,135,11,232648,0
232689,152,-963,104,-660,227,-9020,18421,-851,38,-191,-1592,35450,-17,34,127,0,0,4453,-395,0,2231,638,88,393,0,0,135,11,232742,0
232699,248,-996,42,-636,-631,-8681,18069,-732,128,-133,-1216,35448,-42,34,127,0,0,4423,-307,0,2231,638,88,403,0,0,135,11,232742,0
232709,407,-929,-79,-590,-1727,-8292,17776,-614,198,-156,-984,35443,-48,34,127,0,0,4376,-472,0,2231,638,88,413,0,0,135,11,232742,0
232719,413,-935,-57,-621,-2250,-7953,17523,-539,186,-250,-1040,35441,-57,34,127,0,0,4319,-637,0,2231,638,88,423,0,0,135,11,232742,0
232729,272,-1130,178,-784,-2687,-7116,17273,-558,83,-418,-1288,35442,-34,34,127,0,0,4249,-681,0,2231,638,88,433,0,0,135,11,232757,0
232739,196,-1161,293,-954,-2676,-6411,16990,-638,-55,-411,-1424,35438,-22,34,127,0,0,4187,-604,0,2231,638,88,443,0,0,135,11,232757,0
232749,196,-1079,240,-1213,-2463,-5313,16717,-673,-104,-328,-1384,35433,-31,34,127,0,0,4135,-527,0,2231,638,88,453,0,0,135,11,232757,0
232759,211,-968,139,-1325,-2181,-4620,16419,-647,-27,-286,-1256,35433,-28,35,127,0,0,4084,-516,0,2231,638,88,463,0,0,135,11,232757,0
232769,318,-774,63,-1269,-1530,-3546,16123,-644,16,-271,-1184,35438,-30,34,127,0,0,4031,-582,0,2231,638,88,473,0,0,135,11,232757,0
232779,502,-522,-18,-1244,-945,-2672,15841,-619,34,-307,-1192,35444,-33,34,127,0,0,3972,-615,0,2231,638,88,483,0,0,135,11,232757,0
232789,889,-68,-42,-1151,-42,-1268,15558,-639,18,-333,-1272,35446,-45,34,127,0,0,3913,-593,0,2231,638,88,493,0,0,135,11,232757,0
232799,1003,217,-45,-1059,510,-331,15266,-648,-26,-356,-1400,35464,-57,34,127,0,0,3849,-670,0,2231,638,88,503,0,0,135,11,232788,0
232809,1150,605,6,-946,1126,1157,14959,-687,-50,-404,-1464,35462,-57,34,127,0,0,3779,-670,0,2231,638,88,513,0,0,135,11,232788,0
232819,1242,790,76,-917,1451,2256,14632,-735,-68,-375,-1552,35454,-31,34,127,0,0,3717,-571,0,2231,638,88,523,0,0,135,11,232788,0
232829,1425,896,229,-936,1831,3971,14297,-727,-49,-297,-1384,35443,-7,34,127,0,0,3671,-450,0,2231,638,88,533,0,0,135,11,232820,0
232839,1475,905,260,-916,1995,5024,13979,-680,29,-214,-1176,35447,-11,34,127,0,0,3636,-340,0,2231,638,88,543,0,0,157,100,232820,0
232849,1336,717,283,-847,2194,6364,13692,-603,155,-181,-984,35454,-18,34,127,0,0,3603,-340,0,2231,638,88,553,0,0,162,93,232835,0
232859,1322,446,302,-761,2227,7200,13449,-514,110,-227,-784,35454,-26,34,127,0,0,3572,-329,0,2231,638,88,563,0,0,169,84,232835,0
232869,1319,168,221,-561,2206,8455,13240,-436,76,-258,-624,35451,-39,34,127,0,0,3550,-208,0,2231,638,88,573,0,0,173,78,232851,0
232879,1223,93,210,-390,2173,9236,13054,-385,107,-231,-448,35457,-43,34,127,0,0,3535,-142,0,2231,638,88,583,0,0,179,70,232867,0
232889,1175,-51,274,-115,1985,10349,12906,-283,120,-220,-232,35454,-41,34,127,0,0,3520,-164,0,2231,638,88,593,0,0,183,64,232867,0
232900,1299,-301,324,23,1844,11123,12791,-185,155,-188,-136,35454,-50,34,127,0,0,3514,-115,0,2231,638,88,604,0,0,189,57,232867,0
232910,1248,-602,492,153,1555,12269,12726,-119,149,-70,-24,35460,-45,34,127,0,0,3522,65,0,2231,638,88,614,0,0,195,50,232898,0
232920,1020,-845,540,312,1268,12911,12726,42,199,-11,16,35464,-27,34,127,0,0,3523,104,0,2231,638,88,624,0,0,200,46,232898,0
232930,968,-1203,438,506,707,13815,12732,28,148,228,120,35463,-16,34,127,0,0,3537,159,0,2231,638,88,634,0,0,206,40,232898,0
232940,958,-1515,432,600,270,14380,12760,89,41,525,328,35459,-2,34,127,0,0,3570,324,0,2231,638,88,644,0,0,210,36,232929,0
232950,748,-2001,446,873,-455,14963,12853,245,164,521,640,35457,-4,34,127,0,0,3625,609,0,2231,638,88,654,0,0,216,31,232929,0
232960,448,-2258,408,1108,-944,15102,13014,399,257,560,1120,35451,-12,34,127,0,0,3706,840,0,2231,638,88,664,0,0,220,28,232945,0
232970,16,-2704,414,1401,-1477,14976,13249,573,271,750,1736,35445,-34,34,127,0,0,3817,1126,0,2231,638,88,674,0,0,226,24,232945,0
232980,-72,-3047,435,1501,-1578,14720,13601,865,360,886,2552,35451,-47,34,127,0,0,3973,1571,0,2231,638,88,684,0,0,230,22,232960,0
232990,-233,-3568,374,1657,-1315,14100,14101,1213,517,1017,3448,35454,-16,34,127,0,0,4171,2037,0,2231,638,88,694,0,0,236,19,232960,0
233000,-145,-3860,226,1729,-793,13366,14786,1625,639,1047,4328,35443,7,34,127,0,0,4398,2312,0,2231,638,88,704,0,0,240,17,232991,0
233010,244,-3865,44,1935,188,11727,15651,2003,702,948,4968,35433,65,34,127,0,0,4612,2098,0,2231,638,88,714,0,0,245,15,232991,0
233020,741,-3430,-303,1989,912,10166,16609,2130,530,607,5056,35426,82,34,127,0,0,4785,1614,0,2231,638,88,724,0,0,248,14,233007,0
233030,1279,-2701,-287,1948,1954,7478,17566,2069,166,210,4264,35426,71,34,127,0,0,4868,763,0,2231,638,88,734,0,0,252,13,233007,0
233040,1346,-2273,-137,1709,2254,6123,18426,1802,-187,-50,2968,35431,35,34,127,0,0,4894,241,0,2231,638,88,744,0,0,253,13,233038,0
233050,1205,-1888,312,900,2143,4284,19123,1410,-494,-187,1832,35450,-5,34,127,0,0,4918,247,0,2231,638,88,754,0,0,255,12,233038,0
233060,1234,-1663,230,294,1840,3052,19627,988,-689,-160,1168,35461,-52,34,127,0,0,4951,422,0,2231,638,88,764,0,0,255,11,233054,0
233070,1964,-1230,-635,-334,1326,1129,19969,666,-684,27,904,35463,-59,34,127,0,0,4994,384,0,2231,638,88,774,0,0,255,10,233070,0
233080,2067,-1169,-661,-470,779,-50,20211,493,-504,188,720,35461,-54,34,127,0,0,5016,192,0,2231,638,88,784,0,0,255,10,233070,0
233090,2123,-660,-978,-348,-503,-1465,20400,389,-286,251,504,35461,-42,34,127,0,0,5028,170,0,2231,638,88,794,0,0,255,10,233085,0
233100,6562,-7328,-1075,-284,-3340,-4190,20564,373,-152,239,616,35455,-35,34,127,0,0,5063,472,0,2231,638,88,804,0,0,255,10,233085,0
233110,7338,-4833,6378,2447,-477,-11811,20697,116,-54,-1364,-2296,35458,-29,34,127,0,0,4658,-4729,0,3210,674,89,6,1,2,255,10,233085,0
233120,1757,2541,1863,2853,1091,-11662,20142,-1748,-1343,-3250,-6296,35449,27,34,127,0,0,4196,-4592,0,3210,674,89,16,1,2,255,10,233101,0
233130,1205,2292,-1015,-2679,-16,-12329,18926,-3003,-2672,-1972,-8384,35413,167,34,127,0,0,3762,-4526,0,3210,674,89,26,1,2,255,10,233132,0
233140,-4102,-2958,748,-79,-1809,-7265,17247,-3969,-2138,-707,-9400,35385,259,34,127,0,0,3390,-3438,0,3210,674,89,36,1,2,255,10,233132,0
233150,-867,-4058,-1912,1458,-3982,-6406,15389,-4099,-1263,0,-8792,35374,255,34,127,0,0,3108,-2702,0,3210,674,89,46,1,2,255,10,233132,0
233161,-1365,-2629,-206,1847,2193,-9615,13497,-3568,17,7,-7800,35399,135,34,127,0,0,2790,-3021,0,3210,674,89,57,1,2,255,10,233132,0
233171,1461,-456,437,2029,5101,-9142,12013,-3193,760,-262,-7960,35424,44,34,127,0,0,2458,-3361,0,3210,674,89,67,1,2,255,10,233163,0
233181,2616,-1915,-467,728,-169,-6136,10520,-3329,412,-445,-7720,35441,20,34,127,0,0,2192,-2625,0,3210,674,89,77,1,2,255,10,233163,0
233191,2961,-5293,-88,1142,-1053,-3640,9055,-3151,-8,-102,-6712,35439,32,34,127,0,0,2019,-1582,0,3210,674,89,87,1,2,255,10,233163,0
233201,1760,-1717,480,1244,-1262,-3154,7736,-2781,339,230,-4880,35446,30,34,127,0,0,1946,-703,0,3210,674,89,97,1,2,255,10,233195,0
233211,89,-2179,1410,616,-605,-3432,6651,-2187,728,386,-3376,35456,-5,34,127,0,0,1867,-802,0,3210,674,89,107,1,2,255,10,233210,0
233221,426,-3255,1113,301,867,-2701,5854,-1587,1012,176,-2664,35472,-31,34,127,0,0,1773,-922,0,3210,674,89,117,1,2,255,10,233210,0
233231,2157,-3203,1008,107,734,-2085,5265,-1186,957,-30,-2192,35472,-50,34,127,0,0,1724,-450,0,3210,674,89,127,1,2,255,10,233210,0
233241,3328,-3496,2119,-246,134,-1231,4822,-892,675,-110,-1632,35469,-37,34,127,0,0,1709,-131,0,3210,674,89,137,1,2,255,10,233210,0
233251,2137,-3488,3244,-630,-392,-223,4494,-661,496,-86,-808,35467,-48,34,127,0,0,1744,428,0,3210,674,89,147,1,2,255,10,233226,0
233261,1835,-3069,3307,-1900,-1227,1516,4304,-260,458,780,560,35468,-36,34,127,0,0,1856,1197,0,3210,674,89,157,1,2,255,10,233241,0
233271,1869,-3391,2505,-2600,-1627,2227,4468,499,941,890,1744,35470,-43,34,127,0,0,2025,1768,0,3210,674,89,167,1,2,255,10,233241,0
233281,1204,-3572,1289,-2942,-1682,2626,4828,926,1051,1116,2896,35464,-31,34,127,0,0,2234,2131,0,3210,674,89,177,1,2,255,10,233257,0
233291,774,-3349,898,-2749,-1521,2728,5386,1347,754,1024,3888,35457,-11,34,127,0,0,2465,2340,0,3210,674,89,187,1,2,255,10,233273,0
233301,688,-3677,1040,-2090,-1675,2759,6129,1754,733,980,4704,35449,26,34,127,0,0,2711,2482,0,3210,674,89,197,1,2,255,10,233288,0
233311,-8,-3818,1154,-1657,-2056,3134,7040,2089,679,810,5304,35439,72,34,127,0,0,2990,2812,0,3210,674,89,207,1,2,255,10,233304,0
233321,-304,-3359,1040,-1565,-2493,2983,8089,2399,578,1060,6376,35425,83,34,127,0,0,3313,3295,0,3210,674,89,217,1,2,255,10,233304,0
233331,-860,-3080,444,-1547,-2762,2560,9307,2823,579,1281,7408,35413,103,34,127,0,0,3645,3284,0,3210,674,89,227,1,2,255,10,233304,0
233341,-1252,-2434,-361,-1090,-3245,1918,10719,3213,710,1025,8176,35397,139,34,127,0,0,3983,3383,0,3210,674,89,237,1,2,255,10,233335,0
233351,-1322,-1908,-861,-1099,-3086,1087,12233,3344,579,730,8384,35393,201,34,127,0,0,4282,2988,0,3210,674,89,247,1,2,255,10,233335,0
233361,-1357,-2057,-365,-1030,-2906,-355,13757,3390,201,504,8256,35393,184,34,127,0,0,4550,2647,0,3210,674,89,257,1,2,255,10,233335,0
233371,-640,-2203,147,-849,-2830,-1635,15338,3476,137,263,7448,35405,134,34,127,0,0,4743,1834,0,3210,674,89,267,1,2,255,10,233351,0
233381,-1132,-2367,1047,-658,-3404,-3343,16800,3068,-102,-77,6000,35421,62,34,127,0,0,4869,1219,0,3210,674,89,277,1,2,255,10,233366,0
233391,-1205,-2191,729,-890,-3599,-4151,18041,2588,-664,-257,4568,35441,28,34,127,0,0,4968,922,0,3210,674,89,287,1,2,255,10,233382,0
233401,-1478,-2138,414,-1253,-3664,-5300,19066,2099,-837,-289,3384,35454,-17,34,127,0,0,5051,845,0,3210,674,89,297,1,2,255,10,233382,0
233412,-1351,-2271,170,-1389,-2935,-6203,19924,1553,-870,-167,2632,35459,-53,34,127,0,0,5143,829,0,3210,674,89,308,1,2,255,10,233382,0
233422,-648,-2507,-23,-1430,-536,-8236,20513,1203,-793,-51,1920,35468,-67,34,127,0,0,5156,-10,0,3210,674,89,318,1,2,255,10,233491,0
233432,-891,-2939,66,-1307,1103,-9211,20944,835,-632,-234,160,35474,-50,34,127,0,0,5052,-1131,0,3210,674,89,328,0,2,255,10,233491,0
233442,-934,-2897,419,-1152,2370,-9635,20971,-352,-1063,-1962,-1296,35472,-48,34,127,0,0,4929,-1131,0,3210,674,89,338,0,2,255,10,233507,0
233452,-1360,-2343,497,-1057,2853,-9788,20690,-699,-1455,-793,-1912,35458,-53,34,127,0,0,4831,-906,0,3210,674,89,348,0,2,255,10,233507,0
233462,-808,-1763,75,-895,3286,-9790,20323,-839,-729,-527,-1992,35445,-50,34,127,0,0,4764,-620,0,3210,674,89,358,0,2,255,10,233507,0
233472,-586,-1533,-39,-709,3395,-9751,19932,-859,-210,-342,-1904,35442,-24,34,127,0,0,4701,-631,0,3210,674,89,368,0,2,255,10,233507,0
233482,-310,-1324,13,-444,3271,-9667,19546,-838,-35,-280,-1792,35443,-20,34,127,0,0,4636,-653,0,3210,674,89,378,0,2,255,10,233507,0
233492,-133,-1229,50,-313,3018,-9570,19171,-812,27,-312,-1792,35446,-21,34,127,0,0,4562,-763,0,3210,674,89,388,0,2,255,10,233507,0
233502,188,-1159,17,-254,2237,-9189,18793,-827,19,-363,-1808,35449,-42,34,127,0,0,4490,-730,0,3210,674,89,398,0,2,255,10,233507,0
233512,429,-1192,-1,-245,1567,-8817,18411,-840,-9,-330,-1832,35448,-31,35,127,0,0,4415,-769,0,3210,674,89,408,0,2,255,10,233507,0
233522,623,-1352,51,-270,553,-8111,18025,-853,-16,-370,-1864,35451,-20,34,127,0,0,4341,-692,0,3210,674,89,418,0,2,255,10,233507,0
233532,638,-1430,172,-370,14,-7517,17640,-846,-8,-310,-1848,35446,-12,34,127,0,0,4272,-670,0,3210,674,89,428,0,2,255,10,233507,0
233542,752,-1483,440,-533,-424,-6514,17262,-820,11,-303,-1752,35452,-31,34,127,0,0,4212,-598,0,3210,674,89,438,0,2,255,10,233523,0
233552,767,-1487,543,-696,-560,-5703,16896,-793,43,-267,-1632,35464,-38,34,127,0,0,4146,-637,0,3210,674,89,448,0,2,255,10,233538,0
233562,810,-1360,602,-962,-696,-4454,16543,-758,54,-251,-1504,35476,-53,35,127,0,0,4089,-609,0,3210,674,89,458,0,2,255,10,233538,0
233572,882,-1220,579,-1069,-718,-3677,16211,-728,64,-237,-1432,35473,-41,34,127,0,0,4036,-626,0,3210,674,89,468,0,2,255,10,233569,0
233582,971,-1042,431,-1030,-629,-2448,15889,-707,54,-288,-1480,35468,-61,34,127,0,0,3958,-708,0,3210,674,89,478,0,2,255,10,233585,0
233592,1060,-887,387,-1011,-539,-1477,15560,-740,16,-369,-1576,35452,-54,34,127,0,0,3891,-708,0,3210,674,89,488,0,2,255,10,233585,0
233602,1066,-485,507,-1025,-249,132,15216,-763,-42,-351,-1544,35451,-49,34,127,0,0,3829,-604,0,3210,674,89,498,0,2,255,10,233585,0
233612,1202,-274,576,-1094,32,1258,14874,-744,-24,-310,-1440,35448,-40,34,127,0,0,3778,-510,0,3210,674,89,508,0,2,255,10,233585,0
233622,1406,87,424,-1102,552,3030,14542,-713,25,-228,-1296,35451,-20,34,127,0,0,3733,-505,0,3210,674,89,518,0,2,255,10,233601,0
233632,1508,349,248,-1063,884,4216,14240,-642,81,-224,-1088,35461,-49,34,127,0,0,3695,-373,0,3210,674,89,528,0,2,255,10,233616,0
233642,1448,695,62,-941,1213,5877,13966,-589,110,-214,-1024,35472,-50,34,127,0,0,3649,-428,0,3210,674,89,538,0,2,255,10,233632,0
233652,1301,760,20,-806,1311,6837,13712,-546,90,-254,-960,35476,-50,34,127,0,0,3611,-417,0,3210,674,89,548,0,2,255,10,233632,0
233663,1221,627,-43,-634,1203,8283,13457,-500,74,-278,-880,35468,-48,34,127,0,0,3572,-340,0,3210,674,89,559,0,2,255,10,233663,0
233673,1259,152,5,-242,939,9713,13245,-451,70,-268,-656,35468,-48,34,127,0,0,3557,-153,0,3210,674,89,569,0,2,255,10,233663,0
233683,1247,43,-79,67,679,10581,13058,-381,79,-174,-320,35469,-52,34,127,0,0,3552,-32,0,3210,674,89,579,0,2,255,10,233663,0
233693,1192,21,-69,548,111,11661,12934,-204,170,-73,-56,35459,-47,34,127,0,0,3552,0,0,3210,674,89,589,0,2,255,10,233663,0
233703,1089,43,-13,798,-358,12307,12907,-4,311,52,-16,35460,-71,34,127,0,0,3559,43,0,3210,674,89,599,0,2,255,10,233694,0
233713,981,-376,220,908,-1146,13331,12924,46,278,171,168,35465,-96,34,127,0,0,3577,219,0,3210,674,89,609,0,2,255,10,233694,0
233723,749,-674,289,1018,-1431,13944,12974,153,139,456,360,35469,-89,34,127,0,0,3610,329,0,3210,674,89,619,0,2,255,10,233694,0
233733,530,-1082,90,1065,-1345,14625,13094,286,204,440,608,35474,-76,34,127,0,0,3660,483,0,3210,674,89,629,0,2,255,10,233726,0
233743,235,-1401,-36,1131,-1069,14791,13235,363,209,507,904,35467,-69,35,127,0,0,3711,483,0,3210,674,89,639,0,2,255,10,233726,0
233753,89,-2039,-212,1324,-321,14696,13431,455,149,448,936,35464,-70,34,127,0,0,3759,461,0,3210,674,89,649,0,2,255,10,233726,0
233763,55,-2468,-213,1460,253,14554,13647,484,117,426,1064,35462,-80,34,127,0,0,3812,571,0,3210,674,89,659,0,2,255,10,233757,0
233773,23,-3101,-75,1632,1277,14241,13878,525,65,530,1328,35463,-74,34,127,0,0,3893,856,0,3210,674,89,669,0,2,255,10,233757,0
233783,36,-3367,-13,1682,1979,13853,14162,670,137,794,1976,35462,-70,34,127,0,0,4025,1395,0,3210,674,89,679,0,2,255,10,233757,0
233793,330,-3446,-116,1766,2973,12929,14576,1017,363,985,3032,35448,-59,35,127,0,0,4223,2054,0,3210,674,89,689,0,2,255,10,233773,0
233803,792,-3490,-187,1809,3552,11905,15188,1498,662,1179,4224,35440,-36,34,127,0,0,4473,2570,0,3210,674,89,699,0,2,255,10,233788,0
233813,1473,-3286,-166,1893,4331,9722,16031,1991,841,1132,5192,35434,5,34,127,0,0,4710,2395,0,3210,674,89,709,0,2,255,10,233819,0
233823,2004,-3123,44,1887,4832,7629,17025,2246,710,714,5312,35438,54,34,127,0,0,4880,1571,0,3210,674,89,719,0,2,255,10,233835,0
233833,2106,-2772,683,1698,5049,4812,18030,2165,261,119,4240,35440,63,34,127,0,0,4939,516,0,3210,674,89,729,0,2,255,10,233835,0
233843,1752,-2402,1259,1080,4455,3638,18918,1835,-438,-166,2648,35452,28,34,127,0,0,4952,153,0,3210,674,89,739,0,2,255,10,233835,0
233853,1767,-2240,1178,86,3248,1946,19595,1336,-715,-286,1632,35462,-40,34,127,0,0,4992,417,0,3210,674,89,749,0,2,255,10,233835,0
233863,1993,-1785,215,-362,2433,680,20062,907,-599,-115,1184,35468,-79,34,127,0,0,5040,472,0,3210,674,89,759,0,2,255,10,233835,0
233873,2528,-753,-590,-591,1290,-1230,20390,651,-669,64,968,35476,-71,34,127,0,0,5073,274,0,3210,674,89,769,0,2,255,10,233866,0
233883,2657,-534,-766,-372,55,-2305,20634,484,-427,173,608,35476,-55,34,127,0,0,5080,65,0,3210,674,89,779,0,2,255,10,233882,0
233893,10949,-15576,-996,-643,-2079,-10680,20840,471,-245,101,184,35471,-31,34,127,0,0,4989,-1252,0,1418,640,90,5,1,2,289,38,233882,0
233903,1517,850,6864,4441,597,-11970,20786,-669,-493,-3402,-4656,35453,-54,34,127,0,0,4473,-5306,0,1418,640,90,15,1,2,289,38,233882,0
233914,-341,4951,-2420,-1510,2140,-14144,19764,-2577,-2339,-2893,-8320,35408,157,34,127,0,0,3893,-5410,0,1418,640,90,26,1,2,289,38,233960,0
233924,2280,-2284,552,-2257,-1750,-9756,18073,-4170,-3002,-814,-9608,35384,238,34,127,0,0,3514,-3400,0,1418,640,90,36,1,2,289,38,233960,0
233934,-1106,-2782,-443,1367,-3254,-6961,15990,-4608,-2197,1210,-9112,35417,126,35,127,0,0,3165,-3400,0,1418,640,90,46,1,2,289,38,233960,0
233944,-2488,-5085,-1572,1884,-1869,-8262,14040,-4092,-464,280,-8520,35472,-46,35,127,0,0,2841,-3218,0,1418,640,90,56,1,2,289,38,233960,0
233954,508,-222,755,2775,3517,-10397,12389,-3477,868,-20,-7920,35506,-158,35,127,0,0,2552,-2883,0,1418,640,90,66,1,2,289,38,233960,0
233964,10,590,-1025,2090,899,-10024,10862,-3369,828,-331,-8184,35475,-78,34,127,0,0,2195,-3438,0,1418,640,90,76,1,2,289,38,233960,0
233974,4403,-3825,444,1451,19,-4776,9310,-3386,163,-236,-7496,35446,-29,34,127,0,0,1975,-1994,0,1418,640,90,86,1,2,289,38,233960,0
233984,3824,-2879,-584,1518,-1018,-3626,7863,-3076,145,192,-5584,35443,-38,34,127,0,0,1886,-878,0,1418,640,90,96,1,2,289,38,233960,0
233994,710,-2126,212,1781,-488,-4515,6643,-2484,633,387,-4080,35462,-75,34,127,0,0,1787,-1065,0,1418,640,90,106,1,2,289,38,233976,0
234004,754,-2821,358,1430,1115,-4417,5723,-1852,1023,168,-3392,35487,-109,34,127,0,0,1653,-1334,0,1418,640,90,116,1,2,289,38,234007,0
234014,2206,-3058,1034,1157,1369,-3495,5017,-1462,992,-126,-3296,35494,-97,34,127,0,0,1545,-1082,0,1418,640,90,126,1,2,289,38,234007,0
234024,3146,-3106,1364,912,662,-2521,4413,-1296,602,-345,-2872,35480,-72,35,127,0,0,1484,-521,0,1418,640,90,136,1,2,289,38,234007,0
234034,3201,-2682,2659,65,-283,-1211,3886,-1101,326,-160,-2056,35467,-52,34,127,0,0,1478,-16,0,1418,640,90,146,1,2,289,38,234007,0
234044,2125,-3283,3179,-838,-940,-78,3463,-855,342,2,-816,35469,-56,34,127,0,0,1535,664,0,1418,640,90,156,1,2,289,38,234038,0
234054,1743,-4236,3598,-1350,-1171,1114,3229,-280,534,1141,696,35477,-55,34,127,0,0,1651,1164,0,1418,640,90,166,1,2,289,38,234038,0
