state_time,accelx,accely,accelz,gyrox,gyroy,gyroz,mot_ang,mot_vel,mot_acc,mot_cur,mot_volt,batt_volt,batt_curr,temperature,status_mn,status_ex,status_re,ank_ang,ank_vel,ank_torque,peak_ank_torque,step_energy,step_count,step_time,gait_state,movement,speed,incline,sys_time,eventFlags
224760,77,-2042,260,-31,4,-42,14627,-5,3,-48,-32,35592,12,34,127,0,0,3880,27,0,5795,209,87,11284,-4,0,24,0,224756,0
224770,43,-2035,259,-25,-7,-34,14628,12,5,-14,-8,35606,24,34,127,0,0,3875,-16,0,5795,209,87,11294,-4,0,24,0,224756,0
224780,18,-2041,265,-31,-8,-25,14624,-12,-7,-61,-8,35605,14,34,127,0,0,3875,5,0,5795,209,87,11304,-4,0,24,0,224756,0
224790,43,-2038,250,-31,-4,-39,14626,5,-3,-43,-8,35607,10,34,127,0,0,3872,-10,0,5795,209,87,11314,-4,0,24,0,224788,0
224800,39,-2042,258,-24,1,-48,14626,5,8,-40,-32,35606,20,34,127,0,0,3880,-10,0,5795,209,87,11324,-4,0,24,0,224788,0
224810,80,-2032,262,-35,0,-33,14625,0,-1,-25,-8,35608,10,34,127,0,0,3872,-21,0,5795,209,87,11334,-4,0,24,0,224803,0
224820,65,-2031,262,-38,11,-40,14626,5,5,-33,-8,35610,4,34,127,0,0,3875,-16,0,5795,209,87,11344,-4,0,24,0,224803,0
224830,32,-2042,268,-36,-17,-47,14625,0,-3,23,-8,35609,4,34,127,0,0,3875,0,0,5795,209,87,11354,-4,0,24,0,224819,0
224840,62,-2040,260,-44,-5,-51,14624,-13,-3,-87,-32,35614,15,34,127,0,0,3883,82,0,5795,209,87,11364,-4,0,24,0,224819,0
224850,71,-2030,262,-45,-9,-43,14628,16,8,-22,-8,35611,24,34,127,0,0,3875,21,0,5795,209,87,11374,-4,0,24,0,224835,0
224860,56,-2040,258,-50,-2,-51,14623,-7,-3,-57,-24,35612,15,34,127,0,0,3877,21,0,5795,209,87,11384,-4,0,24,0,224866,0
224870,9,-2032,258,-47,-23,-41,14626,0,-5,-76,-8,35612,30,34,127,0,0,3875,5,0,5795,209,87,11394,-4,0,24,0,224866,0
224880,19,-2034,256,-42,-14,-38,14625,3,7,-92,-8,35606,34,34,127,0,0,3875,21,0,5795,209,87,11404,-4,0,24,0,224866,0
224890,37,-2041,250,-47,-14,-48,14625,4,-2,-48,-8,35598,43,34,127,0,0,3875,0,0,5795,209,87,11414,-4,0,24,0,224866,0
224900,26,-2039,255,-46,-12,-45,14621,-9,-10,-71,0,35601,33,34,127,0,0,3875,54,0,5795,209,87,11424,-4,0,24,0,224897,0
224910,43,-2043,260,-47,-4,-50,14624,-10,-4,-66,-8,35608,30,34,127,0,0,3875,16,0,5795,209,87,11434,-4,0,24,0,224897,0
224920,32,-2045,258,-49,-11,-47,14626,1,3,-32,-8,35607,26,34,127,0,0,3872,-21,0,5795,209,87,11444,-4,0,24,0,224897,0
224930,13,-2034,265,-48,-5,-46,14625,0,-4,-52,-24,35615,16,34,127,0,0,3877,-16,0,5795,209,87,11454,-4,0,24,0,224913,0
224940,-1,-2042,258,-50,-16,-39,14626,7,3,-33,-32,35610,16,34,127,0,0,3880,38,0,5795,209,87,11464,-4,0,24,0,224928,0
224950,47,-2032,246,-55,-6,-46,14625,-2,3,-31,-32,35606,17,34,127,0,0,3873,-16,0,5795,209,87,11474,-4,0,24,0,225006,0
224960,15,-2046,252,-57,-9,-50,14624,7,-4,-68,-24,35615,6,34,127,0,0,3877,0,0,5795,209,87,11484,-4,0,24,0,225006,0
224970,45,-2035,252,-50,-5,-36,14625,-3,5,-34,16,35609,12,34,127,0,0,3874,-5,0,5795,209,87,11494,-4,0,24,0,225006,0
224980,79,-2037,252,-53,-1,-41,14625,0,-4,-34,-8,35613,3,34,127,0,0,3875,-27,0,5795,209,87,11504,-4,0,24,0,225006,0
224990,67,-2029,255,-49,-6,-45,14624,-4,-8,-85,-24,35607,10,34,127,0,0,3877,49,0,5795,209,87,11514,-4,0,24,0,225022,0
225000,34,-2036,248,-48,-1,-37,14625,5,2,-45,-8,35600,16,34,127,0,0,3872,-21,0,5795,209,87,11524,-4,0,24,0,225022,0
225010,17,-2036,257,-45,-1,-28,14626,8,5,-44,-8,35595,18,34,127,0,0,3879,-16,0,5795,209,87,11534,-4,0,24,0,225022,0
225020,19,-2039,252,-46,-5,-24,14624,-3,-6,-32,-8,35595,20,34,127,0,0,3875,10,0,5795,209,87,11544,-4,0,24,0,225022,0
225030,19,-2045,251,-52,-10,-36,14625,1,1,-62,16,35601,8,34,127,0,0,3874,32,0,5795,209,87,11554,-4,0,24,0,225022,0
225040,44,-2047,257,-53,-14,-32,14626,-3,3,4,16,35607,19,34,127,0,0,3874,-16,0,5795,209,87,11564,-4,0,24,0,225022,0
225050,27,-2038,259,-55,-5,-38,14624,-3,-11,-19,-8,35609,19,34,127,0,0,3872,-49,0,5795,209,87,11574,-4,0,24,0,225022,0
225060,23,-2042,261,-48,-5,-40,14625,1,-1,-30,-8,35625,31,34,127,0,0,3875,-27,0,5795,209,87,11584,-4,0,24,0,225053,0
225070,29,-2030,256,-46,1,-43,14625,-4,0,-37,-8,35621,30,34,127,0,0,3882,76,0,5795,209,87,11594,-4,0,24,0,225053,0
225080,-6,-2034,255,-50,-6,-35,14626,-3,1,23,16,35621,19,34,127,0,0,3874,-5,0,5795,209,87,11604,-4,0,24,0,225053,0
225090,21,-2041,259,-56,-1,-50,14626,0,-1,1,-8,35608,13,34,127,0,0,3875,-32,0,5795,209,87,11614,-4,0,24,0,225116,0
225100,26,-2044,257,-53,-12,-52,14627,3,0,27,40,35613,15,34,127,0,0,3877,32,0,5795,209,87,11624,-4,0,24,0,225116,0
225110,47,-2038,250,-58,-6,-55,14626,-20,-1,13,-8,35614,21,34,127,0,0,3879,-5,0,5795,209,87,11634,-4,0,24,0,225116,0
225120,8,-2039,255,-58,-5,-50,14627,5,-2,0,-8,35607,25,34,127,0,0,3872,-27,0,5795,209,87,11644,-4,0,24,0,225131,0
225130,9,-2044,253,-54,-3,-56,14623,0,0,-99,-8,35599,12,34,127,0,0,3872,-21,0,5795,209,87,11654,-4,0,24,0,225131,0
225140,33,-2035,244,-48,-14,-54,14626,5,7,-62,-8,35596,24,34,127,0,0,3879,21,0,5795,209,87,11664,-4,0,24,0,225131,0
225150,64,-2037,246,-58,-11,-54,14625,-8,6,-6,16,35598,20,34,127,0,0,3881,76,0,5795,209,87,11674,-4,0,24,0,225131,0
225160,51,-2038,248,-50,-2,-43,14627,-11,-4,23,8,35608,28,34,127,0,0,3874,-5,0,5795,209,87,11684,-4,0,24,0,225147,0
225170,52,-2048,247,-47,-11,-53,14623,-9,-6,-88,0,35622,33,34,127,0,0,3875,43,0,5795,209,87,11694,-4,0,24,0,225163,0
225180,50,-2038,251,-45,-7,-50,14625,-7,1,-72,-8,35633,18,34,127,0,0,3875,27,0,5795,209,87,11704,-4,0,24,0,225163,0
225190,37,-2040,255,-50,-9,-45,14625,-1,4,-45,16,35626,24,34,127,0,0,3878,38,0,5795,209,87,11714,-4,0,24,0,225178,0
225200,58,-2029,255,-47,-10,-35,14626,-3,0,-36,-8,35603,11,34,127,0,0,3882,87,0,5795,209,87,11724,-4,0,24,0,225194,0
225210,67,-2034,246,-40,-14,-37,14628,0,2,-29,-32,35599,19,34,127,0,0,3880,38,0,5795,209,87,11734,-4,0,24,0,225194,0
225220,-7,-2036,250,-39,-15,-34,14626,9,0,-20,-8,35594,11,34,127,0,0,3875,10,0,5795,209,87,11744,-4,0,24,0,225194,0
225230,19,-2043,246,-39,-3,-41,14626,4,1,-19,-8,35606,13,34,127,0,0,3879,5,0,5795,209,87,11754,-4,0,24,0,225241,0
225240,26,-2035,251,-36,-13,-31,14628,7,5,17,40,35609,17,34,127,0,0,3873,-10,0,5795,209,87,11764,-4,0,24,0,225241,0
225250,23,-2044,247,-38,2,-45,14626,-3,-1,5,-8,35602,26,34,127,0,0,3879,10,0,5795,209,87,11774,-4,0,24,0,225241,0
225260,-16,-2038,252,-40,-7,-32,14626,1,-6,-5,-8,35603,18,34,127,0,0,3879,27,0,5795,209,87,11784,-4,0,24,0,225256,0
225270,37,-2038,260,-39,1,-29,14629,11,4,37,8,35593,19,34,127,0,0,3874,-54,0,5795,209,87,11794,-4,0,24,0,225256,0
225280,27,-2027,262,-40,-6,-33,14624,-7,-8,-65,-8,35601,8,34,127,0,0,3882,71,0,5795,209,87,11804,-4,0,24,0,225288,0
225290,50,-2035,255,-39,-11,-32,14627,-11,5,-28,-16,35611,37,34,127,0,0,3879,43,0,5795,209,87,11814,-4,0,24,0,225288,0
225300,27,-2036,245,-38,-3,-34,14629,16,7,35,16,35608,43,34,127,0,0,3881,32,0,5795,209,87,11824,-4,0,24,0,225288,0
225310,21,-2027,263,-35,-15,-43,14627,-5,-2,54,-8,35603,49,34,127,0,0,3879,5,0,5795,209,87,11834,-4,0,24,0,225288,0
225320,20,-2045,269,-48,-6,-41,14625,-7,-10,-25,16,35597,43,34,127,0,0,3881,93,0,5795,209,87,11844,-4,0,24,0,225381,0
225330,70,-2035,272,-50,-4,-48,14625,-23,6,-54,-16,35602,27,34,127,0,0,3879,71,0,5795,209,87,11854,-4,0,24,0,225381,0
225340,28,-2037,268,-53,-4,-44,14625,0,0,-18,-8,35602,29,34,127,0,0,3875,21,0,5795,209,87,11864,-4,0,24,0,225381,0
225350,0,-2038,260,-66,-19,-47,14626,7,2,-15,-8,35594,18,34,127,0,0,3875,-27,0,5795,209,87,11874,-4,0,24,0,225381,0
225360,9,-2041,264,-62,-8,-49,14626,5,-2,-46,16,35583,21,34,127,0,0,3874,5,0,5795,209,87,11884,-4,0,24,0,225381,0
225370,20,-2049,258,-68,-15,-55,14628,4,7,-10,-16,35584,12,34,127,0,0,3875,-43,0,5795,209,87,11894,-4,0,24,0,225397,0
225380,-3,-2042,243,-60,-15,-54,14625,-4,-1,-33,-8,35588,13,34,127,0,0,3879,43,0,5795,209,87,11904,-4,0,24,0,225397,0
225390,55,-2043,242,-61,-9,-64,14626,-8,-1,-28,-8,35583,15,34,127,0,0,3879,43,0,5795,209,87,11914,-4,0,24,0,225397,0
225400,24,-2046,244,-56,-11,-58,14626,-1,0,-36,-8,35585,5,34,127,0,0,3875,10,0,5795,209,87,11924,-4,0,24,0,225397,0
225410,52,-2024,243,-55,-6,-57,14628,11,2,-49,-16,35591,16,34,127,0,0,3882,65,0,5795,209,87,11934,-4,0,24,0,225397,0
225420,26,-2034,245,-50,-15,-45,14626,-11,5,-40,16,35606,13,34,127,0,0,3881,109,0,5795,209,87,11944,-4,0,24,0,225413,0
225430,84,-2029,235,-51,-16,-51,14627,-7,4,-24,16,35623,13,34,127,0,0,3878,60,0,5795,209,87,11954,-4,0,24,0,225413,0
225440,50,-2028,248,-46,-2,-43,14626,-8,-6,-41,-8,35621,21,34,127,0,0,3875,10,0,5795,209,87,11964,-4,0,24,0,225428,0
225450,35,-2036,249,-44,-11,-36,14627,9,-8,-24,-8,35608,22,34,127,0,0,3875,-27,0,5795,209,87,11974,-4,0,24,0,225444,0
225460,50,-2040,247,-42,-17,-37,14626,3,-2,-50,-32,35597,47,34,127,0,0,3877,-5,0,5795,209,87,11984,-4,0,24,0,225444,0
225470,49,-2037,244,-35,-15,-33,14623,-6,-8,-106,0,35593,39,34,127,0,0,3879,82,0,5795,209,87,11994,-4,0,24,0,225459,0
225480,56,-2032,232,-30,-13,-29,14628,5,8,-25,-16,35600,40,34,127,0,0,3875,-16,0,5795,209,87,12004,-4,0,24,0,225491,0
225490,33,-2047,233,-26,-4,-28,14626,7,-5,23,-8,35608,41,34,127,0,0,3879,-16,0,5795,209,87,12014,-4,0,24,0,225491,0
225500,27,-2038,239,-17,-6,-21,14623,-15,-15,-45,-24,35599,28,34,127,0,0,3877,21,0,5795,209,87,12024,-4,0,24,0,225491,0
225510,55,-2042,256,-26,-3,-18,14624,0,-4,-83,16,35595,29,34,127,0,0,3874,49,0,5795,209,87,12034,-4,0,24,0,225491,0
225520,74,-2053,251,-20,-3,-20,14626,0,11,0,16,35591,22,34,127,0,0,3878,5,0,5795,209,87,12044,-4,0,24,0,225506,0
225530,44,-2044,260,-30,-15,-14,14624,-14,-10,-60,-8,35603,27,34,127,0,0,3875,5,0,5795,209,87,12054,-4,0,24,0,225522,0
225540,23,-2044,264,-31,-7,-12,14625,4,-5,-45,-8,35606,24,34,127,0,0,3875,21,0,5795,209,87,12064,-4,0,24,0,225522,0
225550,-17,-2051,259,-28,-10,-25,14627,2,3,68,-8,35605,22,34,127,0,0,3879,-21,0,5795,209,87,12074,-4,0,24,0,225553,0
225560,7,-2052,260,-33,-16,-31,14628,1,-3,80,8,35594,7,34,127,0,0,3874,-49,0,5795,209,87,12084,-4,0,24,0,225553,0
225570,25,-2043,263,-37,6,-35,14628,5,4,81,8,35587,-3,34,127,0,0,3881,0,0,5795,209,87,12094,-4,0,24,0,225553,0
225580,18,-2046,264,-39,-7,-31,14626,-19,-4,47,40,35594,11,34,127,0,0,3880,65,0,5795,209,87,12104,-4,0,24,0,225584,0
225590,72,-2040,265,-49,-5,-36,14630,0,3,72,8,35606,14,34,127,0,0,3881,0,0,5795,209,87,12114,-4,0,24,0,225584,0
225600,-5,-2029,263,-49,-1,-27,14629,6,0,84,8,35607,12,34,127,0,0,3881,38,0,5795,209,87,12124,-4,0,24,0,225584,0
225610,31,-2027,262,-53,-5,-40,14630,-3,-5,65,32,35605,11,34,127,0,0,3877,0,0,5795,209,87,12134,-4,0,24,0,225584,0
225620,34,-2031,256,-54,-7,-39,14629,1,-1,78,32,35600,1,34,127,0,0,3880,5,0,5795,209,87,12144,-4,0,24,0,225616,0
225630,47,-2039,254,-51,-6,-42,14629,-7,1,92,8,35606,31,34,127,0,0,3881,21,0,5795,209,87,12154,-4,0,24,0,225616,0
225640,12,-2041,249,-51,-6,-46,14630,-2,-4,93,32,35606,48,34,127,0,0,3880,5,0,5795,209,87,12164,-4,0,24,0,225631,0
225650,67,-2028,241,-50,3,-48,14629,-3,-1,61,32,35609,55,34,127,0,0,3880,32,0,5795,209,87,12174,-4,0,24,0,225631,0
225660,43,-2037,243,-46,-4,-44,14631,7,2,80,-24,35606,54,34,127,0,0,3882,-5,0,5795,209,87,12184,-4,0,24,0,225663,0
225670,43,-2034,244,-50,-14,-32,14632,26,1,145,32,35605,34,34,127,0,0,3880,0,0,5795,209,87,12194,-4,0,24,0,225663,0
225680,42,-2031,243,-51,-11,-41,14631,-4,-1,132,32,35602,32,34,127,0,0,3880,0,0,5795,209,87,12204,-4,0,24,0,225663,0
225690,30,-2038,246,-45,-17,-40,14631,-2,-4,121,24,35600,35,34,127,0,0,3880,0,0,5795,209,87,12214,-4,0,24,0,225678,0
225700,31,-2034,239,-40,-10,-34,14630,-5,1,97,32,35607,44,34,127,0,0,3880,27,0,5795,209,87,12224,-4,0,24,0,225678,0
225710,36,-2039,254,-42,-9,-39,14631,-3,-2,121,32,35607,48,34,127,0,0,3880,0,0,5795,209,87,12234,-4,0,24,0,225694,0
225720,32,-2042,257,-40,-7,-34,14629,-12,-4,81,32,35604,45,34,127,0,0,3883,65,0,5795,209,87,12244,-4,0,24,0,225694,0
225730,74,-2043,254,-45,-9,-30,14630,-7,-2,87,0,35597,34,34,127,0,0,3881,21,0,5795,209,87,12254,-4,0,24,0,225725,0
225740,33,-2039,252,-39,-5,-30,14631,10,6,66,32,35594,22,34,127,0,0,3880,21,0,5795,209,87,12264,-4,0,24,0,225741,0
225750,67,-2044,252,-44,-8,-30,14627,-14,-13,47,32,35595,20,34,127,0,0,3880,60,0,5795,209,87,12274,-4,0,24,0,225756,0
225760,68,-2036,257,-43,-5,-24,14633,8,4,117,0,35587,18,34,127,0,0,3881,-5,0,5795,209,87,12284,-4,0,24,0,225756,0
225770,8,-2038,255,-47,-15,-23,14632,6,3,127,32,35591,16,34,127,0,0,3880,0,0,5795,209,87,12294,-4,0,24,0,225756,0
225780,37,-2038,251,-43,-10,-10,14631,-6,-6,132,32,35596,23,34,127,0,0,3880,0,0,5795,209,87,12304,-4,0,24,0,225756,0
225790,34,-2038,254,-45,-13,-13,14631,-4,-4,122,32,35608,10,34,127,0,0,3883,32,0,5795,209,87,12314,-4,0,24,0,225803,0
225800,11,-2043,257,-45,-10,-17,14634,10,6,232,64,35608,13,34,127,0,0,3881,-16,0,5795,209,87,12324,-4,0,24,0,225803,0
225810,22,-2038,254,-45,-7,-28,14636,-10,2,221,72,35606,19,34,127,0,0,3884,16,0,5795,209,87,12334,-4,0,24,0,225819,0
225820,30,-2040,253,-44,-6,-27,14634,-6,-14,233,64,35606,19,34,127,0,0,3884,0,0,5795,209,87,12344,-4,0,24,0,225819,0
225830,17,-2035,251,-43,-12,-28,14637,3,6,249,64,35600,14,34,127,0,0,3884,-27,0,5795,209,87,12354,-4,0,24,0,225850,0
225840,17,-2039,254,-43,-2,-41,14637,11,4,266,88,35599,5,34,127,0,0,3886,-16,0,5795,209,87,12364,-4,0,24,0,225850,0
225850,54,-2038,259,-41,-7,-40,14635,-12,-3,269,64,35602,19,34,127,0,0,3884,5,0,5795,209,87,12374,-4,0,24,0,225850,0
225860,43,-2040,267,-43,0,-42,14637,5,-2,257,56,35604,28,34,127,0,0,3884,-54,0,5795,209,87,12384,-4,0,24,0,225850,0
225870,7,-2039,256,-46,-4,-34,14640,22,4,330,56,35614,28,34,127,0,0,3884,-93,0,5795,209,87,12394,-4,0,24,0,225866,0
225880,33,-2038,259,-47,-7,-40,14637,-4,-8,287,88,35617,28,34,127,0,0,3886,5,0,5795,209,87,12404,-4,0,24,0,225866,0
225890,46,-2041,253,-48,-10,-35,14641,-7,4,311,104,35626,35,34,127,0,0,3885,0,0,5795,209,87,12414,-4,0,24,0,225866,0
225900,45,-2038,253,-45,-4,-44,14643,13,3,364,80,35627,32,34,127,0,0,3890,-43,0,5795,209,87,12424,-4,0,24,0,225912,0
225910,22,-2038,250,-45,-11,-29,14642,6,-6,335,72,35628,32,34,127,0,0,3890,-10,0,5795,209,87,12434,-4,0,24,0,225912,0
225920,20,-2037,248,-50,-11,-35,14642,0,3,347,120,35616,29,34,127,0,0,3888,21,0,5795,209,87,12444,-4,0,24,0,225912,0
225930,56,-2030,247,-52,-7,-48,14642,-11,4,304,72,35602,27,34,127,0,0,3886,-5,0,5795,209,87,12454,-4,0,24,0,225912,0
225940,23,-2047,248,-47,-6,-43,14642,18,-5,271,80,35594,22,34,127,0,0,3883,-32,0,5795,209,87,12464,-4,0,24,0,225912,0
225950,9,-2033,253,-45,-3,-39,14642,6,11,332,80,35602,20,34,127,0,0,3890,-10,0,5795,209,87,12474,-4,0,24,0,225944,0
225960,26,-2036,254,-53,-5,-41,14643,8,1,373,96,35613,15,34,127,0,0,3889,-16,0,5795,209,87,12484,-4,0,24,0,225944,0
225970,35,-2037,249,-50,-12,-39,14640,-16,-5,290,104,35612,22,34,127,0,0,3889,49,0,5795,209,87,12494,-4,0,24,0,225959,0
225980,38,-2033,244,-50,-8,-36,14645,6,0,339,72,35606,31,34,127,0,0,3890,-5,0,5795,209,87,12504,-4,0,24,0,225975,0
225990,14,-2042,255,-49,-6,-30,14643,-1,0,352,96,35607,24,34,127,0,0,3892,32,0,5795,209,87,12514,-4,0,24,0,225975,0
226000,30,-2039,256,-49,-9,-36,14648,8,4,382,88,35611,24,34,127,0,0,3889,-43,0,5795,209,87,12524,-4,0,24,0,225991,0
226010,21,-2043,255,-44,-7,-28,14647,5,1,365,88,35608,12,34,127,0,0,3889,-43,0,5795,209,87,12534,-4,0,24,0,225991,0
226020,22,-2035,251,-48,-10,-28,14646,-1,-7,370,144,35612,9,34,127,0,0,3890,38,0,5795,209,87,12544,-4,0,24,0,226022,0
226030,51,-2036,246,-52,-8,-33,14647,-10,-2,377,112,35609,15,34,127,0,0,3891,27,0,5795,209,87,12554,-4,0,24,0,226022,0
226040,26,-2042,246,-47,-6,-35,14649,6,-2,386,112,35615,15,34,127,0,0,3888,-43,0,5795,209,87,12564,-4,0,24,0,226022,0
226050,27,-2038,253,-46,-10,-38,14648,5,-3,371,136,35609,26,34,127,0,0,3893,43,0,5795,209,87,12574,-4,0,24,0,226116,0
226060,20,-2042,249,-51,-8,-29,14653,7,8,403,104,35610,21,34,127,0,0,3891,-5,0,5795,209,87,12584,-4,0,24,0,226116,0
226070,26,-2042,252,-43,-1,-37,14649,-6,-8,368,104,35608,22,34,127,0,0,3891,5,0,5795,209,87,12594,-4,0,24,0,226116,0
226080,21,-2038,251,-46,-9,-33,14650,-4,-2,396,128,35607,25,34,127,0,0,3893,49,0,5795,209,87,12604,-4,0,24,0,226116,0
226090,29,-2036,254,-51,-7,-32,14652,6,2,425,104,35606,13,34,127,0,0,3894,-5,0,5795,209,87,12614,-4,0,24,0,226116,0
226100,13,-2033,254,-48,-6,-32,14653,2,2,415,128,35596,14,34,127,0,0,3893,21,0,5795,209,87,12624,-4,0,24,0,226116,0
226110,28,-2032,253,-49,-5,-37,14651,-2,-5,423,128,35597,8,34,127,0,0,3893,16,0,5795,209,87,12634,-4,0,24,0,226116,0
226120,31,-2035,253,-52,-5,-32,14654,5,3,421,104,35597,15,34,127,0,0,3894,-5,0,5795,209,87,12644,-4,0,24,0,226116,0
226130,19,-2040,252,-50,-1,-33,14653,2,-1,427,120,35601,10,34,127,0,0,3893,0,0,5795,209,87,12654,-4,0,24,0,226116,0
226140,26,-2044,254,-51,-9,-40,14654,3,0,419,120,35600,11,34,127,0,0,3890,-32,0,5795,209,87,12664,-4,0,24,0,226131,0
226150,21,-2035,251,-53,-10,-37,14656,9,2,434,144,35613,20,34,127,0,0,3892,-10,0,5795,209,87,12674,-4,0,24,0,226131,0
226160,40,-2048,252,-53,-9,-38,14664,17,13,410,104,35627,18,34,127,0,0,3890,-65,0,5795,209,87,12684,-4,0,24,0,226147,0
226170,21,-2037,249,-53,-11,-42,14670,13,7,315,96,35637,21,34,127,0,0,3890,-43,0,5795,209,87,12694,-4,0,24,0,226147,0
226180,26,-2036,246,-52,-8,-46,14678,21,4,279,80,35627,14,34,127,0,0,3893,-10,0,5795,209,87,12704,-4,0,24,0,226162,0
226190,16,-2033,248,-56,-15,-34,14690,23,15,201,56,35616,25,34,127,0,0,3893,-27,0,5795,209,87,12714,-4,0,24,0,226194,0
226200,28,-2041,252,-52,-11,-38,14691,-13,-17,147,48,35607,18,34,127,0,0,3896,49,0,5795,209,87,12724,-4,0,24,0,226194,0
226210,39,-2036,246,-50,-9,-40,14693,0,-22,174,40,35608,0,34,127,0,0,3896,43,0,5795,209,87,12734,-4,0,24,0,226194,0
226220,9,-2044,253,-47,-10,-38,14691,-11,1,175,48,35602,0,34,127,0,0,3896,43,0,5795,209,87,12744,-4,0,24,0,226194,0
226230,27,-2030,253,-49,-11,-37,14694,1,-4,195,40,35601,-10,34,127,0,0,3890,-49,0,5795,209,87,12754,-4,0,24,0,226209,0
226240,34,-2036,246,-56,-8,-46,14693,-4,-2,159,48,35604,-9,34,127,0,0,3896,10,0,5795,209,87,12764,-4,0,24,0,226225,0
226250,33,-2037,250,-43,-12,-45,14697,9,4,225,32,35607,-3,34,127,0,0,3896,-5,0,5795,209,87,12774,-4,0,24,0,226240,0
226260,11,-2038,259,-49,-11,-44,14695,2,-2,193,40,35612,-9,34,127,0,0,3896,16,0,5795,209,87,12784,-4,0,24,0,226256,0
226270,59,-2040,258,-50,-12,-49,14695,-1,-3,152,40,35604,-9,34,127,0,0,3893,38,0,5795,209,87,12794,-4,0,24,0,226256,0
226280,27,-2040,256,-59,-14,-46,14695,5,8,163,40,35594,-21,34,127,0,0,3896,32,0,5795,209,87,12804,-4,0,24,0,226287,0
226290,40,-2042,237,-55,-13,-48,14696,-4,1,171,64,35604,-22,34,127,0,0,3895,49,0,5795,209,87,12814,-4,0,24,0,226287,0
226300,41,-2043,235,-51,-10,-48,14696,-9,-2,179,64,35612,-14,34,127,0,0,3895,32,0,5795,209,87,12824,-4,0,24,0,226303,0
226310,28,-2042,244,-50,-16,-53,14696,8,-1,175,40,35616,-12,34,127,0,0,3896,27,0,5795,209,87,12834,-4,0,24,0,226303,0
226320,2,-2046,245,-48,-16,-56,14695,-2,-1,171,40,35605,-2,34,127,0,0,3893,10,0,5795,209,87,12844,-4,0,24,0,226303,0
226330,14,-2034,252,-46,-16,-60,14697,0,-5,196,40,35600,-3,34,127,0,0,3893,-32,0,5795,209,87,12854,-4,0,24,0,226319,0
226340,23,-2042,248,-43,-15,-63,14697,0,1,179,40,35607,-3,34,127,0,0,3893,-27,0,5795,209,87,12864,-4,0,24,0,226319,0
226350,32,-2040,240,-48,-11,-59,14696,0,-2,160,40,35603,0,34,127,0,0,3900,65,0,5795,209,87,12874,-4,0,24,0,226334,0
226360,12,-2038,236,-43,-6,-54,14697,-3,4,195,40,35611,0,34,127,0,0,3896,38,0,5795,209,87,12884,-4,0,24,0,226397,0
226370,33,-2047,247,-37,-11,-56,14698,12,-1,190,8,35608,-3,34,127,0,0,3894,-38,0,5795,209,87,12894,-4,0,24,0,226397,0
226380,25,-2042,248,-39,-12,-53,14696,7,1,162,40,35605,-12,34,127,0,0,3893,0,0,5795,209,87,12904,-4,0,24,0,226412,0
226390,50,-2041,256,-44,-15,-50,14696,-5,5,166,40,35603,-11,34,127,0,0,3893,0,0,5795,209,87,12914,-4,0,24,0,226428,0
226400,33,-2045,249,-46,-11,-43,14695,-1,2,122,16,35585,-14,34,127,0,0,3894,0,0,5795,209,87,12924,-4,0,24,0,226428,0
226410,33,-2037,255,-39,2,-42,14696,10,5,160,40,35588,-19,34,127,0,0,3893,0,0,5795,209,87,12934,-4,0,24,0,226459,0
226420,42,-2038,255,-47,-4,-46,14696,1,1,164,16,35588,-8,34,127,0,0,3891,-38,0,5795,209,87,12944,-4,0,24,0,226459,0
226430,-6,-2037,250,-44,-13,-41,14695,15,-4,118,40,35590,-19,34,127,0,0,3896,27,0,5795,209,87,12954,-4,0,24,0,226459,0
226440,-1,-2041,246,-46,-19,-34,14696,0,13,165,16,35597,-3,34,127,0,0,3901,71,0,5795,209,87,12964,-4,0,24,0,226459,0
226450,32,-2034,240,-41,-11,-48,14696,7,2,179,40,35593,-4,34,127,0,0,3893,21,0,5795,209,87,12974,-4,0,24,0,226459,0
226460,29,-2042,243,-38,-15,-46,14695,1,-4,197,40,35589,4,34,127,0,0,3893,-21,0,5795,209,87,12984,-4,0,24,0,226459,0
226470,8,-2028,256,-41,-12,-41,14695,0,1,139,40,35593,6,34,127,0,0,3893,5,0,5795,209,87,12994,-4,0,24,0,226459,0
226480,25,-2030,251,-39,-9,-38,14696,6,0,155,40,35588,2,34,127,0,0,3896,32,0,5795,209,87,13004,-4,0,24,0,226459,0
226490,40,-2039,248,-36,-5,-47,14696,5,7,172,40,35596,5,34,127,0,0,3893,10,0,5795,209,87,13014,-4,0,24,0,226475,0
226500,27,-2040,253,-40,-14,-40,14696,7,-4,137,40,35606,5,34,127,0,0,3896,10,0,5795,209,87,13024,-4,0,24,0,226490,0
226510,72,-2036,247,-36,-8,-45,14696,2,7,168,40,35618,4,34,127,0,0,3893,10,0,5795,209,87,13034,-4,0,24,0,226522,0
226520,41,-2037,251,-44,3,-52,14695,0,-4,165,64,35627,6,34,127,0,0,3889,-27,0,5795,209,87,13044,-4,0,24,0,226522,0
226530,9,-2036,257,-41,-12,-47,14695,-4,-4,149,40,35610,7,34,127,0,0,3893,-10,0,5795,209,87,13054,-4,0,24,0,226522,0
226540,18,-2036,249,-40,-13,-47,14696,1,4,165,40,35594,4,34,127,0,0,3896,32,0,5795,209,87,13064,-4,0,24,0,226522,0
226550,39,-2037,253,-42,-11,-47,14697,5,4,171,40,35585,0,34,127,0,0,3893,10,0,5795,209,87,13074,-4,0,24,0,226522,0
226560,29,-2036,246,-41,-5,-47,14696,-1,-3,164,64,35604,7,34,127,0,0,3895,38,0,5795,209,87,13084,-4,0,24,0,226553,0
226570,47,-2041,254,-44,-10,-43,14697,2,-1,189,40,35607,8,34,127,0,0,3896,38,0,5795,209,87,13094,-4,0,24,0,226553,0
226580,37,-2035,251,-38,-2,-49,14697,-3,2,219,40,35605,-6,34,127,0,0,3896,32,0,5795,209,87,13104,-4,0,24,0,226569,0
226590,25,-2045,250,-40,-14,-43,14696,-9,-6,181,40,35592,0,34,127,0,0,3893,10,0,5795,209,87,13114,-4,0,24,0,226584,0
226600,30,-2043,252,-35,-11,-45,14698,8,1,173,56,35603,-3,34,127,0,0,3892,-10,0,5795,209,87,13124,-4,0,24,0,226600,0
226610,24,-2041,248,-40,-9,-45,14694,-9,-3,163,64,35603,17,34,127,0,0,3892,5,0,5795,209,87,13134,-4,0,24,0,226600,0
226620,39,-2040,250,-37,-9,-45,14697,-2,0,172,64,35599,8,34,127,0,0,3895,21,0,5795,209,87,13144,-4,0,24,0,226600,0
226630,32,-2041,248,-33,-11,-38,14696,-3,2,179,40,35593,-1,34,127,0,0,3896,16,0,5795,209,87,13154,-4,0,24,0,226631,0
226640,26,-2035,252,-38,-13,-40,14696,0,0,185,64,35598,-2,34,127,0,0,3895,21,0,5795,209,87,13164,-4,0,24,0,226631,0
226650,51,-2039,248,-37,-4,-45,14696,-7,1,166,40,35602,-7,34,127,0,0,3893,10,0,5795,209,87,13174,-4,0,24,0,226631,0
226660,36,-2039,252,-37,-8,-42,14696,0,-3,161,64,35594,-9,34,127,0,0,3892,5,0,5795,209,87,13184,-4,0,24,0,226647,0
226670,32,-2043,263,-37,-8,-41,14697,8,4,172,40,35589,-15,34,127,0,0,3893,-27,0,5795,209,87,13194,-4,0,24,0,226662,0
226680,23,-2041,251,-44,-3,-38,14697,2,1,174,40,35600,-18,34,127,0,0,3893,-27,0,5795,209,87,13204,-4,0,24,0,226662,0
226690,30,-2029,246,-41,-9,-37,14695,-8,-3,160,16,35606,-8,34,127,0,0,3897,27,0,5795,209,87,13214,-4,0,24,0,226678,0
226700,-5,-2043,251,-38,-7,-38,14695,-3,-6,140,40,35597,-7,34,127,0,0,3896,49,0,5795,209,87,13224,-4,0,24,0,226678,0
226710,57,-2031,251,-38,-7,-40,14697,10,5,195,56,35587,-11,34,127,0,0,3892,-27,0,5795,209,87,13234,-4,0,24,0,226725,0
226720,52,-2043,256,-41,-1,-45,14696,-3,-2,184,40,35597,-14,34,127,0,0,3893,-54,0,5795,209,87,13244,-4,0,24,0,226725,0
226730,43,-2038,247,-46,-7,-33,14697,2,-2,160,40,35601,-11,34,127,0,0,3893,0,0,5795,209,87,13254,-4,0,24,0,226725,0
226740,28,-2047,249,-49,-6,-40,14696,-3,2,164,40,35602,1,34,127,0,0,3896,32,0,5795,209,87,13264,-4,0,24,0,226725,0
226750,48,-2046,258,-47,-6,-35,14695,1,-4,171,40,35590,-12,34,127,0,0,3893,10,0,5795,209,87,13274,-4,0,24,0,226725,0
226760,39,-2041,253,-43,-3,-36,14699,12,7,206,56,35594,-8,34,127,0,0,3895,-10,0,5795,209,87,13284,-4,0,24,0,226756,0
226770,35,-2040,247,-44,-8,-36,14697,-2,-3,196,8,35610,-21,34,127,0,0,3894,-38,0,5795,209,87,13294,-4,0,24,0,226756,0
226780,6,-2034,246,-44,-6,-37,14697,10,-4,191,40,35614,-13,34,127,0,0,3893,-32,0,5795,209,87,13304,-4,0,24,0,226756,0
226790,21,-2025,250,-44,-8,-33,14695,-1,0,170,40,35605,0,34,127,0,0,3893,0,0,5795,209,87,13314,-4,0,24,0,226772,0
226800,21,-2027,249,-44,-5,-30,14696,0,4,168,32,35612,-9,34,127,0,0,3893,-16,0,5795,209,87,13324,-4,0,24,0,226803,0
226810,21,-2049,247,-43,-6,-32,14697,2,4,184,40,35613,-19,34,127,0,0,3893,-5,0,5795,209,87,13334,-4,0,24,0,226818,0
226820,38,-2044,257,-42,-9,-37,14696,0,-8,170,40,35620,-22,34,127,0,0,3893,0,0,5795,209,87,13344,-4,0,24,0,226818,0
226830,39,-2050,257,-43,-7,-39,14696,5,1,137,40,35610,-13,34,127,0,0,3893,27,0,5795,209,87,13354,-4,0,24,0,226834,0
226840,32,-2048,256,-48,-2,-40,14696,-3,3,184,40,35603,4,34,127,0,0,3893,-5,0,5795,209,87,13364,-4,0,24,0,226834,0
226850,21,-2030,255,-49,-9,-32,14696,0,0,166,40,35596,-5,34,127,0,0,3893,0,0,5795,209,87,13374,-4,0,24,0,226834,0
226860,32,-2031,249,-42,-8,-33,14698,1,3,180,40,35608,5,34,127,0,0,3893,-43,0,5795,209,87,13384,-4,0,24,0,226834,0
226870,33,-2026,249,-39,-8,-28,14698,11,2,177,40,35624,-10,34,127,0,0,3893,-16,0,5795,209,87,13394,-4,0,24,0,226881,0
226880,25,-2019,256,-42,-6,-37,14697,0,2,191,40,35635,-9,34,127,0,0,3896,-10,0,5795,209,87,13404,-4,0,24,0,226881,0
226890,41,-2013,255,-48,-6,-31,14695,-10,-5,172,40,35629,-13,34,127,0,0,3893,10,0,5795,209,87,13414,-4,0,24,0,226881,0
226900,35,-2014,250,-54,-4,-30,14696,7,0,183,40,35615,-19,34,127,0,0,3896,27,0,5795,209,87,13424,-4,0,24,0,226881,0
226910,30,-2019,249,-48,-4,-34,14696,-8,3,155,64,35597,-10,34,127,0,0,3899,109,0,5795,209,87,13434,-4,0,24,0,226897,0
226920,26,-2023,256,-45,-8,-33,14699,-8,5,189,56,35606,-6,34,127,0,0,3895,27,0,5795,209,87,13444,-4,0,24,0,226897,0
226930,18,-2035,255,-50,-9,-44,14696,-7,-7,189,64,35618,-4,34,127,0,0,3899,76,0,5795,209,87,13454,-4,0,24,0,226928,0
226940,20,-2042,261,-57,-12,-41,14698,-9,-5,166,56,35629,-20,34,127,0,0,3892,0,0,5795,209,87,13464,-4,0,24,0,226928,0
226950,25,-2051,261,-62,-4,-46,14697,0,-5,155,32,35621,-16,34,127,0,0,3896,5,0,5795,209,87,13474,-4,0,24,0,226928,0
226960,8,-2061,256,-66,-10,-39,14697,0,0,181,40,35603,-2,34,127,0,0,3896,27,0,5795,209,87,13484,-4,0,24,0,226943,0
226970,35,-2055,240,-64,-10,-36,14696,-6,-6,168,32,35605,4,34,127,0,0,3896,16,0,5795,209,87,13494,-4,0,24,0,226959,0
226980,29,-2054,240,-58,-13,-41,14698,12,5,150,56,35613,1,34,127,0,0,3892,-5,0,5795,209,87,13504,-4,0,24,0,226975,0
226990,24,-2054,232,-54,-8,-44,14698,7,5,154,40,35615,2,34,127,0,0,3896,32,0,5795,209,87,13514,-4,0,24,0,226975,0
227000,11,-2054,236,-52,-11,-41,14697,-14,-4,162,64,35604,6,34,127,0,0,3892,16,0,5795,209,87,13524,-4,0,24,0,227022,0
227010,31,-2069,237,-52,-10,-44,14698,4,-8,174,56,35595,7,34,127,0,0,3892,0,0,5795,209,87,13534,-4,0,24,0,227037,0
227020,34,-2054,241,-45,-10,-52,14698,-5,1,176,32,35600,-10,34,127,0,0,3893,-43,0,5795,209,87,13544,-4,0,24,0,227037,0
227030,11,-2063,254,-42,-8,-51,14698,11,-2,163,8,35605,-2,34,127,0,0,3894,-32,0,5795,209,87,13554,-4,0,24,0,227037,0
227040,13,-2055,241,-30,-2,-59,14697,6,3,173,56,35607,-5,34,127,0,0,3895,10,0,5795,209,87,13564,-4,0,24,0,227037,0
227050,53,-2058,250,-34,-9,-67,14697,-6,-3,199,40,35598,-14,34,127,0,0,3896,21,0,5795,209,87,13574,-4,0,24,0,227037,0
227060,20,-2057,239,-27,-9,-59,14698,0,-2,189,40,35603,-8,34,127,0,0,3893,5,0,5795,209,87,13584,-4,0,24,0,227037,0
227070,25,-2048,233,-28,-8,-59,14696,1,2,142,40,35615,-23,34,127,0,0,3893,27,0,5795,209,87,13594,-4,0,24,0,227053,0
227080,31,-2038,230,-22,-10,-57,14698,0,10,168,32,35626,-7,34,127,0,0,3896,5,0,5795,209,87,13604,-4,0,24,0,227068,0
227090,50,-2023,226,-17,-14,-55,14698,8,4,179,32,35623,-2,34,127,0,0,3893,-16,0,5795,209,87,13614,-4,0,24,0,227068,0
227100,30,-2010,234,-6,-9,-58,14696,-2,-1,159,40,35616,10,34,127,0,0,3893,0,0,5795,209,87,13624,-4,0,24,0,227084,0
227110,16,-2006,239,2,-14,-55,14698,-1,-2,128,40,35622,15,34,127,0,0,3893,5,0,5795,209,87,13634,-4,0,24,0,227115,0
227120,12,-2000,242,-4,-15,-56,14699,11,2,162,32,35625,11,34,127,0,0,3893,-27,0,5795,209,87,13644,-4,0,24,0,227131,0
227130,-5,-1994,240,0,-15,-52,14696,0,-2,157,40,35618,18,34,127,0,0,3893,0,0,5795,209,87,13654,-4,0,24,0,227131,0
227140,14,-2002,234,12,-23,-59,14695,-21,-6,111,40,35610,1,34,127,0,0,3893,5,0,5795,209,87,13664,-4,0,24,0,227131,0
227150,46,-2002,218,12,-20,-62,14699,9,7,148,56,35602,6,34,127,0,0,3895,38,0,5795,209,87,13674,-4,0,24,0,227131,0
227160,42,-2015,219,23,-18,-56,14694,-20,-6,107,40,35610,13,34,127,0,0,3893,43,0,5795,209,87,13684,-4,0,24,0,227147,0
227170,41,-2025,243,39,-14,-58,14697,4,-4,141,32,35616,16,34,127,0,0,3893,0,0,5795,209,87,13694,-4,0,24,0,227162,0
227180,25,-2032,259,46,-8,-54,14696,0,8,165,40,35616,6,34,127,0,0,3893,0,0,5795,209,87,13704,-4,0,24,0,227178,0
227190,42,-2050,266,47,-12,-54,14696,-3,-5,122,32,35616,-14,34,127,0,0,3893,5,0,5795,209,87,13714,-4,0,24,0,227178,0
227200,44,-2044,276,40,-16,-46,14696,1,-2,128,40,35603,-18,34,127,0,0,3893,27,0,5795,209,87,13724,-4,0,24,0,227193,0
227210,23,-2064,293,34,-12,-44,14696,-7,1,134,40,35594,-8,34,127,0,0,3893,5,0,5795,209,87,13734,-4,0,24,0,227193,0
227220,23,-2080,298,22,-20,-38,14698,11,1,151,40,35599,-13,34,127,0,0,3893,21,0,5795,209,87,13744,-4,0,24,0,227240,0
227230,9,-2083,295,13,-15,-48,14696,-11,1,134,40,35607,-6,34,127,0,0,3893,27,0,5795,209,87,13754,-4,0,24,0,227240,0
227240,17,-2080,278,0,-17,-53,14697,-1,1,116,8,35618,-20,34,127,0,0,3894,0,0,5795,209,87,13764,-4,0,24,0,227240,0
227250,2,-2073,278,-4,-11,-55,14697,8,7,171,40,35610,-5,34,127,0,0,3893,-27,0,5795,209,87,13774,-4,0,24,0,227240,0
227260,15,-2058,278,-8,-8,-63,14695,-7,-3,162,40,35600,-6,34,127,0,0,3896,32,0,5795,209,87,13784,-4,0,24,0,227240,0
227270,-14,-2054,276,-24,-22,-62,14698,-7,1,118,32,35598,-16,34,127,0,0,3893,-32,0,5795,209,87,13794,-4,0,24,0,227256,0
227280,-45,-2039,278,-23,-19,-68,14699,18,5,169,40,35612,-20,34,127,0,0,3893,-5,0,5795,209,87,13804,-4,0,24,0,227272,0
227290,4,-2037,275,-37,-24,-92,14695,-14,-3,117,40,35620,-22,34,127,0,0,3893,5,0,5795,209,87,13814,-4,0,24,0,227272,0
227300,-2,-2024,262,-36,-26,-87,14695,-3,2,89,32,35611,-2,34,127,0,0,3893,21,0,5795,209,87,13824,-4,0,24,0,227272,0
227310,51,-2015,266,-46,-6,-100,14697,3,3,124,40,35602,0,34,127,0,0,3886,-38,0,5795,209,87,13834,-4,0,24,0,227303,0
227320,68,-2016,259,-48,-9,-107,14693,-5,-13,48,24,35605,-11,34,127,0,0,3891,-10,0,5795,209,87,13844,-4,0,24,0,227303,0
227330,51,-2016,251,-37,-18,-105,14693,-14,-5,-5,0,35611,-13,34,127,0,0,3889,10,0,5795,209,87,13854,-4,0,24,0,227303,0
227340,31,-2012,247,-36,-3,-104,14693,8,3,-10,-8,35604,-1,34,127,0,0,3882,-65,0,5795,209,87,13864,-4,0,24,0,227334,0
227350,9,-2033,257,-30,-7,-119,14690,7,-4,-82,-24,35589,0,34,127,0,0,3886,-49,0,5795,209,87,13874,-4,0,24,0,227350,0
227360,-7,-2028,271,-33,-7,-122,14688,-11,0,-117,-40,35591,-1,34,127,0,0,3884,-16,0,5795,209,87,13884,-4,0,24,0,227350,0
227370,19,-2030,262,-29,-5,-134,14684,-7,0,-183,-80,35597,-3,34,127,0,0,3883,-38,0,5795,209,87,13894,-4,0,24,0,227350,0
227380,24,-2036,262,-25,-8,-134,14674,-27,-17,-202,-56,35597,13,34,127,0,0,3880,-21,0,5795,209,87,13904,-4,0,24,0,227381,0
227390,32,-2030,277,-37,-7,-139,14669,-22,-2,-219,-72,35600,18,34,127,0,0,3878,-38,0,5795,209,87,13914,-4,0,24,0,227381,0
227400,54,-2032,279,-46,-1,-133,14653,-60,-23,-225,-40,35596,17,34,127,0,0,3874,-10,0,5795,209,87,13924,-4,0,24,0,227381,0
227410,37,-2040,255,-45,-8,-134,14630,-37,-36,-151,-64,35600,8,34,127,0,0,3874,5,0,5795,209,87,13934,-4,0,24,0,227396,0
227420,48,-2043,252,-35,-3,-123,14633,10,46,-213,-72,35600,15,34,127,0,0,3871,-10,0,5795,209,87,13944,-4,0,24,0,227412,0
227430,40,-2052,265,-43,-7,-114,14630,-10,29,-267,-112,35591,32,34,127,0,0,3870,-27,0,5795,209,87,13954,-4,0,24,0,227412,0
227440,47,-2040,260,-38,-10,-102,14626,-6,-12,-340,-104,35591,30,34,127,0,0,3863,-27,0,5795,209,87,13964,-4,0,24,0,227443,0
227450,69,-2047,263,-41,-10,-98,14623,-8,5,-388,-96,35594,22,34,127,0,0,3863,-16,0,5795,209,87,13974,-4,0,24,0,227443,0
227460,67,-2049,262,-36,-6,-87,14621,-1,2,-404,-136,35599,10,34,127,0,0,3866,-21,0,5795,209,87,13984,-4,0,24,0,227443,0
227470,58,-2048,269,-43,-13,-66,14616,-15,-4,-444,-104,35590,20,34,127,0,0,3861,16,0,5795,209,87,13994,-4,0,24,0,227443,0
227480,56,-2039,270,-41,-12,-65,14614,-1,-5,-441,-104,35583,16,34,127,0,0,3864,21,0,5795,209,87,14004,-4,0,24,0,227459,0
227490,50,-2042,274,-45,-11,-63,14614,-2,12,-434,-128,35587,13,34,127,0,0,3866,16,0,5795,209,87,14014,-4,0,24,0,227475,0
227500,33,-2041,267,-42,-18,-61,14613,3,3,-426,-96,35594,14,34,127,0,0,3861,-10,0,5795,209,87,14024,-4,0,24,0,227490,0
227510,46,-2034,267,-49,-3,-67,14611,-3,0,-426,-96,35604,10,34,127,0,0,3861,0,0,5795,209,87,14034,-4,0,24,0,227490,0
227520,48,-2030,269,-49,-7,-70,14611,-6,1,-430,-96,35599,9,34,127,0,0,3864,21,0,5795,209,87,14044,-4,0,24,0,227506,0
227530,48,-2024,277,-50,-8,-79,14610,-7,1,-444,-120,35603,4,34,127,0,0,3859,-21,0,5795,209,87,14054,-4,0,24,0,227506,0
227540,54,-2034,272,-58,-12,-76,14605,-12,-11,-392,-128,35608,-2,34,127,0,0,3863,5,0,5795,209,87,14064,-4,0,24,0,227521,0
227550,36,-2028,262,-54,-13,-76,14601,-11,-6,-383,-96,35603,15,34,127,0,0,3859,-16,0,5795,209,87,14074,-4,0,24,0,227537,0
227560,46,-2027,261,-55,-9,-73,14594,-24,-3,-376,-128,35598,18,34,127,0,0,3861,5,0,5795,209,87,14084,-4,0,24,0,227553,0
227570,55,-2024,259,-62,-6,-71,14580,-30,-22,-291,-104,35594,15,34,127,0,0,3861,21,0,5795,209,87,14094,-4,0,24,0,227568,0
227580,42,-2027,274,-60,-8,-71,14573,-15,5,-331,-88,35592,1,34,127,0,0,3861,71,0,5795,209,87,14104,-4,0,24,0,227568,0
227590,72,-2033,272,-66,-14,-66,14574,1,29,-308,-112,35589,-5,34,127,0,0,3859,-10,0,5795,209,87,14114,-4,0,24,0,227568,0
227600,34,-2044,263,-68,-13,-70,14570,-8,3,-347,-104,35588,13,34,127,0,0,3859,16,0,5795,209,87,14124,-4,0,24,0,227615,0
227610,49,-2043,264,-67,-4,-68,14569,-2,-6,-393,-104,35596,3,34,127,0,0,3856,16,0,5795,209,87,14134,-4,0,24,0,227615,0
227620,36,-2037,260,-71,-8,-71,14566,-8,-4,-404,-96,35602,6,34,127,0,0,3852,-10,0,5795,209,87,14144,-4,0,24,0,227615,0
227630,45,-2040,264,-72,-3,-80,14564,-4,-3,-431,-120,35599,-12,34,127,0,0,3854,0,0,5795,209,87,14154,-4,0,24,0,227615,0
227640,43,-2038,264,-71,-9,-76,14562,-13,2,-465,-112,35591,-4,34,127,0,0,3850,16,0,5795,209,87,14164,-4,0,24,0,227615,0
227650,43,-2042,260,-64,-6,-74,14562,0,4,-467,-136,35589,-10,34,127,0,0,3851,-21,0,5795,209,87,14174,-4,0,24,0,227646,0
227660,43,-2038,260,-67,-6,-73,14560,4,3,-418,-136,35611,-23,34,127,0,0,3851,-32,0,5795,209,87,14184,-4,0,24,0,227662,0
227670,68,-2045,253,-63,-8,-69,14556,-23,-7,-498,-152,35614,-10,34,127,0,0,3849,10,0,5795,209,87,14194,-4,0,24,0,227662,0
227680,58,-2041,254,-64,-8,-64,14551,-8,-16,-492,-136,35608,-11,34,127,0,0,3849,0,0,5795,209,87,14204,-4,0,24,0,227662,0
227690,58,-2038,257,-63,-5,-56,14549,-5,7,-468,-136,35592,-11,34,127,0,0,3849,-16,0,5795,209,87,14214,-4,0,24,0,227693,0
227700,63,-2043,255,-63,-6,-49,14546,-9,0,-496,-128,35595,-2,34,127,0,0,3846,-27,0,5795,209,87,14224,-4,0,24,0,227693,0
227710,61,-2032,254,-58,-6,-45,14540,-17,-7,-417,-144,35602,-17,34,127,0,0,3850,5,0,5795,209,87,14234,-4,0,24,0,227693,0
227720,53,-2033,256,-59,-10,-43,14530,-26,-13,-351,-104,35593,-12,34,127,0,0,3843,-54,0,5795,209,87,14244,-4,0,24,0,227709,0
227730,45,-2044,256,-58,-5,-42,14511,-51,-27,-292,-112,35591,-20,34,127,0,0,3851,0,0,5795,209,87,14254,-4,0,24,0,227709,0
227740,-8,-2033,263,-53,-8,-38,14502,5,6,-188,-56,35594,-24,34,127,0,0,3847,-10,0,5795,209,87,14264,-4,0,24,0,227740,0
227750,45,-2036,255,-52,-5,-30,14503,-3,54,-229,-64,35614,-37,34,127,0,0,3854,21,0,5795,209,87,14274,-4,0,24,0,227740,0
227760,3,-2036,266,-52,-12,-20,14503,-1,14,-217,-64,35612,-41,34,127,0,0,3850,27,0,5795,209,87,14284,-4,0,24,0,227740,0
227770,55,-2040,242,-53,0,-38,14503,13,-1,-202,-64,35611,-40,34,127,0,0,3850,21,0,5795,209,87,14294,-4,0,24,0,227756,0
227780,26,-2052,258,-44,-11,-35,14501,0,-1,-191,-40,35602,-48,34,127,0,0,3849,0,0,5795,209,87,14304,-4,0,24,0,227756,0
227790,71,-2032,255,-45,1,-28,14502,-7,-2,-230,-40,35610,-56,34,127,0,0,3846,10,0,5795,209,87,14314,-4,0,24,0,227787,0
227800,71,-2039,255,-48,0,-32,14502,-1,1,-234,-64,35621,-54,34,127,0,0,3847,-43,0,5795,209,87,14324,-4,0,24,0,227787,0
227810,44,-2032,264,-42,-12,-28,14503,8,10,-206,-40,35607,-36,34,127,0,0,3852,21,0,5795,209,87,14334,-4,0,24,0,227787,0
227820,31,-2043,266,-50,1,-30,14504,0,7,-158,-48,35600,-29,34,127,0,0,3846,-49,0,5795,209,87,14344,-4,0,24,0,227818,0
227830,27,-2042,256,-49,-5,-38,14500,0,-12,-227,-64,35606,-33,34,127,0,0,3847,-43,0,5795,209,87,14354,-4,0,24,0,227818,0
227840,28,-2039,256,-47,-10,-34,14501,-1,3,-228,-64,35611,-44,34,127,0,0,3847,-5,0,5795,209,87,14364,-4,0,24,0,227818,0
227850,26,-2037,258,-53,-14,-34,14502,-5,3,-219,-40,35605,-37,34,127,0,0,3849,5,0,5795,209,87,14374,-4,0,24,0,227849,0
227860,44,-2038,265,-54,-10,-31,14501,-6,1,-233,-64,35614,-39,34,127,0,0,3850,16,0,5795,209,87,14384,-4,0,24,0,227849,0
227870,45,-2037,255,-50,-9,-30,14504,12,2,-200,-48,35612,-28,34,127,0,0,3849,-5,0,5795,209,87,14394,-4,0,24,0,227849,0
227880,38,-2041,259,-53,-8,-39,14504,10,5,-137,-48,35626,-30,34,127,0,0,3846,-76,0,5795,209,87,14404,-4,0,24,0,227865,0
227890,18,-2042,258,-51,-12,-36,14500,-12,-14,-211,-40,35625,-9,34,127,0,0,3849,5,0,5795,209,87,14414,-4,0,24,0,227928,0
227900,55,-2039,258,-54,-10,-43,14504,1,1,-208,-64,35620,-4,34,127,0,0,3850,-5,0,5795,209,87,14424,-4,0,24,0,227943,0
227910,25,-2038,256,-50,-9,-37,14505,16,7,-135,-48,35610,-6,34,127,0,0,3849,-43,0,5795,209,87,14434,-4,0,24,0,227943,0
227920,24,-2025,260,-51,-9,-43,14500,-11,-12,-204,-32,35604,-25,34,127,0,0,3849,5,0,5795,209,87,14444,-4,0,24,0,227943,0
227930,71,-2038,259,-57,-7,-46,14503,9,1,-208,-16,35604,-29,34,127,0,0,3848,32,0,5795,209,87,14454,-4,0,24,0,227943,0
227940,65,-2031,255,-54,-7,-41,14503,-3,12,-203,-64,35597,-16,34,127,0,0,3850,-5,0,5795,209,87,14464,-4,0,24,0,227943,0
227950,32,-2032,257,-57,-11,-42,14504,13,0,-127,-48,35594,-26,34,127,0,0,3849,-21,0,5795,209,87,14474,-4,0,24,0,227943,0
227960,53,-2036,257,-53,-7,-47,14501,-18,-3,-189,-64,35600,-27,34,127,0,0,3850,-5,0,5795,209,87,14484,-4,0,24,0,227943,0
227970,40,-2044,251,-59,-11,-38,14505,9,-1,-176,-48,35607,-28,34,127,0,0,3849,-27,0,5795,209,87,14494,-4,0,24,0,227943,0
227980,43,-2029,258,-51,-12,-40,14501,0,3,-195,-16,35620,-16,34,127,0,0,3848,10,0,5795,209,87,14504,-4,0,24,0,227959,0
227990,61,-2042,250,-56,-13,-45,14503,-9,-1,-227,-40,35630,-22,34,127,0,0,3849,5,0,5795,209,87,14514,-4,0,24,0,227990,0
228000,25,-2033,256,-53,-10,-49,14503,4,4,-214,-40,35640,-19,34,127,0,0,3849,16,0,5795,209,87,14524,-4,0,24,0,227990,0
228010,36,-2038,262,-55,-6,-42,14503,1,0,-167,-48,35635,-22,34,127,0,0,3849,-27,0,5795,209,87,14534,-4,0,24,0,228006,0
228020,28,-2040,263,-55,-14,-40,14501,2,-7,-218,-40,35608,-13,34,127,0,0,3852,38,0,5795,209,87,14544,-4,0,24,0,228006,0
228030,80,-2036,254,-53,-9,-48,14503,-1,0,-208,-40,35599,-31,34,127,0,0,3849,16,0,5795,209,87,14554,-4,0,24,0,228021,0
228040,47,-2041,253,-50,-8,-44,14502,6,3,-216,-16,35607,-32,34,127,0,0,3848,38,0,5795,209,87,14564,-4,0,24,0,228021,0
228050,47,-2032,255,-51,-11,-47,14504,0,6,-149,-48,35622,-60,34,127,0,0,3846,-65,0,5795,209,87,14574,-4,0,24,0,228037,0
228060,53,-2043,258,-51,-5,-53,14504,7,-1,-178,-64,35624,-43,34,127,0,0,3850,-32,0,5795,209,87,14584,-4,0,24,0,228053,0
228070,50,-2035,256,-52,-17,-42,14500,-7,-2,-205,-40,35620,-40,34,127,0,0,3849,16,0,5795,209,87,14594,-4,0,24,0,228053,0
228080,78,-2027,256,-51,-3,-47,14502,-2,3,-214,-16,35611,-43,34,127,0,0,3848,21,0,5795,209,87,14604,-4,0,24,0,228068,0
228090,46,-2035,249,-53,-19,-55,14500,-16,0,-241,-40,35623,-47,34,127,0,0,3849,32,0,5795,209,87,14614,-4,0,24,0,228099,0
228100,25,-2040,249,-50,-12,-45,14502,-3,-1,-223,-40,35633,-43,34,127,0,0,3849,27,0,5795,209,87,14624,-4,0,24,0,228099,0
228110,22,-2042,255,-48,-15,-43,14504,5,7,-119,-24,35619,-6,34,127,0,0,3848,-43,0,5795,209,87,14634,-4,0,24,0,228099,0
228120,45,-2037,258,-51,-10,-48,14501,-13,-13,-189,-40,35608,-8,34,127,0,0,3849,0,0,5795,209,87,14644,-4,0,24,0,228099,0
228130,59,-2041,247,-49,-11,-50,14502,-1,-6,-207,-16,35602,-16,34,127,0,0,3848,32,0,5795,209,87,14654,-4,0,24,0,228131,0
228140,63,-2039,253,-50,-10,-50,14502,-10,6,-202,-40,35623,-26,34,127,0,0,3852,32,0,5795,209,87,14664,-4,0,24,0,228131,0
228150,63,-2039,251,-43,-12,-50,14505,4,-2,-148,-24,35624,-23,34,127,0,0,3848,0,0,5795,209,87,14674,-4,0,24,0,228146,0
228160,43,-2041,255,-45,-18,-53,14502,1,-7,-171,-40,35614,-34,34,127,0,0,3849,-16,0,5795,209,87,14684,-4,0,24,0,228146,0
228170,24,-2040,258,-41,-15,-43,14503,4,-5,-168,-72,35602,-45,34,127,0,0,3847,-65,0,5795,209,87,14694,-4,0,24,0,228162,0
228180,35,-2032,259,-45,-14,-55,14502,14,4,-193,-64,35620,-50,34,127,0,0,3850,-16,0,5795,209,87,14704,-4,0,24,0,228162,0
228190,33,-2038,247,-41,-16,-51,14500,-6,1,-196,-40,35620,-32,34,127,0,0,3849,16,0,5795,209,87,14714,-4,0,24,0,228178,0
228200,58,-2032,252,-38,-13,-51,14500,-9,0,-214,-64,35620,-24,34,127,0,0,3847,-10,0,5795,209,87,14724,-4,0,24,0,228178,0
228210,14,-2035,250,-39,-18,-49,14500,2,0,-224,-64,35600,-21,34,127,0,0,3847,-43,0,5795,209,87,14734,-4,0,24,0,228209,0
228220,27,-2041,251,-38,-20,-50,14503,13,6,-158,-16,35606,-44,34,127,0,0,3848,-10,0,5795,209,87,14744,-4,0,24,0,228209,0
228230,35,-2046,259,-36,-12,-56,14501,-18,-2,-197,-40,35604,-36,34,127,0,0,3849,0,0,5795,209,87,14754,-4,0,24,0,228209,0
228240,29,-2046,261,-41,-14,-51,14500,1,-6,-280,-40,35604,-23,34,127,0,0,3843,27,0,5795,209,87,14764,-4,0,24,0,228256,0
228250,20,-2045,253,-36,-10,-55,14502,5,10,-244,-16,35607,-36,34,127,0,0,3845,-38,0,5795,209,87,14774,-4,0,24,0,228256,0
228260,44,-2034,250,-33,-19,-49,14500,-6,-4,-243,-40,35611,-41,34,127,0,0,3849,49,0,5795,209,87,14784,-4,0,24,0,228271,0
228270,49,-2036,250,-35,-15,-65,14501,-6,-6,-241,-16,35613,-55,34,127,0,0,3848,54,0,5795,209,87,14794,-4,0,24,0,228303,0
228280,70,-2033,250,-32,-12,-60,14502,-3,5,-224,-40,35597,-30,34,127,0,0,3849,5,0,5795,209,87,14804,-4,0,24,0,228303,0
228290,59,-2032,250,-27,-3,-65,14501,1,0,-210,-40,35586,-29,34,127,0,0,3846,-16,0,5795,209,87,14814,-4,0,24,0,228318,0
228300,50,-2031,249,-30,-5,-77,14500,-9,-2,-230,-104,35597,-35,34,127,0,0,3846,-71,0,5795,209,87,14824,-4,0,24,0,228318,0
228310,41,-2038,259,-27,-3,-73,14495,-3,-7,-319,-104,35606,-25,34,127,0,0,3843,-38,0,5795,209,87,14834,-4,0,24,0,228318,0
228320,54,-2039,254,-27,-2,-75,14491,-10,-7,-363,-88,35600,-22,34,127,0,0,3843,0,0,5795,209,87,14844,-4,0,24,0,228318,0
228330,50,-2032,255,-27,-9,-75,14489,0,15,-362,-88,35598,-19,34,127,0,0,3839,-5,0,5795,209,87,14854,-4,0,24,0,228318,0
228340,38,-2037,253,-30,-10,-77,14488,-7,0,-370,-104,35592,-21,34,127,0,0,3840,-5,0,5795,209,87,14864,-4,0,24,0,228318,0
228350,49,-2036,254,-26,-3,-89,14484,-18,-10,-392,-96,35599,-35,34,127,0,0,3837,-5,0,5795,209,87,14874,-4,0,24,0,228334,0
228360,45,-2033,256,-23,-9,-93,14470,-34,-16,-364,-104,35606,-32,34,127,0,0,3841,5,0,5795,209,87,14884,-4,0,24,0,228369,0
228370,41,-2041,262,-28,-9,-94,14447,-66,-48,-268,-96,35603,-25,34,127,0,0,3830,-54,0,5795,209,87,14894,-4,0,24,0,228401,0
228380,29,-2031,255,-31,-2,-114,14431,-2,2,-309,-88,35600,-26,34,127,0,0,3832,-43,0,5795,209,87,14904,-4,0,24,0,228416,0
228390,70,-2045,260,-28,-11,-112,14432,-6,61,-369,-88,35593,-37,34,127,0,0,3832,0,0,5795,209,87,14914,-4,0,24,0,228416,0
228400,33,-2033,268,-28,-8,-113,14432,0,17,-399,-112,35589,-34,34,127,0,0,3826,-38,0,5795,209,87,14924,-4,0,24,0,228416,0
228410,51,-2042,254,-26,-4,-122,14427,-13,-12,-469,-128,35590,-15,34,127,0,0,3824,-32,0,5795,209,87,14934,-4,0,24,0,228432,0
228420,61,-2049,258,-25,4,-121,14423,-9,-8,-480,-144,35594,-15,34,127,0,0,3825,-21,0,5795,209,87,14944,-4,0,24,0,228432,0
228430,65,-2049,268,-26,-9,-114,14419,-20,0,-534,-176,35605,-27,34,127,0,0,3821,-71,0,5795,209,87,14954,-4,0,24,0,228432,0
228440,57,-2059,258,-29,-7,-114,14404,-33,-27,-470,-176,35618,-43,34,127,0,0,3822,-76,0,5795,209,87,14964,-4,0,24,0,228432,0
228450,53,-2058,242,-27,-9,-116,14384,-50,-27,-371,-136,35618,-21,34,127,0,0,3818,-38,0,5795,209,87,14974,-4,0,24,0,228432,0
228460,47,-2049,239,-17,-2,-118,14374,-7,13,-409,-136,35610,-14,34,127,0,0,3819,-32,0,5795,209,87,14984,-4,0,24,0,228447,0
228470,49,-2037,248,-19,-13,-106,14375,-6,49,-505,-136,35607,-37,34,127,0,0,3813,-27,0,5795,209,87,14994,-4,0,24,0,228447,0
228480,42,-2026,244,-10,-8,-120,14369,-4,2,-489,-152,35600,-35,34,127,0,0,3807,-93,0,5795,209,87,15004,-4,0,24,0,228479,0
228490,42,-2026,242,9,-3,-121,14364,-10,-10,-517,-160,35604,-32,34,127,0,0,3812,-43,0,5795,209,87,15014,-4,0,24,0,228479,0
228500,51,-2032,253,6,-3,-123,14358,-25,-4,-566,-176,35593,-24,34,127,0,0,3806,-5,0,5795,209,87,15024,-4,0,24,0,228479,0
228510,65,-2028,261,8,-3,-135,14339,-51,-32,-516,-184,35588,-30,34,127,0,0,3802,-93,0,5795,209,87,15034,-4,0,24,0,228494,0
228520,69,-2031,246,16,1,-147,14296,-87,-68,-322,-120,35599,-60,34,127,0,0,3803,-5,0,5795,209,87,15044,-4,0,24,0,228510,0
228530,65,-2029,230,29,6,-141,14281,-22,20,-374,-112,35608,-62,34,127,0,0,3801,-32,0,5795,209,87,15054,-4,0,24,0,228526,0
228540,78,-2016,229,31,1,-139,14264,-44,49,-310,-104,35600,-80,34,127,0,0,3802,-5,0,5795,209,87,15064,-4,0,24,0,228526,0
228550,37,-2009,237,35,1,-142,14252,-15,2,-354,-104,35590,-101,34,127,0,0,3796,0,0,5795,209,87,15074,-4,0,24,0,228541,0
228560,51,-2010,239,42,7,-150,14248,2,31,-427,-144,35594,-114,34,127,0,0,3795,-10,0,5795,209,87,15084,-4,0,24,0,228541,0
228570,57,-2017,248,57,16,-160,14245,-14,15,-493,-136,35597,-117,34,127,0,0,3789,-16,0,5795,209,87,15094,-4,0,24,0,228541,0
228580,63,-2039,269,50,11,-157,14236,-30,-16,-629,-184,35603,-91,34,127,0,0,3785,-5,0,5795,209,87,15104,-4,0,24,0,228572,0
228590,62,-2023,320,57,-5,-148,14225,-21,-16,-579,-216,35603,-99,34,127,0,0,3784,-10,0,5795,209,87,15114,-4,0,24,0,228572,0
228600,82,-2037,268,47,-7,-143,14200,-79,-34,-510,-184,35607,-105,34,127,0,0,3782,21,0,5795,209,87,15124,-4,0,24,0,228588,0
228610,21,-2052,254,50,8,-156,14167,-48,-40,-383,-120,35611,-94,34,127,0,0,3779,16,0,5795,209,87,15134,-4,0,24,0,228666,0
228620,46,-2055,261,65,7,-152,14157,-17,48,-473,-144,35606,-65,34,127,0,0,3774,-5,0,5795,209,87,15144,-4,0,24,0,228666,0
228630,109,-2040,284,62,-6,-135,14138,-47,17,-387,-160,35602,-35,34,127,0,0,3773,-38,0,5795,209,87,15154,-4,0,24,0,228682,0
228640,88,-2056,297,59,-3,-115,14109,-47,-39,-286,-96,35603,-43,34,127,0,0,3773,10,0,5795,209,87,15164,-4,0,24,0,228682,0
228650,123,-2050,283,62,-1,-82,14113,20,58,-287,-104,35599,-52,33,127,0,0,3773,-21,0,5795,209,87,15174,-4,0,24,0,228682,0
228660,151,-2059,285,62,4,-70,14112,-10,46,-305,-80,35589,-44,34,127,0,0,3769,-54,0,5795,209,87,15184,-4,0,24,0,228682,0
228670,154,-2050,277,60,7,-49,14112,12,-7,-304,-56,35583,-41,34,127,0,0,3771,16,0,5795,209,87,15194,-4,0,24,0,228682,0
228680,174,-2041,260,62,7,-36,14114,-1,12,-261,-64,35579,-45,34,127,0,0,3774,-10,0,5795,209,87,15204,-4,0,24,0,228682,0
228690,114,-2023,271,81,6,-4,14115,14,-3,-240,-56,35591,-74,34,127,0,0,3774,0,0,5795,209,87,15214,-4,0,24,0,228682,0
228700,109,-2010,264,83,11,3,14114,-4,4,-256,-56,35595,-54,34,127,0,0,3781,71,0,5795,209,87,15224,-4,0,24,0,228697,0
228710,117,-2018,265,90,2,38,14115,-1,0,-197,-64,35606,-41,34,127,0,0,3774,16,0,5795,209,87,15234,-4,0,24,0,228697,0
228720,86,-1999,265,93,3,54,14113,-9,-5,-179,16,35619,-45,34,127,0,0,3778,71,0,5795,209,87,15244,-4,0,24,0,228697,0
228730,126,-2003,273,93,-15,88,14124,7,10,-102,-8,35632,-59,34,127,0,0,3784,38,0,5795,209,87,15254,-4,0,24,0,228713,0
228740,75,-2019,277,97,-11,77,14128,18,10,104,56,35641,-63,34,127,0,0,3784,21,0,5795,209,87,15264,-4,0,24,0,228744,0
228750,81,-2004,276,101,-13,76,14138,23,4,170,80,35635,-44,34,127,0,0,3789,-16,0,5795,209,87,15274,-4,0,24,0,228744,0
228760,68,-2026,273,103,0,58,14150,20,7,144,32,35607,-45,34,127,0,0,3793,27,0,5795,209,87,15284,-4,0,24,0,228744,0
228770,30,-2026,307,94,4,14,14166,50,7,152,24,35604,-57,34,127,0,0,3795,-5,0,5795,209,87,15294,-4,0,24,0,228760,0
228780,30,-2020,336,80,-1,8,14185,34,20,-5,32,35622,-65,34,127,0,0,3796,38,0,5795,209,87,15304,-4,0,24,0,228775,0
228790,18,-2032,333,52,-15,-24,14188,0,-33,67,0,35622,-53,34,127,0,0,3797,0,0,5795,209,87,15314,-4,0,24,0,228775,0
228800,-16,-2053,306,46,-5,-35,14188,10,-36,57,-24,35610,-60,34,127,0,0,3799,-5,0,5795,209,87,15324,-4,0,24,0,228807,0
228810,45,-2028,265,54,-8,-51,14188,10,4,84,32,35598,-64,34,127,0,0,3790,-49,0,5795,209,87,15334,-4,0,24,0,228807,0
228820,89,-2025,270,57,-15,-51,14184,-13,-8,-25,8,35597,-67,34,127,0,0,3791,-16,0,5795,209,87,15344,-4,0,24,0,228822,0
228830,52,-2033,290,68,-16,-51,14184,-6,0,-57,8,35597,-54,34,127,0,0,3797,43,0,5795,209,87,15354,-4,0,24,0,228822,0
228840,57,-2046,292,73,-14,-42,14186,0,6,-3,-16,35592,-52,34,127,0,0,3799,65,0,5795,209,87,15364,-4,0,24,0,228822,0
228850,70,-2058,307,76,-5,-44,14186,2,-5,52,0,35595,-55,34,127,0,0,3794,5,0,5795,209,87,15374,-4,0,24,0,228838,0
228860,85,-2058,322,76,-7,-38,14184,-13,-12,-30,-16,35618,-81,34,127,0,0,3792,-5,0,5795,209,87,15384,-4,0,24,0,228838,0
228870,80,-2056,330,74,-2,-34,14186,2,0,-42,-16,35618,-85,34,127,0,0,3792,-16,0,5795,209,87,15394,-4,0,24,0,228854,0
228880,66,-2054,320,68,-11,-26,14187,12,8,14,-16,35608,-64,34,127,0,0,3795,-5,0,5795,209,87,15404,-4,0,24,0,228869,0
228890,65,-2038,294,70,-1,-12,14183,-20,-5,6,-16,35597,-61,34,127,0,0,3792,-10,0,5795,209,87,15414,-4,0,24,0,228869,0
228900,125,-2026,278,89,14,-12,14187,13,3,23,32,35602,-67,34,127,0,0,3796,49,0,5795,209,87,15424,-4,0,24,0,228885,0
228910,121,-2010,257,105,6,27,14186,-15,4,20,8,35611,-73,34,127,0,0,3797,54,0,5795,209,87,15434,-4,0,24,0,228947,0
228920,133,-2033,239,138,24,43,14189,11,0,38,24,35610,-49,34,127,0,0,3790,-32,0,5795,209,87,15444,-4,0,24,0,228947,0
228930,110,-2019,253,173,29,73,14184,-13,-2,-23,32,35602,-46,34,127,0,0,3800,87,0,5795,209,87,15454,-4,0,24,0,228947,0
228940,149,-2019,281,183,-16,207,14195,16,14,127,56,35602,-55,34,127,0,0,3804,71,0,5795,209,87,15464,-4,0,24,0,228963,0
228950,74,-2028,318,188,-39,230,14205,29,25,346,136,35602,-53,34,127,0,0,3813,71,0,5795,209,87,15474,-4,0,24,0,228963,0
228960,72,-2030,309,184,-31,251,14253,139,76,302,144,35599,-52,34,127,0,0,3825,93,0,5795,209,87,15484,-4,0,24,0,228963,0
228970,73,-2028,306,194,-13,228,14311,129,93,297,144,35593,-60,34,127,0,0,3833,115,0,5795,209,87,15494,-4,0,24,0,228963,0
228980,19,-2021,314,202,-16,235,14358,88,-8,312,160,35591,-80,34,127,0,0,3840,82,0,5795,209,87,15504,-4,0,24,0,228963,0
228990,6,-2029,341,188,-25,212,14412,109,-10,231,128,35615,-75,34,127,0,0,3850,120,0,5795,209,87,15514,-4,0,24,0,228963,0
229000,-31,-2035,368,186,-6,174,14456,80,-8,232,104,35640,-48,34,127,0,0,3854,21,0,5795,209,87,15524,-4,0,24,0,228994,0
229010,-26,-2027,367,154,-2,127,14468,27,-83,501,168,35640,-23,34,127,0,0,3862,-16,0,5795,209,87,15534,-4,0,24,0,229025,0
229020,-15,-2028,342,147,-5,110,14489,60,-33,422,160,35626,-26,34,127,0,0,3868,49,0,5795,209,87,15544,-4,0,24,0,229025,0
229030,-4,-2023,349,137,-13,77,14523,78,53,370,160,35609,-35,34,127,0,0,3874,60,0,5795,209,87,15554,-4,0,24,0,229025,0
229040,-1,-2026,352,129,-13,47,14555,82,14,351,136,35608,-34,34,127,0,0,3879,54,0,5795,209,87,15564,-4,0,24,0,229041,0
229050,17,-2018,351,118,-9,24,14598,67,13,179,96,35606,-5,34,127,0,0,3880,87,0,5795,209,87,15574,-4,0,24,0,229041,0
229060,-18,-2024,336,116,-1,-8,14623,61,-25,203,56,35610,-18,34,127,0,0,3880,0,0,5795,209,87,15584,-4,0,24,0,229041,0
229070,34,-2018,332,108,8,-28,14628,-14,-67,139,32,35625,-9,34,127,0,0,3880,0,0,5795,209,87,15594,-4,0,24,0,229057,0
229080,35,-2020,358,105,-5,-33,14629,5,-51,152,32,35633,-8,34,127,0,0,3880,0,0,5795,209,87,15604,-4,0,24,0,229119,0
229090,39,-2024,369,97,-12,-32,14626,-9,-11,168,32,35633,18,34,127,0,0,3877,-32,0,5795,209,87,15614,-4,0,24,0,229135,0
229100,42,-2016,389,85,-6,-27,14625,-9,-6,97,40,35607,27,34,127,0,0,3880,32,0,5795,209,87,15624,-4,0,24,0,229135,0
229110,49,-2002,363,80,-2,-35,14626,-13,-1,120,32,35606,13,34,127,0,0,3880,27,0,5795,209,87,15634,-4,0,24,0,229135,0
229120,61,-2004,327,68,2,-17,14626,-7,1,75,40,35604,26,34,127,0,0,3880,60,0,5795,209,87,15644,-4,0,24,0,229135,0
229130,74,-2013,317,90,5,3,14630,2,3,138,32,35605,18,34,127,0,0,3880,0,0,5795,209,87,15654,-4,0,24,0,229135,0
229140,60,-2030,353,101,12,16,14627,-6,-3,96,40,35599,29,34,127,0,0,3880,32,0,5795,209,87,15664,-4,0,24,0,229135,0
229150,89,-2030,353,106,6,48,14629,4,-5,151,80,35595,26,34,127,0,0,3878,10,0,5795,209,87,15674,-4,0,24,0,229135,0
229160,115,-2028,380,99,-13,92,14630,1,5,203,80,35609,19,34,127,0,0,3884,27,0,5795,209,87,15684,-4,0,24,0,229135,0
229170,24,-2035,370,96,-22,126,14637,27,8,333,136,35626,22,34,127,0,0,3888,16,0,5795,209,87,15694,-4,0,24,0,229166,0
229180,11,-2027,372,92,-22,130,14646,20,17,450,168,35638,9,34,127,0,0,3895,43,0,5795,209,87,15704,-4,0,24,0,229166,0
229190,3,-2026,359,94,-10,111,14660,35,14,513,184,35633,7,34,127,0,0,3900,10,0,5795,209,87,15714,-4,0,24,0,229182,0
229200,-8,-2020,369,93,-12,93,14690,87,50,435,176,35621,-7,34,127,0,0,3907,60,0,5795,209,87,15724,-4,0,24,0,229182,0
229210,19,-2028,412,74,-20,69,14732,78,55,367,136,35623,3,34,127,0,0,3908,16,0,5795,209,87,15734,-4,0,24,0,229213,0
229220,-23,-2031,418,65,-10,44,14767,79,-1,254,112,35620,3,34,127,0,0,3913,27,0,5795,209,87,15744,-4,0,24,0,229213,0
229230,-3,-2030,386,43,-15,21,14784,14,-42,320,96,35609,-20,34,127,0,0,3918,38,0,5795,209,87,15754,-4,0,24,0,229213,0
229240,-23,-2028,353,38,-11,-1,14788,0,-68,335,88,35604,-51,34,127,0,0,3915,27,0,5795,209,87,15764,-4,0,24,0,229229,0
229250,-20,-2033,367,29,0,-35,14795,16,-12,337,80,35609,-64,34,127,0,0,3918,0,0,5795,209,87,15774,-4,0,24,0,229244,0
229260,4,-2042,388,23,3,-50,14810,38,29,276,72,35610,-55,34,127,0,0,3917,0,0,5795,209,87,15784,-4,0,24,0,229244,0
229270,49,-2030,382,12,-20,-42,14823,1,13,130,40,35604,-40,34,127,0,0,3917,16,0,5795,209,87,15794,-4,0,24,0,229244,0
229280,24,-2005,333,15,-24,-36,14821,-3,-43,148,48,35596,-56,34,127,0,0,3917,27,0,5795,209,87,15804,-4,0,24,0,229275,0
229290,2,-2002,303,34,-5,-50,14821,-10,-20,142,48,35609,-61,34,127,0,0,3914,-5,0,5795,209,87,15814,-4,0,24,0,229275,0
229300,29,-2006,336,47,2,-54,14822,-1,-2,124,48,35602,-43,34,127,0,0,3914,-38,0,5795,209,87,15824,-4,0,24,0,229307,0
229310,56,-1999,402,39,1,-56,14821,5,-8,79,48,35600,-37,34,127,0,0,3914,5,0,5795,209,87,15834,-4,0,24,0,229307,0
229320,67,-2017,437,20,-13,-48,14819,-7,5,63,24,35589,-37,34,127,0,0,3915,0,0,5795,209,87,15844,-4,0,24,0,229307,0
229330,33,-2017,435,-3,-16,-36,14820,-5,-3,65,24,35597,-54,34,127,0,0,3915,0,0,5795,209,87,15854,-4,0,24,0,229322,0
229340,42,-2023,407,-13,-15,-33,14821,3,-2,114,48,35599,-52,34,127,0,0,3911,-32,0,5795,209,87,15864,-4,0,24,0,229322,0
229350,-15,-2012,371,-13,-8,-30,14818,-16,-13,40,32,35599,-40,34,127,0,0,3915,-5,0,5795,209,87,15874,-4,0,24,0,229338,0
229360,-12,-2007,368,-9,-7,-21,14822,0,-8,60,24,35599,-59,34,127,0,0,3915,0,0,5795,209,87,15884,-4,0,24,0,229353,0
229370,14,-2022,356,-3,3,-31,14819,5,2,99,48,35608,-68,34,127,0,0,3917,38,0,5795,209,87,15894,-4,0,24,0,229353,0
229380,49,-2020,356,-1,-2,-20,14821,-6,-2,134,24,35608,-71,34,127,0,0,3918,21,0,5795,209,87,15904,-4,0,24,0,229369,0
229390,19,-2035,386,-2,-9,-15,14822,1,-3,142,24,35611,-50,34,127,0,0,3918,10,0,5795,209,87,15914,-4,0,24,0,229385,0
229400,17,-2027,389,1,-5,-21,14819,-11,-11,84,24,35592,-38,34,127,0,0,3918,43,0,5795,209,87,15924,-4,0,24,0,229400,0
229410,24,-2023,402,-8,-6,-25,14821,-9,2,115,48,35600,-34,34,127,0,0,3917,43,0,5795,209,87,15934,-4,0,24,0,229400,0
229420,40,-2027,391,-9,-9,-33,14820,-16,-5,79,24,35603,-38,34,127,0,0,3915,10,0,5795,209,87,15944,-4,0,24,0,229400,0
229430,-7,-2019,401,-16,-13,-41,14822,7,-4,84,24,35612,-41,34,127,0,0,3915,-16,0,5795,209,87,15954,-4,0,24,0,229447,0
229440,-29,-2031,416,-26,-18,-40,14822,12,6,155,24,35604,-37,34,127,0,0,3915,-27,0,5795,209,87,15964,-4,0,24,0,229447,0
229450,-42,-2023,395,-38,-11,-37,14821,-1,-6,99,24,35598,-49,34,127,0,0,3915,-27,0,5795,209,87,15974,-4,0,24,0,229447,0
229460,-7,-2025,386,-39,-11,-43,14823,12,3,63,16,35606,-53,34,127,0,0,3915,0,0,5795,209,87,15984,-4,0,24,0,229447,0
229470,7,-2032,368,-40,-10,-45,14821,2,11,93,24,35597,-32,34,127,0,0,3915,0,0,5795,209,87,15994,-4,0,24,0,229447,0
229480,9,-2023,374,-36,-12,-54,14821,-3,-1,63,0,35596,-29,34,127,0,0,3916,-5,0,5795,209,87,16004,-4,0,24,0,229463,0
229490,13,-2014,369,-31,-14,-46,14822,4,4,64,0,35591,-31,34,127,0,0,3916,0,0,5795,209,87,16014,-4,0,24,0,229478,0
229500,29,-2010,367,-28,-11,-44,14821,12,6,85,24,35598,-67,34,127,0,0,3918,32,0,5795,209,87,16024,-4,0,24,0,229510,0
229510,19,-1992,356,-23,-12,-48,14819,-12,-3,75,24,35601,-54,34,127,0,0,3915,10,0,5795,209,87,16034,-4,0,24,0,229510,0
229520,27,-2009,374,-22,-12,-55,14820,-3,-3,16,24,35600,-46,34,127,0,0,3912,16,0,5795,209,87,16044,-4,0,24,0,229510,0
229530,20,-2004,375,-25,-12,-60,14819,-3,2,30,24,35587,-38,34,127,0,0,3915,10,0,5795,209,87,16054,-4,0,24,0,229510,0
229540,44,-2051,392,-41,-25,-57,14818,-10,-4,32,8,35591,-40,34,127,0,0,3916,16,0,5795,209,87,16064,-4,0,24,0,229525,0
229550,694,-1900,182,-189,-43,-374,14821,7,-4,54,0,35594,-48,34,127,0,0,3913,-32,0,5795,209,87,16074,-4,0,24,0,229541,0
229560,577,-1820,88,-277,108,-634,14813,-25,-19,-162,-128,35602,-34,34,127,0,0,3890,-241,0,5795,209,87,16084,-4,0,24,0,229572,0
229570,27,-1878,424,-92,-103,-87,14766,-148,-105,-350,-152,35588,-40,34,127,0,0,3889,-5,0,5795,209,87,16094,-4,0,24,0,229572,0
229580,-206,-2021,476,-12,-31,-37,14713,-92,-89,-134,-40,35597,-56,34,127,0,0,3889,0,0,5795,209,87,16104,-4,0,24,0,229572,0
229590,527,-2077,209,-125,69,-324,14702,5,98,-114,-40,35600,-46,34,127,0,0,3890,10,0,5795,209,87,16114,-4,0,24,0,229572,0
229600,643,-1970,105,-238,49,-527,14698,-36,90,-301,-152,35595,-9,34,127,0,0,3872,-137,0,5795,209,87,16124,-4,0,24,0,229588,0
229610,229,-1946,158,-224,-116,-245,14662,-104,-73,-490,-200,35605,6,34,127,0,0,3861,-60,0,5795,209,87,16134,-4,0,24,0,229619,0
229620,-70,-2099,368,-140,-84,-191,14602,-114,-106,-309,-144,35612,8,34,127,0,0,3851,-104,0,5795,209,87,16144,-4,0,24,0,229619,0
229630,194,-2074,281,-134,79,-414,14562,-81,10,-361,-136,35622,0,34,127,0,0,3848,-65,0,5795,209,87,16154,-4,0,24,0,229635,0
229640,396,-2065,266,-211,46,-507,14544,-36,83,-561,-240,35609,8,34,127,0,0,3828,-192,0,5795,209,87,16164,-4,0,24,0,229635,0
229650,274,-1953,254,-318,-105,-440,14487,-163,-48,-470,-272,35589,5,34,127,0,0,3825,-109,0,5795,209,87,16174,-4,0,24,0,229635,0
229660,-109,-2021,371,-294,-116,-351,14408,-163,-128,-332,-192,35582,-6,34,127,0,0,3818,-54,0,5795,209,87,16184,-4,0,24,0,229635,0
229670,-34,-2043,328,-265,40,-493,14359,-76,40,-336,-112,35596,-29,34,127,0,0,3816,10,0,5795,209,87,16194,-4,0,24,0,229666,0
229680,296,-2055,340,-300,52,-573,14350,-18,145,-540,-208,35607,-36,34,127,0,0,3802,-126,0,5795,209,87,16204,-4,0,24,0,229666,0
229690,457,-2068,356,-442,-68,-606,14310,-124,-1,-484,-232,35608,-17,34,127,0,0,3786,-153,0,5795,209,87,16214,-4,0,24,0,229682,0
229700,258,-2071,341,-493,-97,-576,14245,-154,-124,-458,-264,35607,-28,34,127,0,0,3778,-159,0,5795,209,87,16224,-4,0,24,0,229682,0
229710,139,-2165,257,-434,-54,-591,14185,-140,-29,-484,-232,35616,-54,34,127,0,0,3769,-71,0,5795,209,87,16234,-4,0,24,0,229697,0
229720,223,-2107,255,-390,-15,-619,14125,-129,7,-437,-264,35619,-85,34,127,0,0,3759,-131,0,5795,209,87,16244,-4,0,24,0,229697,0
229730,354,-2064,303,-409,-36,-599,14059,-152,-13,-400,-248,35609,-70,34,127,0,0,3745,-98,0,5795,209,87,16254,-4,0,24,0,229713,0
229740,340,-1997,349,-431,-81,-558,13996,-139,-11,-443,-216,35593,-42,34,127,0,0,3729,-93,0,5795,209,87,16264,-4,0,24,0,229728,0
229750,166,-2096,240,-437,-109,-497,13940,-124,16,-489,-248,35590,-39,34,127,0,0,3723,-126,0,5795,209,87,16274,-4,0,24,0,229760,0
229760,165,-2021,233,-412,-97,-511,13878,-141,3,-409,-216,35605,-21,34,127,0,0,3717,-60,0,5795,209,87,16284,-4,0,24,0,229760,0
229770,101,-2025,201,-401,-62,-556,13828,-91,13,-442,-232,35602,-8,34,127,0,0,3706,-98,0,5795,209,87,16294,-4,0,24,0,229775,0
229780,207,-2081,241,-406,-84,-624,13789,-89,46,-492,-264,35593,22,34,127,0,0,3692,-126,0,5795,209,87,16304,-4,0,24,0,229775,0
229790,227,-2011,270,-408,-78,-704,13734,-163,-24,-559,-328,35592,8,34,127,0,0,3673,-170,0,5795,209,87,16314,-4,0,24,0,229775,0
229800,108,-2012,295,-434,-61,-747,13645,-207,-108,-456,-368,35617,-24,34,127,0,0,3657,-170,0,5795,209,87,16324,-4,0,24,0,229806,0
229810,162,-2114,326,-377,-66,-714,13549,-229,-68,-459,-368,35633,-29,34,127,0,0,3639,-120,0,5795,209,87,16334,-4,0,24,0,229806,0
229820,269,-2029,306,-347,-75,-697,13452,-200,-12,-426,-328,35622,-32,34,127,0,0,3621,-192,0,5795,209,87,16344,-4,0,24,0,229806,0
229830,395,-2052,289,-335,-195,-601,13364,-187,17,-422,-272,35606,-42,34,127,0,0,3613,-115,0,5795,209,87,16354,-4,0,24,0,229806,0
229840,348,-2022,230,-319,-231,-506,13283,-179,34,-310,-176,35597,-65,34,127,0,0,3610,0,0,5795,209,87,16364,-4,0,24,0,229838,0
229850,333,-1975,140,-297,-244,-426,13237,-81,79,-298,-128,35606,-65,34,127,0,0,3605,-38,0,5795,209,87,16374,-4,0,24,0,229838,0
229860,276,-1953,100,-271,-264,-384,13226,-3,135,-398,-112,35606,-27,34,127,0,0,3603,-16,0,5795,209,87,16384,-4,0,24,0,229853,0
229870,265,-2003,107,-226,-205,-352,13226,-3,86,-478,-144,35596,-23,34,127,0,0,3598,-49,0,5795,209,87,16394,-4,0,24,0,229853,0
229880,231,-1982,139,-223,-169,-362,13217,-28,-6,-529,-152,35605,-37,34,127,0,0,3599,0,0,5795,209,87,16404,-4,0,24,0,229869,0
229890,164,-1981,129,-241,-56,-401,13199,-57,-35,-507,-168,35622,-57,34,127,0,0,3591,-38,0,5795,209,87,16414,-4,0,24,0,229869,0
229900,164,-1988,147,-241,-19,-427,13155,-104,-72,-354,-152,35619,-37,34,127,0,0,3584,-82,0,5795,209,87,16424,-4,0,24,0,229885,0
229910,166,-2042,205,-210,12,-457,13106,-113,-55,-287,-128,35612,-7,34,127,0,0,3581,-54,0,5795,209,87,16434,-4,0,24,0,229900,0
229920,118,-2038,287,-205,25,-478,13087,-10,59,-448,-168,35600,-5,34,127,0,0,3569,-87,0,5795,209,87,16444,-4,0,24,0,229900,0
229930,250,-2088,303,-226,-9,-466,13076,-29,73,-564,-216,35604,21,34,127,0,0,3566,-71,0,5795,209,87,16454,-4,0,24,0,229916,0
229940,266,-2038,270,-215,-36,-462,13040,-93,-45,-466,-192,35603,26,34,127,0,0,3558,-38,0,5795,209,87,16464,-4,0,24,0,229931,0
229950,207,-2005,210,-201,-52,-463,13007,-73,-41,-505,-208,35595,33,34,127,0,0,3556,-10,0,5795,209,87,16474,-4,0,24,0,229931,0
229960,231,-2039,222,-194,-34,-463,12958,-109,-22,-341,-160,35591,14,34,127,0,0,3545,-87,0,5795,209,87,16484,-4,0,24,0,229931,0
229970,246,-2044,236,-172,-24,-478,12910,-114,-29,-338,-160,35602,-18,34,127,0,0,3539,-60,0,5795,209,87,16494,-4,0,24,0,229947,0
229980,166,-2023,244,-166,3,-499,12884,-39,44,-422,-144,35612,-34,34,127,0,0,3532,-82,0,5795,209,87,16504,-4,0,24,0,229978,0
229990,233,-2009,235,-187,23,-480,12858,-69,42,-435,-160,35612,-14,34,127,0,0,3525,-49,0,5795,209,87,16514,-4,0,24,0,229978,0
230000,231,-2006,204,-170,13,-491,12828,-39,-14,-411,-160,35611,-2,34,127,0,0,3525,-16,0,5795,209,87,16524,-4,0,24,0,229978,0
230010,303,-2055,216,-138,2,-463,12796,-85,2,-366,-152,35614,-21,34,127,0,0,3521,-5,0,5795,209,87,16534,-4,0,24,0,230010,0
230020,321,-2061,276,-136,-4,-462,12767,-45,-3,-379,-128,35626,-55,34,127,0,0,3510,-21,0,5795,209,87,16544,-4,0,24,0,230010,0
230030,354,-2044,280,-159,-57,-427,12739,-69,11,-411,-144,35619,-64,34,127,0,0,3503,-54,0,5795,209,87,16554,-4,0,24,0,230010,0
230040,289,-1991,252,-137,-73,-428,12705,-35,-7,-335,-120,35614,-76,34,127,0,0,3502,-32,0,5795,209,87,16564,-4,0,24,0,230025,0
230050,311,-2011,162,-82,-94,-409,12700,-8,59,-492,-144,35604,-83,34,127,0,0,3498,-5,0,5795,209,87,16574,-4,0,24,0,230025,0
230060,309,-2008,186,-70,-93,-405,12685,-45,25,-500,-192,35612,-85,34,127,0,0,3494,-32,0,5795,209,87,16584,-4,0,24,0,230056,0
230070,311,-1989,260,-100,-44,-438,12650,-78,-63,-386,-160,35614,-71,34,127,0,0,3487,-43,0,5795,209,87,16594,-4,0,24,0,230056,0
230080,285,-1967,212,-104,-43,-420,12624,-54,-10,-458,-176,35607,-57,34,127,0,0,3480,-49,0,5795,209,87,16604,-4,0,24,0,230056,0
230090,292,-1937,129,-107,-12,-381,12591,-88,7,-376,-136,35608,-73,34,127,0,0,3471,-82,0,5795,209,87,16614,-4,0,24,0,230150,0
230100,265,-1942,120,-95,18,-396,12564,-51,-12,-415,-168,35615,-72,34,127,0,0,3469,-27,0,5795,209,87,16624,-4,0,24,0,230166,0
230110,353,-2007,199,-87,66,-403,12526,-102,-6,-344,-184,35614,-60,34,127,0,0,3460,-82,0,5795,209,87,16634,-4,0,24,0,230166,0
230120,367,-1998,245,-83,73,-395,12500,-40,-3,-496,-192,35607,-39,34,127,0,0,3454,-65,0,5795,209,87,16644,-4,0,24,0,230166,0
230130,415,-2007,271,-89,46,-326,12469,-78,23,-478,-208,35595,-31,34,127,0,0,3447,-43,0,5795,209,87,16654,-4,0,24,0,230166,0
230140,402,-1993,288,-65,28,-299,12442,-43,-6,-505,-192,35597,-51,34,127,0,0,3439,-54,0,5795,209,87,16664,-4,0,24,0,230181,0
230150,444,-1987,279,-50,10,-263,12406,-104,-5,-456,-168,35597,-43,34,127,0,0,3438,5,0,5795,209,87,16674,-4,0,24,0,230181,0
230160,386,-1997,274,-48,1,-268,12364,-73,-34,-343,-144,35596,-13,34,127,0,0,3435,-27,0,5795,209,87,16684,-4,0,24,0,230181,0
230170,407,-2020,278,-52,-16,-236,12325,-77,8,-313,-96,35591,3,34,127,0,0,3423,-38,0,5795,209,87,16694,-4,0,24,0,230181,0
230180,357,-1959,258,-48,-46,-209,12323,1,75,-476,-152,35593,2,34,127,0,0,3426,0,0,5795,209,87,16704,-4,0,24,0,230181,0
230190,346,-1999,219,-48,-44,-209,12321,-11,60,-527,-168,35601,-4,34,127,0,0,3417,-27,0,5795,209,87,16714,-4,0,24,0,230181,0
230200,305,-1999,190,-44,-23,-225,12309,-38,-25,-623,-216,35609,11,34,127,0,0,3411,-54,0,5795,209,87,16724,-4,0,24,0,230213,0
230210,314,-2035,197,-46,7,-254,12278,-91,-60,-532,-240,35609,18,34,127,0,0,3405,-87,0,5795,209,87,16734,-4,0,24,0,230213,0
230220,330,-2024,225,-47,32,-275,12230,-88,-69,-423,-192,35620,0,34,127,0,0,3398,-87,0,5795,209,87,16744,-4,0,24,0,230213,0
230230,359,-2041,253,-67,24,-256,12179,-114,-21,-351,-176,35623,-11,34,127,0,0,3395,-32,0,5795,209,87,16754,-4,0,24,0,230213,0
230240,341,-2053,250,-56,2,-227,12134,-88,5,-286,-88,35618,-23,34,127,0,0,3385,-60,0,5795,209,87,16764,-4,0,24,0,230228,0
230250,347,-2071,270,-55,-6,-227,12122,-8,88,-452,-120,35610,-35,34,127,0,0,3382,-21,0,5795,209,87,16774,-4,0,24,0,230228,0
230260,393,-2072,279,-75,-26,-221,12119,0,75,-524,-144,35625,-51,34,127,0,0,3383,10,0,5795,209,87,16784,-4,0,24,0,230275,0
230270,331,-2053,257,-75,-40,-234,12113,-28,3,-583,-176,35637,-65,34,127,0,0,3382,38,0,5795,209,87,16794,-4,0,24,0,230275,0
230280,305,-2045,245,-85,-26,-252,12090,-55,-39,-438,-160,35633,-42,34,127,0,0,3377,-27,0,5795,209,87,16804,-4,0,24,0,230275,0
230290,302,-2028,239,-81,2,-300,12063,-41,-41,-346,-120,35611,-33,34,127,0,0,3375,-38,0,5795,209,87,16814,-4,0,24,0,230291,0
230300,335,-2036,243,-94,-6,-304,12060,-6,42,-516,-144,35593,-14,34,127,0,0,3372,32,0,5795,209,87,16824,-4,0,24,0,230291,0
230310,336,-2035,253,-104,-34,-287,12056,-10,43,-519,-152,35603,-43,34,127,0,0,3370,10,0,5795,209,87,16834,-4,0,24,0,230291,0
230320,360,-2064,227,-94,-41,-286,12048,-34,-8,-574,-184,35620,-50,34,127,0,0,3366,5,0,5795,209,87,16844,-4,0,24,0,230306,0
230330,398,-2011,208,-93,-55,-284,12021,-71,-51,-436,-136,35620,-38,34,127,0,0,3366,16,0,5795,209,87,16854,-4,0,24,0,230338,0
230340,405,-2000,181,-81,-79,-284,11997,-25,-36,-289,-80,35630,-49,34,127,0,0,3366,0,0,5795,209,87,16864,-4,0,24,0,230338,0
230350,369,-2054,214,-81,-72,-277,11999,-10,58,-375,-88,35608,-73,34,127,0,0,3362,10,0,5795,209,87,16874,-4,0,24,0,230338,0
230360,317,-2036,234,-94,-51,-298,11998,-6,35,-364,-80,35607,-101,34,127,0,0,3362,0,0,5795,209,87,16884,-4,0,24,0,230338,0
230370,346,-2063,239,-92,-44,-315,12000,-2,-2,-340,-88,35599,-87,34,127,0,0,3362,-43,0,5795,209,87,16894,-4,0,24,0,230369,0
230380,388,-2057,263,-101,-55,-334,11999,0,-1,-346,-112,35589,-79,34,127,0,0,3367,-16,0,5795,209,87,16904,-4,0,24,0,230369,0
230390,361,-2044,281,-119,-88,-353,11998,-8,-7,-354,-80,35591,-88,34,127,0,0,3362,10,0,5795,209,87,16914,-4,0,24,0,230384,0
230400,355,-2052,243,-115,-91,-370,11999,3,0,-374,-112,35595,-99,34,127,0,0,3367,16,0,5795,209,87,16924,-4,0,24,0,230384,0
230410,345,-2015,238,-101,-99,-375,12001,16,6,-323,-88,35604,-85,34,127,0,0,3362,-49,0,5795,209,87,16934,-4,0,24,0,230384,0
230420,392,-2009,229,-106,-115,-399,11999,0,2,-351,-112,35592,-65,34,127,0,0,3367,10,0,5795,209,87,16944,-4,0,24,0,230416,0
230430,388,-2019,176,-125,-103,-408,12000,4,2,-341,-88,35598,-74,34,127,0,0,3366,-10,0,5795,209,87,16954,-4,0,24,0,230416,0
230440,325,-2042,167,-133,-90,-423,11998,-1,4,-353,-80,35599,-99,34,127,0,0,3366,5,0,5795,209,87,16964,-4,0,24,0,230416,0
230450,349,-2060,179,-124,-36,-435,12001,8,3,-288,-64,35600,-98,34,127,0,0,3365,-43,0,5795,209,87,16974,-4,0,24,0,230509,0
230460,399,-2077,226,-121,-20,-444,12002,17,7,-256,-72,35591,-101,34,127,0,0,3368,-49,0,5795,209,87,16984,-4,0,24,0,230509,0
230470,364,-2075,312,-143,-68,-436,12002,11,2,-211,-48,35579,-97,34,127,0,0,3373,49,0,5795,209,87,16994,-4,0,24,0,230509,0
230480,352,-2106,351,-173,-119,-414,12006,6,12,-115,16,35585,-115,34,127,0,0,3377,98,0,5795,209,87,17004,-4,0,24,0,230509,0
230490,261,-2048,346,-184,-150,-499,12017,34,20,52,16,35595,-104,33,127,0,0,3385,38,0,5795,209,87,17014,-4,0,24,0,230525,0
230500,290,-2052,303,-194,-154,-556,12024,11,5,206,72,35588,-62,34,127,0,0,3389,93,0,5795,209,87,17024,-4,0,24,0,230525,0
230510,336,-2045,261,-215,-148,-600,12045,58,15,189,56,35584,-56,34,127,0,0,3388,0,0,5795,209,87,17034,-4,0,24,0,230525,0
230520,373,-2034,254,-230,-159,-597,12072,47,38,22,40,35586,-60,34,127,0,0,3395,87,0,5795,209,87,17044,-4,0,24,0,230525,0
230530,467,-2024,209,-247,-185,-626,12085,19,-25,197,64,35591,-68,34,127,0,0,3403,82,0,5795,209,87,17054,-4,0,24,0,230525,0
230540,485,-2002,157,-249,-184,-638,12096,34,-27,298,80,35590,-46,34,127,0,0,3401,0,0,5795,209,87,17064,-4,0,24,0,230525,0
230550,474,-1980,134,-252,-158,-615,12117,59,24,211,88,35580,-22,34,127,0,0,3405,38,0,5795,209,87,17074,-4,0,24,0,230525,0
230560,463,-1975,132,-253,-147,-603,12146,54,39,143,72,35584,-29,34,127,0,0,3410,49,0,5795,209,87,17084,-4,0,24,0,230572,0
230570,503,-1932,100,-247,-103,-634,12152,2,-39,336,104,35598,-35,34,127,0,0,3414,-21,0,5795,209,87,17094,-4,0,24,0,230572,0
230580,542,-1955,92,-245,-75,-629,12159,15,-43,402,136,35599,-39,34,127,0,0,3415,-27,0,5795,209,87,17104,-4,0,24,0,230572,0
230590,575,-1948,126,-237,-58,-591,12171,22,13,351,112,35592,-33,34,127,0,0,3418,10,0,5795,209,87,17114,-4,0,24,0,230572,0
230600,575,-1914,135,-223,-82,-560,12194,58,30,265,88,35586,-32,34,127,0,0,3427,54,0,5795,209,87,17124,-4,0,24,0,230588,0
230610,578,-1953,154,-209,-106,-527,12215,34,19,310,88,35598,-45,34,127,0,0,3428,43,0,5795,209,87,17134,-4,0,24,0,230603,0
230620,574,-1946,153,-211,-102,-533,12218,8,-46,416,128,35611,-44,34,127,0,0,3436,54,0,5795,209,87,17144,-4,0,24,0,230603,0
230630,592,-1940,138,-235,-83,-523,12231,36,-3,451,144,35615,-32,34,127,0,0,3440,93,0,5795,209,87,17154,-4,0,24,0,230619,0
230640,579,-1941,152,-228,-68,-523,12273,115,79,266,88,35608,-31,34,127,0,0,3439,43,0,5795,209,87,17164,-4,0,24,0,230619,0
230650,618,-1948,148,-228,-68,-496,12306,64,38,274,112,35596,-31,34,127,0,0,3448,98,0,5795,209,87,17174,-4,0,24,0,230650,0
230660,600,-1913,124,-205,-64,-498,12350,89,0,228,72,35601,-22,34,127,0,0,3449,-10,0,5795,209,87,17184,-4,0,24,0,230650,0
230670,632,-1931,106,-204,-70,-488,12354,-7,-54,306,72,35603,16,34,127,0,0,3455,21,0,5795,209,87,17194,-4,0,24,0,230650,0
230680,592,-1942,139,-208,-63,-487,12358,24,-72,400,120,35608,23,34,127,0,0,3459,49,0,5795,209,87,17204,-4,0,24,0,230681,0
230690,595,-1975,191,-224,-67,-449,12365,12,23,421,104,35597,20,34,127,0,0,3466,87,0,5795,209,87,17214,-4,0,24,0,230697,0
230700,593,-1999,182,-234,-74,-428,12388,68,32,406,152,35599,7,34,127,0,0,3468,71,0,5795,209,87,17224,-4,0,24,0,230697,0
230710,623,-1976,167,-243,-74,-416,12420,61,48,359,128,35594,16,34,127,0,0,3476,109,0,5795,209,87,17234,-4,0,24,0,230697,0
230720,583,-1910,169,-220,-92,-427,12448,77,3,411,168,35591,10,34,127,0,0,3478,65,0,5795,209,87,17244,-4,0,24,0,230697,0
230730,639,-1903,67,-155,-145,-398,12499,107,46,231,112,35603,-18,34,127,0,0,3482,54,0,5795,209,87,17254,-4,0,24,0,230713,0
230740,564,-1943,103,-188,-126,-391,12539,81,15,189,72,35615,-37,34,127,0,0,3490,54,0,5795,209,87,17264,-4,0,24,0,230728,0
230750,564,-1993,134,-259,-79,-413,12545,-2,-96,437,144,35625,-34,34,127,0,0,3499,82,0,5795,209,87,17274,-4,0,24,0,230744,0
230760,512,-2038,65,-258,-58,-432,12561,44,-37,525,208,35611,-26,34,127,0,0,3504,43,0,5795,209,87,17284,-4,0,24,0,230744,0
230770,471,-2028,113,-259,-42,-435,12607,116,91,378,184,35600,-32,34,127,0,0,3514,71,0,5795,209,87,17294,-4,0,24,0,230759,0
230780,526,-2049,146,-252,-61,-463,12663,133,72,332,184,35611,-65,34,127,0,0,3525,93,0,5795,209,87,17304,-4,0,24,0,230775,0
230790,512,-2057,149,-264,-83,-544,12720,115,17,310,152,35614,-66,34,127,0,0,3531,54,0,5795,209,87,17314,-4,0,24,0,230775,0
230800,488,-2019,116,-284,-96,-585,12761,60,-39,379,160,35615,-63,34,127,0,0,3539,71,0,5795,209,87,17324,-4,0,24,0,230775,0
230810,469,-1997,15,-263,-70,-659,12799,87,-41,348,128,35598,-55,34,127,0,0,3550,71,0,5795,209,87,17334,-4,0,24,0,230806,0
230820,526,-2024,73,-319,-17,-697,12831,71,-7,417,176,35602,-66,34,127,0,0,3555,60,0,5795,209,87,17344,-4,0,24,0,230806,0
230830,620,-2017,154,-369,34,-707,12873,82,1,306,160,35613,-68,34,127,0,0,3565,137,0,5795,209,87,17354,-4,0,24,0,230806,0
230840,686,-1923,94,-397,71,-725,12913,100,15,314,176,35626,-44,34,127,0,0,3570,93,0,5795,209,87,17364,-4,0,24,0,230822,0
230850,717,-1878,25,-472,67,-688,12950,62,-11,370,176,35603,-15,34,127,0,0,3582,137,0,5795,209,87,17374,-4,0,24,0,230853,0
230860,695,-1894,83,-414,71,-733,12987,98,-11,394,200,35597,-23,34,127,0,0,3588,76,0,5795,209,87,17384,-4,0,24,0,230853,0
230870,721,-1915,226,-407,33,-736,13027,85,16,369,144,35593,-31,34,127,0,0,3593,49,0,5795,209,87,17394,-4,0,24,0,230853,0
230880,682,-1993,339,-483,14,-718,13079,102,24,290,136,35593,-24,34,127,0,0,3599,54,0,5795,209,87,17404,-4,0,24,0,230869,0
230890,740,-2074,330,-514,-18,-715,13124,75,4,275,112,35596,1,34,127,0,0,3609,71,0,5795,209,87,17414,-4,0,24,0,230869,0
230900,688,-2016,270,-526,-56,-733,13133,5,-91,495,168,35601,7,34,127,0,0,3618,109,0,5795,209,87,17424,-4,0,24,0,230884,0
230910,717,-1935,185,-522,-93,-826,13151,75,-42,617,232,35614,21,34,127,0,0,3627,93,0,5795,209,87,17434,-4,0,24,0,230884,0
230920,731,-1902,125,-544,-90,-889,13200,110,101,459,200,35617,30,34,127,0,0,3627,5,0,5795,209,87,17444,-4,0,24,0,230900,0
230930,517,-1920,101,-635,-156,-742,13256,126,60,300,160,35612,20,34,127,0,0,3637,93,0,5795,209,87,17454,-4,0,24,0,230916,0
230940,718,-2056,112,-642,-139,-813,13308,134,0,372,224,35620,1,34,127,0,0,3652,159,0,5795,209,87,17464,-4,0,24,0,230978,0
230950,700,-2110,45,-640,-71,-940,13369,146,19,379,200,35624,-45,34,127,0,0,3661,76,0,5795,209,87,17474,-4,0,24,0,230978,0
230960,737,-2038,134,-719,-68,-875,13427,136,7,303,192,35626,-49,34,127,0,0,3672,159,0,5795,209,87,17484,-4,0,24,0,230978,0
230970,753,-1942,174,-757,-115,-826,13484,134,-2,356,224,35616,-45,34,127,0,0,3685,170,0,5795,209,87,17494,-4,0,24,0,230994,0
230980,784,-1994,119,-748,-150,-822,13550,143,21,420,256,35606,-53,34,127,0,0,3704,164,0,5795,209,87,17504,-4,0,24,0,230994,0
230990,840,-2010,80,-753,-145,-860,13620,156,24,455,304,35611,-59,34,127,0,0,3722,186,0,5795,209,87,17514,-4,0,0,0,230994,0
231000,796,-1916,104,-775,-152,-827,13706,201,45,407,344,35617,-61,34,127,0,0,3741,230,0,5795,209,87,17524,-4,0,0,0,230994,0
231010,753,-1896,58,-833,-176,-779,13795,194,38,438,336,35611,-26,34,127,0,0,3760,236,0,5795,209,87,17534,-4,0,0,0,230994,0
231020,720,-1935,38,-845,-156,-772,13904,256,40,411,376,35603,-2,34,127,0,0,3778,164,0,5795,209,87,17544,-4,0,0,0,230994,0
231030,867,-1908,51,-825,-150,-821,14015,247,40,433,400,35602,-10,34,127,0,0,3810,252,0,5795,209,87,17554,-4,0,0,0,231009,0
231040,793,-1789,24,-827,-172,-796,14132,251,14,392,416,35622,-16,34,127,0,0,3824,241,0,5795,209,87,17564,-4,0,0,0,231041,0
231050,765,-1879,27,-972,-207,-752,14252,279,13,391,432,35629,-28,34,127,0,0,3855,241,0,5795,209,87,17574,-4,0,0,0,231041,0
231060,775,-2001,100,-942,-214,-776,14377,273,21,435,496,35618,-48,34,127,0,0,3880,252,0,5795,209,87,17584,-4,0,0,0,231041,0
231070,723,-2002,42,-900,-228,-799,14511,283,21,412,528,35610,-55,34,127,0,0,3912,296,0,5795,209,87,17594,-4,0,0,0,231072,0
231080,694,-2000,79,-938,-233,-790,14651,325,25,441,560,35622,-60,34,127,0,0,3944,351,0,5795,209,87,17604,-4,0,0,0,231072,0
231090,769,-2010,71,-947,-274,-839,14801,336,38,460,608,35624,-21,34,127,0,0,3977,401,0,5795,209,87,17614,-4,0,0,0,231072,0
231100,727,-1919,-2,-933,-292,-858,14958,341,26,430,616,35616,-8,34,127,0,0,4004,324,0,5795,209,87,17624,-4,0,0,0,231103,0
231110,703,-1918,-40,-988,-286,-876,15116,344,11,468,656,35597,-1,34,127,0,0,4036,318,0,5795,209,87,17634,-4,0,0,0,231103,0
231120,788,-1965,-77,-1015,-228,-884,15276,354,4,484,696,35592,-43,34,127,0,0,4074,351,0,5795,209,87,17644,-4,0,0,0,231103,0
231130,925,-1902,-123,-1064,-145,-788,15443,370,20,489,760,35597,-44,34,127,0,0,4111,373,0,5795,209,87,17654,-4,0,0,0,231103,0
231140,1020,-1839,-171,-1095,-150,-751,15615,390,23,535,848,35608,-25,34,127,0,0,4159,428,0,5795,209,87,17664,-4,0,0,0,231119,0
231150,1041,-1864,-207,-1048,-172,-668,15802,413,43,529,920,35600,-1,34,127,0,0,4203,433,0,5795,209,87,17674,-4,0,0,0,231150,0
231160,1062,-1903,-78,-1029,-211,-597,15999,444,47,598,1032,35610,-23,34,127,0,0,4255,521,0,5795,209,87,17684,-4,0,0,0,231150,0
231170,995,-1923,102,-1059,-269,-539,16212,478,49,623,1120,35607,-53,34,127,0,0,4303,488,0,5795,209,87,17694,-4,0,0,0,231150,0
231180,995,-1945,144,-1073,-320,-468,16442,522,67,648,1232,35608,-34,34,127,0,0,4361,582,0,5795,209,87,17704,-4,0,0,0,231166,0
231190,1015,-2034,184,-1098,-477,-483,16686,550,66,631,1320,35598,-13,34,127,0,0,4416,615,0,5795,209,87,17714,-4,0,0,0,231244,0
231200,955,-2000,225,-1112,-599,-546,16942,569,53,658,1408,35600,-16,34,127,0,0,4470,543,0,5795,209,87,17724,-4,0,0,0,231244,0
231210,826,-1890,282,-1179,-806,-602,17218,612,59,612,1464,35605,-23,34,127,0,0,4534,609,0,5795,209,87,17734,-4,0,0,0,231259,0
231220,740,-2031,239,-1264,-961,-665,17498,625,41,642,1480,35593,-21,34,127,0,0,4582,483,0,5795,209,87,17744,-4,0,0,0,231259,0
231230,570,-2176,187,-1299,-1105,-866,17780,616,17,601,1472,35582,-4,34,127,0,0,4635,488,0,5795,209,87,17754,-4,0,0,0,231259,0
231240,590,-2076,-3,-1289,-1097,-1074,18069,635,13,557,1424,35573,-6,34,127,0,0,4686,494,0,5795,209,87,17764,-4,0,0,0,231259,0
231250,713,-1917,-19,-1334,-1137,-1309,18340,589,-23,549,1320,35583,-42,34,127,0,0,4715,346,0,5795,209,87,17774,-4,0,0,0,231259,0
231260,762,-1973,2,-1417,-1169,-1409,18592,546,-66,495,1168,35590,-28,34,127,0,0,4748,285,0,5795,209,87,17784,-4,0,0,0,231259,0
231270,656,-1890,-105,-1547,-1187,-1675,18824,491,-126,473,1032,35592,-20,34,127,0,0,4779,296,0,5795,209,87,17794,-4,0,0,0,231259,0
231280,557,-1860,-248,-1640,-1163,-1897,19031,436,-110,427,800,35585,-8,34,127,0,0,4796,159,0,5795,209,87,17804,-4,0,0,0,231259,0
231290,-38,-1421,-52,-1685,-892,-2094,19203,353,-60,424,560,35600,-35,34,127,0,0,4801,38,0,5795,209,87,17814,-4,0,0,0,231275,0
231300,-1152,-1513,-10,-1571,-921,-1977,19334,267,-152,365,296,35625,-60,34,127,0,0,4801,10,0,5795,209,87,17824,-4,0,0,0,231291,0
231310,626,-2881,146,-1668,-1156,-2661,19422,154,-161,382,440,35633,-33,34,127,0,0,4851,648,0,5795,209,87,17834,-4,0,0,0,231291,0
231320,2239,-4453,-426,-2607,-1272,-4593,19534,292,-42,668,456,35618,-9,34,127,0,0,4833,-285,0,5795,209,87,17844,-4,0,0,0,231306,0
231330,-2274,-1970,1501,-2135,-2310,-3057,19584,-61,-32,-354,-272,35602,-10,34,127,0,0,4802,-197,0,5795,209,87,17854,-4,0,0,0,231322,0
231340,-2985,-1591,1080,-2158,-2831,-3077,19497,-150,-444,341,264,35606,-35,34,127,0,0,4838,422,0,5795,209,87,17864,-4,0,0,0,231322,0
231350,-654,-4367,225,-2205,-774,-5143,19570,227,56,503,264,35609,-35,34,127,0,0,4842,-71,0,5795,209,87,17874,-4,0,1,0,231337,0
231360,1955,-4988,390,-2289,-1465,-6056,19635,95,319,280,96,35607,-32,34,127,0,0,4833,-76,0,5795,209,87,17884,-4,0,1,0,231337,0
231370,1054,-4366,1355,-2900,-3093,-5773,19621,-63,-194,325,96,35600,-38,34,127,0,0,4835,-43,0,5795,209,87,17894,-4,0,2,0,231353,0
231380,-752,-4008,1310,-3008,-3625,-5571,19619,18,-129,317,120,35603,-43,34,127,0,0,4843,76,0,5795,209,87,17904,-4,0,3,0,231397,0
231390,-1928,-4057,1158,-2734,-3132,-5612,19629,22,61,554,288,35603,-46,34,127,0,0,4871,346,0,5795,209,87,17914,-4,0,5,0,231397,0
231400,-717,-4317,1026,-2706,-2759,-5991,19687,198,125,779,592,35596,-34,34,127,0,0,4907,417,0,5795,209,87,17924,-4,0,6,0,231397,0
231410,984,-4089,1064,-2691,-2899,-5544,19810,285,240,668,648,35594,-27,34,127,0,0,4932,247,0,5795,209,87,17934,-4,0,8,0,231412,0
231420,1034,-3399,764,-2542,-2963,-4666,19941,289,118,608,616,35593,-55,34,127,0,0,4961,313,0,5795,209,87,17944,-4,0,10,0,231412,0
231430,839,-1842,-511,-2341,-1155,-3599,20072,320,6,866,1104,35591,-46,34,127,0,0,5038,878,0,5795,209,87,17954,-4,0,12,0,231412,0
231440,882,-1262,-1593,-2181,635,-4663,20275,464,155,523,576,35594,-14,34,127,0,0,4977,-730,0,5795,209,87,17964,-4,0,14,0,231412,0
231450,899,-1780,-1354,-1259,2372,-3904,20365,-33,-117,-1001,-792,35607,-11,34,127,0,0,4859,-1137,0,5795,209,87,17974,-4,0,18,0,231444,0
231460,642,-1963,-145,-784,3178,-3359,20155,-556,-882,-654,-1560,35617,-34,34,127,0,0,4750,-1098,0,5795,209,87,17984,-4,0,20,0,231444,0
231470,481,-1549,736,-666,3916,-2700,19824,-791,-766,-546,-1936,35619,-46,34,127,0,0,4657,-955,0,5795,209,87,17994,-4,0,23,0,231459,0
231480,523,-1630,558,-665,4159,-2416,19423,-918,-350,-509,-2224,35606,-23,34,127,0,0,4552,-1038,0,5795,209,87,18004,-4,0,26,0,231459,0
231490,941,-1792,-142,-134,4326,-1448,18977,-1015,-204,-471,-2416,35598,-1,34,127,0,0,4456,-1010,0,5795,209,87,18014,-4,0,29,0,231506,0
231500,1176,-1428,-191,133,4356,-562,18502,-1042,-144,-334,-2320,35603,-13,34,127,0,0,4374,-812,0,5795,209,87,18024,-4,0,32,0,231506,0
231510,1126,-1032,40,491,4412,465,18037,-1012,-22,-278,-2168,35603,-15,34,127,0,0,4306,-714,0,5795,209,87,18034,-4,0,36,47,231522,0
231520,1114,-1047,51,690,4382,1072,17593,-965,57,-301,-2152,35593,-12,34,127,0,0,4216,-856,0,5795,209,87,18044,-4,0,39,43,231522,0
231530,1222,-1111,-112,956,4223,2214,17152,-989,40,-371,-2200,35580,-2,34,127,0,0,4126,-911,0,5795,209,87,18054,-4,0,43,37,231522,0
231540,1161,-1034,-5,1089,4074,3062,16705,-992,-23,-356,-2176,35571,-10,34,127,0,0,4044,-829,0,5795,209,87,18064,-4,0,46,34,231522,0
231550,918,-879,50,1254,3752,4195,16255,-987,-16,-275,-2032,35591,-17,34,127,0,0,3972,-675,0,5795,209,87,18074,-4,0,50,29,231522,0
231560,820,-863,-73,1331,3533,4824,15829,-924,47,-259,-1856,35603,-29,34,127,0,0,3912,-620,0,5795,209,87,18084,-4,0,53,26,231537,0
231570,797,-999,-147,1489,3300,5800,15439,-832,113,-277,-1656,35615,-32,34,127,0,0,3863,-477,0,5795,209,87,18094,-4,0,57,22,231553,0
231580,708,-1006,-120,1615,3236,6436,15089,-741,150,-252,-1400,35612,-19,34,127,0,0,3828,-335,0,5795,209,87,18104,-4,0,60,19,231553,0
231590,628,-954,-83,1737,3323,7237,14789,-626,176,-226,-1056,35603,-48,34,127,0,0,3801,-230,0,5795,209,87,18114,-4,0,64,15,231569,0
231600,617,-927,-137,1792,3408,7725,14546,-493,208,-245,-736,35603,-34,34,127,0,0,3782,-192,0,5795,209,87,18124,-4,0,67,13,231584,0
231610,765,-888,-216,1918,3553,8459,14352,-398,200,-277,-488,35589,-26,34,127,0,0,3782,-49,0,5795,209,87,18134,-4,0,72,10,231600,0
231620,912,-934,-180,2015,3650,8917,14207,-283,187,-223,-200,35587,-21,34,127,0,0,3779,10,0,5795,209,87,18144,-4,0,75,7,231600,0
231630,950,-1021,-49,2147,3734,9523,14130,-121,233,-77,-24,35582,-46,34,127,0,0,3784,65,0,5795,209,87,18154,-4,0,80,5,231615,0
231640,1064,-1047,-71,2229,3683,9989,14136,67,296,151,104,35597,-74,34,127,0,0,3807,258,0,5795,209,87,18164,-4,0,83,3,231647,0
231650,1098,-946,-169,2457,3496,10452,14199,188,263,364,376,35600,-61,34,127,0,0,3841,411,0,5795,209,87,18174,-4,0,88,1,231647,0
231660,1175,-868,-197,2669,3291,10594,14325,315,228,510,720,35594,-51,34,127,0,0,3904,571,0,5795,209,87,18184,-4,0,91,0,231662,0
231670,1416,-965,-177,2972,3054,10668,14506,427,221,509,1048,35587,-55,34,127,0,0,3968,620,0,5795,209,87,18194,-4,0,96,-2,231662,0
231680,1566,-1098,-49,3065,2988,10692,14735,537,200,560,1320,35588,-44,34,127,0,0,4045,719,0,5795,209,87,18204,-4,0,99,-3,231662,0
231690,1622,-1323,180,3053,2985,10657,15016,645,189,569,1600,35591,-24,34,127,0,0,4123,796,0,5795,209,87,18214,-4,0,103,-4,231662,0
231700,1558,-1561,143,2979,2888,10527,15343,749,180,618,1944,35580,0,34,127,0,0,4229,1065,0,5795,209,87,18224,-4,0,106,-5,231694,0
231710,1539,-2020,104,2900,2428,10263,15736,917,220,723,2456,35584,12,34,127,0,0,4369,1477,0,5795,209,87,18234,-4,0,111,-7,231694,0
231720,1777,-2246,71,2876,2193,9946,16230,1192,337,1077,3280,35583,-2,34,127,0,0,4550,1851,0,5795,209,87,18244,-4,0,113,-7,231694,0
231730,1985,-2595,52,2644,2025,9025,16875,1500,506,990,3960,35584,32,34,127,0,0,4723,1757,0,5795,209,87,18254,-4,0,117,-8,231725,0
231740,2092,-2910,130,2479,2058,8012,17620,1684,472,776,4208,35577,54,34,127,0,0,4873,1450,0,5795,209,87,18264,-4,0,120,-8,231725,0
231750,2240,-3296,113,2307,2219,6301,18396,1688,224,410,3856,35570,82,34,127,0,0,4977,972,0,5795,209,87,18274,-4,0,123,-9,231725,0
231760,2277,-3288,172,2198,2337,5267,19119,1534,-84,177,3144,35585,37,34,127,0,0,5035,560,0,5795,209,87,18284,-4,0,125,-9,231756,0
231770,2089,-2585,169,1830,2339,3934,19731,1260,-337,86,2312,35593,-2,34,127,0,0,5071,379,0,5795,209,87,18294,-4,0,127,-10,231756,0
231780,1991,-2061,124,1515,2307,3227,20203,939,-492,131,1752,35597,-13,34,127,0,0,5110,433,0,5795,209,87,18304,-4,0,128,-10,231772,0
231790,2042,-1801,-196,981,2075,2153,20554,715,-502,353,1568,35597,-16,34,127,0,0,5167,571,0,5795,209,87,18314,-4,0,129,-10,231772,0
231800,2078,-1894,-141,738,1746,1098,20860,668,-291,502,1552,35608,-24,34,127,0,0,5215,439,0,5795,209,87,18324,-4,0,129,-10,231787,0
231810,2086,-1859,74,572,1113,-673,21152,622,-96,407,1240,35623,-19,34,127,0,0,5234,175,0,5795,209,87,18334,-4,0,129,-10,231803,0
231820,1946,-1681,285,338,515,-1574,21396,485,-129,278,760,35614,-26,34,127,0,0,5233,0,0,5795,209,87,18344,-4,0,129,-10,231803,0
231830,1797,-1593,495,-55,-352,-2763,21567,330,-240,296,408,35606,-35,34,127,0,0,5233,0,0,5795,209,87,18354,-4,0,129,-10,231818,0
231840,1516,-1479,317,-191,-907,-3528,21681,223,-245,291,168,35600,-51,34,127,0,0,5237,-5,0,5795,209,87,18364,-4,0,129,-10,231818,0
231850,10178,-12610,602,-733,-2717,-8657,21751,146,-187,242,-96,35609,-47,34,127,0,0,5160,-1038,0,1386,134,88,2,1,0,129,-10,231865,0
231860,2963,-6134,4738,1603,-1614,-10199,21589,-771,-572,-2674,-4168,35614,-30,34,127,0,0,4687,-4779,0,1386,134,88,12,1,0,129,-10,231865,0
231870,776,3648,-1340,-2055,-338,-9836,20743,-2226,-1927,-2202,-6504,35568,103,34,127,0,0,4330,-3636,0,1386,134,88,22,1,0,129,-10,231881,0
231880,-1185,3378,-1474,-3756,-522,-10188,19463,-3075,-2103,-1667,-8272,35530,199,34,127,0,0,3916,-4180,0,1386,134,88,32,1,0,129,-10,231881,0
231890,-33,-4542,-3547,-1831,-1883,-7553,17868,-3685,-1370,-1128,-9416,35503,293,34,127,0,0,3538,-3647,0,1386,134,88,42,1,0,129,-10,231881,0
231900,-2608,-4309,-1840,-874,-2392,-6665,16104,-3934,-883,-392,-8888,35503,279,34,127,0,0,3268,-2493,0,1386,134,88,52,1,0,129,-10,231881,0
231910,-822,-1271,-1107,-645,1933,-8670,14420,-3569,-92,-203,-8312,35533,213,34,127,0,0,2966,-3114,0,1386,134,88,62,1,0,129,-10,231912,0
231920,972,-1498,-1029,-959,1098,-8269,12885,-3346,498,-366,-7984,35543,152,34,127,0,0,2713,-2449,0,1386,134,88,72,1,0,129,-10,231912,0
231930,2863,-1044,-918,-395,-153,-5558,11374,-3283,285,-61,-6872,35565,73,34,127,0,0,2520,-1845,0,1386,134,88,82,1,0,129,-10,231912,0
231940,1597,-2667,-964,-212,-981,-4575,10008,-2856,341,108,-5576,35573,31,34,127,0,0,2375,-1422,0,1386,134,88,92,1,0,129,-10,231928,0
231950,190,-3195,-110,668,10,-4825,8874,-2348,764,120,-4528,35594,-17,34,127,0,0,2231,-1422,0,1386,134,88,102,1,0,129,-10,231959,0
231960,1105,-2535,234,836,719,-5037,7937,-1944,814,-23,-3928,35601,-41,34,127,0,0,2086,-1439,0,1386,134,88,112,1,0,129,-10,231959,0
231970,2245,-2346,359,681,363,-3793,7145,-1658,644,-163,-3552,35605,-40,34,127,0,0,1965,-1213,0,1386,134,88,122,1,0,129,-10,231959,0
231980,2397,-2761,687,772,-214,-2633,6459,-1439,461,-164,-2920,35605,-40,34,127,0,0,1900,-543,0,1386,134,88,132,1,0,129,-10,231975,0
231990,1902,-2955,815,918,-480,-1891,5890,-1158,423,-66,-2112,35603,-21,34,127,0,0,1869,-225,0,1386,134,88,142,1,0,129,-10,231975,0
232000,1711,-3173,775,748,-167,-1453,5458,-857,493,-42,-1280,35605,-10,34,127,0,0,1869,27,0,1386,134,88,152,1,0,129,-10,231990,0
232010,1615,-3242,573,377,-100,-368,5152,-600,496,-31,-480,35609,-14,34,127,0,0,1903,439,0,1386,134,88,162,1,0,129,-10,232022,0
232020,1762,-3104,722,213,-72,264,5018,-62,575,1061,512,35625,-21,34,127,0,0,1990,834,0,1386,134,88,172,1,0,129,-10,232022,0
232030,2224,-3058,742,-210,-351,1029,5172,416,930,725,1352,35615,-23,34,127,0,0,2118,1301,0,1386,134,88,182,1,0,129,-10,232022,0
232040,1812,-2971,1068,-450,-554,1524,5453,709,745,1016,2216,35610,5,34,127,0,0,2285,1719,0,1386,134,88,192,1,0,129,-10,232022,0
232050,1105,-3074,1109,-697,-910,2272,5879,1037,522,1027,3000,35592,23,34,127,0,0,2475,1911,0,1386,134,88,202,1,0,129,-10,232037,0
232060,825,-3178,1104,-742,-1150,2608,6457,1383,572,1201,3920,35595,34,34,127,0,0,2702,2307,0,1386,134,88,212,1,0,129,-10,232068,0
232070,519,-3361,1132,-371,-1531,2571,7209,1763,625,1160,4752,35596,55,34,127,0,0,2946,2471,0,1386,134,88,222,1,0,129,-10,232068,0
232080,-49,-3290,822,-268,-1789,2664,8130,2146,664,1231,5792,35585,86,34,127,0,0,3260,3175,0,1386,134,88,232,1,0,129,-10,232068,0
232090,-567,-2695,622,-187,-2184,2387,9253,2599,726,1287,6816,35559,138,34,127,0,0,3582,3202,0,1386,134,88,242,1,0,129,-10,232068,0
232100,-830,-2627,350,-221,-2636,2073,10557,2983,738,1040,7632,35539,171,34,127,0,0,3899,3229,0,1386,134,88,252,1,0,129,-10,232084,0
232110,-1574,-2692,77,-34,-2450,1199,12022,3298,645,879,8072,35548,188,34,127,0,0,4213,3076,0,1386,134,88,262,1,0,129,-10,232100,0
232120,-1936,-2686,-221,-215,-2213,495,13516,3258,328,659,8272,35551,180,34,127,0,0,4537,3235,0,1386,134,88,272,1,0,129,-10,232131,0
232130,-1219,-2029,-88,-642,-1624,-936,15040,3415,86,612,8328,35552,164,34,127,0,0,4794,2581,0,1386,134,88,282,1,0,129,-10,232131,0
232140,-836,-1996,477,-920,-1681,-1767,16601,3396,149,318,7720,35545,122,34,127,0,0,5018,2191,0,1386,134,88,292,1,0,129,-10,232131,0
232150,-467,-2563,732,-1082,-1945,-3078,18040,3072,-210,227,7032,35555,76,34,127,0,0,5226,1999,0,1386,134,88,302,1,0,129,-10,232131,0
232160,-488,-2929,481,-1184,-1784,-4536,19358,2825,-484,93,5968,35568,58,34,127,0,0,5344,1109,0,1386,134,88,312,1,0,129,-10,232147,0
232170,-1086,-3389,1059,-1176,-1766,-5630,20505,2370,-559,-110,4528,35588,21,34,127,0,0,5430,818,0,1386,134,88,322,1,2,129,-10,232178,0
232180,-1188,-3061,1239,-1343,-1948,-6091,21412,1843,-821,-134,3192,35603,-30,34,127,0,0,5501,730,0,1386,134,88,332,1,2,129,-10,232178,0
232190,-1311,-2809,1022,-1845,-2188,-6369,22027,1040,-1043,-1391,-144,35616,-71,34,127,0,0,5565,703,0,1386,134,88,342,1,2,129,-10,232178,0
232200,-801,-2847,796,-2058,-2554,-6535,21950,-517,-1986,-1427,-1688,35618,-84,34,127,0,0,5670,1060,0,1386,134,88,352,1,2,129,-10,232193,0
232210,170,-2554,764,-2112,-2816,-7140,21591,-903,-1808,-940,-2624,35601,-52,34,127,0,0,5760,928,0,1386,134,88,362,1,2,129,-10,232193,0
232220,327,-2112,129,-2259,-1815,-7603,21070,-1284,-728,-1290,-4016,35593,-16,34,127,0,0,5744,-373,0,1386,134,88,372,1,2,129,-10,232256,0
232230,-341,-2033,85,-2220,-955,-8120,20245,-2082,-932,-1938,-6192,35589,33,34,127,0,0,5615,-1384,0,1386,134,88,382,0,2,129,-10,232256,0
232240,-887,-1893,208,-2009,-1092,-8157,19000,-2985,-1435,-1754,-8104,35560,130,34,127,0,0,5429,-1823,0,1386,134,88,392,0,2,129,-10,232256,0
232250,-1055,-1635,323,-1902,-1608,-8154,17877,-1665,-419,5695,1792,35542,163,34,127,0,0,5259,-1724,0,1386,134,88,402,0,2,129,-10,232256,0
232260,-1354,-1230,464,-1743,-2365,-7104,18392,1819,3843,3698,6120,35532,215,34,127,0,0,5136,-1038,0,1386,134,88,412,0,2,129,-10,232272,0
232270,-457,-1159,-100,-1810,-3099,-5808,19409,2175,3912,-109,3376,35525,198,34,127,0,0,5077,-560,0,1386,134,88,422,0,2,129,-10,232272,0
232280,-942,-878,96,-1666,-3895,-5566,20172,1423,53,-799,1248,35559,73,34,127,0,0,5030,-494,0,1386,134,88,432,0,2,129,-10,232272,0
232290,-507,-959,-49,-1526,-4222,-5419,20566,646,-1105,-885,-168,35562,64,34,127,0,0,4971,-587,0,1386,134,88,442,0,2,129,-10,232272,0
232300,-167,-1294,-151,-1466,-4665,-4942,20496,-364,-1596,-777,-904,35596,-63,34,127,0,0,4893,-741,0,1386,134,88,452,0,2,129,-10,232287,0
232310,-48,-1526,4,-1378,-4262,-3657,20268,-548,-1207,-404,-1200,35612,-55,34,127,0,0,4829,-609,0,1386,134,88,462,0,2,129,-10,232287,0
232320,-206,-1421,152,-1225,-3800,-2968,19992,-621,-368,-343,-1328,35611,-47,34,127,0,0,4759,-670,0,1386,134,88,472,0,2,129,-10,232303,0
232330,-34,-1188,311,-1019,-2806,-2186,19690,-683,-141,-399,-1560,35611,-32,34,127,0,0,4675,-873,0,1386,134,88,482,0,2,129,-10,232334,0
232340,244,-1074,248,-891,-2008,-1516,19348,-786,-125,-531,-1952,35596,-18,34,127,0,0,4567,-1087,0,1386,134,88,492,0,2,129,-10,232334,0
232350,528,-832,47,-587,-862,-167,18939,-946,-209,-591,-2360,35575,-6,34,127,0,0,4456,-1197,0,1386,134,88,502,0,2,129,-10,232334,0
232360,619,-577,-6,-321,-188,789,18467,-1074,-258,-523,-2600,35573,-22,34,127,0,0,4343,-1071,0,1386,134,88,512,0,2,129,-10,232334,0
232370,887,-159,-99,137,696,2036,18006,-1138,-202,-426,-2608,35581,-8,34,127,0,0,4241,-1065,0,1386,134,88,522,0,2,129,-10,232396,0
232380,1152,59,-170,413,1243,2926,17491,-1134,-80,-337,-2568,35586,-18,34,127,0,0,4153,-972,0,1386,134,88,532,0,2,129,-10,232396,0
232390,1734,225,-278,779,2228,4694,16974,-1130,-11,-254,-2376,35583,-7,34,127,0,0,4080,-747,0,1386,134,88,542,0,2,129,-10,232396,0
232400,2010,278,-272,992,2915,6090,16483,-1056,56,-160,-2000,35583,-36,34,127,0,0,4020,-565,0,1386,134,88,552,0,2,129,-10,232396,0
232410,2022,248,-61,1319,3688,7973,16040,-931,150,-99,-1600,35584,-34,34,127,0,0,3982,-450,0,1386,134,88,562,0,2,129,-10,232396,0
232420,1869,149,-5,1659,3825,8779,15664,-772,234,-132,-1336,35588,-28,34,127,0,0,3926,-604,0,1386,134,88,572,0,2,129,-10,232396,0
232430,2194,43,135,2068,3514,10000,15354,-655,253,-287,-1280,35585,-27,34,127,0,0,3873,-565,0,1386,134,88,582,0,2,129,-10,232412,0
232440,2381,-116,330,2146,3026,11019,15069,-614,157,-330,-1104,35584,-9,34,127,0,0,3849,-214,0,1386,134,88,592,0,2,129,-10,232428,0
232450,2185,-552,738,2274,2128,12089,14821,-508,118,-212,-608,35604,-37,34,127,0,0,3856,60,0,1386,134,88,602,0,2,129,-10,232428,0
232460,1772,-980,630,2455,1344,12805,14640,-343,212,-57,-40,35607,-24,34,127,0,0,3889,411,0,1386,134,88,612,0,2,129,-10,232443,0
232470,2160,-1708,322,2901,749,13580,14633,185,496,720,536,35603,-10,34,127,0,0,3951,593,0,1386,134,88,622,0,2,129,-10,232459,0
232480,2518,-2000,207,3132,242,14071,14791,402,688,620,1160,35593,9,34,127,0,0,4055,1071,0,1386,134,88,632,0,2,129,-10,232475,0
232490,2049,-2228,292,3514,-351,14104,15048,635,460,784,1856,35594,5,34,127,0,0,4180,1323,0,1386,134,88,642,0,2,129,-10,232475,0
232500,1668,-2592,64,3697,-750,13955,15424,910,428,913,2648,35591,2,34,127,0,0,4339,1713,0,1386,134,88,652,0,2,129,-10,232475,0
232510,1290,-3342,-49,4055,-1208,13364,15956,1290,539,1089,3648,35581,30,34,127,0,0,4557,2202,0,1386,134,88,662,0,2,129,-10,232506,0
232520,1282,-3711,-187,4226,-1142,12627,16676,1706,677,1209,4600,35570,62,34,127,0,0,4768,2186,0,1386,134,88,672,0,2,129,-10,232521,0
232530,1054,-3963,-68,4272,-448,10751,17548,1982,644,833,4936,35565,89,34,127,0,0,4957,1735,0,1386,134,88,682,0,2,129,-10,232521,0
232540,976,-4144,40,4111,302,9324,18466,2022,346,500,4728,35562,97,34,127,0,0,5087,1175,0,1386,134,88,692,0,2,129,-10,232521,0
232550,859,-4156,56,3765,1607,7323,19353,1896,-3,142,3904,35568,73,34,127,0,0,5167,714,0,1386,134,88,702,0,2,129,-10,232521,0
232560,771,-3724,90,3324,2350,6364,20118,1579,-322,26,2904,35582,28,34,127,0,0,5215,433,0,1386,134,88,712,0,2,129,-10,232553,0
232570,642,-2762,119,2197,3232,5086,20718,1214,-570,54,2256,35597,-35,34,127,0,0,5271,516,0,1386,134,88,722,0,2,129,-10,232553,0
232580,663,-2457,29,1612,3608,4204,21183,945,-572,192,2000,35605,-62,34,127,0,0,5338,703,0,1386,134,88,732,0,2,129,-10,232553,0
232590,993,-1901,-456,1101,3943,2879,21565,802,-402,461,1992,35598,-53,34,127,0,0,5407,791,0,1386,134,88,742,0,2,129,-10,232584,0
232600,1183,-1228,-661,1006,3993,1955,21931,815,-166,651,2056,35594,-35,34,127,0,0,5488,752,0,1386,134,88,752,0,2,129,-10,232600,0
232610,1361,79,-852,737,3593,370,22274,667,-70,-212,-96,35590,-26,34,127,0,0,5553,670,0,1386,134,88,762,0,2,129,-10,232600,0
232620,1753,498,-893,422,3192,-654,22239,-388,-863,-1047,-904,35591,-29,34,127,0,0,5611,598,0,1386,134,88,772,0,2,129,-10,232600,0
232630,1514,288,-645,195,2384,-2057,22016,-547,-1117,-761,-1736,35593,-25,34,127,0,0,5645,324,0,1386,134,88,782,0,2,129,-10,232615,0
232640,1596,-210,-568,-54,1832,-2646,21663,-890,-509,-1107,-2864,35597,-20,34,127,0,0,5673,241,0,1386,134,88,792,0,2,129,-10,232615,0
232650,1088,-704,-8,-372,1021,-3467,21102,-1395,-677,-1403,-4336,35593,0,34,127,0,0,5690,142,0,1386,134,88,802,0,2,129,-10,232646,0
232660,974,-924,40,-617,581,-3974,20241,-2151,-1013,-1851,-6416,35585,54,34,127,0,0,5701,16,0,1386,134,88,812,0,2,129,-10,232646,0
232670,721,-1114,-45,-944,-27,-4384,18981,-3045,-1386,-1817,-7912,35547,159,34,127,0,0,5700,-5,0,1541,904,89,2,1,2,276,18,232662,0
232680,2564,-4655,-258,-1237,-1136,-5609,17523,-3176,-1110,-500,-7584,35524,228,34,127,0,0,5697,21,0,1541,904,89,12,1,2,276,18,232662,0
232690,5135,-7887,3284,212,2193,-12546,16060,-3348,-290,-1762,-7608,35506,249,34,127,0,0,5196,-5784,0,1541,904,89,22,1,2,276,18,232678,0
232700,-421,2744,3023,614,3298,-12726,14929,-1284,737,8168,3880,35532,139,34,127,0,0,4639,-5322,0,1541,904,89,32,1,2,276,18,232693,0
232710,-534,1030,-1694,-4719,4835,-11992,15763,2418,4934,1469,2064,35500,269,34,127,0,0,4124,-4993,0,1541,904,89,42,1,2,276,18,232693,0
232720,1543,-3061,1603,-2127,1229,-10243,16068,-497,2216,-5357,-3928,35518,201,34,127,0,0,3654,-4762,0,1541,904,89,52,1,2,276,18,232709,0
232730,1884,-4087,-321,-118,-2853,-6531,15220,-2243,-3856,-1973,-6000,35504,265,34,127,0,0,3356,-2757,0,1541,904,89,62,1,2,276,18,232709,0
232740,-1040,-3353,484,322,-1312,-7867,14096,-2551,-2423,-1156,-6752,35524,165,34,127,0,0,3061,-3010,0,1541,904,89,72,1,2,276,18,232725,0
232750,-2017,-754,-283,595,895,-8521,12848,-2872,-651,-1148,-7576,35522,218,34,127,0,0,2721,-3339,0,1541,904,89,82,1,2,276,18,232787,0
232760,3407,-551,-1393,-283,347,-7431,11433,-3140,-573,-382,-7184,35529,187,34,127,0,0,2465,-2658,0,1541,904,89,92,1,2,276,18,232787,0
232770,2876,-5232,-1745,-360,-680,-5110,10055,-2951,-191,-219,-6480,35542,137,34,127,0,0,2254,-2065,0,1541,904,89,102,1,2,276,18,232787,0
232780,588,-4957,-336,399,-799,-4372,8813,-2651,380,-128,-5584,35547,83,34,127,0,0,2103,-1378,0,1541,904,89,112,1,2,276,18,232787,0
232790,603,-2536,-328,476,889,-5550,7723,-2289,550,-84,-4776,35570,8,34,127,0,0,1940,-1724,0,1541,904,89,122,1,2,276,18,232787,0
232800,2180,-3105,432,405,983,-4559,6781,-1989,579,-167,-4272,35581,10,34,127,0,0,1803,-1373,0,1541,904,89,132,1,2,276,18,232803,0
232810,3095,-2659,804,463,-81,-2117,5954,-1731,496,-85,-3480,35580,3,34,127,0,0,1740,-598,0,1541,904,89,142,1,2,276,18,232803,0
232820,2925,-2738,1227,222,-252,-1290,5276,-1388,513,41,-2296,35590,-16,34,127,0,0,1733,-43,0,1541,904,89,152,1,2,276,18,232803,0
232830,2087,-3179,850,-493,54,-879,4765,-1014,613,119,-1216,35608,-25,34,127,0,0,1742,76,0,1541,904,89,162,1,2,276,18,232818,0
232840,2380,-4338,1194,-558,49,107,4420,-647,642,292,0,35617,-34,34,127,0,0,1810,791,0,1541,904,89,172,1,2,276,18,232834,0
232850,1710,-3733,1473,-663,-750,1718,4421,300,1021,1295,1192,35615,-31,34,127,0,0,1950,1494,0,1541,904,89,182,1,2,276,18,232834,0
232860,1698,-3925,1671,-1143,-1106,2194,4690,719,1212,1232,2408,35597,1,34,127,0,0,2147,2032,0,1541,904,89,192,1,2,276,18,232865,0
232870,858,-3916,920,-1337,-1274,2461,5166,1178,839,1318,3640,35587,23,34,127,0,0,2395,2477,0,1541,904,89,202,1,2,276,18,232865,0
232880,321,-3569,333,-1163,-1368,2664,5849,1620,797,1321,4752,35572,63,34,127,0,0,2675,2861,0,1541,904,89,212,1,2,276,18,232865,0
232890,-424,-3544,130,-425,-1762,2664,6740,2102,789,1329,5752,35550,113,34,127,0,0,2970,2944,0,1541,904,89,222,1,2,276,18,232865,0
232900,-884,-3593,159,-237,-2290,2554,7851,2612,826,1503,7064,35539,157,34,127,0,0,3349,3768,0,1541,904,89,232,1,2,276,18,232896,0
232910,-1816,-3396,528,-181,-2242,1526,9215,3142,922,1294,8104,35522,213,34,127,0,0,3706,3587,0,1541,904,89,242,1,2,276,18,232896,0
232920,-2241,-3178,269,-279,-1997,557,10768,3541,840,995,8720,35516,229,34,127,0,0,4035,3229,0,1541,904,89,252,1,2,276,18,232896,0
232930,-1929,-2648,-217,-346,-1811,-599,12421,3643,531,646,8824,35517,237,34,127,0,0,4367,3268,0,1541,904,89,262,1,2,276,18,232912,0
232940,-1273,-2622,-546,-615,-1720,-1802,14038,3530,74,544,8800,35541,183,34,127,0,0,4654,2823,0,1541,904,89,272,1,2,276,18,232928,0
232950,-916,-2300,561,-968,-1741,-3794,15666,3593,-57,217,7928,35559,130,34,127,0,0,4857,1911,0,1541,904,89,282,1,2,276,18,232943,0
232960,248,-3114,682,-1184,-1436,-5083,17202,3241,-165,-63,6432,35577,53,34,127,0,0,4979,1120,0,1541,904,89,292,1,2,276,18,232943,0
232970,-183,-3274,1207,-1267,-2091,-6290,18494,2672,-711,-324,4584,35595,2,34,127,0,0,5043,587,0,1541,904,89,302,1,2,276,18,232959,0
232980,228,-3205,1188,-1540,-3120,-6873,19517,2060,-995,-433,3208,35597,-48,34,127,0,0,5121,802,0,1541,904,89,312,1,2,276,18,232974,0
232990,1413,-3511,1418,-2215,-4905,-7821,20278,1511,-1019,-172,2560,35604,-83,34,127,0,0,5206,895,0,1541,904,89,322,1,2,276,18,232974,0
233000,2078,-3601,816,-2516,-4386,-8546,20831,1113,-885,26,1872,35605,-85,34,127,0,0,5214,-76,0,1541,904,89,332,1,2,276,18,232990,0
233010,110,-3131,156,-2832,-3729,-9704,21228,760,-674,-192,104,35603,-45,34,127,0,0,5091,-1356,0,1541,904,89,342,0,2,276,18,232990,0
233020,-475,-2714,293,-2711,-3627,-9702,21208,-425,-1156,-1672,-1496,35595,-29,34,127,0,0,4952,-1378,0,1541,904,89,352,0,2,276,18,232990,0
233030,-962,-2048,586,-2761,-3486,-9666,20890,-813,-1416,-868,-2288,35594,-29,34,127,0,0,4833,-1115,0,1541,904,89,362,0,2,276,18,233084,0
233040,-799,-1733,430,-2886,-3378,-9277,20452,-1002,-684,-489,-2312,35600,-39,34,127,0,0,4760,-692,0,1541,904,89,372,0,2,276,18,233084,0
233050,-891,-1358,49,-2912,-3154,-8847,19994,-994,-223,-212,-1960,35598,-33,34,127,0,0,4714,-444,0,1541,904,89,382,0,2,276,18,233084,0
233060,-812,-1190,-91,-2803,-2919,-8603,19575,-878,65,-110,-1544,35598,-6,34,127,0,0,4668,-417,0,1541,904,89,392,0,2,276,18,233084,0
233070,-695,-1088,-112,-2668,-2543,-8273,19222,-735,209,-153,-1272,35588,-10,34,127,0,0,4623,-450,0,1541,904,89,402,0,2,276,18,233099,0
233080,-701,-1094,-89,-2535,-2318,-8027,18915,-652,214,-225,-1200,35590,-5,34,127,0,0,4575,-505,0,1541,904,89,412,0,2,276,18,233099,0
233090,-771,-1109,-58,-2214,-2195,-7604,18640,-600,140,-322,-1264,35594,-50,34,127,0,0,4513,-626,0,1541,904,89,422,0,2,276,18,233099,0
233100,-607,-1137,-54,-1952,-2050,-7190,18361,-613,42,-374,-1336,35596,-11,34,127,0,0,4453,-615,0,1541,904,89,432,0,2,276,18,233099,0
233110,-270,-1092,-14,-1654,-1593,-6113,18069,-657,-37,-395,-1400,35589,-21,34,127,0,0,4398,-521,0,1541,904,89,442,0,2,276,18,233099,0
233120,-254,-971,-43,-1366,-1201,-5314,17765,-667,-53,-302,-1304,35595,-20,34,127,0,0,4343,-510,0,1541,904,89,452,0,2,276,18,233099,0
233130,-406,-787,-4,-864,-716,-4349,17473,-649,4,-340,-1352,35621,-38,34,127,0,0,4285,-637,0,1541,904,89,462,0,2,276,18,233131,0
233140,-341,-705,60,-506,-394,-3707,17174,-668,0,-366,-1440,35628,-51,34,127,0,0,4209,-714,0,1541,904,89,472,0,2,276,18,233131,0
233150,56,-560,72,-1,302,-2260,16855,-710,-49,-390,-1560,35614,-40,34,127,0,0,4150,-604,0,1541,904,89,482,0,2,276,18,233131,0
233160,307,-329,43,343,878,-1099,16523,-733,-55,-322,-1504,35600,-41,34,127,0,0,4088,-565,0,1541,904,89,492,0,2,276,18,233131,0
233170,531,159,15,861,1672,442,16192,-720,-18,-263,-1368,35595,-42,34,127,0,0,4028,-620,0,1541,904,89,502,0,2,276,18,233162,0
233180,787,457,-43,1180,2137,1429,15874,-694,30,-318,-1400,35608,-26,34,127,0,0,3966,-697,0,1541,904,89,512,0,2,276,18,233162,0
233190,1260,774,-136,1600,2676,3098,15557,-709,22,-401,-1560,35603,-29,34,127,0,0,3884,-763,0,1541,904,89,522,0,2,276,18,233178,0
233200,1434,977,-118,1846,2905,4397,15226,-738,-31,-477,-1696,35590,-3,34,127,0,0,3819,-681,0,1541,904,89,532,0,2,276,18,233178,0
233210,1563,1207,-81,2136,2928,6385,14882,-749,-53,-395,-1592,35584,-13,34,127,0,0,3768,-444,0,1541,904,89,542,0,2,276,18,233209,0
233220,1592,997,-41,2350,2937,7619,14560,-682,32,-297,-1312,35600,-21,34,127,0,0,3736,-324,0,1541,904,89,552,0,2,276,18,233209,0
233230,1499,742,-26,2478,2788,9216,14278,-594,129,-260,-1008,35601,-6,34,127,0,0,3718,-164,0,1541,904,89,562,0,2,276,18,233209,0
233240,1263,503,124,2674,2612,9975,14051,-471,185,-260,-776,35610,-38,34,127,0,0,3693,-192,0,1541,904,89,572,0,2,276,18,233240,0
233250,1188,208,109,3030,2233,10994,13859,-403,165,-327,-624,35594,-20,34,127,0,0,3674,-192,0,1541,904,89,582,0,2,276,18,233240,0
233260,1425,158,178,3184,1949,11737,13705,-326,137,-293,-328,35599,-25,34,127,0,0,3672,-38,0,1541,904,89,592,0,2,276,18,233240,0
233270,1188,87,218,3347,1418,12670,13586,-217,137,-107,-56,35600,-11,34,127,0,0,3684,131,0,1541,904,89,602,0,2,276,18,233271,0
233280,1605,-21,132,3355,917,13365,13577,73,283,470,296,35602,-33,34,127,0,0,3719,362,0,1541,904,89,612,0,2,276,18,233271,0
233290,1688,-365,31,3481,-6,14385,13683,280,419,472,616,35591,-51,34,127,0,0,3774,587,0,1541,904,89,622,0,2,276,18,233271,0
233300,1555,-675,75,3507,-790,14888,13850,424,311,626,1168,35588,-58,34,127,0,0,3869,955,0,1541,904,89,632,0,2,276,18,233287,0
233310,1307,-1381,157,3720,-1865,15137,14111,658,301,833,1968,35589,-19,34,127,0,0,3995,1312,0,1541,904,89,642,0,2,276,18,233303,0
233320,1168,-1965,-12,3906,-2277,15124,14509,972,443,933,2752,35576,15,33,127,0,0,4170,1741,0,1541,904,89,652,0,2,276,18,233303,0
233330,906,-2843,-66,4194,-2575,14879,15065,1341,561,1081,3768,35568,38,34,127,0,0,4379,2202,0,1541,904,89,662,0,2,276,18,233334,0
233340,562,-3410,-99,4347,-2321,14396,15822,1804,692,1225,4920,35558,55,34,127,0,0,4636,2614,0,1541,904,89,672,0,2,276,18,233334,0
233350,751,-4065,-264,4380,-1120,13125,16789,2236,799,1143,5704,35550,99,34,127,0,0,4883,2460,0,1541,904,89,682,0,2,276,18,233349,0
233360,871,-4366,-463,4206,132,11897,17867,2398,612,825,5944,35537,137,34,127,0,0,5100,2109,0,1541,904,89,692,0,2,276,18,233349,0
233370,926,-4683,-456,3810,2485,9634,18862,2427,267,404,5536,35538,131,34,127,0,0,5245,1263,0,1541,904,89,702,0,2,276,18,233349,0
233380,1259,-4512,-596,3426,3888,8017,19909,2223,-78,70,4408,35565,61,34,127,0,0,5315,516,0,1541,904,89,712,0,2,276,18,233381,0
233390,1250,-3959,-232,2533,5227,5753,20791,1788,-469,-158,2824,35594,-11,34,127,0,0,5319,10,0,1541,904,89,722,0,2,276,18,233381,0
233400,1440,-3849,68,1951,5616,4611,21448,1294,-780,-303,1512,35605,-38,34,127,0,0,5316,-32,0,1541,904,89,732,0,2,276,18,233381,0
233410,1300,-2868,466,990,5650,2641,21878,808,-866,-192,656,35603,-64,34,127,0,0,5322,38,0,1541,904,89,742,0,2,276,18,233427,0
233420,1435,-2337,260,522,5520,1489,22125,433,-770,-16,272,35595,-75,34,127,0,0,5340,219,0,1541,904,89,752,0,2,276,18,233443,0
233430,1695,-1417,-280,132,5198,-362,22251,225,-564,193,208,35600,-89,34,127,0,0,5358,241,0,1541,904,89,762,0,2,276,18,233459,0
233440,1705,-496,-556,34,4639,-1610,22316,135,-322,499,352,35600,-51,34,127,0,0,5377,225,0,1541,904,89,772,0,2,276,18,233459,0
233450,1918,508,-777,-294,3505,-3466,22397,189,-56,493,352,35581,-29,34,127,0,0,5393,137,0,1541,904,89,782,0,2,276,18,233459,0
233460,1968,528,-678,-551,2579,-4295,22487,179,47,464,336,35578,0,34,127,0,0,5411,170,0,1541,904,89,792,0,2,276,18,233459,0
233470,1622,-605,-521,-653,782,-5091,22564,179,-26,570,416,35577,4,34,127,0,0,5440,324,0,1541,904,89,802,0,2,276,18,233459,0
233480,10407,-11765,303,-1074,987,-8810,22685,300,74,295,-272,35588,-2,34,127,0,0,5266,-2307,0,3271,971,90,0,1,2,305,8,233459,0
233490,-2322,-53,3862,619,-5,-11082,22458,-1156,-679,-3927,-5864,35579,12,34,127,0,0,4666,-5795,0,3271,971,90,10,1,2,305,8,233474,0
233500,416,2883,-1494,-1788,2341,-10002,21329,-2891,-2652,-2338,-8200,35546,162,34,127,0,0,4257,-4059,0,3271,971,90,20,1,2,305,8,233521,0
233510,1211,-1267,784,-2809,663,-9154,19737,-3779,-2496,-753,-9392,35515,270,34,127,0,0,3843,-4174,0,3271,971,90,30,1,2,305,8,233521,0
233520,2220,-4485,-1716,-763,-810,-7455,17830,-4315,-1411,188,-9496,35507,299,34,127,0,0,3479,-3751,0,3271,971,90,40,1,2,305,8,233537,0
233530,-405,-2747,-54,642,-1969,-7677,15859,-4309,-647,183,-9264,35540,147,34,127,0,0,3122,-3532,0,3271,971,90,50,1,2,305,8,233537,0
233540,-23,-1919,-923,40,1026,-8325,14039,-3855,239,-175,-9120,35577,27,34,127,0,0,2764,-3471,0,3271,971,90,60,1,2,305,8,233537,0
233550,2580,-3239,-1072,-287,316,-7064,12348,-3708,560,-257,-8528,35585,7,34,127,0,0,2497,-2631,0,3271,971,90,70,1,2,305,8,233537,0
233560,-299,-3564,-415,-317,-753,-4876,10693,-3569,268,-18,-7312,35585,11,34,127,0,0,2303,-1713,0,3271,971,90,80,1,2,305,8,233537,0
233570,-283,-4364,43,-21,-823,-5337,9244,-3005,507,222,-5648,35583,19,34,127,0,0,2165,-1466,0,3271,971,90,90,1,2,305,8,233552,0
233580,-229,-3310,-518,270,740,-5935,8043,-2496,912,148,-4736,35591,-22,34,127,0,0,1992,-1675,0,3271,971,90,100,1,2,305,8,233584,0
233590,2351,-2488,-733,533,830,-5203,7046,-2071,844,3,-4088,35598,-51,34,127,0,0,1861,-1307,0,3271,971,90,110,1,2,305,8,233584,0
233600,3441,-2279,-429,436,253,-3868,6208,-1742,681,-21,-3432,35597,-62,34,127,0,0,1769,-856,0,3271,971,90,120,1,2,305,8,233584,0
233610,3322,-3282,748,78,-107,-2212,5517,-1419,577,-8,-2592,35593,-23,34,127,0,0,1733,-285,0,3271,971,90,130,1,2,305,8,233599,0
233620,2910,-3211,1678,-298,73,-1652,4973,-1092,565,50,-1544,35582,-31,34,127,0,0,1735,49,0,3271,971,90,140,1,2,305,8,233599,0
233630,1686,-3893,1475,-530,-329,-155,4574,-782,561,141,-384,35592,-66,34,127,0,0,1797,741,0,3271,971,90,150,1,2,305,8,233615,0
233640,1657,-3673,1868,-651,-434,724,4452,118,850,1707,928,35608,-78,34,127,0,0,1932,1395,0,3271,971,90,160,1,2,305,8,233631,0
233650,1673,-3789,1471,-1198,-914,1506,4681,612,1288,1134,2176,35615,-43,34,127,0,0,2124,2037,0,3271,971,90,170,1,2,305,8,233631,0
233660,1073,-3811,1345,-1323,-1137,1744,5107,1065,973,1342,3512,35595,-13,34,127,0,0,2368,2493,0,3271,971,90,180,1,2,305,8,233662,0
233670,947,-3803,1024,-1269,-1385,1773,5758,1564,818,1301,4536,35567,60,34,127,0,0,2620,2554,0,3271,971,90,190,1,2,305,8,233662,0
233680,-87,-3810,843,-950,-1729,2030,6594,1953,773,1179,5360,35559,71,34,127,0,0,2893,2807,0,3271,971,90,200,1,2,305,8,233662,0
233690,-600,-3615,939,-794,-2168,1996,7615,2403,707,1454,6584,35553,111,34,127,0,0,3247,3565,0,3271,971,90,210,1,2,305,8,233662,0
233700,-986,-3494,593,-811,-2474,1574,8886,2945,854,1401,7800,35542,150,34,127,0,0,3607,3636,0,3271,971,90,220,1,2,305,8,233693,0
233710,-2405,-2555,399,-755,-2445,832,10364,3360,866,1056,8568,35527,196,34,127,0,0,3950,3422,0,3271,971,90,230,1,2,305,8,233693,0
233720,-2133,-2388,154,-650,-2269,5,11994,3661,662,852,8928,35512,213,34,127,0,0,4297,3427,0,3271,971,90,240,1,2,305,8,233693,0
233730,-1265,-2600,239,-676,-2029,-1574,13642,3594,292,627,9088,35527,183,34,127,0,0,4613,3136,0,3271,971,90,250,1,2,305,8,233724,0
233740,-1060,-2264,886,-877,-2353,-2779,15302,3697,35,413,8576,35536,174,34,127,0,0,4861,2367,0,3271,971,90,260,1,2,305,8,233724,0
233750,-347,-2948,917,-1486,-2615,-4332,16941,3517,-8,87,7400,35540,127,34,127,0,0,5048,1801,0,3271,971,90,270,1,2,305,8,233834,0
233760,-483,-3423,1453,-1551,-2924,-5044,18378,3014,-488,-104,6056,35556,60,34,127,0,0,5174,1279,0,3271,971,90,280,1,2,305,8,233834,0
233770,-979,-2845,1235,-1486,-3456,-5907,19607,2555,-808,-213,4632,35576,-12,34,127,0,0,5271,922,0,3271,971,90,290,1,2,305,8,233834,0
233780,-1028,-2379,1149,-1726,-3803,-6040,20593,1990,-875,-180,3584,35595,-46,34,127,0,0,5366,895,0,3271,971,90,300,1,2,305,8,233834,0
233790,-1067,-2517,1106,-2168,-4451,-6270,21345,1527,-920,19,3272,35594,-44,34,127,0,0,5499,1428,0,3271,971,90,310,1,2,305,8,233834,0
233800,-598,-2047,1305,-2329,-4431,-6451,21931,1175,-738,-90,1288,35588,-35,34,127,0,0,5648,1488,0,3271,971,90,320,1,2,305,8,233849,0
233810,-466,-1956,92,-2642,-2859,-7721,22240,319,-871,-2220,-1328,35594,-43,34,127,0,0,5675,104,0,3271,971,90,330,1,2,305,8,233849,0
233820,-186,-2356,-214,-2572,-1758,-8328,21911,-1003,-1858,-1907,-3816,35591,-16,34,127,0,0,5603,-878,0,3271,971,90,340,0,2,305,8,233849,0
233830,-984,-2263,274,-2333,-678,-8658,21127,-2060,-2075,-2319,-6424,35568,66,34,127,0,0,5464,-1406,0,3271,971,90,350,0,2,305,8,233849,0
233840,-885,-2257,612,-2322,-235,-8771,20120,-1851,-1229,3762,1304,35539,142,34,127,0,0,5323,-1389,0,3271,971,90,360,0,2,305,8,233849,0
233850,-1150,-1773,453,-2246,-5,-7929,20468,1433,2581,2495,2712,35526,180,34,127,0,0,5210,-950,0,3271,971,90,370,0,2,305,8,233849,0
233860,-125,-1915,-24,-2254,282,-7478,21013,1083,2907,-185,1112,35542,119,34,127,0,0,5173,-406,0,3271,971,90,380,0,2,305,8,233849,0
233870,-886,-1226,63,-1752,89,-7360,21352,601,-377,-551,-48,35582,26,34,127,0,0,5141,-340,0,3271,971,90,390,0,2,305,8,233849,0
233880,-358,-1127,-215,-1453,25,-7452,21348,-210,-1075,-733,-552,35600,-3,34,127,0,0,5089,-510,0,3271,971,90,400,0,2,305,8,233881,0
233890,161,-1148,-215,-1101,-100,-7113,21185,-394,-940,-479,-976,35616,-51,34,127,0,0,5009,-763,0,3271,971,90,410,0,2,305,8,233881,0
233900,668,-1354,-114,-981,112,-6258,20958,-535,-353,-496,-1256,35617,-61,34,127,0,0,4948,-609,0,3271,971,90,420,0,2,305,8,233881,0
233910,316,-1173,-41,-585,379,-4956,20688,-618,-195,-435,-1376,35609,-26,34,127,0,0,4890,-582,0,3271,971,90,430,0,2,305,8,233881,0
233920,259,-1050,-21,-296,327,-4392,20394,-656,-120,-339,-1376,35605,-11,34,127,0,0,4831,-626,0,3271,971,90,440,0,2,305,8,233912,0
233930,458,-859,-9,133,283,-3715,20092,-681,-55,-382,-1560,35606,-11,34,127,0,0,4753,-834,0,3271,971,90,450,0,2,305,8,233912,0
233940,841,-799,-41,347,382,-2889,19757,-752,-85,-445,-1776,35612,-24,34,127,0,0,4675,-791,0,3271,971,90,460,0,2,305,8,233927,0
233950,1206,-619,-13,660,797,-1230,19386,-837,-134,-379,-1864,35609,-36,34,127,0,0,4592,-791,0,3271,971,90,470,0,2,305,8,233927,0
233960,1257,-440,-13,921,1063,-150,18998,-850,-98,-358,-1848,35603,-12,34,127,0,0,4521,-747,0,3271,971,90,480,0,2,305,8,233959,0
233970,1434,-173,-134,1394,1375,1202,18609,-859,-21,-385,-1992,35603,-28,34,127,0,0,4430,-928,0,3271,971,90,490,0,2,305,8,233959,0
233980,1591,39,-214,1739,1492,2171,18202,-905,-45,-450,-2152,35604,-17,34,127,0,0,4335,-977,0,3271,971,90,500,0,2,305,8,233959,0
233990,1856,433,-280,2211,1605,3945,17765,-985,-101,-461,-2288,35597,-24,34,127,0,0,4245,-873,0,3271,971,90,510,0,2,305,8,233974,0
234000,1896,702,-233,2490,1553,5174,17309,-1016,-98,-318,-2160,35594,-10,34,127,0,0,4177,-670,0,3271,971,90,520,0,2,305,8,233974,0
234010,1931,855,-222,2799,1286,6783,16868,-947,0,-224,-1920,35594,-5,34,127,0,0,4116,-587,0,3271,971,90,530,0,2,305,8,234005,0
234020,1942,649,-209,3074,1061,7811,16460,-872,100,-217,-1696,35604,-28,34,127,0,0,4057,-582,0,3271,971,90,540,0,2,305,8,234005,0
234030,1777,463,-137,3384,577,9211,16087,-793,134,-216,-1496,35602,-46,34,127,0,0,4005,-516,0,3271,971,90,550,0,2,305,8,234005,0
234040,1509,309,-13,3637,157,9979,15750,-710,140,-256,-1360,35601,-32,34,127,0,0,3949,-505,0,3271,971,90,560,0,2,305,8,234068,0
234050,1130,102,101,3973,-420,10951,15451,-639,141,-310,-1248,35599,-47,34,127,0,0,3910,-450,0,3271,971,90,570,0,2,305,8,234068,0
234060,980,-45,145,4123,-640,11572,15180,-584,122,-352,-1120,35594,-24,34,127,0,0,3870,-340,0,3271,971,90,580,0,2,305,8,234068,0
234070,793,-295,129,4286,-813,12524,14933,-519,102,-323,-928,35594,-47,34,127,0,0,3841,-296,0,3271,971,90,590,0,2,305,8,234084,0
234080,663,-432,93,4415,-912,13047,14724,-430,120,-305,-664,35595,-31,34,127,0,0,3839,-65,0,3271,971,90,600,0,2,305,8,234084,0
234090,642,-639,-58,4640,-898,13662,14558,-325,158,-255,-344,35591,-19,34,127,0,0,3834,-10,0,3271,971,90,610,0,2,305,8,234084,0
234100,628,-823,-167,4724,-817,13981,14447,-215,194,-158,-88,35591,-14,34,127,0,0,3843,98,0,3271,971,90,620,0,2,305,8,234099,0
234110,642,-1379,-217,4601,-587,14596,14437,94,307,230,240,35588,0,34,127,0,0,3872,401,0,3271,971,90,630,0,2,305,8,234099,0
234120,409,-1761,-238,4445,-289,14780,14533,253,417,503,600,35600,-10,34,127,0,0,3933,598,0,3271,971,90,640,0,2,305,8,234099,0
234130,170,-2461,-557,4142,503,14453,14708,421,327,515,1040,35609,-13,34,127,0,0,4012,758,0,3271,971,90,650,0,2,305,8,234193,0
234140,301,-3109,-832,3924,1278,13912,14952,584,281,569,1432,35608,-10,34,127,0,0,4101,862,0,3271,971,90,660,0,2,305,8,234193,0
234150,503,-4210,-988,3525,2708,12792,15257,721,250,626,1840,35600,-15,34,127,0,0,4203,1060,0,3271,971,90,670,0,2,305,8,234193,0
234160,529,-4843,-631,3259,3563,11788,15640,888,272,676,2320,35584,-2,34,127,0,0,4338,1389,0,3271,971,90,680,0,2,305,8,234193,0
234170,829,-5286,249,2649,4544,9742,16128,1159,352,930,3144,35577,10,34,127,0,0,4514,1812,0,3271,971,90,690,0,2,305,8,234209,0
234180,1344,-5360,346,2210,5188,8040,16758,1476,495,929,3816,35568,38,34,127,0,0,4687,1697,0,3271,971,90,700,0,2,305,8,234209,0
234190,1917,-4127,-169,1624,6157,5775,17485,1626,455,694,4008,35566,40,34,127,0,0,4839,1521,0,3271,971,90,710,0,2,305,8,234209,0
234200,1844,-3596,-34,1044,6651,4387,18239,1667,209,521,4016,35566,34,34,127,0,0,4965,1307,0,3271,971,90,720,0,2,305,8,234209,0
234210,1814,-2870,-10,477,7487,1641,18986,1617,27,298,3576,35567,34,34,127,0,0,5057,802,0,3271,971,90,730,0,2,305,8,234209,0
234220,2089,-2018,-150,220,7430,-266,19670,1433,-150,82,2664,35574,0,34,127,0,0,5077,175,0,3271,971,90,740,0,2,305,8,234209,0
234230,2317,-589,-121,-235,6316,-2771,20221,1104,-399,-57,1592,35578,-23,34,127,0,0,5084,43,0,3271,971,90,750,0,2,305,8,234209,0
234240,2237,391,-149,-635,5145,-4040,20609,743,-582,-40,880,35592,-42,34,127,0,0,5099,192,0,3271,971,90,760,0,2,305,8,234224,0
234250,2473,632,-356,-1211,3296,-5554,20857,486,-572,150,728,35598,-31,34,127,0,0,5141,373,0,3271,971,90,770,0,2,305,8,234240,0
234260,2314,118,-430,-1294,2086,-6382,21041,376,-362,394,680,35594,-12,34,127,0,0,5169,302,0,3271,971,90,780,0,2,305,8,234240,0
234270,9464,-12965,-1032,-1269,373,-9766,21212,393,-130,339,544,35602,-29,34,127,0,0,5132,-324,0,3271,971,90,790,0,2,305,8,234271,0
234280,2151,-9152,2781,544,2112,-15247,21167,-726,-380,-3910,-5080,35601,-27,34,127,0,0,4436,-7673,0,1910,777,91,8,1,2,360,3,234271,0
234290,2860,2542,-553,-547,3183,-11610,20025,-3105,-2583,-2991,-8272,35551,142,34,127,0,0,4038,-3581,0,1910,777,91,18,1,2,360,3,234271,0
234300,-3432,4578,1791,-3916,1516,-11037,18388,-3786,-3108,-693,-9504,35502,255,34,127,0,0,3622,-4086,0,1910,777,91,28,1,2,360,3,234271,0
234310,3511,-4718,1567,-97,-1689,-7657,16461,-4429,-1454,180,-9480,35480,333,34,127,0,0,3250,-3691,0,1910,777,91,38,1,2,360,3,234287,0
234320,-1549,-2789,-1121,258,-3106,-6801,14541,-4055,-604,67,-8808,35537,173,34,127,0,0,2973,-2576,0,1910,777,91,48,1,2,360,3,234334,0
234330,523,-1381,-650,-896,225,-8282,12885,-3499,566,113,-7512,35594,13,34,127,0,0,2760,-2131,0,1910,777,91,58,1,2,360,3,234334,0
234340,-493,-3034,-2352,-410,283,-8266,11382,-3231,808,22,-6952,35604,-56,34,127,0,0,2500,-2570,0,1910,777,91,68,1,2,360,3,234334,0
234350,1461,-2592,-967,168,-2,-6366,10021,-2872,544,-10,-6008,35587,-22,34,127,0,0,2311,-1867,0,1910,777,91,78,1,2,360,3,234334,0
234360,692,-4349,-472,302,-117,-5870,8840,-2489,617,-17,-5240,35577,-21,34,127,0,0,2139,-1746,0,1910,777,91,88,1,2,360,3,234349,0
234370,1532,-1788,-14,615,442,-6091,7812,-2163,643,-133,-4632,35583,-20,34,127,0,0,1975,-1582,0,1910,777,91,98,1,2,360,3,234349,0
234380,2618,-2381,-61,175,424,-5168,6997,-1938,539,-210,-4176,35591,-8,34,127,0,0,1844,-1274,0,1910,777,91,108,1,2,360,3,234380,0
234390,3640,-2250,545,206,-6,-3047,6186,-1712,425,-113,-3480,35590,-14,34,127,0,0,1761,-807,0,1910,777,91,118,1,2,360,3,234380,0
234400,3248,-2980,1370,135,-588,-1696,5499,-1413,441,-1,-2464,35584,-13,34,127,0,0,1745,-153,0,1910,777,91,128,1,2,360,3,234380,0
234410,2017,-4644,2135,-252,-874,-862,4965,-1068,539,109,-1328,35592,-42,34,127,0,0,1768,203,0,1910,777,91,138,1,2,360,3,234412,0
234420,1434,-5902,2497,-450,-1097,418,4591,-698,605,611,240,35606,-57,34,127,0,0,1885,1318,0,1910,777,91,148,1,2,360,3,234412,0
234430,366,-4100,1785,-928,-1435,1341,4645,444,1184,1417,1784,35600,-39,34,127,0,0,2080,2032,0,1910,777,91,158,1,2,360,3,234412,0
234440,973,-3900,1107,-1243,-1540,1363,5011,979,1449,1447,3248,35588,-30,34,127,0,0,2332,2526,0,1910,777,91,168,1,2,360,3,234412,0
