state_time,accelx,accely,accelz,gyrox,gyroy,gyroz,mot_ang,mot_vel,mot_acc,mot_cur,mot_volt,batt_volt,batt_curr,temperature,status_mn,status_ex,status_re,ank_ang,ank_vel,ank_torque,peak_ank_torque,step_energy,step_count,step_time,gait_state,movement,speed,incline,sys_time,eventFlags
113887,44,-2035,285,-58,-15,-40,14247,-2,-10,107,56,35631,-92,34,127,0,0,3807,10,0,9660,-1069,47,5575,-4,0,79,12,113929,0
113897,48,-2040,291,-57,-6,-48,14248,-3,1,100,56,35637,-90,33,127,0,0,3807,10,0,9660,-1069,47,5585,-4,0,79,12,113929,0
113907,66,-2034,281,-56,-7,-48,14249,5,-1,114,56,35635,-82,33,127,0,0,3807,-10,0,9660,-1069,47,5595,-4,0,79,12,113929,0
113917,71,-2034,284,-56,0,-45,14247,-10,-3,76,64,35635,-88,33,127,0,0,3807,0,0,9660,-1069,47,5605,-4,0,79,12,113929,0
113927,78,-2035,281,-57,-1,-44,14248,-4,-2,95,8,35633,-87,33,127,0,0,3810,21,0,9660,-1069,47,5615,-4,0,79,12,113929,0
113937,80,-2037,283,-58,-4,-32,14249,2,3,159,40,35635,-87,34,127,0,0,3812,10,0,9660,-1069,47,5625,-4,0,79,12,113929,0
113947,33,-2033,281,-53,-2,-28,14247,-1,-7,154,56,35632,-95,33,127,0,0,3810,10,0,9660,-1069,47,5635,-4,0,79,12,113929,0
113957,69,-2040,274,-52,-2,-28,14249,-4,-3,144,8,35636,-97,33,127,0,0,3807,-32,0,9660,-1069,47,5645,-4,0,79,12,113960,0
113967,38,-2043,273,-43,0,-18,14248,16,1,142,48,35647,-100,34,127,0,0,3810,21,0,9660,-1069,47,5655,-4,0,79,12,113960,0
113977,85,-2038,268,-32,3,-17,14248,-9,5,154,40,35652,-95,33,127,0,0,3810,10,0,9660,-1069,47,5665,-4,0,79,12,113960,0
113987,58,-2041,266,-33,14,-3,14250,7,3,159,40,35647,-94,34,127,0,0,3810,0,0,9660,-1069,47,5675,-4,0,79,12,113976,0
113997,76,-2037,280,-33,-24,72,14250,3,5,191,80,35644,-106,34,127,0,0,3814,43,0,9660,-1069,47,5685,-4,0,79,12,113991,0
114007,104,-2039,290,-28,-21,53,14251,0,-2,255,96,35650,-98,34,127,0,0,3816,65,0,9660,-1069,47,5695,-4,0,79,12,113991,0
114017,16,-2039,257,-26,-10,69,14259,21,16,376,128,35652,-105,34,127,0,0,3818,10,0,9660,-1069,47,5705,-4,0,79,12,113991,0
114027,66,-2031,256,-20,-1,63,14260,-9,-4,425,136,35651,-99,33,127,0,0,3823,54,0,9660,-1069,47,5715,-4,0,79,12,114023,0
114037,56,-2026,274,-7,-7,70,14269,25,-2,497,168,35639,-97,33,127,0,0,3827,43,0,9660,-1069,47,5725,-4,0,79,12,114023,0
114047,40,-2032,282,-7,-15,75,14285,52,36,502,200,35635,-92,34,127,0,0,3832,76,0,9660,-1069,47,5735,-4,0,79,12,114023,0
114057,32,-2028,286,-5,-14,87,14328,94,69,342,128,35639,-75,34,127,0,0,3832,32,0,9660,-1069,47,5745,-4,0,79,12,114070,0
114067,27,-2032,286,-2,-12,66,14349,35,-2,353,128,35642,-66,33,127,0,0,3838,76,0,9660,-1069,47,5755,-4,0,79,12,114070,0
114077,16,-2034,288,2,-2,46,14382,84,-17,263,120,35637,-49,33,127,0,0,3840,54,0,9660,-1069,47,5765,-4,0,79,12,114070,0
114087,38,-2029,306,1,-10,38,14402,22,2,269,88,35627,-39,34,127,0,0,3843,32,0,9660,-1069,47,5775,-4,0,79,12,114070,0
114097,3,-2030,303,0,-9,20,14410,15,-58,264,72,35630,-40,34,127,0,0,3845,32,0,9660,-1069,47,5785,-4,0,79,12,114085,0
114107,-3,-2025,295,-12,-6,9,14426,34,-5,257,56,35643,-32,34,127,0,0,3845,-10,0,9660,-1069,47,5795,-4,0,79,12,114101,0
114117,16,-2037,301,-15,-5,-11,14436,12,4,211,64,35655,-39,34,127,0,0,3847,0,0,9660,-1069,47,5805,-4,0,79,12,114101,0
114127,-1,-2039,298,-20,-7,-17,14436,4,-27,265,56,35642,-24,34,127,0,0,3849,10,0,9660,-1069,47,5815,-4,0,79,12,114101,0
114137,4,-2032,302,-30,-3,-38,14437,0,-13,269,56,35640,-35,34,127,0,0,3849,21,0,9660,-1069,47,5825,-4,0,79,12,114116,0
114147,6,-2038,298,-30,-7,-45,14437,-6,2,254,96,35642,-28,33,127,0,0,3849,32,0,9660,-1069,47,5835,-4,0,79,12,114163,0
114157,18,-2040,298,-36,-13,-53,14440,4,2,279,128,35649,-27,34,127,0,0,3847,-21,0,9660,-1069,47,5845,-4,0,79,12,114163,0
114167,28,-2034,302,-45,-12,-64,14439,5,-2,259,96,35641,-28,33,127,0,0,3849,10,0,9660,-1069,47,5855,-4,0,79,12,114163,0
114177,55,-2036,291,-45,-9,-66,14439,-14,-3,247,48,35627,-38,33,127,0,0,3849,10,0,9660,-1069,47,5865,-4,0,79,12,114163,0
114187,19,-2034,295,-43,-11,-66,14442,24,7,273,40,35626,-49,34,127,0,0,3847,-21,0,9660,-1069,47,5875,-4,0,79,12,114179,0
114197,23,-2028,293,-41,-19,-55,14439,-6,2,267,96,35640,-38,33,127,0,0,3847,-32,0,9660,-1069,47,5885,-4,0,79,12,114179,0
114207,57,-2030,292,-56,-16,-65,14438,-13,-7,210,64,35637,-32,33,127,0,0,3847,0,0,9660,-1069,47,5895,-4,0,79,12,114194,0
114217,28,-2031,284,-46,-21,-63,14439,5,3,220,96,35645,-34,34,127,0,0,3847,10,0,9660,-1069,47,5905,-4,0,79,12,114226,0
114227,61,-2031,282,-52,-10,-66,14440,0,10,222,56,35641,-32,33,127,0,0,3849,0,0,9660,-1069,47,5915,-4,0,79,12,114226,0
114237,55,-2032,286,-45,-15,-56,14440,4,-3,244,56,35646,-34,33,127,0,0,3847,-10,0,9660,-1069,47,5925,-4,0,79,12,114226,0
114247,58,-2025,288,-44,-9,-58,14439,1,0,223,96,35636,-34,33,127,0,0,3849,32,0,9660,-1069,47,5935,-4,0,79,12,114226,0
114257,52,-2024,288,-47,-15,-57,14439,-9,1,206,72,35634,-37,34,127,0,0,3845,-10,0,9660,-1069,47,5945,-4,0,79,12,114257,0
114267,53,-2030,282,-44,-13,-52,14440,9,0,169,24,35635,-41,33,127,0,0,3847,0,0,9660,-1069,47,5955,-4,0,79,12,114273,0
114277,56,-2026,286,-41,-12,-52,14439,0,-1,175,72,35637,-39,34,127,0,0,3845,21,0,9660,-1069,47,5965,-4,0,79,12,114273,0
114287,84,-2031,289,-42,-7,-50,14439,-4,3,172,64,35635,-40,33,127,0,0,3847,10,0,9660,-1069,47,5975,-4,0,79,12,114273,0
114297,38,-2022,289,-40,-16,-41,14439,7,4,166,88,35634,-43,33,127,0,0,3845,0,0,9660,-1069,47,5985,-4,0,79,12,114288,0
114307,82,-2029,286,-41,-7,-49,14439,7,2,156,72,35640,-43,34,127,0,0,3845,0,0,9660,-1069,47,5995,-4,0,79,12,114288,0
114317,0,-2034,290,-43,-15,-46,14437,0,-2,180,64,35640,-43,33,127,0,0,3845,0,0,9660,-1069,47,6005,-4,0,79,12,114304,0
114327,28,-2033,293,-43,-15,-49,14437,-8,-4,144,32,35640,-37,34,127,0,0,3845,21,0,9660,-1069,47,6015,-4,0,79,12,114319,0
114337,23,-2034,295,-48,-13,-48,14440,2,4,183,56,35637,-53,33,127,0,0,3845,-21,0,9660,-1069,47,6025,-4,0,79,12,114319,0
114347,26,-2028,297,-48,-13,-56,14438,-9,-3,162,72,35635,-47,33,127,0,0,3847,21,0,9660,-1069,47,6035,-4,0,79,12,114335,0
114357,30,-2035,295,-52,-9,-55,14439,0,-7,166,72,35637,-47,34,127,0,0,3843,-10,0,9660,-1069,47,6045,-4,0,79,12,114398,0
114367,59,-2039,292,-56,-14,-65,14437,-8,0,148,64,35633,-32,33,127,0,0,3845,0,0,9660,-1069,47,6055,-4,0,79,12,114398,0
114377,17,-2037,291,-54,-17,-61,14438,-12,-5,178,32,35624,-31,33,127,0,0,3847,-10,0,9660,-1069,47,6065,-4,0,79,12,114398,0
114387,6,-2035,290,-54,-16,-55,14442,18,4,226,56,35618,-47,34,127,0,0,3845,-54,0,9660,-1069,47,6075,-4,0,79,12,114398,0
114397,22,-2037,288,-60,-10,-62,14436,-3,-3,163,40,35614,-40,33,127,0,0,3847,21,0,9660,-1069,47,6085,-4,0,79,12,114398,0
114407,33,-2033,291,-59,-14,-66,14440,7,1,196,72,35623,-45,33,127,0,0,3845,-43,0,9660,-1069,47,6095,-4,0,79,12,114413,0
114417,41,-2033,294,-53,-13,-64,14436,-2,-1,155,40,35622,-38,33,127,0,0,3847,32,0,9660,-1069,47,6105,-4,0,79,12,114413,0
114427,45,-2025,282,-57,-15,-61,14440,0,1,187,24,35621,-30,33,127,0,0,3845,-32,0,9660,-1069,47,6115,-4,0,79,12,114413,0
114437,36,-2029,286,-62,-17,-62,14437,4,-1,150,40,35634,-44,34,127,0,0,3845,-10,0,9660,-1069,47,6125,-4,0,79,12,114429,0
114447,18,-2032,281,-49,-8,-66,14437,0,-3,136,8,35636,-38,34,127,0,0,3843,-32,0,9660,-1069,47,6135,-4,0,79,12,114429,0
114457,29,-2036,284,-54,-11,-61,14439,14,8,125,40,35636,-38,33,127,0,0,3843,-21,0,9660,-1069,47,6145,-4,0,79,12,114460,0
114467,51,-2037,285,-55,-16,-70,14435,-11,3,87,24,35638,-41,33,127,0,0,3843,-32,0,9660,-1069,47,6155,-4,0,79,12,114460,0
114477,38,-2036,286,-53,-17,-62,14437,5,4,43,32,35630,-45,34,127,0,0,3840,-10,0,9660,-1069,47,6165,-4,0,79,12,114460,0
114487,47,-2034,285,-52,-13,-69,14434,-4,-3,15,0,35630,-57,33,127,0,0,3845,32,0,9660,-1069,47,6175,-4,0,79,12,114476,0
114497,69,-2031,292,-57,-14,-73,14436,-3,4,43,32,35630,-35,34,127,0,0,3843,32,0,9660,-1069,47,6185,-4,0,79,12,114554,0
114507,44,-2028,285,-56,-12,-73,14435,-2,-4,39,32,35638,-35,33,127,0,0,3843,0,0,9660,-1069,47,6195,-4,0,79,12,114554,0
114517,53,-2024,292,-57,-16,-76,14432,-12,-8,-5,0,35646,-30,33,127,0,0,3840,21,0,9660,-1069,47,6205,-4,0,79,12,114554,0
114527,40,-2035,281,-54,-10,-73,14433,0,-3,-6,0,35636,-31,34,127,0,0,3838,-32,0,9660,-1069,47,6215,-4,0,79,12,114569,0
114537,38,-2033,287,-55,-10,-81,14430,-11,-4,-66,-16,35630,-28,33,127,0,0,3840,10,0,9660,-1069,47,6225,-4,0,79,12,114569,0
114547,37,-2035,287,-51,-8,-73,14431,5,1,-36,-16,35618,-23,33,127,0,0,3836,-32,0,9660,-1069,47,6235,-4,0,79,12,114569,0
114557,37,-2033,289,-58,-7,-69,14426,-13,-1,-124,8,35617,-38,34,127,0,0,3834,-10,0,9660,-1069,47,6245,-4,0,79,12,114569,0
114567,75,-2029,284,-56,-9,-70,14425,-13,-2,-230,-56,35620,-30,33,127,0,0,3832,-21,0,9660,-1069,47,6255,-4,0,79,12,114569,0
114577,21,-2034,285,-50,-11,-68,14420,4,0,-157,-8,35625,-29,33,127,0,0,3834,-10,0,9660,-1069,47,6265,-4,0,79,12,114569,0
114587,71,-2029,281,-59,-15,-58,14421,-10,6,-231,-80,35629,-37,33,127,0,0,3836,21,0,9660,-1069,47,6275,-4,0,79,12,114569,0
114597,60,-2029,280,-55,-8,-56,14418,0,-1,-193,-64,35641,-31,34,127,0,0,3832,-21,0,9660,-1069,47,6285,-4,0,79,12,114585,0
114607,54,-2026,276,-58,-4,-57,14415,0,-3,-189,-64,35647,-42,34,127,0,0,3832,-21,0,9660,-1069,47,6295,-4,0,79,12,114601,0
114617,57,-2028,282,-49,-6,-49,14415,-4,3,-217,-64,35650,-35,34,127,0,0,3832,-10,0,9660,-1069,47,6305,-4,0,79,12,114616,0
114627,39,-2040,283,-44,-4,-48,14413,0,0,-235,-48,35642,-24,33,127,0,0,3832,10,0,9660,-1069,47,6315,-4,0,79,12,114616,0
114637,55,-2040,284,-44,-2,-50,14412,-4,3,-243,-56,35626,-26,33,127,0,0,3832,0,0,9660,-1069,47,6325,-4,0,79,12,114632,0
114647,41,-2036,283,-50,-8,-43,14408,-6,-4,-217,-48,35628,-24,33,127,0,0,3832,0,0,9660,-1069,47,6335,-4,0,79,12,114632,0
114657,45,-2037,281,-48,-5,-40,14408,4,0,-180,-40,35632,-37,33,127,0,0,3832,0,0,9660,-1069,47,6345,-4,0,79,12,114632,0
114667,46,-2038,286,-48,0,-41,14407,-2,3,-181,-40,35641,-30,33,127,0,0,3832,0,0,9660,-1069,47,6355,-4,0,79,12,114663,0
114677,39,-2038,279,-42,-11,-38,14407,-2,-2,-177,-40,35636,-32,33,127,0,0,3832,0,0,9660,-1069,47,6365,-4,0,79,12,114663,0
114687,48,-2033,282,-45,-5,-34,14408,0,10,-177,-40,35635,-31,34,127,0,0,3832,10,0,9660,-1069,47,6375,-4,0,79,12,114679,0
114697,45,-2040,295,-51,-8,-43,14407,-2,0,-181,-40,35634,-31,34,127,0,0,3832,0,0,9660,-1069,47,6385,-4,0,79,12,114679,0
114707,30,-2031,286,-44,-4,-37,14406,0,-3,-175,-40,35638,-29,33,127,0,0,3832,0,0,9660,-1069,47,6395,-4,0,79,12,114710,0
114717,45,-2039,288,-51,-8,-37,14408,4,0,-175,-40,35644,-24,34,127,0,0,3832,0,0,9660,-1069,47,6405,-4,0,79,12,114710,0
114727,41,-2031,293,-48,-3,-40,14408,0,4,-175,-40,35642,-28,34,127,0,0,3832,0,0,9660,-1069,47,6415,-4,0,79,12,114726,0
114737,42,-2034,287,-56,-13,-33,14407,-1,-4,-178,-40,35639,-30,34,127,0,0,3832,0,0,9660,-1069,47,6425,-4,0,79,12,114726,0
114747,37,-2029,283,-51,-10,-37,14408,7,1,-199,-72,35633,-38,34,127,0,0,3832,0,0,9660,-1069,47,6435,-4,0,79,12,114741,0
114757,59,-2029,281,-53,-2,-40,14404,-3,1,-169,-40,35640,-47,33,127,0,0,3832,0,0,9660,-1069,47,6445,-4,0,79,12,114741,0
114767,50,-2030,280,-50,-6,-36,14403,-6,-1,-187,-32,35634,-33,33,127,0,0,3832,21,0,9660,-1069,47,6455,-4,0,79,12,114741,0
114777,30,-2030,286,-52,-10,-32,14403,2,0,-143,-32,35637,-40,34,127,0,0,3832,-10,0,9660,-1069,47,6465,-4,0,79,12,114772,0
114787,31,-2040,284,-51,-3,-38,14401,1,0,-138,-32,35641,-17,34,127,0,0,3832,0,0,9660,-1069,47,6475,-4,0,79,12,114772,0
114797,43,-2039,285,-47,1,-32,14402,0,2,-141,-32,35641,-16,34,127,0,0,3832,0,0,9660,-1069,47,6485,-4,0,79,12,114788,0
114807,35,-2029,283,-48,-5,-32,14402,0,2,-138,-32,35642,-15,34,127,0,0,3832,0,0,9660,-1069,47,6495,-4,0,79,12,114804,0
114817,42,-2036,287,-52,-6,-34,14401,-7,-2,-160,-32,35633,-23,34,127,0,0,3832,0,0,9660,-1069,47,6505,-4,0,79,12,114804,0
114827,37,-2031,281,-57,-6,-36,14400,-2,-13,-166,-16,35640,-30,33,127,0,0,3832,10,0,9660,-1069,47,6515,-4,0,79,12,114804,0
114837,42,-2036,287,-53,-2,-39,14401,2,3,-128,-24,35640,-18,33,127,0,0,3832,0,0,9660,-1069,47,6525,-4,0,79,12,114851,0
114847,29,-2031,290,-52,-8,-40,14401,0,0,-130,-24,35639,-27,34,127,0,0,3832,0,0,9660,-1069,47,6535,-4,0,79,12,114851,0
114857,41,-2029,283,-56,-16,-41,14400,-9,-4,-143,-24,35634,-41,34,127,0,0,3832,10,0,9660,-1069,47,6545,-4,0,79,12,114851,0
114867,63,-2032,281,-54,-8,-35,14401,0,-1,-129,-32,35637,-50,34,127,0,0,3832,0,0,9660,-1069,47,6555,-4,0,79,12,114866,0
114877,30,-2028,282,-55,-14,-40,14401,-1,-3,-121,-32,35637,-48,33,127,0,0,3832,0,0,9660,-1069,47,6565,-4,0,79,12,114866,0
114887,52,-2033,285,-58,-8,-43,14400,-5,-10,-143,-24,35637,-33,33,127,0,0,3834,21,0,9660,-1069,47,6575,-4,0,79,12,114913,0
114897,58,-2030,285,-51,-13,-39,14402,2,1,-120,-32,35638,-27,34,127,0,0,3834,21,0,9660,-1069,47,6585,-4,0,79,12,114913,0
114907,28,-2034,287,-53,-13,-39,14403,12,7,-101,-32,35639,-30,34,127,0,0,3832,10,0,9660,-1069,47,6595,-4,0,79,12,114913,0
114917,33,-2042,282,-61,-10,-47,14401,-10,-3,-132,-24,35633,-36,34,127,0,0,3832,0,0,9660,-1069,47,6605,-4,0,79,12,114913,0
114927,27,-2031,285,-56,-12,-44,14401,-5,0,-137,-24,35632,-40,33,127,0,0,3832,0,0,9660,-1069,47,6615,-4,0,79,12,114913,0
114937,40,-2027,288,-64,-9,-44,14402,7,0,-100,-40,35632,-34,33,127,0,0,3832,-10,0,9660,-1069,47,6625,-4,0,79,12,114929,0
114947,29,-2030,285,-65,-16,-44,14402,6,-1,-73,0,35649,-37,34,127,0,0,3832,-10,0,9660,-1069,47,6635,-4,0,79,12,114960,0
114957,27,-2031,288,-64,-12,-43,14399,-21,-4,-135,-24,35669,-27,34,127,0,0,3832,0,0,9660,-1069,47,6645,-4,0,79,12,114960,0
114967,40,-2036,276,-62,-12,-40,14401,6,0,-126,-24,35662,-8,34,127,0,0,3832,0,0,9660,-1069,47,6655,-4,0,79,12,114960,0
114977,40,-2036,274,-55,-6,-44,14400,-9,5,-126,-24,35645,-15,33,127,0,0,3832,0,0,9660,-1069,47,6665,-4,0,79,12,114960,0
114987,42,-2034,279,-51,-7,-46,14401,-3,-5,-125,-24,35629,-28,33,127,0,0,3832,0,0,9660,-1069,47,6675,-4,0,79,12,115022,0
114997,48,-2041,281,-53,-7,-34,14400,-3,-2,-122,-24,35638,-45,34,127,0,0,3832,0,0,9660,-1069,47,6685,-4,0,79,12,115022,0
115007,46,-2032,280,-52,-6,-39,14402,3,2,-124,-24,35647,-40,33,127,0,0,3832,0,0,9660,-1069,47,6695,-4,0,79,12,115022,0
115017,42,-2027,275,-38,-7,-35,14402,8,5,-90,-40,35643,-30,33,127,0,0,3834,21,0,9660,-1069,47,6705,-4,0,79,12,115022,0
115027,37,-2034,279,-42,-9,-26,14403,-3,3,-66,0,35634,-39,34,127,0,0,3832,0,0,9660,-1069,47,6715,-4,0,79,12,115022,0
115037,23,-2036,276,-42,-7,-36,14402,0,-8,-64,-16,35639,-32,34,127,0,0,3832,-10,0,9660,-1069,47,6725,-4,0,79,12,115022,0
115047,35,-2030,280,-50,-8,-32,14402,-9,-3,-111,-40,35638,-42,33,127,0,0,3832,-10,0,9660,-1069,47,6735,-4,0,79,12,115038,0
115057,38,-2034,291,-40,-7,-35,14399,-3,-3,-105,8,35648,-33,33,127,0,0,3832,0,0,9660,-1069,47,6745,-4,0,79,12,115069,0
115067,47,-2028,288,-43,-2,-36,14401,-9,2,-120,-24,35649,-30,34,127,0,0,3834,21,0,9660,-1069,47,6755,-4,0,79,12,115069,0
115077,52,-2036,285,-51,-8,-40,14403,0,1,-86,-40,35651,-36,34,127,0,0,3832,0,0,9660,-1069,47,6765,-4,0,79,12,115069,0
115087,36,-2034,286,-45,-4,-44,14402,-1,0,-76,-40,35644,-38,34,127,0,0,3834,0,0,9660,-1069,47,6775,-4,0,79,12,115069,0
115097,41,-2032,286,-51,-8,-44,14402,0,-1,-61,-8,35635,-31,33,127,0,0,3834,21,0,9660,-1069,47,6785,-4,0,79,12,115085,0
115107,42,-2030,281,-56,-9,-48,14405,7,2,-47,-8,35648,-24,33,127,0,0,3832,-21,0,9660,-1069,47,6795,-4,0,79,12,115101,0
115117,35,-2035,277,-48,-11,-56,14400,-15,-5,-124,-24,35651,-25,34,127,0,0,3834,32,0,9660,-1069,47,6805,-4,0,79,12,115116,0
115127,42,-2037,281,-51,-11,-57,14405,7,7,-79,-48,35648,-37,33,127,0,0,3832,-32,0,9660,-1069,47,6815,-4,0,79,12,115116,0
115137,19,-2036,283,-53,-16,-51,14400,5,0,-68,16,35640,-27,34,127,0,0,3832,-21,0,9660,-1069,47,6825,-4,0,79,12,115116,0
115147,51,-2030,282,-57,-13,-65,14404,10,3,-62,-48,35634,-35,33,127,0,0,3832,-54,0,9660,-1069,47,6835,-4,0,79,12,115147,0
115157,44,-2040,279,-56,-15,-59,14398,-6,2,-81,-32,35641,-29,33,127,0,0,3832,-10,0,9660,-1069,47,6845,-4,0,79,12,115147,0
115167,34,-2038,283,-57,-13,-63,14400,0,1,-101,8,35640,-37,33,127,0,0,3832,10,0,9660,-1069,47,6855,-4,0,79,12,115147,0
115177,32,-2036,280,-62,-17,-62,14402,-4,12,-99,8,35634,-33,33,127,0,0,3834,21,0,9660,-1069,47,6865,-4,0,79,12,115194,0
115187,33,-2038,277,-60,-13,-60,14403,6,5,-37,40,35630,-22,34,127,0,0,3834,10,0,9660,-1069,47,6875,-4,0,79,12,115194,0
115197,53,-2033,280,-62,-7,-57,14402,0,0,-91,-32,35633,-40,34,127,0,0,3832,-21,0,9660,-1069,47,6885,-4,0,79,12,115194,0
115207,28,-2037,278,-57,-5,-58,14400,12,-8,-91,-24,35637,-31,34,127,0,0,3832,-10,0,9660,-1069,47,6895,-4,0,79,12,115194,0
115217,75,-2031,279,-55,-2,-64,14400,0,7,-67,0,35634,-33,33,127,0,0,3834,10,0,9660,-1069,47,6905,-4,0,79,12,115194,0
115227,35,-2033,285,-56,-9,-59,14400,2,3,-51,8,35644,-25,33,127,0,0,3832,-10,0,9660,-1069,47,6915,-4,0,79,12,115288,0
115237,66,-2030,279,-57,-4,-57,14399,-15,-6,-68,0,35647,-11,33,127,0,0,3832,-10,0,9660,-1069,47,6925,-4,0,79,12,115288,0
115247,31,-2037,272,-61,-8,-56,14401,0,-5,-87,-24,35654,-18,34,127,0,0,3832,-21,0,9660,-1069,47,6935,-4,0,79,12,115288,0
115257,63,-2032,286,-57,-1,-54,14399,1,0,-87,-32,35641,-19,33,127,0,0,3832,0,0,9660,-1069,47,6945,-4,0,79,12,115288,0
115267,59,-2026,283,-62,-5,-53,14400,-10,5,-116,-24,35629,-27,33,127,0,0,3832,0,0,9660,-1069,47,6955,-4,0,79,12,115304,0
115277,48,-2031,277,-57,-13,-51,14398,0,-1,-125,-24,35619,-28,33,127,0,0,3832,10,0,9660,-1069,47,6965,-4,0,79,12,115304,0
115287,61,-2029,277,-58,-9,-51,14400,2,1,-99,-24,35620,-26,34,127,0,0,3832,-21,0,9660,-1069,47,6975,-4,0,79,12,115304,0
115297,43,-2038,277,-60,-9,-48,14399,1,-5,-114,-24,35621,-42,33,127,0,0,3832,0,0,9660,-1069,47,6985,-4,0,79,12,115304,0
115307,48,-2035,278,-57,-8,-49,14398,-1,0,-123,-24,35629,-41,34,127,0,0,3832,0,0,9660,-1069,47,6995,-4,0,79,12,115304,0
115317,42,-2036,281,-63,-2,-45,14398,-6,3,-100,16,35626,-41,33,127,0,0,3832,0,0,9660,-1069,47,7005,-4,0,79,12,115304,0
115327,44,-2041,275,-64,-12,-49,14401,12,-2,-93,-24,35639,-34,33,127,0,0,3829,-32,0,9660,-1069,47,7015,-4,0,79,12,115304,0
115337,36,-2038,273,-61,-4,-50,14399,-1,-3,-159,-56,35655,-20,34,127,0,0,3832,10,0,9660,-1069,47,7025,-4,0,79,12,115350,0
115347,56,-2032,273,-55,-6,-43,14397,0,-3,-133,-16,35667,-23,33,127,0,0,3832,0,0,9660,-1069,47,7035,-4,0,79,12,115350,0
115357,34,-2042,278,-55,-11,-43,14398,-1,3,-122,-24,35650,-15,33,127,0,0,3832,0,0,9660,-1069,47,7045,-4,0,79,12,115350,0
115367,39,-2038,276,-57,-10,-44,14398,-4,-4,-100,16,35628,-33,34,127,0,0,3832,0,0,9660,-1069,47,7055,-4,0,79,12,115350,0
115377,26,-2034,277,-57,-12,-44,14399,0,-3,-117,-24,35621,-17,33,127,0,0,3832,0,0,9660,-1069,47,7065,-4,0,79,12,115382,0
115387,33,-2035,283,-54,-12,-47,14399,2,-1,-125,-24,35629,-24,34,127,0,0,3834,21,0,9660,-1069,47,7075,-4,0,79,12,115382,0
115397,56,-2040,281,-57,-16,-46,14400,7,4,-94,-24,35629,-28,33,127,0,0,3832,0,0,9660,-1069,47,7085,-4,0,79,12,115382,0
115407,46,-2038,279,-61,-6,-51,14397,-4,-1,-122,-16,35624,-34,33,127,0,0,3834,21,0,9660,-1069,47,7095,-4,0,79,12,115382,0
115417,46,-2031,280,-60,-16,-50,14398,0,2,-96,-24,35623,-51,34,127,0,0,3832,0,0,9660,-1069,47,7105,-4,0,79,12,115413,0
115427,46,-2030,275,-59,-10,-56,14398,4,2,-122,-24,35626,-52,33,127,0,0,3832,0,0,9660,-1069,47,7115,-4,0,79,12,115429,0
115437,47,-2036,283,-58,-8,-55,14397,-7,-2,-147,-8,35629,-47,34,127,0,0,3832,32,0,9660,-1069,47,7125,-4,0,79,12,115429,0
115447,56,-2033,277,-61,-12,-48,14399,0,3,-111,-24,35623,-41,33,127,0,0,3832,10,0,9660,-1069,47,7135,-4,0,79,12,115429,0
115457,47,-2043,274,-62,-5,-58,14398,-3,-3,-118,-24,35623,-33,33,127,0,0,3832,0,0,9660,-1069,47,7145,-4,0,79,12,115444,0
115467,34,-2034,271,-60,-11,-52,14398,6,-5,-124,-24,35629,-35,34,127,0,0,3832,0,0,9660,-1069,47,7155,-4,0,79,12,115475,0
115477,37,-2036,276,-59,-8,-56,14398,3,0,-122,-24,35640,-21,33,127,0,0,3832,0,0,9660,-1069,47,7165,-4,0,79,12,115475,0
115487,43,-2034,275,-57,-4,-51,14398,2,1,-120,-24,35629,-22,33,127,0,0,3832,0,0,9660,-1069,47,7175,-4,0,79,12,115475,0
115497,41,-2035,273,-59,-11,-50,14398,0,1,-132,-56,35626,-25,33,127,0,0,3832,-10,0,9660,-1069,47,7185,-4,0,79,12,115491,0
115507,28,-2035,270,-57,-12,-50,14397,-3,-3,-110,-16,35631,-34,34,127,0,0,3832,0,0,9660,-1069,47,7195,-4,0,79,12,115491,0
115517,38,-2033,280,-62,-13,-54,14397,-6,-4,-107,-16,35634,-40,33,127,0,0,3832,0,0,9660,-1069,47,7205,-4,0,79,12,115491,0
115527,41,-2036,278,-57,-12,-57,14396,-6,-3,-122,-16,35632,-32,33,127,0,0,3832,0,0,9660,-1069,47,7215,-4,0,79,12,115522,0
115537,46,-2036,282,-59,-14,-52,14398,5,1,-123,-16,35633,-42,34,127,0,0,3829,-21,0,9660,-1069,47,7225,-4,0,79,12,115538,0
115547,45,-2035,273,-57,-10,-55,14397,-1,-1,-125,-16,35635,-38,34,127,0,0,3832,0,0,9660,-1069,47,7235,-4,0,79,12,115538,0
115557,40,-2040,268,-59,-12,-53,14397,0,0,-113,-16,35633,-34,34,127,0,0,3832,-10,0,9660,-1069,47,7245,-4,0,79,12,115538,0
115567,33,-2037,276,-58,-12,-55,14397,1,0,-138,-40,35632,-32,33,127,0,0,3832,0,0,9660,-1069,47,7255,-4,0,79,12,115569,0
115577,49,-2033,270,-59,-5,-51,14397,5,5,-104,-8,35639,-27,34,127,0,0,3829,-10,0,9660,-1069,47,7265,-4,0,79,12,115569,0
115587,60,-2036,276,-53,-5,-62,14396,4,3,-115,-48,35642,-43,34,127,0,0,3832,0,0,9660,-1069,47,7275,-4,0,79,12,115569,0
115597,48,-2033,268,-53,-4,-63,14396,-3,0,-144,-40,35631,-50,33,127,0,0,3829,-10,0,9660,-1069,47,7285,-4,0,79,12,115585,0
115607,58,-2026,277,-56,-7,-63,14392,-12,-6,-186,-32,35630,-38,34,127,0,0,3832,43,0,9660,-1069,47,7295,-4,0,79,12,115694,0
115617,46,-2032,272,-50,-13,-50,14395,7,4,-135,-32,35640,-53,34,127,0,0,3829,-10,0,9660,-1069,47,7305,-4,0,79,12,115694,0
115627,48,-2040,269,-48,-10,-51,14391,-10,-3,-170,-32,35642,-45,34,127,0,0,3829,21,0,9660,-1069,47,7315,-4,0,79,12,115694,0
115637,62,-2037,266,-51,-10,-50,14391,5,-1,-134,-40,35634,-58,34,127,0,0,3829,10,0,9660,-1069,47,7325,-4,0,79,12,115694,0
115647,50,-2038,266,-45,-6,-51,14391,-7,10,-157,-64,35623,-34,33,127,0,0,3827,-32,0,9660,-1069,47,7335,-4,0,79,12,115694,0
115657,62,-2031,269,-51,0,-47,14386,-12,-14,-168,-24,35617,-33,33,127,0,0,3829,21,0,9660,-1069,47,7345,-4,0,79,12,115710,0
115667,62,-2032,263,-43,-3,-41,14389,1,12,-126,-24,35625,-47,33,127,0,0,3829,-10,0,9660,-1069,47,7355,-4,0,79,12,115710,0
115677,47,-2042,267,-43,-6,-36,14388,-3,2,-179,-48,35628,-41,34,127,0,0,3827,10,0,9660,-1069,47,7365,-4,0,79,12,115710,0
115687,71,-2025,271,-37,-7,-41,14387,0,0,-226,-32,35631,-45,33,127,0,0,3827,10,0,9660,-1069,47,7375,-4,0,79,12,115710,0
115697,37,-2040,272,-43,-4,-37,14384,-3,0,-177,-56,35631,-28,33,127,0,0,3827,10,0,9660,-1069,47,7385,-4,0,79,12,115710,0
115707,31,-2030,274,-35,-14,-36,14386,-1,-1,-193,-40,35626,-25,34,127,0,0,3827,10,0,9660,-1069,47,7395,-4,0,79,12,115710,0
115717,55,-2044,275,-42,-3,-39,14387,6,2,-146,-16,35630,-24,33,127,0,0,3827,0,0,9660,-1069,47,7405,-4,0,79,12,115710,0
115727,35,-2031,271,-39,-9,-39,14386,4,6,-141,-16,35642,-12,33,127,0,0,3827,-10,0,9660,-1069,47,7415,-4,0,79,12,115710,0
115737,15,-2035,274,-39,-9,-36,14386,-2,1,-143,-56,35656,-14,34,127,0,0,3827,-21,0,9660,-1069,47,7425,-4,0,79,12,115788,0
115747,52,-2036,272,-37,-5,-38,14385,2,-2,-147,-8,35668,-21,34,127,0,0,3827,-10,0,9660,-1069,47,7435,-4,0,79,12,115788,0
115757,26,-2039,277,-41,-10,-46,14385,1,-2,-155,-16,35659,-42,34,127,0,0,3829,21,0,9660,-1069,47,7445,-4,0,79,12,115788,0
115767,32,-2040,278,-40,-12,-40,14385,-16,-4,-151,-56,35649,-54,33,127,0,0,3827,0,0,9660,-1069,47,7455,-4,0,79,12,115788,0
115777,33,-2036,273,-41,-6,-50,14385,-2,-8,-143,-16,35636,-43,34,127,0,0,3829,10,0,9660,-1069,47,7465,-4,0,79,12,115788,0
115787,15,-2033,267,-44,-22,-44,14384,-13,-5,-155,-8,35640,-41,33,127,0,0,3827,21,0,9660,-1069,47,7475,-4,0,79,12,115788,0
115797,27,-2031,278,-44,-12,-50,14384,-2,-5,-163,-8,35656,-37,33,127,0,0,3827,10,0,9660,-1069,47,7485,-4,0,79,12,115788,0
115807,53,-2032,275,-45,-8,-54,14387,1,7,-149,-56,35663,-54,34,127,0,0,3829,-10,0,9660,-1069,47,7495,-4,0,79,12,115803,0
115817,67,-2030,277,-45,-5,-47,14387,15,-1,-83,-24,35659,-48,33,127,0,0,3829,-10,0,9660,-1069,47,7505,-4,0,79,12,115803,0
115827,37,-2028,284,-46,-8,-48,14385,-10,-2,-124,-8,35651,-34,33,127,0,0,3827,0,0,9660,-1069,47,7515,-4,0,79,12,115803,0
115837,28,-2041,272,-44,-17,-47,14384,-1,-4,-173,-8,35656,-32,34,127,0,0,3827,0,0,9660,-1069,47,7525,-4,0,79,12,115850,0
115847,40,-2034,270,-42,-15,-45,14386,1,12,-165,-40,35658,-11,34,127,0,0,3827,-32,0,9660,-1069,47,7535,-4,0,79,12,115850,0
115857,41,-2025,267,-44,0,-50,14384,0,-5,-131,-16,35655,-16,33,127,0,0,3829,0,0,9660,-1069,47,7545,-4,0,79,12,115850,0
115867,24,-2030,285,-47,-9,-51,14386,-4,1,-110,-8,35642,-6,33,127,0,0,3827,-21,0,9660,-1069,47,7555,-4,0,79,12,115866,0
115877,47,-2031,276,-54,-8,-54,14385,-1,-2,-129,-16,35634,-14,33,127,0,0,3827,-10,0,9660,-1069,47,7565,-4,0,79,12,115866,0
115887,46,-2035,276,-47,-12,-55,14385,-6,5,-161,-48,35641,-22,34,127,0,0,3827,0,0,9660,-1069,47,7575,-4,0,79,12,115882,0
115897,57,-2034,268,-48,-8,-44,14386,0,4,-152,-8,35647,-9,34,127,0,0,3827,-10,0,9660,-1069,47,7585,-4,0,79,12,115882,0
115907,63,-2026,263,-40,-3,-50,14386,-1,4,-159,-48,35647,-11,33,127,0,0,3825,-43,0,9660,-1069,47,7595,-4,0,79,12,115882,0
115917,26,-2028,263,-36,-13,-44,14383,-6,-7,-203,-40,35650,-15,33,127,0,0,3829,21,0,9660,-1069,47,7605,-4,0,79,12,115913,0
115927,40,-2027,277,-33,-12,-36,14385,0,5,-159,-40,35646,-31,33,127,0,0,3827,10,0,9660,-1069,47,7615,-4,0,79,12,115928,0
115937,38,-2032,277,-42,-12,-45,14385,0,3,-169,-8,35646,-35,33,127,0,0,3829,32,0,9660,-1069,47,7625,-4,0,79,12,115928,0
115947,52,-2040,263,-37,-13,-48,14387,-2,4,-136,-56,35640,-31,34,127,0,0,3829,-65,0,9660,-1069,47,7635,-4,0,79,12,115928,0
115957,0,-2036,265,-38,-15,-27,14379,15,-13,-85,-32,35639,-39,34,127,0,0,3827,0,0,9660,-1069,47,7645,-4,0,0,0,116022,0
115967,78,-2046,276,-35,-4,-40,14381,-7,10,-161,0,35653,-37,33,127,0,0,3829,21,0,9660,-1069,47,7655,-4,0,0,0,116022,0
115977,38,-2067,271,-32,-23,-44,14381,-7,7,-161,-32,35653,-40,33,127,0,0,3827,21,0,9660,-1069,47,7665,-4,0,0,0,116038,0
115987,33,-2063,270,-28,-14,-45,14380,2,1,-182,-32,35651,-19,33,127,0,0,3827,-10,0,9660,-1069,47,7675,-4,0,0,0,116038,0
115997,39,-2056,266,-32,7,-45,14380,-1,-1,-191,-16,35631,-10,33,127,0,0,3827,10,0,9660,-1069,47,7685,-4,0,0,0,116038,0
116007,50,-2056,272,-23,-7,-51,14383,9,6,-127,-48,35631,-28,34,127,0,0,3825,-54,0,9660,-1069,47,7695,-4,0,0,0,116038,0
116017,31,-2040,268,-22,-5,-51,14380,3,-2,-119,-8,35632,-27,33,127,0,0,3827,-10,0,9660,-1069,47,7705,-4,0,0,0,116038,0
116027,35,-2042,273,-29,-3,-54,14382,-5,-1,-142,-40,35632,-28,33,127,0,0,3827,0,0,9660,-1069,47,7715,-4,0,0,0,116038,0
116037,37,-2024,274,-32,-4,-55,14385,7,11,-94,-8,35629,-23,33,127,0,0,3827,-32,0,9660,-1069,47,7725,-4,0,0,0,116038,0
116047,23,-2013,275,-25,-3,-63,14383,8,6,-96,-48,35624,-19,33,127,0,0,3829,-21,0,9660,-1069,47,7735,-4,0,0,0,116038,0
116057,88,-2010,286,-29,1,-61,14382,-4,2,-105,-48,35628,-33,34,127,0,0,3829,21,0,9660,-1069,47,7745,-4,0,0,0,116038,0
116067,55,-2014,292,-40,3,-53,14382,-4,1,-148,-40,35645,-25,34,127,0,0,3829,32,0,9660,-1069,47,7755,-4,0,0,0,116053,0
116077,86,-2021,289,-41,-6,-65,14382,0,1,-120,-48,35667,-21,34,127,0,0,3827,-10,0,9660,-1069,47,7765,-4,0,0,0,116085,0
116087,38,-2019,293,-42,-10,-58,14379,-6,-3,-180,-32,35666,-18,34,127,0,0,3827,-10,0,9660,-1069,47,7775,-4,0,0,0,116085,0
116097,30,-2015,284,-53,-13,-54,14384,14,5,-154,-32,35653,-26,34,127,0,0,3827,-21,0,9660,-1069,47,7785,-4,0,0,0,116085,0
116107,35,-2029,286,-52,-5,-59,14381,7,2,-156,-72,35634,-47,33,127,0,0,3827,-21,0,9660,-1069,47,7795,-4,0,0,0,116085,0
116117,50,-2026,275,-54,-13,-64,14380,3,-1,-203,-56,35641,-40,34,127,0,0,3829,32,0,9660,-1069,47,7805,-4,0,0,0,116116,0
116127,40,-2026,276,-63,-12,-51,14382,-1,5,-161,-32,35638,-41,33,127,0,0,3825,-21,0,9660,-1069,47,7815,-4,0,0,0,116116,0
116137,35,-2023,268,-57,-3,-61,14380,4,-6,-200,-16,35638,-30,33,127,0,0,3827,32,0,9660,-1069,47,7825,-4,0,0,0,116116,0
116147,49,-2038,272,-55,-8,-69,14382,0,-3,-199,-64,35634,-26,34,127,0,0,3827,0,0,9660,-1069,47,7835,-4,0,0,0,116132,0
116157,32,-2039,270,-53,-1,-79,14379,4,-4,-217,-56,35640,-24,33,127,0,0,3825,-10,0,9660,-1069,47,7845,-4,0,0,0,116147,0
116167,29,-2046,275,-50,-3,-83,14380,10,0,-227,-40,35645,-14,33,127,0,0,3823,-10,0,9660,-1069,47,7855,-4,0,0,0,116147,0
116177,48,-2056,281,-47,-13,-82,14377,-5,-2,-330,-96,35648,-22,34,127,0,0,3823,10,0,9660,-1069,47,7865,-4,0,0,0,116194,0
116187,16,-2053,278,-55,-12,-80,14375,2,0,-287,-104,35645,-16,34,127,0,0,3821,-21,0,9660,-1069,47,7875,-4,0,0,0,116210,0
116197,33,-2062,282,-59,-7,-93,14375,-5,10,-316,-88,35641,-15,34,127,0,0,3821,-21,0,9660,-1069,47,7885,-4,0,0,0,116210,0
116207,33,-2059,283,-58,-11,-98,14372,-11,-11,-356,-88,35635,-27,33,127,0,0,3816,-32,0,9660,-1069,47,7895,-4,0,0,0,116210,0
116217,38,-2052,290,-68,-19,-107,14367,-24,-7,-412,-88,35626,-14,33,127,0,0,3818,10,0,9660,-1069,47,7905,-4,0,0,0,116210,0
116227,37,-2044,290,-77,-18,-105,14364,-16,-4,-400,-120,35627,-36,34,127,0,0,3814,-21,0,9660,-1069,47,7915,-4,0,0,0,116210,0
116237,36,-2039,285,-74,-16,-105,14357,-17,-7,-442,-160,35636,-33,34,127,0,0,3812,-54,0,9660,-1069,47,7925,-4,0,0,0,116225,0
116247,49,-2029,291,-81,-20,-107,14334,-62,-38,-337,-104,35653,-34,34,127,0,0,3812,10,0,9660,-1069,47,7935,-4,0,0,0,116241,0
116257,49,-2031,283,-91,-17,-113,14305,-50,-38,-218,-72,35663,-52,34,127,0,0,3810,-10,0,9660,-1069,47,7945,-4,0,0,0,116241,0
116267,65,-2028,272,-89,-17,-104,14301,4,45,-325,-80,35651,-64,34,127,0,0,3807,-10,0,9660,-1069,47,7955,-4,0,0,0,116241,0
116277,60,-2019,264,-99,-24,-94,14300,-1,51,-327,-80,35640,-93,33,127,0,0,3805,-32,0,9660,-1069,47,7965,-4,0,0,0,116303,0
116287,70,-2015,255,-108,-24,-87,14299,0,2,-382,-136,35634,-87,34,127,0,0,3807,0,0,9660,-1069,47,7975,-4,0,0,0,116303,0
116297,73,-2021,261,-90,-20,-75,14297,0,0,-364,-136,35630,-82,33,127,0,0,3805,0,0,9660,-1069,47,7985,-4,0,0,0,116319,0
116307,77,-2016,251,-89,-18,-69,14290,-14,-8,-380,-112,35625,-85,33,127,0,0,3803,10,0,9660,-1069,47,7995,-4,0,0,0,116319,0
116317,73,-2026,246,-77,-21,-58,14283,-19,-6,-342,-56,35624,-84,34,127,0,0,3803,-21,0,9660,-1069,47,8005,-4,0,0,0,116319,0
116327,73,-2034,244,-75,-22,-45,14276,-25,-6,-321,-80,35626,-94,33,127,0,0,3805,21,0,9660,-1069,47,8015,-4,0,0,0,116319,0
116337,68,-2037,246,-57,-7,-38,14261,-24,-21,-184,-48,35628,-96,33,127,0,0,3803,0,0,9660,-1069,47,8025,-4,0,0,0,116350,0
116347,80,-2036,246,-44,-10,-38,14259,0,18,-196,-8,35634,-107,34,127,0,0,3807,54,0,9660,-1069,47,8035,-4,0,0,0,116366,0
116357,97,-2045,237,-31,-8,-34,14260,-5,29,-184,-48,35641,-110,33,127,0,0,3805,32,0,9660,-1069,47,8045,-4,0,0,0,116366,0
116367,77,-2043,249,-29,-5,-30,14259,5,-1,-151,-24,35635,-97,34,127,0,0,3803,0,0,9660,-1069,47,8055,-4,0,0,0,116366,0
116377,47,-2037,264,-19,-10,-25,14258,-12,-6,-158,-24,35625,-95,33,127,0,0,3805,21,0,9660,-1069,47,8065,-4,0,0,0,116381,0
116387,62,-2036,271,-21,-12,-14,14260,-1,0,-195,-48,35620,-85,33,127,0,0,3803,10,0,9660,-1069,47,8075,-4,0,0,0,116381,0
116397,57,-2030,271,-24,-7,-17,14260,6,6,-167,-16,35629,-103,34,127,0,0,3803,-10,0,9660,-1069,47,8085,-4,0,0,0,116381,0
116407,63,-2032,263,-16,-6,-23,14259,4,1,-124,8,35635,-105,33,127,0,0,3807,21,0,9660,-1069,47,8095,-4,0,0,0,116397,0
116417,62,-2033,273,-20,-6,-19,14259,-12,-1,-101,-24,35643,-103,34,127,0,0,3807,21,0,9660,-1069,47,8105,-4,0,0,0,116428,0
116427,41,-2038,276,-19,-7,-20,14262,4,3,-60,-56,35649,-108,33,127,0,0,3805,-21,0,9660,-1069,47,8115,-4,0,0,0,116428,0
116437,16,-2035,272,-17,-9,-24,14259,-5,-4,-70,0,35642,-110,33,127,0,0,3807,10,0,9660,-1069,47,8125,-4,0,0,0,116428,0
116447,28,-2041,267,-18,-5,-24,14260,-8,-2,-88,56,35633,-119,34,127,0,0,3807,43,0,9660,-1069,47,8135,-4,0,0,0,116428,0
116457,38,-2041,259,-23,-7,-37,14262,4,6,-67,8,35629,-105,34,127,0,0,3805,0,0,9660,-1069,47,8145,-4,0,0,0,116460,0
116467,67,-2042,261,-10,-8,-45,14262,-1,-1,-77,-40,35635,-101,34,127,0,0,3807,10,0,9660,-1069,47,8155,-4,0,0,0,116460,0
116477,66,-2043,272,-14,-9,-56,14262,-6,-11,-81,-40,35636,-108,34,127,0,0,3807,32,0,9660,-1069,47,8165,-4,0,0,0,116460,0
116487,60,-2041,277,-18,-6,-47,14263,4,0,-57,40,35633,-95,34,127,0,0,3805,0,0,9660,-1069,47,8175,-4,0,0,0,116475,0
116497,34,-2040,286,-23,-16,-61,14261,-7,-2,-57,0,35637,-102,34,127,0,0,3807,0,0,9660,-1069,47,8185,-4,0,0,0,116491,0
116507,22,-2038,280,-23,-20,-60,14262,-3,-4,-64,0,35648,-94,34,127,0,0,3807,10,0,9660,-1069,47,8195,-4,0,0,0,116491,0
116517,47,-2031,266,-19,-13,-72,14261,0,-3,-36,-16,35643,-90,34,127,0,0,3807,10,0,9660,-1069,47,8205,-4,0,0,0,116491,0
116527,45,-2033,271,-20,-11,-71,14262,-7,2,-84,-32,35639,-90,33,127,0,0,3807,10,0,9660,-1069,47,8215,-4,0,0,0,116522,0
116537,79,-2035,272,-22,-5,-77,14263,9,0,-6,16,35635,-76,34,127,0,0,3805,-32,0,9660,-1069,47,8225,-4,0,0,0,116522,0
116547,73,-2030,276,-24,-7,-81,14261,-19,0,-64,-32,35638,-88,33,127,0,0,3807,-10,0,9660,-1069,47,8235,-4,0,0,0,116522,0
116557,77,-2032,278,-24,-18,-62,14263,11,-7,-81,-32,35644,-79,33,127,0,0,3807,0,0,9660,-1069,47,8245,-4,0,0,0,116553,0
116567,53,-2027,271,-22,-11,-67,14261,11,13,-56,8,35643,-106,34,127,0,0,3807,10,0,9660,-1069,47,8255,-4,0,0,0,116569,0
116577,51,-2039,277,-20,-15,-70,14262,0,-1,-65,-40,35641,-107,33,127,0,0,3805,-32,0,9660,-1069,47,8265,-4,0,0,0,116569,0
116587,34,-2041,261,-11,-12,-70,14262,12,3,-68,-40,35627,-97,34,127,0,0,3805,-21,0,9660,-1069,47,8275,-4,0,0,0,116569,0
116597,59,-2026,268,-17,-4,-69,14260,-11,2,-121,24,35632,-98,33,127,0,0,3805,0,0,9660,-1069,47,8285,-4,0,0,0,116600,0
116607,60,-2036,262,-7,-8,-71,14263,19,6,-106,-24,35642,-102,33,127,0,0,3805,-21,0,9660,-1069,47,8295,-4,0,0,0,116600,0
116617,41,-2040,265,-4,-13,-65,14260,5,11,-74,8,35644,-100,34,127,0,0,3805,-21,0,9660,-1069,47,8305,-4,0,0,0,116600,0
116627,66,-2043,278,-1,-8,-66,14260,-5,-4,-119,-24,35636,-102,33,127,0,0,3805,-10,0,9660,-1069,47,8315,-4,0,0,0,116616,0
116637,57,-2035,274,-5,-11,-67,14260,9,0,-80,0,35626,-101,33,127,0,0,3807,10,0,9660,-1069,47,8325,-4,0,0,0,116631,0
116647,50,-2041,269,4,-13,-59,14258,-17,0,-114,-24,35629,-114,34,127,0,0,3805,21,0,9660,-1069,47,8335,-4,0,0,0,116631,0
116657,65,-2042,271,6,-4,-67,14260,6,-4,-165,-56,35635,-93,34,127,0,0,3803,0,0,9660,-1069,47,8345,-4,0,0,0,116631,0
116667,68,-2041,279,4,-11,-65,14259,-4,6,-125,8,35644,-91,34,127,0,0,3805,0,0,9660,-1069,47,8355,-4,0,0,0,116663,0
116677,71,-2039,287,5,-7,-58,14259,-10,-4,-137,-8,35646,-86,33,127,0,0,3801,-43,0,9660,-1069,47,8365,-4,0,0,0,116678,0
116687,84,-2033,287,4,-5,-56,14258,-1,-1,-220,-40,35643,-77,33,127,0,0,3803,10,0,9660,-1069,47,8375,-4,0,0,0,116678,0
116697,66,-2029,293,-7,-9,-54,14258,-3,5,-190,-88,35637,-81,33,127,0,0,3803,-10,0,9660,-1069,47,8385,-4,0,0,0,116678,0
116707,49,-2036,294,-9,-10,-44,14255,-4,0,-230,-72,35635,-78,34,127,0,0,3803,32,0,9660,-1069,47,8395,-4,0,0,0,116694,0
116717,92,-2025,285,-17,-5,-53,14257,-12,3,-240,-80,35640,-93,33,127,0,0,3803,21,0,9660,-1069,47,8405,-4,0,0,0,116710,0
116727,43,-2021,276,-17,-7,-42,14257,4,-1,-219,-40,35634,-96,33,127,0,0,3803,21,0,9660,-1069,47,8415,-4,0,0,0,116725,0
116737,51,-2021,272,-16,-16,-45,14256,0,0,-195,-40,35626,-100,33,127,0,0,3801,-21,0,9660,-1069,47,8425,-4,0,0,0,116725,0
116747,66,-2036,275,-16,-10,-51,14256,1,-1,-250,-64,35624,-97,33,127,0,0,3801,-10,0,9660,-1069,47,8435,-4,0,0,0,116741,0
116757,78,-2029,290,-12,-7,-44,14257,3,7,-250,-24,35634,-93,34,127,0,0,3801,0,0,9660,-1069,47,8445,-4,0,0,0,116741,0
116767,79,-2033,283,-16,-1,-41,14256,-1,2,-241,-24,35634,-94,33,127,0,0,3803,32,0,9660,-1069,47,8455,-4,0,0,0,116741,0
116777,70,-2036,278,-17,-9,-41,14256,-1,1,-252,-64,35642,-96,33,127,0,0,3801,0,0,9660,-1069,47,8465,-4,0,0,0,116788,0
116787,62,-2033,276,-12,1,-36,14256,13,-2,-228,-64,35639,-96,34,127,0,0,3803,21,0,9660,-1069,47,8475,-4,0,0,0,116788,0
116797,72,-2037,281,-11,-4,-28,14255,4,6,-206,-24,35640,-95,33,127,0,0,3801,0,0,9660,-1069,47,8485,-4,0,0,0,116788,0
116807,70,-2033,287,-9,-3,-32,14255,7,-2,-221,-64,35630,-92,33,127,0,0,3803,10,0,9660,-1069,47,8495,-4,0,0,0,116788,0
116817,83,-2036,286,-11,1,-32,14255,5,5,-234,-64,35630,-101,34,127,0,0,3803,32,0,9660,-1069,47,8505,-4,0,0,0,116803,0
116827,67,-2038,283,-10,-1,-30,14255,-8,0,-236,-24,35646,-101,33,127,0,0,3801,0,0,9660,-1069,47,8515,-4,0,0,0,116819,0
116837,35,-2034,282,-9,-5,-29,14254,6,-5,-232,-64,35652,-92,34,127,0,0,3803,21,0,9660,-1069,47,8525,-4,0,0,0,116819,0
116847,44,-2044,287,-8,-3,-21,14254,-2,2,-220,-64,35651,-97,33,127,0,0,3801,0,0,9660,-1069,47,8535,-4,0,0,0,116834,0
116857,56,-2037,285,-7,3,-24,14256,7,3,-211,-72,35650,-85,33,127,0,0,3801,-21,0,9660,-1069,47,8545,-4,0,0,0,116850,0
116867,54,-2040,290,-11,-7,-19,14255,0,4,-226,-72,35650,-93,33,127,0,0,3801,-10,0,9660,-1069,47,8555,-4,0,0,0,116850,0
116877,31,-2033,280,-12,-11,-20,14254,-3,-4,-221,-32,35649,-82,33,127,0,0,3801,-10,0,9660,-1069,47,8565,-4,0,0,0,116866,0
116887,57,-2030,278,-7,-3,-22,14255,-4,3,-218,-32,35650,-85,34,127,0,0,3803,21,0,9660,-1069,47,8575,-4,0,0,0,116881,0
116897,44,-2037,288,-10,-9,-24,14256,5,1,-182,8,35648,-103,34,127,0,0,3805,32,0,9660,-1069,47,8585,-4,0,0,0,116881,0
116907,46,-2025,285,-10,-2,-33,14258,7,8,-115,-64,35650,-109,34,127,0,0,3803,-21,0,9660,-1069,47,8595,-4,0,0,0,116897,0
116917,31,-2030,298,-16,-9,-29,14256,2,-1,-178,-72,35652,-107,33,127,0,0,3803,-21,0,9660,-1069,47,8605,-4,0,0,0,116897,0
116927,53,-2035,302,-14,-6,-28,14255,3,1,-196,-40,35650,-89,34,127,0,0,3803,0,0,9660,-1069,47,8615,-4,0,0,0,116928,0
116937,40,-2044,291,-19,-8,-33,14256,-4,5,-220,-24,35658,-85,34,127,0,0,3805,32,0,9660,-1069,47,8625,-4,0,0,0,116928,0
116947,34,-2035,291,-17,-8,-36,14257,1,2,-195,-72,35649,-96,34,127,0,0,3805,43,0,9660,-1069,47,8635,-4,0,0,0,116944,0
116957,65,-2029,292,-19,-6,-37,14257,7,3,-192,-64,35647,-98,34,127,0,0,3801,-10,0,9660,-1069,47,8645,-4,0,0,0,116944,0
116967,64,-2037,286,-21,-10,-42,14254,3,-8,-211,-40,35649,-104,34,127,0,0,3803,0,0,9660,-1069,47,8655,-4,0,0,0,116975,0
116977,55,-2027,289,-16,-13,-43,14255,-3,-2,-172,0,35654,-93,34,127,0,0,3803,21,0,9660,-1069,47,8665,-4,0,0,0,116975,0
116987,81,-2039,291,-21,-8,-45,14256,-10,3,-162,-56,35655,-87,34,127,0,0,3805,21,0,9660,-1069,47,8675,-4,0,0,0,116975,0
116997,72,-2025,284,-19,-13,-38,14257,-1,1,-134,-56,35650,-87,33,127,0,0,3807,21,0,9660,-1069,47,8685,-4,0,0,0,116975,0
117007,50,-2035,291,-19,-8,-28,14257,1,0,-114,-8,35647,-83,34,127,0,0,3805,0,0,9660,-1069,47,8695,-4,0,0,0,116991,0
117017,60,-2034,288,-17,-13,-34,14257,7,1,-141,-8,35653,-95,33,127,0,0,3805,21,0,9660,-1069,47,8705,-4,0,0,0,117022,0
117027,58,-2036,310,-25,-18,-27,14257,-5,3,-135,-40,35659,-90,33,127,0,0,3805,10,0,9660,-1069,47,8715,-4,0,0,0,117053,0
117037,67,-2033,299,-41,-20,-27,14259,14,5,-88,24,35659,-110,34,127,0,0,3803,-21,0,9660,-1069,47,8725,-4,0,0,0,117053,0
117047,61,-2031,317,-42,-15,-34,14257,1,-4,-99,-16,35647,-101,33,127,0,0,3805,0,0,9660,-1069,47,8735,-4,0,0,0,117053,0
117057,30,-2024,326,-57,-30,-36,14257,-14,-2,-135,-8,35645,-87,34,127,0,0,3803,-21,0,9660,-1069,47,8745,-4,0,0,0,117053,0
117067,38,-2027,326,-69,-22,-46,14258,12,2,-107,-32,35644,-85,33,127,0,0,3805,-10,0,9660,-1069,47,8755,-4,0,0,0,117053,0
117077,-1,-2025,309,-80,-33,-52,14257,-4,2,-86,-16,35643,-98,33,127,0,0,3807,-10,0,9660,-1069,47,8765,-4,0,0,0,117069,0
117087,7,-2030,292,-78,-30,-60,14258,0,-2,-98,-16,35650,-116,34,127,0,0,3807,43,0,9660,-1069,47,8775,-4,0,0,0,117084,0
117097,30,-2031,277,-82,-26,-83,14259,8,6,-97,-24,35650,-110,33,127,0,0,3807,21,0,9660,-1069,47,8785,-4,0,0,0,117100,0
117107,30,-2032,278,-79,-25,-87,14257,0,2,-101,-24,35643,-97,33,127,0,0,3805,0,0,9660,-1069,47,8795,-4,0,0,0,117100,0
117117,53,-2030,289,-81,-26,-92,14257,-1,-3,-141,-56,35636,-104,33,127,0,0,3805,0,0,9660,-1069,47,8805,-4,0,0,0,117116,0
117127,48,-2028,299,-86,-31,-90,14256,-8,-1,-170,-40,35636,-93,34,127,0,0,3803,0,0,9660,-1069,47,8815,-4,0,0,0,117116,0
117137,61,-2039,299,-94,-22,-95,14256,10,-1,-164,-56,35640,-98,34,127,0,0,3801,-32,0,9660,-1069,47,8825,-4,0,0,0,117131,0
117147,62,-2026,283,-91,-28,-98,14253,-6,-4,-217,-32,35651,-84,33,127,0,0,3803,10,0,9660,-1069,47,8835,-4,0,0,0,117131,0
117157,84,-2037,261,-87,-27,-102,14254,-8,0,-243,-64,35659,-86,34,127,0,0,3801,0,0,9660,-1069,47,8845,-4,0,0,0,117163,0
117167,47,-2037,244,-75,-7,-135,14254,-3,4,-253,-96,35667,-85,33,127,0,0,3799,-32,0,9660,-1069,47,8855,-4,0,0,0,117163,0
117177,80,-2052,265,-54,4,-110,14248,-18,-14,-351,-96,35657,-83,34,127,0,0,3796,0,0,9660,-1069,47,8865,-4,0,0,0,117178,0
117187,98,-2045,276,-54,-3,-90,14247,5,2,-343,-56,35641,-91,33,127,0,0,3796,-10,0,9660,-1069,47,8875,-4,0,0,0,117178,0
117197,105,-2041,273,-53,-17,-56,14244,-18,2,-434,-136,35631,-96,33,127,0,0,3796,32,0,9660,-1069,47,8885,-4,0,0,0,117194,0
117207,69,-2051,256,-39,-14,-35,14244,3,0,-404,-64,35643,-106,34,127,0,0,3794,10,0,9660,-1069,47,8895,-4,0,0,0,117194,0
117217,104,-2038,230,-17,-2,-35,14242,-15,7,-416,-120,35646,-96,33,127,0,0,3792,0,0,9660,-1069,47,8905,-4,0,0,0,117194,0
117227,77,-2054,247,-5,-8,-18,14243,1,-3,-456,-128,35644,-76,34,127,0,0,3794,32,0,9660,-1069,47,8915,-4,0,0,0,117225,0
117237,113,-2038,276,6,11,-6,14242,-7,3,-467,-120,35642,-85,33,127,0,0,3794,32,0,9660,-1069,47,8925,-4,0,0,0,117241,0
117247,80,-2031,279,7,10,2,14242,4,-4,-438,-128,35639,-90,33,127,0,0,3796,21,0,9660,-1069,47,8935,-4,0,0,0,117241,0
117257,93,-2031,282,15,2,13,14242,-3,0,-416,-96,35642,-108,34,127,0,0,3792,10,0,9660,-1069,47,8945,-4,0,0,0,117241,0
117267,88,-2016,290,18,11,10,14243,-1,-1,-424,-112,35643,-98,34,127,0,0,3794,0,0,9660,-1069,47,8955,-4,0,0,0,117272,0
117277,27,-2016,302,7,-1,20,14243,0,2,-383,-112,35648,-95,34,127,0,0,3796,10,0,9660,-1069,47,8965,-4,0,0,0,117272,0
117287,36,-2013,310,0,-6,16,14244,-1,3,-310,-64,35648,-100,34,127,0,0,3799,10,0,9660,-1069,47,8975,-4,0,0,0,117272,0
117297,32,-2023,306,1,-7,17,14243,-10,-2,-300,-48,35644,-90,34,127,0,0,3799,32,0,9660,-1069,47,8985,-4,0,0,0,117272,0
117307,37,-2027,309,-5,-3,8,14247,10,4,-261,-80,35641,-95,34,127,0,0,3801,0,0,9660,-1069,47,8995,-4,0,0,0,117303,0
117317,17,-2035,318,-11,-1,-2,14248,11,6,-213,-80,35644,-92,34,127,0,0,3803,0,0,9660,-1069,47,9005,-4,0,0,0,117303,0
117327,-1,-2044,312,-28,-3,-15,14248,15,-1,-139,-24,35643,-81,34,127,0,0,3801,0,0,9660,-1069,47,9015,-4,0,0,0,117319,0
117337,20,-2023,312,-38,-5,-37,14248,-14,2,-174,-56,35638,-79,33,127,0,0,3801,-10,0,9660,-1069,47,9025,-4,0,0,0,117350,0
117347,13,-2024,302,-44,-4,-44,14247,-6,-7,-232,-48,35638,-78,34,127,0,0,3803,21,0,9660,-1069,47,9035,-4,0,0,0,117350,0
117357,46,-2019,311,-55,-2,-56,14249,5,-1,-162,-64,35635,-87,33,127,0,0,3801,-10,0,9660,-1069,47,9045,-4,0,0,0,117350,0
117367,36,-2026,325,-62,-7,-63,14248,-3,0,-220,-48,35633,-91,33,127,0,0,3803,32,0,9660,-1069,47,9055,-4,0,0,0,117350,0
117377,74,-2035,315,-74,-12,-67,14250,-1,1,-194,-56,35629,-105,34,127,0,0,3801,-21,0,9660,-1069,47,9065,-4,0,0,0,117370,0
117387,52,-2043,309,-80,-6,-70,14249,8,3,-198,-64,35639,-101,33,127,0,0,3803,10,0,9660,-1069,47,9075,-4,0,0,0,117370,0
117397,54,-2044,302,-86,-10,-66,14248,-3,-2,-186,-48,35637,-100,34,127,0,0,3801,0,0,9660,-1069,47,9085,-4,0,0,0,117401,0
117407,61,-2037,298,-86,-12,-69,14248,9,-2,-238,-48,35637,-94,33,127,0,0,3801,0,0,9660,-1069,47,9095,-4,0,0,0,117401,0
117417,56,-2039,280,-99,-8,-69,14247,-5,1,-253,-32,35632,-95,33,127,0,0,3801,21,0,9660,-1069,47,9105,-4,0,0,0,117401,0
117427,68,-2035,284,-91,-3,-70,14248,1,1,-226,-48,35638,-101,34,127,0,0,3801,-10,0,9660,-1069,47,9115,-4,0,0,0,117417,0
117437,56,-2028,271,-89,-5,-52,14247,3,1,-228,-48,35644,-96,34,127,0,0,3799,-21,0,9660,-1069,47,9125,-4,0,0,0,117417,0
117447,73,-2033,276,-82,3,-59,14246,-6,-6,-264,-32,35636,-87,34,127,0,0,3799,10,0,9660,-1069,47,9135,-4,0,0,0,117464,0
117457,77,-2025,274,-80,-2,-50,14246,-7,-1,-271,-64,35637,-105,34,127,0,0,3801,32,0,9660,-1069,47,9145,-4,0,0,0,117479,0
117467,82,-2028,278,-76,1,-40,14248,-1,2,-265,-72,35630,-106,33,127,0,0,3799,-10,0,9660,-1069,47,9155,-4,0,0,0,117479,0
117477,71,-2035,279,-69,4,-28,14247,2,-1,-289,-56,35629,-98,33,127,0,0,3799,10,0,9660,-1069,47,9165,-4,0,0,0,117479,0
117487,93,-2039,283,-69,4,-23,14247,6,2,-247,-48,35625,-93,33,127,0,0,3799,0,0,9660,-1069,47,9175,-4,0,0,0,117479,0
117497,66,-2048,277,-64,12,-5,14246,-2,-1,-257,-80,35619,-80,33,127,0,0,3799,-10,0,9660,-1069,47,9185,-4,0,0,0,117479,0
117507,57,-2051,260,-64,13,8,14248,4,4,-267,-72,35638,-91,33,127,0,0,3799,-10,0,9660,-1069,47,9195,-4,0,0,0,117495,0
117517,65,-2048,249,-43,18,8,14247,3,2,-281,-104,35652,-74,34,127,0,0,3796,-21,0,9660,-1069,47,9205,-4,0,0,0,117526,0
117527,70,-2053,266,-33,18,19,14248,7,4,-281,-64,35655,-79,34,127,0,0,3799,-21,0,9660,-1069,47,9215,-4,0,0,0,117526,0
117537,62,-2052,277,-28,21,26,14248,3,5,-236,-48,35645,-79,34,127,0,0,3803,21,0,9660,-1069,47,9225,-4,0,0,0,117526,0
117547,50,-2049,286,-27,18,33,14249,4,1,-144,-24,35632,-92,34,127,0,0,3803,10,0,9660,-1069,47,9235,-4,0,0,0,117526,0
117557,50,-2040,303,-27,7,75,14250,2,0,-149,-16,35635,-101,33,127,0,0,3805,32,0,9660,-1069,47,9245,-4,0,0,0,117604,0
117567,75,-2030,302,-37,-5,80,14254,14,7,13,48,35649,-85,34,127,0,0,3810,32,0,9660,-1069,47,9255,-4,0,0,0,117604,0
117577,28,-2029,295,-42,-4,83,14258,3,10,124,64,35643,-72,33,127,0,0,3812,21,0,9660,-1069,47,9265,-4,0,0,0,117604,0
117587,19,-2022,279,-36,5,70,14262,13,-6,191,80,35642,-81,33,127,0,0,3816,32,0,9660,-1069,47,9275,-4,0,0,0,117620,0
117597,13,-2014,285,-40,0,46,14270,25,15,296,64,35627,-86,34,127,0,0,3816,0,0,9660,-1069,47,9285,-4,0,0,0,117620,0
117607,32,-2022,284,-38,-4,36,14285,32,24,246,72,35623,-103,34,127,0,0,3818,10,0,9660,-1069,47,9295,-4,0,0,0,117620,0
117617,10,-2015,281,-39,0,12,14306,40,17,84,24,35618,-95,34,127,0,0,3823,54,0,9660,-1069,47,9305,-4,0,0,0,117620,0
117627,-18,-2012,285,-40,8,-4,14312,19,-17,199,72,35626,-86,34,127,0,0,3823,0,0,9660,-1069,47,9315,-4,0,0,0,117620,0
117637,-1,-2011,296,-47,8,-35,14313,10,-30,249,48,35633,-72,33,127,0,0,3823,-10,0,9660,-1069,47,9325,-4,0,0,0,117620,0
117647,7,-2019,304,-50,-3,-46,14316,14,-4,252,88,35637,-56,34,127,0,0,3825,0,0,9660,-1069,47,9335,-4,0,0,0,117651,0
117657,13,-2012,298,-63,-4,-65,14315,0,0,268,72,35642,-60,33,127,0,0,3825,21,0,9660,-1069,47,9345,-4,0,0,0,117667,0
117667,4,-2035,306,-75,-3,-68,14316,-7,-2,257,72,35644,-52,33,127,0,0,3825,10,0,9660,-1069,47,9355,-4,0,0,0,117667,0
117677,7,-2035,304,-80,-19,-84,14318,6,0,241,48,35645,-74,34,127,0,0,3823,-21,0,9660,-1069,47,9365,-4,0,0,0,117667,0
117687,17,-2048,306,-86,-16,-98,14317,11,2,243,80,35634,-68,33,127,0,0,3823,-32,0,9660,-1069,47,9375,-4,0,0,0,117667,0
117697,1,-2038,293,-110,-19,-109,14315,1,-4,224,88,35627,-55,34,127,0,0,3821,-32,0,9660,-1069,47,9385,-4,0,0,0,117698,0
117707,30,-2049,299,-113,-27,-125,14315,-2,-1,148,64,35630,-53,33,127,0,0,3823,10,0,9660,-1069,47,9395,-4,0,0,0,117698,0
117717,65,-2046,289,-115,-25,-130,14314,-11,4,128,32,35637,-60,33,127,0,0,3821,10,0,9660,-1069,47,9405,-4,0,0,0,117698,0
117727,45,-2049,280,-107,-17,-139,14314,-3,-3,75,32,35644,-74,33,127,0,0,3818,0,0,9660,-1069,47,9415,-4,0,0,0,117714,0
117737,54,-2048,284,-106,-12,-170,14312,-7,-1,0,24,35651,-66,34,127,0,0,3816,-10,0,9660,-1069,47,9425,-4,0,0,0,117714,0
117747,20,-2051,288,-108,-3,-178,14307,-23,-8,-146,-96,35642,-62,33,127,0,0,3810,-65,0,9660,-1069,47,9435,-4,0,0,0,117745,0
117757,44,-2036,285,-115,-6,-182,14293,-26,-27,-230,-64,35650,-63,33,127,0,0,3805,-43,0,9660,-1069,47,9445,-4,0,0,0,117745,0
117767,78,-2041,285,-121,-12,-178,14282,-25,-6,-254,-80,35645,-74,34,127,0,0,3803,-43,0,9660,-1069,47,9455,-4,0,0,0,117745,0
117777,71,-2037,273,-119,-22,-163,14257,-67,-23,-239,-72,35644,-79,33,127,0,0,3801,-21,0,9660,-1069,47,9465,-4,0,0,0,117776,0
117787,46,-2022,270,-114,-4,-159,14249,8,12,-249,-72,35637,-89,33,127,0,0,3799,-32,0,9660,-1069,47,9475,-4,0,0,0,117776,0
117797,97,-2027,294,-120,-23,-133,14246,-17,45,-341,-96,35636,-93,34,127,0,0,3794,-21,0,9660,-1069,47,9485,-4,0,0,0,117776,0
117807,85,-2025,299,-126,-24,-125,14247,7,6,-421,-144,35644,-96,33,127,0,0,3794,-32,0,9660,-1069,47,9495,-4,0,0,0,117870,0
117817,65,-2026,272,-132,-22,-114,14242,-6,2,-433,-128,35649,-88,34,127,0,0,3792,10,0,9660,-1069,47,9505,-4,0,0,0,117885,0
117827,75,-2030,258,-133,-17,-107,14240,-6,0,-479,-128,35644,-91,33,127,0,0,3790,0,0,9660,-1069,47,9515,-4,0,0,0,117885,0
117837,96,-2034,250,-121,-25,-105,14236,-22,-2,-532,-144,35635,-90,33,127,0,0,3790,0,0,9660,-1069,47,9525,-4,0,0,0,117885,0
117847,76,-2040,270,-124,-20,-94,14227,-22,-20,-526,-176,35631,-109,34,127,0,0,3785,0,0,9660,-1069,47,9535,-4,0,0,0,117885,0
117857,84,-2039,297,-124,-15,-73,14216,-43,-12,-553,-144,35634,-99,33,127,0,0,3785,10,0,9660,-1069,47,9545,-4,0,0,0,117885,0
117867,79,-2040,282,-130,-19,-69,14188,-69,-41,-328,-96,35631,-86,34,127,0,0,3783,-32,0,9660,-1069,47,9555,-4,0,0,0,117885,0
117877,60,-2042,239,-119,-19,-66,14175,-5,3,-309,-64,35632,-82,33,127,0,0,3783,-10,0,9660,-1069,47,9565,-4,0,0,0,117885,0
117887,86,-2041,233,-111,-19,-63,14179,1,70,-322,-72,35637,-69,33,127,0,0,3783,-21,0,9660,-1069,47,9575,-4,0,0,0,117885,0
117897,62,-2050,254,-98,-6,-67,14176,-3,13,-350,-64,35642,-75,34,127,0,0,3781,-10,0,9660,-1069,47,9585,-4,0,0,0,117885,0
117907,75,-2044,272,-94,-8,-69,14177,-4,-4,-350,-104,35638,-61,34,127,0,0,3785,-10,0,9660,-1069,47,9595,-4,0,0,0,117901,0
117917,79,-2026,258,-98,-7,-58,14177,6,5,-340,-96,35644,-63,33,127,0,0,3783,0,0,9660,-1069,47,9605,-4,0,0,0,117901,0
117927,72,-2021,235,-89,-10,-58,14179,15,5,-348,-96,35667,-68,33,127,0,0,3783,-21,0,9660,-1069,47,9615,-4,0,0,0,117917,0
117937,62,-2019,225,-74,-10,-56,14175,-8,0,-395,-120,35677,-58,33,127,0,0,3783,32,0,9660,-1069,47,9625,-4,0,0,0,117917,0
117947,80,-2015,238,-62,-5,-53,14178,1,4,-367,-96,35667,-55,33,127,0,0,3783,-10,0,9660,-1069,47,9635,-4,0,0,0,117963,0
117957,81,-2017,258,-58,-13,-47,14174,-1,0,-364,-88,35655,-57,33,127,0,0,3781,0,0,9660,-1069,47,9645,-4,0,0,0,117963,0
117967,94,-2026,259,-50,-5,-43,14176,-1,-3,-410,-112,35645,-58,34,127,0,0,3783,10,0,9660,-1069,47,9655,-4,0,0,0,117963,0
117977,104,-2020,241,-47,-4,-36,14175,-7,4,-394,-88,35650,-63,33,127,0,0,3783,21,0,9660,-1069,47,9665,-4,0,0,0,117979,0
117987,35,-2024,244,-42,-3,-25,14175,0,-2,-381,-112,35635,-48,34,127,0,0,3783,10,0,9660,-1069,47,9675,-4,0,0,0,117979,0
117997,101,-2028,244,-29,7,-20,14178,11,4,-352,-128,35640,-45,34,127,0,0,3783,-10,0,9660,-1069,47,9685,-4,0,0,0,117979,0
118007,93,-2029,264,-26,3,-10,14175,-6,-1,-375,-80,35651,-49,34,127,0,0,3783,10,0,9660,-1069,47,9695,-4,0,0,0,118010,0
118017,84,-2040,264,-27,-9,-1,14175,0,-4,-357,-88,35670,-64,34,127,0,0,3785,10,0,9660,-1069,47,9705,-4,0,0,0,118010,0
118027,55,-2049,260,-28,-3,11,14178,13,8,-299,-104,35664,-69,34,127,0,0,3785,0,0,9660,-1069,47,9715,-4,0,0,0,118010,0
118037,98,-2055,286,-28,6,12,14175,-6,-2,-337,-88,35650,-50,34,127,0,0,3783,10,0,9660,-1069,47,9725,-4,0,0,0,118026,0
118047,85,-2061,292,-38,5,16,14177,4,2,-342,-56,35636,-61,33,127,0,0,3785,0,0,9660,-1069,47,9735,-4,0,0,0,118026,0
118057,63,-2061,285,-48,-1,21,14176,2,1,-291,-72,35638,-66,33,127,0,0,3785,0,0,9660,-1069,47,9745,-4,0,0,0,118073,0
118067,54,-2044,265,-49,0,23,14178,-4,2,-288,-64,35651,-80,34,127,0,0,3785,10,0,9660,-1069,47,9755,-4,0,0,0,118073,0
118077,54,-2043,259,-47,-2,32,14178,-5,-2,-266,-48,35649,-67,33,127,0,0,3788,10,0,9660,-1069,47,9765,-4,0,0,0,118073,0
118087,47,-2044,271,-51,-6,34,14180,16,5,-180,-16,35638,-67,33,127,0,0,3790,-10,0,9660,-1069,47,9775,-4,0,0,0,118073,0
118097,65,-2037,291,-61,-17,48,14184,26,8,-100,-48,35633,-86,34,127,0,0,3794,21,0,9660,-1069,47,9785,-4,0,0,0,118088,0
118107,58,-2044,293,-72,-18,50,14188,5,8,-9,40,35645,-61,33,127,0,0,3796,54,0,9660,-1069,47,9795,-4,0,0,0,118088,0
118117,53,-2031,268,-79,-12,49,14192,-6,7,60,80,35667,-66,33,127,0,0,3799,32,0,9660,-1069,47,9805,-4,0,0,0,118120,0
118127,46,-2029,260,-80,-7,37,14200,14,-1,142,48,35665,-56,33,127,0,0,3801,0,0,9660,-1069,47,9815,-4,0,0,0,118120,0
118137,38,-2025,281,-85,-2,31,14204,2,0,145,40,35655,-66,34,127,0,0,3801,0,0,9660,-1069,47,9825,-4,0,0,0,118120,0
118147,32,-2025,292,-93,-3,19,14206,12,-8,161,40,35642,-73,33,127,0,0,3803,10,0,9660,-1069,47,9835,-4,0,0,0,118135,0
118157,19,-2040,286,-103,-3,0,14212,28,7,228,104,35641,-72,34,127,0,0,3803,-32,0,9660,-1069,47,9845,-4,0,0,0,118151,0
118167,35,-2026,284,-107,-4,-8,14235,54,40,57,32,35641,-72,34,127,0,0,3803,-21,0,9660,-1069,47,9855,-4,0,0,0,118151,0
118177,17,-2044,279,-127,-10,-24,14247,0,13,-42,0,35644,-67,34,127,0,0,3807,32,0,9660,-1069,47,9865,-4,0,0,0,118245,0
118187,2,-2047,283,-126,-6,-37,14248,3,-46,106,56,35649,-77,34,127,0,0,3810,32,0,9660,-1069,47,9875,-4,0,0,0,118260,0
118197,36,-2046,286,-141,-1,-70,14250,-4,-15,136,40,35647,-90,34,127,0,0,3810,0,0,9660,-1069,47,9885,-4,0,0,0,118260,0
118207,-2,-2047,271,-152,-16,-69,14249,-1,-10,99,-24,35646,-92,34,127,0,0,3807,0,0,9660,-1069,47,9895,-4,0,0,0,118260,0
118217,55,-2037,274,-160,-10,-82,14249,-7,-2,4,0,35629,-97,33,127,0,0,3807,32,0,9660,-1069,47,9905,-4,0,0,0,118260,0
118227,46,-2031,271,-167,-14,-89,14250,-3,4,33,16,35631,-97,33,127,0,0,3807,32,0,9660,-1069,47,9915,-4,0,0,0,118260,0
118237,40,-2034,263,-166,-20,-94,14249,-1,0,69,56,35629,-98,34,127,0,0,3810,21,0,9660,-1069,47,9925,-4,0,0,0,118260,0
118247,43,-2028,232,-169,-27,-96,14251,3,-5,108,8,35629,-84,33,127,0,0,3805,-32,0,9660,-1069,47,9935,-4,0,0,0,118260,0
118257,30,-2040,231,-160,-20,-102,14246,-11,-8,34,24,35623,-81,33,127,0,0,3805,-10,0,9660,-1069,47,9945,-4,0,0,0,118260,0
118267,71,-2046,232,-155,-20,-104,14249,-1,-1,3,0,35629,-95,34,127,0,0,3805,-32,0,9660,-1069,47,9955,-4,0,0,0,118260,0
118277,57,-2043,235,-150,-25,-89,14250,19,6,41,-16,35634,-90,33,127,0,0,3803,-54,0,9660,-1069,47,9965,-4,0,0,0,118276,0
118287,70,-2044,238,-145,-22,-93,14244,-25,-6,-77,-16,35636,-79,34,127,0,0,3803,10,0,9660,-1069,47,9975,-4,0,0,0,118276,0
118297,90,-2042,240,-138,-22,-85,14246,-2,-5,-99,16,35639,-83,34,127,0,0,3805,32,0,9660,-1069,47,9985,-4,0,0,0,118307,0
118307,88,-2043,230,-128,-16,-68,14246,0,12,-87,-24,35640,-90,34,127,0,0,3803,0,0,9660,-1069,47,9995,-4,0,0,0,118338,0
118317,80,-2034,231,-115,-19,-52,14246,9,-7,-122,-56,35645,-112,34,127,0,0,3805,21,0,9660,-1069,47,10005,-4,0,0,0,118338,0
118327,59,-2030,223,-106,-17,-39,14245,0,4,-113,-8,35636,-101,33,127,0,0,3803,32,0,9660,-1069,47,10015,-4,0,0,0,118338,0
118337,79,-2035,219,-94,-9,-37,14245,-1,-1,-114,-16,35635,-101,34,127,0,0,3801,-21,0,9660,-1069,47,10025,-4,0,0,0,118338,0
118347,81,-2029,223,-85,-15,-35,14245,0,-1,-140,-56,35634,-93,34,127,0,0,3803,10,0,9660,-1069,47,10035,-4,0,0,0,118338,0
118357,87,-2024,241,-79,4,-11,14244,0,-1,-121,-8,35646,-108,34,127,0,0,3803,0,0,9660,-1069,47,10045,-4,0,0,0,118338,0
118367,76,-2033,238,-80,4,-5,14244,0,3,-121,-48,35650,-110,33,127,0,0,3803,21,0,9660,-1069,47,10055,-4,0,0,0,118354,0
118377,66,-2040,231,-73,-2,-3,14244,-1,-1,-90,16,35650,-97,33,127,0,0,3803,0,0,9660,-1069,47,10065,-4,0,0,0,118385,0
118387,65,-2039,247,-71,5,-7,14243,-6,-6,-142,0,35641,-110,33,127,0,0,3805,43,0,9660,-1069,47,10075,-4,0,0,0,118385,0
118397,72,-2044,252,-79,0,-3,14248,8,10,-61,8,35640,-111,33,127,0,0,3805,-10,0,9660,-1069,47,10085,-4,0,0,0,118385,0
118407,32,-2044,246,-84,-7,-9,14246,9,-2,0,40,35633,-117,34,127,0,0,3805,10,0,9660,-1069,47,10095,-4,0,0,0,118385,0
118417,33,-2050,250,-94,-5,-4,14247,-16,-3,-26,-32,35638,-113,33,127,0,0,3803,-32,0,9660,-1069,47,10105,-4,0,0,0,118401,0
118427,41,-2045,262,-96,-12,-5,14246,10,-5,-27,-8,35647,-104,33,127,0,0,3807,32,0,9660,-1069,47,10115,-4,0,0,0,118417,0
118437,43,-2043,253,-95,-12,9,14251,10,17,115,8,35650,-107,34,127,0,0,3805,-54,0,9660,-1069,47,10125,-4,0,0,0,118417,0
118447,50,-2039,235,-100,-17,11,14247,2,-8,61,16,35644,-103,33,127,0,0,3807,21,0,9660,-1069,47,10135,-4,0,0,0,118432,0
118457,33,-2049,230,-100,-12,10,14252,1,10,109,0,35632,-95,34,127,0,0,3810,-10,0,9660,-1069,47,10145,-4,0,0,0,118463,0
118467,1,-2052,244,-102,-14,12,14253,16,5,158,-8,35631,-92,33,127,0,0,3810,-10,0,9660,-1069,47,10155,-4,0,0,0,118463,0
118477,49,-2049,246,-121,-17,0,14253,6,-2,179,32,35631,-74,33,127,0,0,3812,10,0,9660,-1069,47,10165,-4,0,0,0,118463,0
118487,44,-2055,244,-119,-13,1,14254,5,2,226,80,35631,-88,34,127,0,0,3814,21,0,9660,-1069,47,10175,-4,0,0,0,118463,0
118497,43,-2048,242,-125,-12,-8,14257,-7,5,214,48,35633,-91,34,127,0,0,3814,32,0,9660,-1069,47,10185,-4,0,0,0,118495,0
118507,34,-2041,245,-125,-1,-12,14259,16,-4,281,104,35641,-95,34,127,0,0,3814,-21,0,9660,-1069,47,10195,-4,0,0,0,118495,0
118517,21,-2046,274,-141,-10,-21,14260,-3,6,306,88,35641,-107,34,127,0,0,3816,-10,0,9660,-1069,47,10205,-4,0,0,0,118495,0
118527,2,-2037,280,-153,-14,-25,14261,-7,-6,309,104,35638,-112,34,127,0,0,3818,32,0,9660,-1069,47,10215,-4,0,0,0,118526,0
118537,-12,-2026,248,-166,-13,-53,14266,20,11,339,80,35635,-121,34,127,0,0,3818,10,0,9660,-1069,47,10225,-4,0,0,0,118526,0
118547,-22,-2028,228,-174,-15,-80,14267,7,6,336,80,35635,-97,33,127,0,0,3816,-21,0,9660,-1069,47,10235,-4,0,0,0,118557,0
118557,10,-2024,232,-181,-16,-112,14262,-11,-16,256,96,35638,-93,33,127,0,0,3816,21,0,9660,-1069,47,10245,-4,0,0,0,118573,0
118567,14,-2020,247,-187,-21,-126,14268,13,5,313,80,35634,-106,34,127,0,0,3816,-21,0,9660,-1069,47,10255,-4,0,0,0,118573,0
118577,-13,-2038,279,-208,-38,-148,14266,-2,1,274,88,35639,-114,33,127,0,0,3816,10,0,9660,-1069,47,10265,-4,0,0,0,118573,0
118587,-38,-2068,303,-227,-44,-185,14263,-13,-11,173,32,35632,-99,33,127,0,0,3812,10,0,9660,-1069,47,10275,-4,0,0,0,118573,0
118597,-196,-2068,298,-242,-13,-365,14262,0,1,96,-24,35629,-103,33,127,0,0,3805,-76,0,9660,-1069,47,10285,-4,0,0,0,118588,0
118607,-133,-2055,288,-278,-3,-447,14248,-35,-25,-155,-88,35636,-98,34,127,0,0,3794,-109,0,9660,-1069,47,10295,-4,0,0,0,118588,0
118617,-200,-2054,326,-327,-17,-606,14230,-45,-27,-496,-256,35652,-106,33,127,0,0,3774,-175,0,9660,-1069,47,10305,-4,0,0,0,118604,0
118627,-270,-2070,376,-381,-34,-762,14178,-157,-79,-552,-328,35660,-85,34,127,0,0,3755,-219,0,9660,-1069,47,10315,-4,0,0,0,118635,0
118637,-358,-2041,342,-451,-2,-1035,14091,-216,-148,-514,-416,35653,-63,34,127,0,0,3730,-241,0,9660,-1069,47,10325,-4,0,0,0,118635,0
118647,-416,-1997,289,-517,32,-1243,13984,-244,-102,-539,-544,35638,-43,34,127,0,0,3695,-362,0,9660,-1069,47,10335,-4,0,0,0,118635,0
118657,-281,-2120,352,-634,46,-1468,13852,-310,-79,-613,-688,35632,-43,34,127,0,0,3656,-384,0,9660,-1069,47,10345,-4,0,0,0,118635,0
118667,-281,-2182,379,-709,36,-1536,13700,-347,-85,-572,-808,35633,-17,33,127,0,0,3618,-373,0,9660,-1069,47,10355,-4,0,0,0,118666,0
118677,-271,-2475,297,-939,44,-1580,13530,-386,-76,-516,-848,35646,-9,34,127,0,0,3585,-351,0,9660,-1069,47,10365,-4,0,0,0,118666,0
118687,-380,-3098,504,-1039,215,-1466,13354,-385,-50,-502,-752,35642,-29,33,127,0,0,3563,-186,0,9660,-1069,47,10375,-4,0,0,0,118666,0
118697,-319,-2591,341,-1144,1040,-1372,13188,-354,14,-425,-560,35634,-51,33,127,0,0,3557,-32,0,9660,-1069,47,10385,-4,0,0,0,118682,0
118707,-70,-2289,-21,-1198,1599,-1349,13042,-283,63,-293,-360,35634,-61,34,127,0,0,3539,-153,0,9660,-1069,47,10395,-4,0,0,0,118698,0
118717,120,-2496,-562,-997,2721,-917,12931,-236,114,-389,-352,35640,-18,33,127,0,0,3513,-241,0,9660,-1069,47,10405,-4,0,0,0,118698,0
118727,-214,-1745,-394,-632,3436,-677,12822,-236,61,-474,-432,35635,-2,33,127,0,0,3487,-296,0,9660,-1069,47,10415,-4,0,0,0,118745,0
118737,-227,-850,-553,-373,4107,-186,12702,-285,-24,-499,-512,35635,-21,34,127,0,0,3460,-219,0,9660,-1069,47,10425,-4,0,0,0,118745,0
118747,-64,-813,-307,-256,4362,169,12573,-282,-48,-451,-472,35631,-42,33,127,0,0,3436,-230,0,9660,-1069,47,10435,-4,0,0,0,118745,0
118757,-150,-1428,32,153,4442,636,12449,-259,0,-463,-464,35630,-48,34,127,0,0,3418,-142,0,9660,-1069,47,10445,-4,0,0,0,118745,0
118767,-188,-1584,378,314,4335,834,12333,-246,33,-358,-280,35626,-46,34,127,0,0,3416,0,0,9660,-1069,47,10455,-4,0,0,0,118745,0
118777,-117,-1843,661,340,4096,842,12256,-125,102,-230,-120,35641,-22,34,127,0,0,3416,-10,0,9660,-1069,47,10465,-4,0,0,0,118776,0
118787,15,-2060,692,278,3868,821,12248,22,217,-262,-96,35658,-25,34,127,0,0,3416,10,0,9660,-1069,47,10475,-4,0,0,0,118776,0
118797,99,-2160,679,187,3394,758,12256,2,155,-326,-88,35655,-9,34,127,0,0,3416,10,0,9660,-1069,47,10485,-4,0,0,0,118776,0
118807,91,-2070,617,124,2975,679,12257,11,-4,-239,-56,35653,-14,34,127,0,0,3421,43,0,9660,-1069,47,10495,-4,0,0,0,118807,0
118817,349,-1947,508,40,2299,613,12266,35,7,-81,8,35643,0,34,127,0,0,3434,109,0,9660,-1069,47,10505,-4,0,0,0,118807,0
118827,341,-1933,434,26,1869,615,12294,74,58,163,88,35651,-7,34,127,0,0,3447,142,0,9660,-1069,47,10515,-4,0,0,0,118807,0
118837,237,-1964,344,24,1341,557,12350,157,91,244,160,35643,2,33,127,0,0,3462,164,0,9660,-1069,47,10525,-4,0,0,0,118823,0
118847,380,-2303,273,-31,1160,500,12417,158,80,357,280,35651,21,34,127,0,0,3498,384,0,9660,-1069,47,10535,-4,0,0,0,118870,0
118857,430,-2221,157,-134,1303,-22,12523,302,97,523,560,35650,6,33,127,0,0,3546,472,0,9660,-1069,47,10545,-4,0,0,0,118870,0
118867,702,-2068,222,-127,1598,-563,12688,390,216,406,712,35649,-16,33,127,0,0,3585,384,0,9660,-1069,47,10555,-4,0,34,0,118870,0
118877,916,-2085,235,-299,1903,-1150,12868,387,126,341,584,35636,-52,34,127,0,0,3601,164,0,9660,-1069,47,10565,-4,0,47,0,118885,0
118887,868,-2384,341,-389,1639,-1193,13031,327,-24,234,304,35631,-38,33,127,0,0,3603,21,0,9660,-1069,47,10575,-4,0,47,0,118885,0
118897,1225,-2112,609,-485,679,-846,13142,189,-150,24,72,35625,-27,33,127,0,0,3601,0,0,9660,-1069,47,10585,-4,0,46,0,118885,0
118907,1308,-1901,370,-597,-165,-696,13151,-33,-307,2,40,35638,-21,34,127,0,0,3603,54,0,9660,-1069,47,10595,-4,0,45,0,118885,0
118917,1113,-1964,-228,-630,-374,-552,13141,-12,-218,53,-32,35663,-3,34,127,0,0,3590,-98,0,9660,-1069,47,10605,-4,0,44,0,118916,0
118927,57,-2205,-347,-411,-197,-404,13104,-127,-71,-271,-200,35671,17,34,127,0,0,3572,-186,0,9660,-1069,47,10615,-4,0,42,0,118932,0
118937,106,-2073,-136,-151,62,-357,13049,-114,-97,-312,-192,35664,34,34,127,0,0,3561,-109,0,9660,-1069,47,10625,-4,0,41,0,118932,0
118947,411,-2026,0,-118,58,-248,13008,-78,4,-385,-184,35644,31,34,127,0,0,3552,-87,0,9660,-1069,47,10635,-4,0,40,0,118948,0
118957,453,-2037,-48,-64,-72,-58,12957,-116,5,-316,-112,35641,-2,34,127,0,0,3550,-21,0,9660,-1069,47,10645,-4,0,38,0,118948,0
118967,232,-2038,-102,-27,-65,15,12914,-73,-5,-144,-48,35647,-15,34,127,0,0,3550,-10,0,9660,-1069,47,10655,-4,0,37,0,118948,0
118977,73,-2134,-64,123,44,-2,12920,30,124,-187,-32,35650,-6,34,127,0,0,3552,21,0,9660,-1069,47,10665,-4,0,36,0,118963,0
118987,184,-2067,2,187,86,-11,12916,-23,67,-161,-64,35664,-19,34,127,0,0,3552,0,0,9660,-1069,47,10675,-4,0,35,0,118994,0
118997,372,-2038,227,198,39,69,12922,17,-6,-113,0,35670,-30,34,127,0,0,3552,10,0,9660,-1069,47,10685,-4,0,35,0,118994,0
119007,295,-2023,282,161,-4,145,12919,1,0,-66,-8,35663,-49,33,127,0,0,3559,54,0,9660,-1069,47,10695,-4,0,33,0,118994,0
119017,163,-2017,256,115,-50,268,12924,0,0,48,64,35649,-32,34,127,0,0,3563,98,0,9660,-1069,47,10705,-4,0,32,0,119010,0
119027,173,-2011,193,114,-5,211,12937,42,22,252,96,35637,-39,33,127,0,0,3572,87,0,9660,-1069,47,10715,-4,0,32,0,119010,0
119037,138,-1995,144,122,8,220,12965,71,50,252,120,35650,-33,33,127,0,0,3577,76,0,9660,-1069,47,10725,-4,0,30,0,119041,0
119047,115,-2017,147,142,7,232,13001,72,40,254,112,35670,-27,34,127,0,0,3585,65,0,9660,-1069,47,10735,-4,0,30,0,119041,0
119057,61,-2004,74,162,8,212,13033,82,4,314,112,35664,-3,34,127,0,0,3592,76,0,9660,-1069,47,10745,-4,0,30,0,119041,0
119067,76,-2028,58,175,13,216,13081,91,23,215,88,35647,1,34,127,0,0,3594,21,0,9660,-1069,47,10755,-4,0,30,0,119057,0
119077,64,-2064,148,214,31,175,13115,51,-10,170,88,35645,-7,34,127,0,0,3603,65,0,9660,-1069,47,10765,-4,0,30,0,119073,0
119087,96,-2071,217,210,33,131,13118,-12,-97,374,168,35661,-1,34,127,0,0,3607,65,0,9660,-1069,47,10775,-4,0,30,0,119073,0
119097,111,-2077,256,189,13,118,13124,8,-51,453,152,35659,21,34,127,0,0,3610,43,0,9660,-1069,47,10785,-4,0,30,0,119073,0
119107,77,-2084,254,178,-3,106,13129,14,1,525,200,35653,31,34,127,0,0,3618,98,0,9660,-1069,47,10795,-4,0,30,0,119104,0
119117,57,-2081,250,182,0,85,13153,70,26,526,176,35643,44,34,127,0,0,3621,54,0,9660,-1069,47,10805,-4,0,30,0,119119,0
119127,57,-2083,239,160,-7,73,13193,82,76,349,152,35653,18,34,127,0,0,3621,32,0,9660,-1069,47,10815,-4,0,30,0,119119,0
119137,50,-2095,233,143,4,38,13219,72,1,366,112,35646,15,33,127,0,0,3623,10,0,9660,-1069,47,10825,-4,0,30,0,119119,0
119147,71,-2082,213,134,5,32,13248,52,-14,206,112,35636,10,34,127,0,0,3625,32,0,9660,-1069,47,10835,-4,0,30,0,119151,0
119157,85,-2091,194,123,-14,11,13257,11,-35,266,80,35640,-14,34,127,0,0,3627,0,0,9660,-1069,47,10845,-4,0,30,0,119151,0
119167,58,-2071,135,134,-14,2,13256,2,-63,304,80,35643,-39,34,127,0,0,3629,32,0,9660,-1069,47,10855,-4,0,30,0,119151,0
119177,76,-1970,86,192,5,-16,13262,24,8,370,112,35647,-51,33,127,0,0,3634,43,0,9660,-1069,47,10865,-4,0,30,0,119166,0
119187,83,-1909,88,235,17,-35,13289,56,49,252,56,35655,-28,34,127,0,0,3632,10,0,9660,-1069,47,10875,-4,0,30,0,119166,0
119197,133,-1973,239,247,14,-44,13295,-29,8,76,64,35644,-42,33,127,0,0,3632,43,0,9660,-1069,47,10885,-4,0,30,0,119182,0
119207,113,-2030,371,231,16,-43,13299,31,-52,154,8,35645,-51,33,127,0,0,3634,10,0,9660,-1069,47,10895,-4,0,30,0,119229,0
119217,61,-2048,410,153,-25,-26,13297,7,-6,186,24,35649,-55,34,127,0,0,3632,-21,0,9660,-1069,47,10905,-4,0,30,0,119229,0
119227,15,-2043,315,81,-28,-45,13297,9,-1,193,80,35655,-43,34,127,0,0,3634,10,0,9660,-1069,47,10915,-4,0,30,0,119229,0
119237,-6,-2090,229,43,-50,-88,13295,-14,5,116,24,35644,-40,34,127,0,0,3634,32,0,9660,-1069,47,10925,-4,0,30,0,119229,0
119247,-59,-2079,242,24,-60,-129,13299,30,8,195,40,35630,-41,34,127,0,0,3629,-32,0,9660,-1069,47,10935,-4,0,30,0,119229,0
119257,-34,-2059,244,-3,-68,-194,13293,-15,-1,106,40,35645,-54,33,127,0,0,3627,-43,0,9660,-1069,47,10945,-4,0,30,0,119244,0
119267,45,-2024,248,-29,-71,-253,13295,3,-10,52,-24,35663,-65,34,127,0,0,3627,-21,0,9660,-1069,47,10955,-4,0,30,0,119307,0
119277,-35,-1999,214,-32,0,-350,13289,-29,0,-97,-72,35668,-75,33,127,0,0,3621,-32,0,9660,-1069,47,10965,-4,0,30,0,119323,0
119287,84,-1992,217,-26,28,-355,13277,-23,-31,-269,-104,35654,-73,33,127,0,0,3610,-109,0,9660,-1069,47,10975,-4,0,30,0,119323,0
119297,264,-2007,242,-14,15,-320,13245,-89,-46,-302,-112,35644,-72,34,127,0,0,3603,-65,0,9660,-1069,47,10985,-4,0,30,0,119323,0
119307,283,-2015,247,-31,-5,-260,13207,-71,-54,-322,-104,35632,-63,33,127,0,0,3599,-21,0,9660,-1069,47,10995,-4,0,30,0,119323,0
119317,326,-2034,254,-61,-32,-144,13165,-99,-10,-261,-80,35635,-37,34,127,0,0,3592,-10,0,9660,-1069,47,11005,-4,0,30,0,119323,0
119327,274,-2047,221,-78,-37,-60,13132,-53,16,-204,-88,35630,-29,33,127,0,0,3590,-21,0,9660,-1069,47,11015,-4,0,30,0,119323,0
119337,235,-2071,168,-70,-23,11,13113,-13,58,-86,-48,35637,0,33,127,0,0,3590,-21,0,9660,-1069,47,11025,-4,0,30,0,119323,0
119347,230,-2075,147,-56,-21,49,13116,2,67,-93,-16,35650,5,34,127,0,0,3592,0,0,9660,-1069,47,11035,-4,0,30,0,119338,0
119357,153,-2062,155,-22,-18,85,13114,-6,20,-122,0,35662,39,33,127,0,0,3590,10,0,9660,-1069,47,11045,-4,0,30,0,119338,0
119367,152,-2058,172,3,5,99,13118,5,4,-89,16,35675,33,34,127,0,0,3594,21,0,9660,-1069,47,11055,-4,0,30,0,119369,0
119377,181,-2035,201,6,-16,175,13119,7,11,20,32,35667,31,34,127,0,0,3599,65,0,9660,-1069,47,11065,-4,0,30,0,119369,0
119387,182,-2019,226,14,-29,190,13130,36,22,249,104,35653,25,34,127,0,0,3607,54,0,9660,-1069,47,11075,-4,0,30,0,119385,0
119397,148,-2012,233,2,-30,223,13155,63,49,263,96,35630,26,33,127,0,0,3612,43,0,9660,-1069,47,11085,-4,0,30,0,119385,0
119407,146,-2013,222,2,-26,242,13186,59,33,294,88,35623,20,34,127,0,0,3623,76,0,9660,-1069,47,11095,-4,0,30,0,119401,0
119417,122,-2031,207,11,-19,261,13215,71,3,405,160,35640,-1,34,127,0,0,3629,54,0,9660,-1069,47,11105,-4,0,30,0,119401,0
119427,170,-2026,210,6,-43,319,13269,117,43,298,208,35647,-20,33,127,0,0,3643,120,0,9660,-1069,47,11115,-4,0,30,0,119416,0
119437,138,-2039,207,2,-56,379,13326,118,49,338,184,35639,-24,34,127,0,0,3654,109,0,9660,-1069,47,11125,-4,0,30,0,119416,0
119447,84,-2062,210,11,-44,362,13380,131,-4,385,232,35629,-32,33,127,0,0,3669,153,0,9660,-1069,47,11135,-4,0,30,0,119448,0
119457,69,-2073,215,20,-33,363,13445,159,22,347,232,35632,-24,33,127,0,0,3680,131,0,9660,-1069,47,11145,-4,0,30,0,119448,0
119467,67,-2072,214,29,-26,363,13519,163,41,327,224,35640,-53,34,127,0,0,3695,142,0,9660,-1069,47,11155,-4,0,30,0,119448,0
119477,52,-2065,195,35,-28,351,13588,135,-2,390,224,35640,-63,33,127,0,0,3708,131,0,9660,-1069,47,11165,-4,0,30,0,119463,0
119487,-6,-2064,188,39,-23,333,13657,149,-12,361,232,35637,-67,34,127,0,0,3719,109,0,9660,-1069,47,11175,-4,0,30,0,119494,0
119497,28,-2065,168,64,-23,296,13722,126,-6,355,232,35628,-65,33,127,0,0,3733,175,0,9660,-1069,47,11185,-4,0,30,0,119494,0
119507,-33,-2050,158,93,-11,263,13784,132,-21,417,248,35631,-52,33,127,0,0,3741,76,0,9660,-1069,47,11195,-4,0,30,0,119494,0
119517,-4,-2039,171,123,-7,194,13860,162,21,266,168,35625,-47,34,127,0,0,3750,109,0,9660,-1069,47,11205,-4,0,30,0,119494,0
119527,4,-2049,197,133,-13,159,13917,91,-25,287,128,35627,-9,34,127,0,0,3759,98,0,9660,-1069,47,11215,-4,0,30,0,119541,0
119537,-34,-2062,214,135,-1,96,13953,57,-88,294,96,35621,7,34,127,0,0,3761,65,0,9660,-1069,47,11225,-4,0,30,0,119541,0
119547,-86,-2061,220,155,8,20,13969,39,-73,335,128,35628,-13,34,127,0,0,3763,0,0,9660,-1069,47,11235,-4,0,30,0,119541,0
119557,-90,-2045,240,157,12,-67,13995,64,-13,250,104,35638,-10,33,127,0,0,3763,-10,0,9660,-1069,47,11245,-4,0,30,0,119541,0
119567,-50,-2029,248,144,0,-112,14003,-10,-17,235,56,35643,-40,34,127,0,0,3766,21,0,9660,-1069,47,11255,-4,0,30,0,119572,0
119577,-51,-2011,282,118,-10,-163,14004,2,-53,235,64,35653,-48,34,127,0,0,3766,-10,0,9660,-1069,47,11265,-4,0,30,0,119572,0
119587,-50,-2000,307,92,-26,-204,14002,4,-12,246,32,35646,-66,34,127,0,0,3761,-43,0,9660,-1069,47,11275,-4,0,30,0,119572,0
119597,-46,-2008,324,37,21,-337,13999,-13,-6,84,8,35650,-68,33,127,0,0,3759,-43,0,9660,-1069,47,11285,-4,0,30,0,119572,0
119607,-90,-2014,331,12,36,-370,13990,-18,-22,-109,-104,35641,-57,34,127,0,0,3748,-87,0,9660,-1069,47,11295,-4,0,30,0,119604,0
119617,4,-2001,363,-40,29,-428,13969,-63,-33,-312,-152,35644,-38,33,127,0,0,3737,-131,0,9660,-1069,47,11305,-4,0,30,0,119619,0
119627,90,-1996,370,-86,8,-454,13917,-132,-96,-278,-176,35641,-22,33,127,0,0,3728,-87,0,9660,-1069,47,11315,-4,0,30,0,119619,0
119637,82,-1989,318,-121,11,-482,13856,-139,-72,-290,-192,35643,-15,34,127,0,0,3713,-98,0,9660,-1069,47,11325,-4,0,30,0,119619,0
119647,-7,-2004,261,-146,10,-499,13811,-104,22,-418,-240,35647,-8,34,127,0,0,3702,-120,0,9660,-1069,47,11335,-4,0,30,0,119697,0
119657,-10,-2027,269,-159,-1,-535,13762,-118,16,-528,-296,35647,18,34,127,0,0,3684,-142,0,9660,-1069,47,11345,-4,0,30,0,119697,0
119667,62,-2035,265,-162,15,-584,13678,-204,-80,-385,-312,35636,25,33,127,0,0,3667,-175,0,9660,-1069,47,11355,-4,0,30,0,119713,0
119677,101,-2020,245,-193,16,-594,13585,-199,-79,-379,-312,35631,9,33,127,0,0,3651,-164,0,9660,-1069,47,11365,-4,0,30,0,119713,0
119687,122,-2001,246,-199,4,-590,13493,-193,-2,-366,-280,35630,-28,34,127,0,0,3634,-175,0,9660,-1069,47,11375,-4,0,30,0,119713,0
119697,184,-2022,252,-217,-7,-572,13410,-184,20,-422,-248,35630,-40,34,127,0,0,3618,-164,0,9660,-1069,47,11385,-4,0,30,0,119713,0
119707,195,-2045,232,-220,-12,-554,13329,-187,16,-431,-304,35622,-48,34,127,0,0,3603,-164,0,9660,-1069,47,11395,-4,0,30,0,119713,0
119717,208,-2103,208,-206,-30,-523,13244,-167,-7,-389,-272,35625,-72,34,127,0,0,3588,-131,0,9660,-1069,47,11405,-4,0,30,0,119713,0
119727,803,-1949,133,-265,-32,-756,13168,-173,21,-431,-240,35632,-65,33,127,0,0,3577,-109,0,9660,-1069,47,11415,-4,0,30,0,119713,0
119737,399,-1933,-130,-365,-16,-914,13089,-184,4,-419,-384,35646,-25,34,127,0,0,3546,-307,0,9660,-1069,47,11425,-4,0,30,0,119713,0
119747,231,-1957,267,-222,-66,-483,12999,-213,-34,-535,-464,35661,-6,33,127,0,0,3526,-164,0,9660,-1069,47,11435,-4,0,30,0,119744,0
119757,305,-2192,238,-117,-99,-185,12883,-254,-70,-359,-240,35669,0,33,127,0,0,3524,0,0,9660,-1069,47,11445,-4,0,30,0,119744,0
119767,554,-2184,30,-131,6,-382,12804,-140,35,-262,-136,35667,-16,34,127,0,0,3517,-76,0,9660,-1069,47,11455,-4,0,30,0,119744,0
119777,857,-2009,-171,-170,47,-592,12762,-68,150,-365,-176,35656,-28,33,127,0,0,3502,-164,0,9660,-1069,47,11465,-4,0,30,0,119791,0
119787,642,-1874,4,-153,-67,-346,12712,-136,43,-479,-272,35647,-51,33,127,0,0,3487,-109,0,9660,-1069,47,11475,-4,0,30,0,119791,0
119797,404,-2033,264,-84,-95,-48,12646,-154,-61,-421,-184,35641,-78,33,127,0,0,3484,0,0,9660,-1069,47,11485,-4,0,30,0,119791,0
119807,399,-2090,89,-87,-19,-100,12602,-82,20,-295,-88,35641,-90,34,127,0,0,3484,0,0,9660,-1069,47,11495,-4,0,30,0,119791,0
119817,768,-1976,-11,-124,13,-246,12595,8,116,-230,-48,35645,-74,33,127,0,0,3487,21,0,9660,-1069,47,11505,-4,0,30,0,119822,0
119827,620,-1918,79,-172,-55,-239,12595,-35,74,-336,-160,35661,-50,34,127,0,0,3476,-87,0,9660,-1069,47,11515,-4,0,30,0,119822,0
119837,375,-1934,235,-199,-109,-75,12578,-35,-36,-394,-168,35649,-43,34,127,0,0,3473,-32,0,9660,-1069,47,11525,-4,0,30,0,119822,0
119847,290,-1959,136,-191,-81,-66,12573,-17,-2,-423,-112,35647,-53,34,127,0,0,3471,-32,0,9660,-1069,47,11535,-4,0,30,0,119822,0
119857,355,-2009,53,-170,-38,-170,12566,-16,15,-428,-128,35645,-50,34,127,0,0,3473,0,0,9660,-1069,47,11545,-4,0,30,0,119869,0
119867,486,-1995,89,-179,-39,-268,12548,-50,-27,-332,-128,35657,-41,34,127,0,0,3469,-32,0,9660,-1069,47,11555,-4,0,30,0,119869,0
119877,297,-1985,145,-211,-65,-301,12525,-40,-30,-347,-128,35646,-24,34,127,0,0,3460,-87,0,9660,-1069,47,11565,-4,0,30,0,119869,0
119887,242,-2077,128,-214,-70,-327,12514,-21,22,-550,-224,35638,-37,34,127,0,0,3454,-76,0,9660,-1069,47,11575,-4,0,30,0,119869,0
119897,206,-2087,113,-185,-45,-450,12498,-50,6,-623,-216,35640,-51,33,127,0,0,3447,-65,0,9660,-1069,47,11585,-4,0,30,0,119901,0
119907,217,-2044,111,-184,-11,-560,12456,-108,-70,-556,-288,35649,-52,34,127,0,0,3432,-142,0,9660,-1069,47,11595,-4,0,30,0,119901,0
119917,288,-2052,155,-211,-22,-651,12394,-154,-90,-531,-336,35648,-39,33,127,0,0,3418,-175,0,9660,-1069,47,11605,-4,0,30,0,119901,0
119927,223,-2068,201,-242,-62,-681,12310,-178,-80,-422,-328,35638,-8,33,127,0,0,3403,-186,0,9660,-1069,47,11615,-4,0,30,0,119916,0
119937,133,-2085,246,-291,-77,-776,12236,-158,-12,-471,-320,35643,-5,34,127,0,0,3385,-153,0,9660,-1069,47,11625,-4,0,30,0,119916,0
119947,75,-2098,206,-314,-56,-897,12147,-205,-12,-459,-360,35644,-2,33,127,0,0,3361,-219,0,9660,-1069,47,11635,-4,0,30,0,119947,0
119957,125,-2100,170,-314,-31,-1063,12053,-217,-36,-554,-432,35646,-3,34,127,0,0,3339,-241,0,9660,-1069,47,11645,-4,0,30,0,119947,0
119967,151,-2095,180,-306,-41,-1143,11950,-235,-32,-560,-504,35637,-26,33,127,0,0,3309,-318,0,9660,-1069,47,11655,-4,0,30,0,119947,0
119977,171,-2125,191,-295,-61,-1199,11829,-263,-47,-594,-568,35647,-42,33,127,0,0,3282,-307,0,9660,-1069,47,11665,-4,0,30,0,119994,0
119987,226,-2099,210,-286,-50,-1216,11692,-306,-59,-486,-560,35664,-53,34,127,0,0,3254,-318,0,9660,-1069,47,11675,-4,0,30,0,119994,0
119997,359,-2142,213,-263,-88,-1236,11553,-316,-33,-522,-568,35663,-29,34,127,0,0,3227,-296,0,9660,-1069,47,11685,-4,0,30,0,119994,0
120007,359,-2211,210,-234,-99,-1146,11410,-309,-10,-476,-520,35649,-11,34,127,0,0,3208,-197,0,9660,-1069,47,11695,-4,0,30,0,119994,0
120017,427,-2079,206,-220,-178,-1008,11264,-322,-11,-410,-448,35633,-10,34,127,0,0,3194,-87,0,9660,-1069,47,11705,-4,0,30,0,119994,0
120027,460,-2013,115,-227,-320,-921,11148,-237,53,-349,-256,35656,-36,34,127,0,0,3188,-54,0,9660,-1069,47,11715,-4,0,30,0,120010,0
120037,365,-2217,54,-193,-332,-814,11074,-124,144,-339,-176,35667,-63,33,127,0,0,3183,-21,0,9660,-1069,47,11725,-4,0,30,0,120026,0
120047,254,-2137,100,-198,-248,-828,11056,5,199,-440,-104,35667,-67,33,127,0,0,3186,21,0,9660,-1069,47,11735,-4,0,30,0,120057,0
120057,277,-2164,84,-190,-104,-876,11063,8,151,-463,-128,35647,-73,34,127,0,0,3181,-43,0,9660,-1069,47,11745,-4,0,30,0,120057,0
120067,288,-2106,97,-149,-68,-889,11057,-2,6,-449,-136,35652,-74,33,127,0,0,3183,-21,0,9660,-1069,47,11755,-4,0,30,0,120057,0
120077,327,-2050,104,-147,-74,-900,11058,3,-5,-455,-88,35654,-57,34,127,0,0,3183,21,0,9660,-1069,47,11765,-4,0,30,0,120057,0
120087,336,-2051,135,-159,-83,-917,11059,-5,5,-443,-136,35654,-57,34,127,0,0,3183,-10,0,9660,-1069,47,11775,-4,0,30,0,120104,0
120097,312,-2026,171,-176,-77,-931,11058,7,-4,-489,-192,35643,-40,34,127,0,0,3183,-10,0,9660,-1069,47,11785,-4,0,30,0,120104,0
120107,304,-2016,210,-212,-85,-944,11056,1,-5,-481,-72,35640,-58,34,127,0,0,3186,65,0,9660,-1069,47,11795,-4,0,30,0,120135,0
120117,434,-2033,201,-238,-110,-967,11057,-8,3,-451,-88,35638,-63,33,127,0,0,3186,32,0,9660,-1069,47,11805,-4,0,30,0,120135,0
120127,471,-2023,173,-226,-164,-969,11060,12,-6,-417,-144,35632,-46,34,127,0,0,3186,10,0,9660,-1069,47,11815,-4,0,30,0,120135,0
120137,472,-1991,150,-190,-252,-995,11059,1,-8,-394,-64,35622,-52,33,127,0,0,3186,0,0,9660,-1069,47,11825,-4,0,30,0,120135,0
120147,492,-1923,125,-141,-292,-1003,11059,5,2,-403,-104,35630,-44,33,127,0,0,3186,10,0,9660,-1069,47,11835,-4,0,30,0,120135,0
120157,586,-1929,-36,-67,-369,-954,11059,0,3,-402,-104,35631,-67,34,127,0,0,3186,0,0,9660,-1069,47,11845,-4,0,30,0,120150,0
120167,577,-1938,-52,-41,-367,-892,11060,11,3,-386,-104,35632,-49,34,127,0,0,3190,43,0,9660,-1069,47,11855,-4,0,30,0,120150,0
120177,586,-1829,-119,-17,-384,-746,11063,2,18,-272,0,35633,-45,33,127,0,0,3194,87,0,9660,-1069,47,11865,-4,0,30,0,120166,0
120187,588,-1737,-304,8,-355,-711,11079,30,21,-125,8,35643,-64,33,127,0,0,3203,98,0,9660,-1069,47,11875,-4,0,30,0,120182,0
120197,396,-1711,-302,-41,-153,-736,11097,55,17,135,24,35655,-67,34,127,0,0,3208,0,0,9660,-1069,47,11885,-4,0,30,0,120197,0
120207,371,-1754,-257,-33,7,-815,11116,47,27,69,40,35652,-73,34,127,0,0,3208,0,0,9660,-1069,47,11895,-4,0,30,0,120197,0
120217,470,-1793,-210,-59,211,-795,11136,13,0,-132,-24,35641,-68,34,127,0,0,3208,0,0,9660,-1069,47,11905,-4,0,30,0,120197,0
120227,376,-1870,46,-74,307,-840,11130,7,-56,-57,-16,35631,-80,34,127,0,0,3203,-65,0,9660,-1069,47,11915,-4,0,30,0,120213,0
120237,408,-1787,294,-100,444,-1120,11122,-45,-39,-352,-136,35645,-104,33,127,0,0,3186,-164,0,9660,-1069,47,11925,-4,0,30,0,120229,0
120247,584,-1850,294,-121,383,-1142,11078,-134,-95,-521,-256,35642,-101,34,127,0,0,3164,-197,0,9660,-1069,47,11935,-4,0,30,0,120244,0
120257,629,-1996,540,-178,142,-1115,11007,-173,-122,-559,-352,35638,-80,33,127,0,0,3139,-263,0,9660,-1069,47,11945,-4,0,30,0,120244,0
120267,588,-2031,632,-181,8,-1140,10911,-210,-92,-488,-416,35625,-54,33,127,0,0,3117,-241,0,9660,-1069,47,11955,-4,0,30,0,120244,0
120277,618,-2154,520,-196,-129,-1148,10813,-223,-49,-524,-392,35635,-50,34,127,0,0,3098,-164,0,9660,-1069,47,11965,-4,0,30,0,120275,0
120287,702,-2198,382,-244,-213,-1224,10712,-207,-6,-532,-368,35646,-35,33,127,0,0,3080,-175,0,9660,-1069,47,11975,-4,0,30,0,120275,0
120297,563,-1899,211,-291,-278,-1205,10623,-197,34,-603,-456,35651,-1,34,127,0,0,3054,-197,0,9660,-1069,47,11985,-4,0,30,0,120275,0
120307,456,-2011,174,-275,-334,-1122,10519,-241,-9,-516,-408,35643,-3,34,127,0,0,3038,-153,0,9660,-1069,47,11995,-4,0,30,0,120307,0
120317,425,-2298,186,-335,-160,-1266,10427,-195,-2,-553,-424,35653,-9,34,127,0,0,3019,-219,0,9660,-1069,47,12005,-4,0,30,0,120307,0
120327,642,-2385,254,-437,-85,-1313,10330,-206,21,-523,-360,35650,-58,34,127,0,0,3003,-131,0,9660,-1069,47,12015,-4,0,30,0,120307,0
120337,683,-2178,260,-508,-153,-1190,10252,-147,34,-556,-304,35640,-61,33,127,0,0,2994,-76,0,9660,-1069,47,12025,-4,0,30,0,120322,0
120347,612,-2103,133,-514,-225,-1110,10184,-133,60,-456,-272,35615,-50,33,127,0,0,2990,-43,0,9660,-1069,47,12035,-4,0,30,0,120322,0
120357,623,-2192,29,-447,-198,-1161,10139,-71,65,-372,-96,35615,-68,34,127,0,0,2990,-21,0,9660,-1069,47,12045,-4,0,30,0,120354,0
120367,786,-2139,50,-425,-140,-1180,10141,0,138,-582,-160,35635,-54,33,127,0,0,2990,21,0,9660,-1069,47,12055,-4,0,30,0,120358,0
120377,763,-1920,84,-450,-143,-1123,10139,-8,69,-504,-104,35648,-56,34,127,0,0,2994,32,0,9660,-1069,47,12065,-4,0,-31,0,120362,0
120387,733,-1918,22,-439,-141,-1056,10142,-8,-5,-449,-152,35657,-53,33,127,0,0,2997,54,0,9660,-1069,47,12075,-4,0,-31,0,120401,0
120397,901,-1900,-43,-426,-142,-888,10144,13,3,-321,-24,35647,-45,33,127,0,0,3008,142,0,9660,-1069,47,12085,-4,0,-30,0,120401,0
120407,917,-1811,34,-428,-116,-881,10160,31,35,-24,72,35650,-61,34,127,0,0,3023,186,0,9660,-1069,47,12095,-4,0,-30,0,120417,0
120417,926,-1776,85,-465,-145,-797,10191,86,51,291,184,35642,-41,34,127,0,0,3038,186,0,9660,-1069,47,12105,-4,0,-30,0,120417,0
120427,877,-1788,105,-479,-160,-718,10264,161,116,211,168,35632,-34,33,127,0,0,3052,142,0,9660,-1069,47,12115,-4,0,-30,0,120417,0
120437,904,-1729,78,-478,-124,-662,10349,188,95,164,152,35633,-29,33,127,0,0,3069,153,0,9660,-1069,47,12125,-4,0,-30,0,120432,0
120447,994,-1703,36,-484,-121,-647,10424,153,-3,239,200,35636,-54,34,127,0,0,3084,120,0,9660,-1069,47,12135,-4,0,-30,0,120432,0
120457,985,-1637,-12,-419,-173,-603,10493,169,-32,228,152,35651,-71,34,127,0,0,3095,98,0,9660,-1069,47,12145,-4,0,-29,0,120464,0
120467,986,-1649,-61,-391,-217,-544,10558,131,-4,140,104,35648,-48,34,127,0,0,3104,65,0,9660,-1069,47,12155,-4,0,-29,0,120464,0
120477,891,-1700,14,-375,-238,-501,10593,79,-69,272,136,35638,-32,33,127,0,0,3115,87,0,9660,-1069,47,12165,-4,0,-29,0,120464,0
120487,845,-1776,9,-378,-219,-487,10635,89,-36,226,120,35627,-28,33,127,0,0,3122,87,0,9660,-1069,47,12175,-4,0,-29,0,120479,0
120497,832,-1790,16,-409,-191,-465,10679,104,20,167,112,35630,-40,34,127,0,0,3126,43,0,9660,-1069,47,12185,-4,0,-29,0,120479,0
120507,859,-1794,18,-455,-217,-446,10714,60,-16,192,96,35634,-21,34,127,0,0,3135,65,0,9660,-1069,47,12195,-4,0,-29,0,120495,0
120517,765,-1847,77,-453,-247,-483,10753,85,-10,143,72,35632,8,33,127,0,0,3144,109,0,9660,-1069,47,12205,-4,0,-29,0,120495,0
120527,809,-1895,61,-419,-287,-538,10776,41,-17,290,128,35626,4,34,127,0,0,3148,32,0,9660,-1069,47,12215,-4,0,-29,0,120542,0
120537,676,-1982,-31,-471,-294,-586,10794,55,-44,251,72,35642,0,33,127,0,0,3153,54,0,9660,-1069,47,12225,-4,0,-29,0,120542,0
120547,605,-2052,25,-522,-246,-608,10816,40,6,228,56,35643,-1,34,127,0,0,3157,54,0,9660,-1069,47,12235,-4,0,-29,0,120542,0
120557,562,-2092,59,-591,-179,-722,10819,2,-34,377,104,35642,3,34,127,0,0,3161,65,0,9660,-1069,47,12245,-4,0,-29,0,120542,0
120567,547,-2116,62,-633,-183,-787,10832,36,-15,448,176,35623,7,34,127,0,0,3168,43,0,9660,-1069,47,12255,-4,0,-29,0,120557,0
120577,486,-2149,124,-726,-227,-937,10864,91,61,387,152,35643,-27,34,127,0,0,3175,65,0,9660,-1069,47,12265,-4,0,-29,0,120573,0
120587,191,-2029,267,-759,-343,-980,10915,112,72,292,136,35652,-29,33,127,0,0,3181,65,0,9660,-1069,47,12275,-4,0,-29,0,120573,0
120597,133,-2315,282,-1003,-411,-930,10964,86,21,266,160,35652,-26,33,127,0,0,3203,241,0,9660,-1069,47,12285,-4,0,-29,0,120589,0
120607,355,-2742,413,-1134,-282,-1699,11017,163,-1,540,344,35644,-37,33,127,0,0,3218,142,0,9660,-1069,47,12295,-4,0,-29,0,120604,0
120617,-136,-2365,455,-1324,-386,-1905,11111,205,108,302,240,35652,-55,34,127,0,0,3232,164,0,9660,-1069,47,12305,-4,0,-29,0,120604,0
120627,-407,-2380,544,-1536,-546,-1839,11203,178,57,361,352,35657,-71,33,127,0,0,3258,263,0,9660,-1069,47,12315,-4,0,-29,0,120620,0
120637,-341,-3288,672,-1495,-538,-2401,11302,242,0,385,352,35650,-48,34,127,0,0,3284,318,0,9660,-1069,47,12325,-4,0,-29,0,120620,0
120647,415,-3502,411,-1526,-417,-3208,11416,267,59,448,416,35645,-53,33,127,0,0,3309,230,0,9660,-1069,47,12335,-4,0,-29,0,120651,0
120657,275,-3055,456,-1635,-712,-3489,11545,284,61,301,312,35647,-53,33,127,0,0,3324,230,0,9660,-1069,47,12345,-4,0,-29,0,120651,0
120667,0,-2777,543,-1683,-1063,-3320,11658,227,-14,416,472,35653,-28,34,127,0,0,3370,527,0,9660,-1069,47,12355,-4,0,-29,0,120651,0
120677,-357,-3150,410,-1548,-1322,-3409,11803,352,32,560,856,35636,-16,33,127,0,0,3438,703,0,9660,-1069,47,12365,-4,0,-29,0,120667,0
120687,175,-3621,287,-1435,-1441,-3717,12004,493,185,645,1328,35633,-11,33,127,0,0,3528,911,0,9660,-1069,47,12375,-4,0,-29,0,120667,0
120697,267,-3627,536,-1427,-1852,-4020,12279,656,258,670,1656,35629,-37,34,127,0,0,3621,955,0,9660,-1069,47,12385,-4,0,-29,0,120698,0
120707,295,-3498,712,-1508,-2215,-3997,12623,806,279,717,2200,35636,-24,33,127,0,0,3737,1230,0,9660,-1069,47,12395,-4,0,-29,0,120698,0
120717,89,-3577,659,-1746,-2428,-4420,13049,989,290,764,2616,35633,-10,34,127,0,0,3847,1098,0,9660,-1069,47,12405,-4,0,-29,0,120698,0
120727,55,-3716,712,-1744,-2350,-4724,13540,1106,277,594,2760,35630,21,34,127,0,0,3955,1043,0,9660,-1069,47,12415,-4,0,-29,0,120729,0
120737,407,-3535,581,-1777,-2408,-5135,14055,1135,154,436,2696,35634,13,34,127,0,0,4040,845,0,9660,-1069,47,12425,-4,0,-29,0,120729,0
120747,736,-3337,684,-1876,-2555,-5203,14561,1102,18,394,2544,35638,-5,34,127,0,0,4122,791,0,9660,-1069,47,12435,-4,0,-29,0,120760,0
120757,423,-2935,702,-2033,-2861,-4835,15041,1037,-73,393,2304,35640,-11,33,127,0,0,4201,758,0,9660,-1069,47,12445,-4,0,-29,0,120760,0
120767,225,-2683,714,-2016,-2988,-4399,15498,999,-90,492,2376,35623,-6,34,127,0,0,4295,966,0,9660,-1069,47,12455,-4,0,-29,0,120807,0
120777,-106,-2241,612,-1885,-2892,-3871,15962,1025,-24,628,2504,35621,1,33,127,0,0,4398,1032,0,9660,-1069,47,12465,-4,0,-29,0,120807,0
120787,20,-1659,603,-1695,-2630,-3390,16446,1086,57,717,2736,35627,-13,33,127,0,0,4510,1131,0,9660,-1069,47,12475,-4,0,95,0,120807,0
120797,1783,-691,-484,-1534,-823,-3281,16955,1144,91,664,2672,35630,-14,34,127,0,0,4581,604,0,9660,-1069,47,12485,-4,0,105,0,120823,0
120807,819,-542,-957,-1614,190,-3013,17434,976,-19,180,1472,35630,8,34,127,0,0,4535,-516,0,9660,-1069,47,12495,-4,0,111,0,120823,0
120817,500,-816,-647,-769,961,-2006,17753,578,-414,-145,16,35628,10,33,127,0,0,4456,-769,0,9660,-1069,47,12505,-4,0,120,0,120823,0
120827,518,-681,-305,-438,1181,-1457,17740,-296,-995,-975,-688,35632,2,33,127,0,0,4390,-626,0,9660,-1069,47,12515,-4,0,126,0,120823,0
120837,61,-578,410,-179,1728,-1299,17541,-487,-1007,-434,-1120,35643,2,34,127,0,0,4308,-867,0,9660,-1069,47,12525,-4,0,135,0,120823,0
120847,453,-726,276,-131,2129,-1072,17274,-639,-399,-601,-1648,35650,-3,33,127,0,0,4198,-1087,0,9660,-1069,47,12535,-4,0,141,58,120854,0
120857,593,-836,-52,134,2570,-335,16918,-851,-309,-653,-2168,35646,5,33,127,0,0,4075,-1208,0,9660,-1069,47,12545,-4,0,150,53,120854,0
120867,512,-666,-260,418,2809,183,16468,-1046,-355,-697,-2640,35634,-7,34,127,0,0,3946,-1263,0,9660,-1069,47,12555,-4,0,155,49,120901,0
120877,483,-387,-211,661,3047,874,15941,-1191,-317,-625,-3024,35625,-9,33,127,0,0,3812,-1406,0,9660,-1069,47,12565,-4,0,164,44,120901,0
120887,586,-325,-106,751,3069,1427,15348,-1341,-260,-628,-3288,35618,16,34,127,0,0,3671,-1395,0,9660,-1069,47,12575,-4,0,169,41,120901,0
120897,569,-359,-55,828,2806,2399,14711,-1425,-212,-578,-3464,35626,28,34,127,0,0,3546,-1219,0,9660,-1069,47,12585,-4,0,177,36,120917,0
120907,481,-471,-177,919,2512,3020,14067,-1399,-90,-412,-3320,35630,45,33,127,0,0,3436,-1065,0,9660,-1069,47,12595,-4,0,182,33,120917,0
120917,449,-603,-243,1035,1976,3799,13458,-1309,71,-291,-2960,35645,20,34,127,0,0,3366,-703,0,9660,-1069,47,12605,-4,0,190,28,120917,0
120927,553,-754,-248,1143,1682,4230,12906,-1172,187,-176,-2424,35646,2,33,127,0,0,3306,-582,0,9660,-1069,47,12615,-4,0,195,25,120917,0
120937,792,-995,-306,1348,1483,4902,12426,-1007,255,-181,-1984,35656,-4,34,127,0,0,3260,-505,0,9660,-1069,47,12625,-4,0,202,21,120932,0
120947,915,-1059,-297,1499,1436,5410,12019,-851,279,-210,-1680,35667,-27,34,127,0,0,3216,-494,0,9660,-1069,47,12635,-4,0,207,19,120948,0
120957,957,-1019,-175,1660,1209,6167,11672,-728,248,-303,-1472,35666,-30,34,127,0,0,3170,-417,0,9660,-1069,47,12645,-4,0,214,15,120948,0
120967,914,-1061,-133,1733,898,6582,11370,-635,191,-298,-1184,35661,-39,34,127,0,0,3135,-329,0,9660,-1069,47,12655,-4,0,219,12,120948,0
120977,892,-1278,-227,1816,459,7082,11111,-533,165,-302,-896,35648,-21,33,127,0,0,3111,-230,0,9660,-1069,47,12665,-4,0,226,9,120963,0
120987,891,-1536,-305,1931,281,7371,10903,-421,182,-311,-584,35643,-15,33,127,0,0,3098,-164,0,9660,-1069,47,12675,-4,0,230,7,120979,0
120997,859,-1763,-355,2131,239,7718,10741,-333,179,-342,-464,35644,-44,33,127,0,0,3089,-87,0,9660,-1069,47,12685,-4,0,237,4,120979,0
121007,826,-1832,-349,2234,276,7892,10632,-185,183,-329,-224,35657,-36,34,127,0,0,3089,0,0,9660,-1069,47,12695,-4,0,241,2,121010,0
121017,860,-1988,-353,2345,403,8103,10579,-74,221,-304,-104,35667,-28,34,127,0,0,3087,-21,0,9660,-1069,47,12705,-4,0,248,0,121010,0
121027,789,-2142,-341,2412,521,8163,10562,-34,168,-275,-72,35663,-9,33,127,0,0,3089,21,0,9660,-1069,47,12715,-4,0,252,-1,121010,0
121037,619,-2412,-291,2472,668,8297,10559,6,86,-150,0,35649,-11,34,127,0,0,3098,98,0,9660,-1069,47,12725,-4,0,259,-3,121026,0
121047,825,-2482,-228,2475,860,8346,10579,68,75,214,168,35652,-32,34,127,0,0,3124,296,0,9660,-1069,47,12735,-4,0,263,-4,121042,0
121057,799,-2569,-247,2459,1177,8260,10670,241,191,320,296,35659,-31,34,127,0,0,3153,274,0,9660,-1069,47,12745,-4,0,269,-5,121042,0
121067,775,-2629,-327,2483,1463,8091,10805,311,223,245,312,35652,-19,33,127,0,0,3177,186,0,9660,-1069,47,12755,-4,0,273,-6,121042,0
121077,798,-2705,-287,2526,1885,7949,10926,237,43,124,88,35639,4,33,127,0,0,3179,21,0,9660,-1069,47,12765,-4,0,279,-7,121073,0
121087,810,-2645,-162,2522,2116,7969,10974,24,-193,-101,-56,35637,-6,33,127,0,0,3179,21,0,9660,-1069,47,12775,-4,0,283,-8,121073,0
121097,687,-2574,19,2481,2323,7950,10949,-32,-292,136,32,35644,-15,33,127,0,0,3175,-32,0,9660,-1069,47,12785,-4,0,289,-9,121088,0
121107,713,-2561,75,2430,2393,7932,10951,1,-46,8,40,35642,-9,34,127,0,0,3179,54,0,9660,-1069,47,12795,-4,0,293,-9,121104,0
121117,722,-2645,155,2409,2440,7921,10952,-6,44,75,-8,35636,-13,34,127,0,0,3177,-10,0,9660,-1069,47,12805,-4,0,298,-10,121135,0
121127,679,-2682,169,2432,2432,7894,10952,12,-16,47,8,35635,-33,34,127,0,0,3177,0,0,9660,-1069,47,12815,-4,0,302,-10,121135,0
121137,653,-2686,239,2433,2364,7808,10950,-3,-2,37,8,35635,-53,34,127,0,0,3177,21,0,9660,-1069,47,12825,-4,0,306,-10,121151,0
121147,578,-2715,317,2412,2241,7675,10953,4,-1,58,32,35642,-44,33,127,0,0,3177,21,0,9660,-1069,47,12835,-4,0,310,-10,121151,0
121157,401,-2758,377,2343,1879,7583,10952,7,2,134,72,35632,-31,33,127,0,0,3188,131,0,9660,-1069,47,12845,-4,0,314,-10,121151,0
121167,627,-2751,458,2276,1639,7478,10983,108,43,532,328,35632,-54,34,127,0,0,3227,417,0,9660,-1069,47,12855,-4,0,316,-10,121167,0
121177,570,-2677,515,2185,1114,7081,11088,288,200,600,728,35639,-35,33,127,0,0,3280,549,0,9660,-1069,47,12865,-4,0,320,-10,121167,0
121187,618,-2626,433,2169,705,6658,11267,429,286,540,968,35644,-37,34,127,0,0,3339,582,0,9660,-1069,47,12875,-4,0,322,-10,121167,0
121197,746,-2528,361,2203,138,5824,11488,515,210,500,1104,35642,-24,34,127,0,0,3396,571,0,9660,-1069,47,12885,-4,0,325,-10,121213,0
121207,707,-2391,328,2170,-232,5228,11710,546,132,411,1176,35632,-10,34,127,0,0,3445,483,0,9660,-1069,47,12895,-4,0,326,-10,121213,0
121217,706,-2194,313,1915,-652,4245,11967,565,60,361,1152,35633,-28,34,127,0,0,3491,461,0,9660,-1069,47,12905,-4,0,327,-9,121213,0
121227,697,-2250,294,1671,-758,3442,12221,555,4,330,992,35630,-24,33,127,0,0,3526,296,0,9660,-1069,47,12915,-4,0,327,-9,121213,0
121237,614,-2410,189,1224,-748,2210,12461,510,-32,255,752,35629,-16,33,127,0,0,3544,186,0,9660,-1069,47,12925,-4,0,327,-9,121229,0
121247,529,-2427,216,915,-649,1433,12668,434,-95,189,432,35629,7,33,127,0,0,3552,76,0,9660,-1069,47,12935,-4,0,327,-9,121229,0
121257,484,-2251,126,427,-396,252,12829,313,-158,136,240,35635,-18,34,127,0,0,3559,98,0,9660,-1069,47,12945,-4,0,327,-9,121245,0
121267,479,-2119,-2,162,-151,-510,12928,190,-213,39,64,35647,-45,34,127,0,0,3566,54,0,9660,-1069,47,12955,-4,0,327,-9,121245,0
121277,474,-2000,-152,-151,353,-1510,12954,14,-254,162,56,35643,-33,34,127,0,0,3566,0,0,9660,-1069,47,12965,-4,0,327,-9,121292,0
121287,472,-1941,-174,-325,741,-2067,12950,-11,-193,204,24,35646,-42,33,127,0,0,3570,21,0,9660,-1069,47,12975,-4,0,327,-9,121292,0
121297,500,-1912,-145,-536,1336,-2738,12951,17,-29,256,96,35640,-52,33,127,0,0,3570,21,0,9660,-1069,47,12985,-4,0,327,-9,121292,0
121307,512,-1963,-119,-624,1699,-3092,12952,-9,15,208,24,35640,-72,34,127,0,0,3566,0,0,9660,-1069,47,12995,-4,0,327,-9,121292,0
121317,-1174,-5415,-444,-892,1726,-2954,12947,-9,-18,260,96,35633,-43,33,127,0,0,3588,230,0,1230,121,48,1,1,1,327,-9,121307,0
121327,-604,-5421,2038,-467,2483,-2218,12999,236,114,1554,1912,35639,-32,33,127,0,0,3735,1582,0,1230,121,48,11,1,1,327,-9,121307,0
121337,-903,-1685,2090,381,825,-2846,13406,1147,867,1682,3672,35644,-6,34,127,0,0,3860,1208,0,1230,121,48,21,1,1,327,-9,121323,0
121347,-152,-1774,956,-410,505,-2618,14082,1612,1229,1187,4528,35635,33,33,127,0,0,3974,1175,0,1230,121,48,31,1,1,327,-9,121354,0
121357,27,-1272,-985,-1692,-43,-2237,14925,1958,779,997,5232,35618,81,34,127,0,0,4100,1285,0,1230,121,48,41,1,1,327,-9,121354,0
121367,-729,-2418,-1132,-1611,-119,-2299,15916,2272,597,930,5768,35593,111,33,127,0,0,4234,1318,0,1230,121,48,51,1,1,327,-9,121354,0
121377,-1191,-2544,-1501,-932,135,-2999,17002,2423,455,874,5984,35589,117,34,127,0,0,4348,1076,0,1230,121,48,61,1,1,327,-9,121354,0
121387,-699,-1844,-949,-664,183,-3208,18107,2422,189,652,5872,35597,105,34,127,0,0,4436,867,0,1230,121,48,71,1,1,327,-9,121385,0
121397,197,-1982,-368,-661,311,-3140,19186,2360,-34,555,5688,35605,81,33,127,0,0,4524,845,0,1230,121,48,81,1,1,327,-9,121385,0
121407,582,-2281,21,-572,338,-3149,20215,2171,-153,162,4480,35608,65,33,127,0,0,4583,582,0,1230,121,48,91,1,1,327,-9,121385,0
121417,814,-2287,159,-365,43,-3201,21065,1733,-479,-6,3264,35603,41,33,127,0,0,4620,373,0,1230,121,48,101,1,1,327,-9,121416,0
121427,846,-2101,271,-378,-308,-3023,21721,1298,-739,-49,2208,35612,0,33,127,0,0,4642,164,0,1230,121,48,111,1,1,327,-9,121416,0
121437,841,-2161,374,-396,-825,-2532,22187,911,-741,16,1448,35629,-36,33,127,0,0,4658,175,0,1230,121,48,121,1,1,327,-9,121432,0
121447,647,-2333,435,-372,-1041,-2289,22503,615,-639,187,1040,35636,-31,34,127,0,0,4673,153,0,1230,121,48,131,1,1,327,-9,121432,0
121457,261,-2159,434,-204,-879,-2197,22719,428,-460,306,584,35624,-3,33,127,0,0,4673,-21,0,1230,121,48,141,1,1,327,-9,121463,0
121467,389,-2134,415,-54,-553,-2176,22867,283,-305,296,280,35626,-34,33,127,0,0,4662,-109,0,1230,121,48,151,1,1,327,-9,121463,0
121477,-108,-1978,397,97,-232,-2285,22929,46,-299,-233,-216,35634,-49,34,127,0,0,4627,-351,0,1230,121,48,161,1,1,327,-9,121463,0
121487,-32,-1875,188,28,-90,-2261,22844,-250,-462,-395,-400,35638,-56,33,127,0,0,4590,-362,0,1230,121,48,171,1,1,327,-9,121479,0
121497,142,-2027,569,-150,-171,-2012,22705,-313,-365,-377,-568,35628,-43,33,127,0,0,4557,-340,0,1230,121,48,181,1,1,327,-9,121479,0
121507,71,-2066,653,-263,-307,-1918,22546,-352,-118,-195,-64,35622,-47,34,127,0,0,4528,-307,600,1230,121,48,191,1,1,327,-9,121495,0
121517,-209,-1939,439,-333,-264,-1866,22483,-30,174,416,160,35630,-72,33,127,0,0,4491,-351,800,1230,121,48,201,1,1,327,-9,121510,0
121527,-49,-2139,261,-284,-130,-1928,22532,139,426,459,336,35635,-58,34,127,0,0,4451,-395,1000,1230,121,48,211,1,1,327,-9,121510,0
121537,-1522,-1982,366,-106,-224,-1439,22628,212,272,627,368,35641,-49,34,127,0,0,4407,-384,1200,1230,121,48,221,1,1,327,-9,121510,0
121547,826,-2341,352,-216,-393,-1485,22618,-125,-146,839,64,35637,-26,34,127,0,0,4398,-98,1400,1230,121,48,231,1,1,327,-9,121526,0
121557,122,-1936,378,-230,-398,-1559,22472,-402,-492,809,-56,35642,-57,34,127,0,0,4368,-340,1500,1230,121,48,241,1,1,327,-9,121557,0
121567,-83,-2108,-2,-159,-62,-1818,22191,-713,-516,644,-352,35657,-42,34,127,0,0,4315,-549,1500,1230,121,48,251,1,1,327,-9,121557,0
121577,-188,-2044,-187,51,444,-2096,21813,-851,-436,707,-432,35653,-47,34,127,0,0,4238,-769,1500,1230,121,48,261,1,1,327,-9,121557,0
121587,-6,-2011,199,159,280,-1962,21448,-749,-116,898,-168,35645,-36,33,127,0,0,4170,-714,1500,1230,121,48,271,1,1,327,-9,121573,0
121597,237,-2049,740,65,-141,-1350,21215,-396,324,1154,64,35652,-66,33,127,0,0,4124,-428,1500,1230,121,48,281,1,1,327,-9,121604,0
121607,410,-2085,872,-89,-351,-1060,21105,-209,500,945,88,35660,-89,34,127,0,0,4104,-197,1500,1230,121,48,291,1,1,327,-9,121604,0
121617,167,-2140,431,-147,-397,-1086,20999,-262,198,869,40,35660,-61,33,127,0,0,4086,-153,1500,1230,121,48,301,1,1,327,-9,121604,0
121627,18,-2092,116,-92,-130,-1299,20823,-448,-165,814,-96,35637,-28,33,127,0,0,4056,-318,1500,1230,121,48,311,1,1,327,-9,121604,0
121637,42,-2068,25,78,169,-1539,20566,-617,-305,753,-208,35626,-21,33,127,0,0,4010,-450,1500,1230,121,48,321,1,1,327,-9,121635,0
121647,177,-2049,185,137,278,-1571,20255,-701,-249,782,-160,35639,-46,34,127,0,0,3950,-593,1500,1230,121,48,331,1,1,327,-9,121635,0
121657,135,-1932,354,167,51,-1339,19991,-506,14,1022,16,35652,-55,33,127,0,0,3900,-494,1500,1230,121,48,341,1,1,327,-9,121635,0
121667,521,-1916,447,26,-149,-1030,19856,-211,379,988,112,35648,-64,33,127,0,0,3871,-241,1500,1230,121,48,351,1,1,327,-9,121651,0
121677,313,-1902,425,-8,-485,-797,19785,-156,361,897,112,35650,-57,34,127,0,0,3860,-98,1500,1230,121,48,361,1,1,327,-9,121651,0
121687,23,-1903,246,-20,-316,-837,19691,-217,40,874,72,35654,-88,33,127,0,0,3847,-142,1500,1230,121,48,371,1,1,327,-9,121682,0
121697,183,-1997,162,51,22,-1075,19565,-311,-109,863,16,35656,-81,34,127,0,0,3823,-241,1500,1230,121,48,381,1,1,327,-9,121682,0
121707,285,-2001,282,88,61,-1166,19384,-423,-172,862,-48,35644,-77,33,127,0,0,3788,-351,1500,1230,121,48,391,1,1,327,-9,121682,0
121717,312,-2034,514,84,-12,-1194,19176,-458,-152,860,-16,35634,-40,33,127,0,0,3750,-373,1500,1230,121,48,401,1,1,327,-9,121713,0
121727,146,-1989,456,33,-61,-1165,18991,-373,12,936,32,35642,-49,34,127,0,0,3715,-340,1500,1230,121,48,411,1,1,327,-9,121713,0
121737,204,-1950,422,-40,-171,-1076,18845,-296,132,910,40,35651,-64,34,127,0,0,3689,-230,1500,1230,121,48,421,1,1,327,-9,121729,0
121747,343,-1946,355,-69,-201,-1093,18709,-320,88,880,16,35653,-60,34,127,0,0,3662,-274,1500,1230,121,48,431,1,1,327,-9,121729,0
121757,171,-1914,190,-72,-128,-1231,18545,-385,-57,888,-16,35641,-41,33,127,0,0,3634,-285,1500,1230,121,48,441,1,1,327,-9,121760,0
121767,243,-1945,128,-57,-42,-1341,18350,-446,-116,849,-40,35643,-20,34,127,0,0,3594,-373,1500,1230,121,48,451,1,1,327,-9,121760,0
121777,289,-1959,304,-32,-8,-1430,18132,-494,-105,872,-64,35651,-42,34,127,0,0,3555,-417,1500,1230,121,48,461,1,1,327,-9,121776,0
121787,250,-2013,440,-46,-31,-1454,17907,-487,-52,897,-40,35657,-43,33,127,0,0,3513,-395,1520,1230,121,48,471,1,1,327,-9,121776,0
121797,241,-2040,541,-109,-110,-1419,17702,-434,33,961,24,35644,-46,33,127,0,0,3473,-362,1660,1230,121,48,481,1,1,327,-9,121791,0
121807,421,-2033,552,-162,-157,-1402,17524,-386,97,1033,32,35646,-58,33,127,0,0,3438,-340,1800,1230,121,48,491,1,1,327,-9,121791,0
121817,459,-1956,481,-217,-215,-1405,17355,-384,63,1110,16,35648,-62,33,127,0,0,3401,-373,1940,1230,121,48,501,1,1,327,-9,121791,0
121827,396,-1958,386,-248,-180,-1451,17161,-446,-35,1188,-48,35653,-66,34,127,0,0,3368,-329,2100,1230,121,48,511,1,1,327,-9,121823,0
121837,239,-1982,334,-271,-115,-1512,16946,-485,-90,1266,-8,35655,-64,34,127,0,0,3331,-373,2270,1230,121,48,521,1,1,327,-9,121823,0
121847,320,-2008,360,-299,-115,-1506,16736,-451,-28,1400,40,35650,-45,34,127,0,0,3289,-428,2450,1230,121,48,531,1,1,327,-9,121901,0
121857,399,-2055,408,-373,-203,-1468,16551,-394,64,1534,80,35660,-60,33,127,0,0,3251,-373,2590,1230,121,48,541,1,1,327,-9,121901,0
121867,423,-2030,456,-393,-268,-1467,16378,-384,67,1569,48,35660,-61,34,127,0,0,3216,-340,2670,1230,121,48,551,1,1,327,-9,121916,0
121877,341,-2032,433,-429,-263,-1588,16179,-463,-38,1568,-16,35659,-58,33,127,0,0,3179,-395,2750,1230,121,48,561,1,1,327,-9,121916,0
121887,288,-2036,326,-404,-192,-1705,15952,-515,-114,1639,0,35649,-34,33,127,0,0,3133,-461,2830,1230,121,48,571,1,1,327,-9,121916,0
121897,349,-1961,254,-386,-160,-1817,15715,-513,-70,1708,32,35647,-58,34,127,0,0,3089,-450,2920,1230,121,48,581,1,1,327,-9,121916,0
121907,310,-1982,324,-427,-215,-1794,15487,-491,9,1771,56,35650,-75,33,127,0,0,3041,-483,3000,1230,121,48,591,1,1,327,-9,121916,0
121917,300,-2073,485,-452,-347,-1733,15283,-429,70,1855,104,35651,-64,34,127,0,0,3001,-384,3080,1230,121,48,601,1,1,327,-9,121916,0
121927,312,-2103,459,-474,-368,-1704,15118,-345,122,1893,128,35647,-44,33,127,0,0,2968,-296,3160,1230,121,48,611,1,1,327,-9,121916,0
121937,388,-1950,346,-524,-478,-1811,14972,-315,105,1924,152,35651,-53,33,127,0,0,2939,-252,3240,1230,121,48,621,1,1,327,-9,121932,0
121947,553,-2039,312,-534,-618,-1845,14835,-303,46,1969,184,35658,-70,34,127,0,0,2915,-241,3330,1230,121,48,631,1,1,327,-9,121932,0
121957,560,-2440,437,-420,-1054,-1815,14708,-270,30,2031,192,35673,-57,33,127,0,0,2889,-230,3420,1230,121,48,641,1,1,327,-9,121963,0
121967,205,-2589,709,-465,-950,-1846,14597,-235,50,2082,240,35661,-29,33,127,0,0,2869,-175,3510,1230,121,48,651,1,1,327,-9,121963,0
121977,-308,-2332,449,-703,-725,-2067,14544,-59,145,2071,472,35660,-19,34,127,0,0,2858,-87,3600,1230,121,48,661,1,1,327,-9,121963,0
121987,101,-2286,302,-777,-642,-2186,14540,1,214,2159,592,35650,-7,33,127,0,0,2860,0,3710,1230,121,48,671,1,1,327,-9,121979,0
121997,58,-2057,4,-781,-817,-2404,14539,-1,86,2268,584,35650,-5,34,127,0,0,2860,10,3820,1230,121,48,681,1,1,327,-9,121979,0
122007,-14,-2160,74,-830,-836,-2616,14529,-33,-19,2378,504,35645,0,34,127,0,0,2856,-43,3950,1230,121,48,691,1,1,327,-9,121994,0
122017,-54,-2384,285,-868,-686,-3061,14494,-96,-71,2451,408,35647,3,34,127,0,0,2849,-76,4080,1230,121,48,701,1,1,327,-9,122010,0
122027,78,-2336,335,-976,-607,-3320,14438,-140,-89,2494,408,35646,-19,34,127,0,0,2838,-87,4220,1230,121,48,711,1,1,327,-9,122010,0
122037,203,-2417,353,-1108,-648,-3565,14390,-89,-19,2570,472,35645,-31,33,127,0,0,2827,-87,4360,1230,121,48,721,1,1,327,-9,122073,0
122047,270,-2486,432,-1075,-792,-3728,14372,-12,83,2597,640,35638,-10,33,127,0,0,2825,-43,4500,1230,121,48,731,1,1,327,-9,122073,0
122057,235,-2617,542,-1093,-959,-3959,14378,5,101,2713,760,35633,15,34,127,0,0,2827,10,4660,1230,121,48,741,1,1,327,-9,122073,0
122067,-213,-2586,700,-1136,-1091,-4044,14386,22,39,2855,800,35625,17,34,127,0,0,2827,21,4830,1230,121,48,751,1,1,327,-9,122088,0
122077,-364,-2722,481,-1317,-891,-4523,14425,134,68,2764,1296,35626,23,33,127,0,0,2838,131,4990,1230,121,48,761,1,1,327,-9,122088,0
122087,-223,-3010,671,-1353,-796,-4572,14556,362,263,2905,1968,35626,56,34,127,0,0,2863,252,5170,1230,121,48,771,1,1,327,-9,122088,0
122097,279,-3445,1081,-1592,-1262,-4466,14822,684,452,3101,2952,35612,96,34,127,0,0,2906,505,5370,1230,121,48,781,1,1,327,-9,122088,0
122107,194,-3436,887,-1550,-1642,-4421,15284,1158,659,3328,4112,35592,129,34,127,0,0,2994,911,5620,1230,121,48,791,1,1,327,-9,122088,0
122117,-142,-3724,774,-1780,-2153,-4457,15965,1639,706,3507,5280,35586,204,34,127,0,0,3128,1406,5940,1230,121,48,801,1,1,327,-9,122104,0
122127,-539,-3942,894,-1606,-2336,-4700,16820,1964,784,3625,5960,35562,331,33,127,0,0,3291,1636,6090,1230,121,48,811,1,1,327,-9,122119,0
122137,-824,-3647,708,-1117,-2333,-5130,17764,2109,637,3658,6192,35512,456,34,127,0,0,3469,1757,6270,1230,121,48,821,1,1,327,-9,122135,0
122147,-666,-3393,490,-1013,-2508,-5428,18760,2234,258,3729,6720,35465,541,34,127,0,0,3658,1911,6440,1230,121,48,831,1,1,327,-9,122135,0
122157,-240,-3476,340,-1120,-2650,-5957,19835,2418,250,3833,7072,35437,597,33,127,0,0,3858,2021,6590,1230,121,48,841,1,1,327,-9,122151,0
122167,466,-3800,330,-1148,-2782,-6056,20959,2486,258,3876,7304,35421,640,34,127,0,0,4062,2043,6490,1230,121,48,851,1,1,327,-9,122151,0
122177,802,-3905,613,-1212,-3508,-5964,22067,2396,69,3729,6992,35410,676,33,127,0,0,4275,2109,5890,1230,121,48,861,1,1,327,-9,122166,0
122187,794,-3632,731,-1355,-3718,-6084,23096,2195,-184,3368,6264,35406,693,33,127,0,0,4480,2021,5140,1230,121,48,871,1,1,327,-9,122182,0
122197,508,-3361,857,-1502,-3942,-6212,24003,1909,-388,2832,5056,35440,605,34,127,0,0,4651,1636,3730,1230,121,48,881,1,1,327,-9,122182,0
122207,415,-3230,968,-1522,-4175,-6107,24739,1479,-551,1889,3744,35481,482,33,127,0,0,4779,1241,2280,1230,121,48,891,1,1,327,-9,122260,0
122217,268,-2494,1077,-1410,-4470,-5420,25229,1082,-724,1051,2400,35525,332,34,127,0,0,4869,933,1270,1230,121,48,901,1,1,327,-9,122260,0
122227,-288,-1476,1222,-1171,-4550,-4535,25611,761,-717,513,1544,35563,174,33,127,0,0,4935,659,660,1230,121,48,911,1,1,327,-9,122276,0
122237,1488,-1350,-368,-1374,-2399,-3487,25904,595,-464,-961,-1088,35597,60,33,127,0,0,4981,329,0,1230,121,48,921,1,1,327,-9,122276,0
122247,616,-1109,-503,-1541,-970,-2759,25632,-927,-1306,-1156,-3000,35620,-2,33,127,0,0,4930,-637,0,1230,121,48,931,0,1,327,-9,122276,0
122257,820,-912,-392,-622,386,-1944,24972,-1764,-1866,-2109,-5824,35618,36,33,127,0,0,4820,-1142,0,1230,121,48,941,0,1,327,-9,122276,0
122267,-234,-571,-463,-162,505,-1601,23751,-3152,-1817,-3364,-9424,35576,166,33,127,0,0,4662,-1582,0,1230,121,48,951,0,1,327,-9,122276,0
122277,-178,-609,82,133,645,-1104,22036,-3721,-2019,-95,-7552,35523,321,33,127,0,0,4502,-1614,0,1230,121,48,961,0,1,327,-9,122276,0
122287,176,-576,288,276,532,-317,20496,-3257,-374,470,-6048,35541,292,34,127,0,0,4357,-1406,0,1230,121,48,971,0,1,327,-9,122276,0
122297,475,-378,56,380,564,887,19166,-2759,797,579,-4456,35589,162,34,127,0,0,4253,-999,0,1230,121,48,981,0,1,327,-9,122291,0
122307,380,-214,-80,506,527,1544,18124,-2102,973,560,-3120,35662,-65,34,127,0,0,4181,-725,0,1230,121,48,991,0,1,327,-9,122291,0
122317,467,-59,-276,810,544,2321,17336,-1574,1043,369,-2144,35682,-97,34,127,0,0,4111,-703,0,1230,121,48,1001,0,1,327,-9,122323,0
122327,533,-58,-306,1036,539,2805,16745,-1188,848,186,-1536,35677,-103,34,127,0,0,4040,-714,0,1230,121,48,1011,0,1,327,-9,122323,0
122337,590,-119,-247,1346,585,3708,16300,-905,635,18,-1344,35663,-67,34,127,0,0,3966,-714,0,1230,121,48,1021,0,1,327,-9,122323,0
122347,496,-137,-209,1531,661,4342,15954,-719,448,-184,-1320,35633,-28,33,127,0,0,3889,-758,0,1230,121,48,1031,0,1,327,-9,122323,0
122357,409,-181,-130,1811,692,5220,15654,-649,254,-353,-1376,35623,-6,33,127,0,0,3816,-747,0,1230,121,48,1041,0,1,327,-9,122354,0
122367,363,-228,-83,1963,698,5730,15363,-643,90,-468,-1376,35625,-23,34,127,0,0,3750,-659,0,1230,121,48,1051,0,1,327,-9,122354,0
122377,316,-319,-34,2147,711,6458,15072,-648,13,-462,-1424,35630,-12,33,127,0,0,3684,-681,0,1230,121,48,1061,0,1,327,-9,122369,0
122387,317,-368,-15,2234,754,6950,14781,-641,-8,-462,-1456,35630,-2,34,127,0,0,3623,-604,0,1230,121,48,1071,0,1,327,-9,122385,0
122397,296,-474,-5,2356,854,7686,14498,-618,16,-482,-1352,35635,-9,33,127,0,0,3566,-527,0,1230,121,48,1081,0,1,327,-9,122385,0
122407,277,-559,-20,2429,967,8163,14222,-592,33,-404,-1248,35633,-33,33,127,0,0,3515,-549,0,1230,121,48,1091,0,1,327,-9,122385,0
122417,296,-716,-13,2507,1088,8878,13968,-542,61,-382,-1120,35638,-63,34,127,0,0,3478,-362,0,1230,121,48,1101,0,1,327,-9,122416,0
122427,301,-853,25,2536,1117,9318,13742,-466,98,-367,-848,35631,-18,34,127,0,0,3449,-230,0,1230,121,48,1111,0,1,327,-9,122416,0
122437,307,-1225,161,2549,1064,9900,13545,-412,117,-317,-576,35627,-14,33,127,0,0,3434,-98,0,1230,121,48,1121,0,1,327,-9,122416,0
122447,405,-1542,194,2607,1065,10131,13390,-294,133,-242,-200,35621,-24,33,127,0,0,3436,10,0,1230,121,48,1131,0,1,327,-9,122432,0
122457,386,-1979,183,2768,1100,10424,13325,-58,270,172,112,35629,-42,33,127,0,0,3440,43,0,1230,121,48,1141,0,1,327,-9,122447,0
122467,692,-2201,253,2856,1132,10717,13377,169,411,282,272,35638,-47,34,127,0,0,3465,274,0,1230,121,48,1151,0,1,327,-9,122463,0
122477,727,-2361,464,2967,1068,11056,13481,257,315,405,584,35636,-38,34,127,0,0,3506,450,0,1230,121,48,1161,0,1,327,-9,122463,0
122487,791,-2524,491,3050,1070,11099,13635,368,188,539,936,35626,-39,34,127,0,0,3561,571,0,1230,121,48,1171,0,1,327,-9,122479,0
122497,844,-2863,292,3231,1184,10951,13841,490,199,525,1160,35630,-45,33,127,0,0,3605,395,0,1230,121,48,1181,0,1,327,-9,122479,0
122507,958,-3041,322,3433,1389,10775,14083,540,166,418,1120,35633,-18,34,127,0,0,3627,208,0,1230,121,48,1191,0,1,327,-9,122511,0
122517,827,-3074,216,3803,1684,10723,14325,517,51,295,880,35634,-1,33,127,0,0,3640,76,0,1230,121,48,1201,0,1,327,-9,122511,0
122527,662,-2999,304,3994,1805,10631,14539,439,-69,249,624,35626,-6,34,127,0,0,3643,0,0,1230,121,48,1211,0,1,327,-9,122511,0
122537,574,-3016,556,4234,1830,10336,14720,362,-121,210,360,35623,-29,34,127,0,0,3645,21,0,1230,121,48,1221,0,1,327,-9,122527,0
122547,601,-3064,713,4326,1775,10078,14860,289,-145,181,168,35623,-33,33,127,0,0,3645,-10,0,1230,121,48,1231,0,1,327,-9,122527,0
122557,659,-3371,763,4356,1690,9593,14939,136,-193,176,112,35628,-1,34,127,0,0,3645,21,0,1230,121,48,1241,0,1,327,-9,122558,0
122567,644,-3348,675,4366,1695,9183,14984,73,-180,280,144,35624,-11,33,127,0,0,3645,21,0,1230,121,48,1251,0,1,327,-9,122558,0
122577,660,-3307,453,4121,1687,8454,15029,124,-56,318,200,35626,-46,33,127,0,0,3649,76,0,1230,121,48,1261,0,1,327,-9,122590,0
122587,712,-3326,492,3812,1609,7840,15083,131,31,453,256,35629,-90,34,127,0,0,3658,98,0,1230,121,48,1271,0,1,327,-9,122590,0
122597,781,-3556,600,3375,1346,6560,15165,200,69,428,352,35633,-87,33,127,0,0,3671,153,0,1230,121,48,1281,0,1,327,-9,122605,0
122607,960,-3572,689,3109,1056,5493,15277,243,115,356,352,35632,-61,33,127,0,0,3691,197,0,1230,121,48,1291,0,1,327,-9,122605,0
122617,1308,-3027,750,2533,336,3547,15407,304,87,370,416,35628,-38,34,127,0,0,3713,219,0,1230,121,48,1301,0,1,327,-9,122621,0
122627,1486,-2736,651,2053,-133,2165,15550,316,59,356,496,35638,-11,33,127,0,0,3733,219,0,1230,121,48,1311,0,1,327,-9,122636,0
122637,1346,-2631,253,1089,-477,125,15702,334,38,321,464,35640,-9,34,127,0,0,3746,120,0,1230,121,48,1321,0,1,327,-9,122636,0
122647,1151,-2733,-26,542,-384,-1204,15851,327,12,283,400,35640,-16,33,127,0,0,3757,109,0,1230,121,48,1331,0,1,327,-9,122636,0
122657,1032,-2686,-312,-116,97,-2900,15975,267,-55,302,320,35634,-30,33,127,0,0,3763,87,0,1230,121,48,1341,0,1,327,-9,122636,0
122667,1023,-2864,-419,-480,616,-3722,16081,198,-87,259,232,35654,-61,34,127,0,0,3766,54,0,1230,121,48,1351,0,1,327,-9,122730,0
122677,-2058,-9412,-1507,-1523,1949,-3549,16149,143,-113,359,200,35657,-60,34,127,0,0,3803,406,0,1230,121,48,1361,0,1,327,-9,122730,0
122687,-1318,-7986,2863,-986,4177,-3461,16255,359,28,1017,1152,35654,-22,33,127,0,0,4001,2054,0,6810,2291,49,7,1,1,311,-6,122730,0
122697,-1507,-794,1490,765,2993,-5708,16544,797,495,1325,2448,35629,16,34,127,0,0,4084,758,0,6810,2291,49,17,1,1,311,-6,122730,0
122707,1095,-891,-175,-712,2418,-5208,17003,1061,692,882,2824,35620,12,34,127,0,0,4159,769,0,6810,2291,49,27,1,1,311,-6,122730,0
122717,444,-662,-1897,-2572,1191,-3521,17539,1237,434,1063,3520,35620,20,33,127,0,0,4273,1241,0,6810,2291,49,37,1,1,311,-6,122746,0
122727,-1044,-2129,-1531,-2386,941,-3222,18216,1617,424,1316,4600,35611,53,34,127,0,0,4451,1790,0,6810,2291,49,47,1,1,311,-6,122746,0
122737,-1288,-2242,-2729,-1600,1148,-4447,19089,2047,672,1151,5328,35596,97,33,127,0,0,4594,1351,0,6810,2291,49,57,1,1,311,-6,122746,0
122747,43,-1641,-2216,-1254,559,-4744,20056,2110,543,538,5024,35586,105,33,127,0,0,4691,933,0,6810,2291,49,67,1,1,311,-6,122746,0
122757,1663,-2246,-516,-1007,-90,-4047,20966,1945,4,540,4792,35598,66,34,127,0,0,4776,834,0,6810,2291,49,77,1,1,311,-6,122746,0
122767,1199,-2444,445,-855,-927,-3875,21815,1828,-244,476,4280,35615,34,33,127,0,0,4844,648,0,6810,2291,49,87,1,1,311,-6,122761,0
122777,865,-2450,743,-1024,-1438,-4129,22571,1587,-295,152,3296,35635,11,34,127,0,0,4882,296,0,6810,2291,49,97,1,1,311,-6,122777,0
122787,724,-2196,275,-1099,-1323,-4011,23195,1272,-439,10,2064,35638,-13,34,127,0,0,4882,-32,0,6810,2291,49,107,1,1,311,-6,122777,0
122797,464,-2266,136,-888,-752,-4097,23658,902,-570,-95,864,35643,-23,33,127,0,0,4847,-395,0,6810,2291,49,117,1,1,311,-6,122777,0
122807,72,-1977,210,-608,-295,-4234,23921,400,-703,-847,-328,35640,-41,33,127,0,0,4787,-626,0,6810,2291,49,127,1,1,311,-6,122793,0
122817,706,-2415,455,-250,-158,-4189,23811,-374,-1127,-648,-976,35647,-30,33,127,0,0,4717,-703,0,6810,2291,49,137,1,1,311,-6,122824,0
122827,709,-2122,690,-110,90,-4375,23608,-413,-835,42,16,35647,-11,33,127,0,0,4603,-1197,680,6810,2291,49,147,1,1,311,-6,122824,0
122837,1162,-2307,1539,-365,-362,-2728,23439,-391,-37,474,-120,35648,-35,34,127,0,0,4557,-362,880,6810,2291,49,157,1,1,311,-6,122824,0
122847,1011,-2161,1483,-660,-569,-2647,23137,-821,-225,419,-968,35644,-46,33,127,0,0,4500,-604,1080,6810,2291,49,167,1,1,311,-6,122839,0
122857,-109,-2025,414,-977,9,-3052,22615,-1261,-727,528,-1712,35646,-48,34,127,0,0,4403,-999,1280,6810,2291,49,177,1,1,311,-6,122855,0
122867,-491,-1930,-372,-751,486,-3283,22000,-1355,-567,663,-1640,35660,-54,34,127,0,0,4280,-1263,1480,6810,2291,49,187,1,1,311,-6,122855,0
122877,53,-1902,-391,-397,345,-2904,21441,-1164,-10,810,-912,35664,-74,34,127,0,0,4170,-1098,1500,6810,2291,49,197,1,1,311,-6,122855,0
122887,447,-1954,266,-250,11,-2347,21012,-848,387,902,-168,35670,-112,33,127,0,0,4089,-823,1500,6810,2291,49,207,1,1,311,-6,122871,0
122897,176,-2114,791,-458,-352,-1569,20780,-352,655,1280,128,35666,-90,34,127,0,0,4045,-395,1500,6810,2291,49,217,1,1,311,-6,122886,0
122907,538,-2279,790,-501,-458,-1419,20675,-248,617,939,32,35656,-75,33,127,0,0,4023,-186,1500,6810,2291,49,227,1,1,311,-6,122902,0
122917,42,-2140,277,-435,-268,-1573,20483,-531,-3,801,-216,35665,-82,34,127,0,0,3994,-329,1500,6810,2291,49,237,1,1,311,-6,122918,0
122927,-360,-2090,13,-278,183,-2004,20109,-924,-560,613,-712,35664,-87,34,127,0,0,3926,-703,1500,6810,2291,49,247,1,1,311,-6,122918,0
122937,89,-1974,-38,-116,904,-2266,19650,-1000,-488,729,-544,35672,-80,33,127,0,0,3836,-900,1500,6810,2291,49,257,1,1,311,-6,122918,0
122947,712,-1893,451,-71,492,-2001,19261,-762,31,954,-16,35661,-56,33,127,0,0,3766,-670,1500,6810,2291,49,267,1,1,311,-6,122933,0
122957,784,-1816,769,-215,-384,-987,19082,-229,586,1280,192,35661,-30,34,127,0,0,3728,-329,1500,6810,2291,49,277,1,1,311,-6,123011,0
122967,664,-1738,598,-373,-621,-657,19059,-25,710,898,224,35671,-46,33,127,0,0,3724,-54,1500,6810,2291,49,287,1,1,311,-6,123011,0
122977,304,-1903,215,-342,-300,-792,19015,-140,189,921,112,35667,-46,34,127,0,0,3722,-10,1520,6810,2291,49,297,1,1,311,-6,123011,0
122987,108,-1923,-7,-181,-18,-1067,18905,-295,-198,902,24,35657,-58,33,127,0,0,3697,-241,1620,6810,2291,49,307,1,1,311,-6,123011,0
122997,387,-2012,273,-40,96,-1298,18717,-464,-277,931,-96,35641,-54,33,127,0,0,3662,-384,1750,6810,2291,49,317,1,1,311,-6,123027,0
123007,389,-2032,499,-77,95,-1337,18469,-566,-260,950,-64,35643,-79,34,127,0,0,3614,-505,1890,6810,2291,49,327,1,1,311,-6,123027,0
123017,136,-2026,465,-153,-24,-1165,18252,-400,-30,1278,104,35653,-66,33,127,0,0,3572,-428,2020,6810,2291,49,337,1,1,311,-6,123027,0
123027,457,-1969,407,-180,-211,-1003,18151,-176,319,1306,176,35652,-45,34,127,0,0,3555,-142,2150,6810,2291,49,347,1,1,311,-6,123027,0
123037,352,-1868,334,-215,-459,-812,18091,-114,278,1299,216,35645,-48,33,127,0,0,3544,-98,2270,6810,2291,49,357,1,1,311,-6,123027,0
123047,250,-1852,303,-253,-384,-890,18020,-176,36,1394,136,35651,-56,33,127,0,0,3528,-164,2390,6810,2291,49,367,1,1,311,-6,123027,0
123057,137,-1958,200,-215,-155,-1153,17901,-297,-126,1434,72,35661,-72,34,127,0,0,3509,-230,2530,6810,2291,49,377,1,1,311,-6,123058,0
123067,259,-1869,162,-164,-45,-1310,17728,-419,-206,1497,24,35668,-37,34,127,0,0,3476,-318,2700,6810,2291,49,387,1,1,311,-6,123058,0
123077,186,-1945,283,-114,-65,-1343,17522,-456,-159,1595,32,35651,-24,33,127,0,0,3436,-384,2880,6810,2291,49,397,1,1,311,-6,123058,0
123087,241,-2025,411,-131,-160,-1302,17345,-357,17,1820,128,35635,-38,33,127,0,0,3403,-307,3090,6810,2291,49,407,1,1,311,-6,123074,0
123097,349,-2014,540,-192,-276,-1238,17216,-261,158,1932,184,35643,-56,34,127,0,0,3375,-252,3310,6810,2291,49,417,1,1,311,-6,123074,0
123107,369,-2017,522,-236,-382,-1223,17102,-240,114,2026,200,35647,-53,34,127,0,0,3353,-241,3430,6810,2291,49,427,1,1,311,-6,123105,0
123117,324,-1947,369,-304,-412,-1343,16973,-317,2,2058,128,35651,-24,34,127,0,0,3331,-197,3540,6810,2291,49,437,1,1,311,-6,123105,0
123127,219,-1972,261,-322,-372,-1438,16809,-378,-116,2121,104,35644,15,34,127,0,0,3298,-307,3660,6810,2291,49,447,1,1,311,-6,123136,0
123137,100,-1960,295,-305,-330,-1658,16610,-468,-155,2167,32,35665,-13,34,127,0,0,3260,-384,3780,6810,2291,49,457,1,1,311,-6,123136,0
123147,64,-1926,425,-326,-321,-1855,16369,-564,-156,2206,0,35660,-30,34,127,0,0,3212,-494,3910,6810,2291,49,467,1,1,311,-6,123136,0
123157,-61,-1976,578,-429,-295,-2144,16095,-614,-155,2266,32,35663,-33,33,127,0,0,3161,-516,4030,6810,2291,49,477,1,1,311,-6,123136,0
123167,-65,-2064,658,-512,-354,-2267,15824,-583,-58,2503,40,35635,-30,33,127,0,0,3106,-516,4170,6810,2291,49,487,1,1,311,-6,123167,0
123177,40,-2017,779,-657,-609,-2438,15576,-531,58,2612,64,35643,-60,34,127,0,0,3056,-483,4300,6810,2291,49,497,1,1,311,-6,123167,0
123187,11,-2010,802,-750,-824,-2616,15335,-545,58,2600,64,35648,-75,33,127,0,0,3008,-461,4450,6810,2291,49,507,1,1,311,-6,123167,0
123197,65,-2050,897,-778,-1261,-3034,15066,-612,-47,2624,0,35649,-59,34,127,0,0,2955,-527,4600,6810,2291,49,517,1,1,311,-6,123183,0
123207,-63,-2477,915,-831,-1320,-3290,14747,-742,-154,2700,-32,35653,-53,33,127,0,0,2895,-593,4760,6810,2291,49,527,1,1,311,-6,123199,0
123217,-729,-2607,720,-1200,-1047,-3696,14447,-717,-125,2916,16,35654,-57,34,127,0,0,2834,-582,4920,6810,2291,49,537,1,1,311,-6,123199,0
123227,-703,-2702,513,-1432,-901,-3939,14186,-499,129,3261,160,35661,-103,34,127,0,0,2786,-461,5080,6810,2291,49,547,1,1,311,-6,123214,0
123237,-190,-2686,233,-1491,-928,-4153,14030,-312,355,3175,264,35660,-78,33,127,0,0,2755,-285,5270,6810,2291,49,557,1,1,311,-6,123230,0
123247,-57,-2534,105,-1532,-1048,-4331,13911,-248,245,3234,376,35649,-52,33,127,0,0,2733,-197,5490,6810,2291,49,567,1,1,311,-6,123246,0
123257,-86,-2849,377,-1681,-1080,-4657,13819,-177,110,3316,600,35638,-14,34,127,0,0,2715,-164,5750,6810,2291,49,577,1,1,311,-6,123246,0
123267,19,-3092,560,-1739,-1216,-4853,13785,-11,174,3357,1120,35626,26,34,127,0,0,2709,-54,6030,6810,2291,49,587,1,1,311,-6,123261,0
123277,90,-3273,727,-1812,-1353,-5143,13814,67,242,3714,1256,35626,53,33,127,0,0,2715,32,6370,6810,2291,49,597,1,1,311,-6,123277,0
123287,-505,-3053,839,-1751,-1563,-5296,13835,55,80,3940,1344,35612,85,33,127,0,0,2720,54,6770,6810,2291,49,607,1,1,311,-6,123277,0
123297,-644,-3322,638,-1814,-1451,-5858,13923,270,127,3940,2128,35599,125,33,127,0,0,2739,241,7190,6810,2291,49,617,1,1,311,-6,123277,0
123307,-377,-3816,855,-1806,-1544,-5705,14178,717,486,4222,3648,35585,160,33,127,0,0,2788,527,7690,6810,2291,49,627,1,1,311,-6,123292,0
123317,-150,-4642,1328,-2134,-2297,-5101,14751,1508,976,4768,5920,35560,252,34,127,0,0,2900,1175,8410,6810,2291,49,637,1,1,311,-6,123308,0
123327,-333,-4442,1335,-2181,-3016,-4910,15753,2516,1473,5306,8312,35496,453,33,127,0,0,3098,2087,9510,6810,2291,49,647,1,1,311,-6,123339,0
123337,-799,-4471,951,-2051,-3457,-4754,17205,3456,1706,5914,10416,35398,793,33,127,0,0,3375,2801,10360,6810,2291,49,657,1,1,311,-6,123355,0
123347,-1363,-3772,675,-1781,-3781,-4720,18960,4013,1407,6455,12008,35263,1220,34,127,0,0,3708,3339,11520,6810,2291,49,667,1,1,311,-6,123371,0
123357,-1091,-3377,218,-1858,-4042,-5376,20867,4209,810,7087,12560,35126,1671,33,127,0,0,4060,3515,12900,6810,2291,49,677,1,1,311,-6,123371,0
123367,-609,-4017,282,-1580,-4073,-5723,22730,4070,142,7777,12472,34994,2056,34,127,0,0,4420,3559,13430,6810,2291,49,687,1,1,311,-6,123371,0
123377,411,-4519,395,-1302,-4605,-6039,24607,4139,-59,7825,11696,34904,2290,33,127,0,0,4759,3306,12520,6810,2291,49,697,1,1,311,-6,123371,0
123387,595,-4205,848,-1386,-4857,-5887,26413,3865,-114,7000,10688,34866,2375,33,127,0,0,5058,2955,9380,6810,2291,49,707,1,1,311,-6,123371,0
123397,777,-3689,1336,-1705,-5088,-6244,27924,2950,-785,4228,6144,34912,2186,34,127,0,0,5312,2482,2760,6810,2291,49,717,1,1,311,-6,123386,0
123407,790,-3534,1108,-1789,-5119,-7270,28569,704,-2403,964,-64,35094,1578,33,127,0,0,5420,911,560,6810,2291,49,727,1,1,311,-6,123386,0
123417,-915,-2341,1383,-1470,-5565,-7320,28275,-989,-3558,593,-1680,35321,836,33,127,0,0,5372,-593,0,6810,2291,49,737,1,1,311,-6,123464,0
123427,-1054,-1117,2003,-852,-4876,-5830,27637,-1692,-2274,-2494,-6544,35521,190,34,127,0,0,5304,-681,0,6810,2291,49,747,0,1,311,-6,123464,0
123437,2482,-1626,-818,-1494,-781,-3669,26331,-3274,-1940,-2459,-8576,35560,139,33,127,0,0,5249,-670,0,6810,2291,49,757,0,1,311,-6,123464,0
123447,426,-950,-247,-1138,833,-2924,24746,-3430,-1776,-3,-7160,35543,228,34,127,0,0,5058,-1966,0,6810,2291,49,767,0,1,311,-6,123464,0
123457,-66,-535,-416,-98,1735,-1511,23300,-3062,-66,21,-6288,35531,262,33,127,0,0,4864,-1955,0,6810,2291,49,777,0,1,311,-6,123464,0
123467,-376,-208,-68,112,1680,-972,22043,-2652,655,-75,-5920,35571,123,33,127,0,0,4677,-1856,0,6810,2291,49,787,0,1,311,-6,123480,0
