state_time,accelx,accely,accelz,gyrox,gyroy,gyroz,mot_ang,mot_vel,mot_acc,mot_cur,mot_volt,batt_volt,batt_curr,temperature,status_mn,status_ex,status_re,ank_ang,ank_vel,ank_torque,peak_ank_torque,step_energy,step_count,step_time,gait_state,movement,speed,incline,sys_time,eventFlags
149969,-86,-2074,252,-78,41,96,15172,-26,-16,-367,-104,35434,-92,34,127,0,0,3970,-10,0,18138,6730,65,8129,-4,0,90,16,149980,0
149979,-82,-2075,247,-80,41,100,15155,-37,-24,-277,-88,35446,-85,34,127,0,0,3970,-10,0,18138,6730,65,8139,-4,0,90,16,149980,0
149989,-73,-2076,236,-78,38,111,15144,-5,2,-253,-32,35442,-66,34,127,0,0,3966,-10,0,18138,6730,65,8149,-4,0,90,16,149980,0
149999,-59,-2083,234,-83,35,110,15145,-7,32,-296,-72,35441,-58,34,127,0,0,3966,-32,0,18138,6730,65,8159,-4,0,90,16,149980,0
150009,-91,-2077,253,-78,41,129,15145,4,14,-320,-104,35444,-48,34,127,0,0,3966,-10,0,18138,6730,65,8169,-4,0,90,16,150011,0
150019,-101,-2083,254,-84,45,126,15144,2,2,-299,-64,35443,-47,34,127,0,0,3966,-32,0,18138,6730,65,8179,-4,0,90,16,150011,0
150029,-93,-2072,247,-84,32,135,15142,0,3,-322,-48,35447,-47,34,127,0,0,3968,10,0,18138,6730,65,8189,-4,0,90,16,150027,0
150039,-78,-2073,247,-84,32,133,15144,-5,1,-267,-64,35440,-50,34,127,0,0,3966,-32,0,18138,6730,65,8199,-4,0,90,16,150027,0
150049,-117,-2076,240,-83,34,124,15143,1,3,-343,-88,35437,-51,34,127,0,0,3968,21,0,18138,6730,65,8209,-4,0,90,16,150027,0
150059,-117,-2073,236,-80,37,124,15144,0,3,-296,-24,35436,-56,34,127,0,0,3970,21,0,18138,6730,65,8219,-4,0,90,16,150042,0
150069,-80,-2080,241,-85,30,119,15143,-3,3,-288,-88,35450,-40,34,127,0,0,3966,0,0,18138,6730,65,8229,-4,0,90,16,150058,0
150079,-85,-2074,240,-83,39,115,15143,5,-3,-317,-88,35457,-39,34,127,0,0,3966,-21,0,18138,6730,65,8239,-4,0,90,16,150074,0
150089,-83,-2082,240,-79,31,117,15143,5,1,-338,-88,35451,-44,34,127,0,0,3966,0,0,18138,6730,65,8249,-4,0,90,16,150074,0
150099,-83,-2080,236,-76,36,110,15145,13,7,-292,-96,35441,-48,34,127,0,0,3968,-21,0,18138,6730,65,8259,-4,0,90,16,150089,0
150109,-55,-2070,243,-81,29,117,15143,6,1,-285,-136,35443,-42,34,127,0,0,3963,-10,0,18138,6730,65,8269,-4,0,90,16,150089,0
150119,-44,-2072,242,-82,33,113,15142,1,3,-300,-40,35443,-50,34,127,0,0,3968,10,0,18138,6730,65,8279,-4,0,90,16,150105,0
150129,-113,-2081,235,-77,28,108,15143,5,4,-253,-104,35445,-48,34,127,0,0,3968,0,0,18138,6730,65,8289,-4,0,90,16,150105,0
150140,-111,-2075,242,-72,31,116,15142,0,-4,-284,-88,35440,-50,34,127,0,0,3969,16,0,18138,6730,65,8300,-4,0,90,16,150136,0
150150,-76,-2070,243,-71,34,109,15143,5,1,-258,-112,35440,-52,34,127,0,0,3970,5,0,18138,6730,65,8310,-4,0,90,16,150136,0
150160,-104,-2077,242,-73,36,110,15142,-3,1,-253,-88,35437,-47,34,127,0,0,3972,38,0,18138,6730,65,8320,-4,0,90,16,150136,0
150170,-99,-2081,242,-69,34,109,15142,-2,3,-223,-88,35432,-53,34,127,0,0,3969,-5,0,18138,6730,65,8330,-4,0,90,16,150167,0
150180,-113,-2071,241,-76,39,99,15141,1,-3,-329,-88,35436,-60,34,127,0,0,3969,65,0,18138,6730,65,8340,-4,0,90,16,150167,0
150190,-70,-2063,241,-69,33,103,15140,-9,-1,-326,-80,35435,-62,34,127,0,0,3962,10,0,18138,6730,65,8350,-4,0,90,16,150167,0
150200,-87,-2074,242,-70,35,105,15139,-1,0,-385,-104,35439,-68,34,127,0,0,3963,0,0,18138,6730,65,8360,-4,0,90,16,150183,0
150210,-79,-2072,244,-67,38,100,15137,-9,0,-403,-104,35436,-59,34,127,0,0,3963,27,0,18138,6730,65,8370,-4,0,90,16,150183,0
150220,-87,-2074,238,-65,35,101,15139,8,0,-395,-104,35433,-57,34,127,0,0,3960,-32,0,18138,6730,65,8380,-4,0,90,16,150230,0
150230,-84,-2081,244,-63,41,100,15138,7,-4,-399,-128,35436,-48,34,127,0,0,3964,-16,0,18138,6730,65,8390,-4,0,90,16,150230,0
150240,-88,-2078,249,-60,35,95,15137,0,3,-388,-104,35435,-48,34,127,0,0,3960,-32,0,18138,6730,65,8400,-4,0,90,16,150230,0
150250,-97,-2082,254,-68,34,103,15137,4,0,-408,-104,35427,-44,34,127,0,0,3963,-5,0,18138,6730,65,8410,-4,0,90,16,150230,0
150260,-82,-2075,253,-67,34,102,15136,4,1,-387,-104,35421,-51,34,127,0,0,3963,5,0,18138,6730,65,8420,-4,0,90,16,150246,0
150270,-77,-2075,237,-67,35,110,15135,-9,5,-390,-120,35428,-44,34,127,0,0,3964,10,0,18138,6730,65,8430,-4,0,90,16,150261,0
150280,-85,-2073,239,-69,34,110,15135,0,1,-443,-120,35440,-48,34,127,0,0,3961,32,0,18138,6730,65,8440,-4,0,90,16,150261,0
150290,-82,-2074,242,-62,37,116,15132,-6,-5,-417,-136,35443,-45,34,127,0,0,3959,-43,0,18138,6730,65,8450,-4,0,90,16,150261,0
150300,-86,-2071,255,-62,35,123,15129,-8,1,-443,-104,35442,-50,34,127,0,0,3961,38,0,18138,6730,65,8460,-4,0,90,16,150292,0
150310,-68,-2074,253,-66,34,117,15130,0,3,-415,-128,35428,-51,34,127,0,0,3959,-10,0,18138,6730,65,8470,-4,0,90,16,150292,0
150320,-77,-2073,254,-71,35,120,15129,4,5,-408,-128,35427,-55,34,127,0,0,3959,-49,0,18138,6730,65,8480,-4,0,90,16,150308,0
150330,-114,-2070,252,-74,37,132,15128,9,2,-414,-160,35438,-40,34,127,0,0,3963,-27,0,18138,6730,65,8490,-4,0,90,16,150308,0
150340,-116,-2075,248,-73,37,129,15128,6,-3,-394,-128,35434,-38,34,127,0,0,3959,-38,0,18138,6730,65,8500,-4,0,90,16,150324,0
150350,-110,-2069,247,-70,38,121,15126,3,5,-418,-104,35434,-34,34,127,0,0,3961,5,0,18138,6730,65,8510,-4,0,90,16,150339,0
150360,-93,-2072,256,-71,34,118,15125,-11,2,-395,-128,35426,-40,34,127,0,0,3966,27,0,18138,6730,65,8520,-4,0,90,16,150339,0
150370,-80,-2070,258,-78,33,119,15128,1,5,-365,-80,35424,-45,34,127,0,0,3953,-49,0,18138,6730,65,8530,-4,0,90,16,150355,0
150380,-51,-2075,250,-75,37,117,15125,2,-3,-435,-128,35432,-46,34,127,0,0,3962,-10,0,18138,6730,65,8540,-4,0,90,16,150387,0
150391,-102,-2080,251,-82,31,120,15126,-1,-1,-425,-120,35428,-50,34,127,0,0,3961,10,0,18138,6730,65,8551,-4,0,90,16,150418,0
150401,-75,-2079,255,-80,36,122,15125,0,-5,-431,-88,35425,-48,34,127,0,0,3961,32,0,18138,6730,65,8561,-4,0,90,16,150418,0
150411,-71,-2082,255,-85,37,119,15124,-6,1,-407,-120,35420,-45,34,127,0,0,3959,0,0,18138,6730,65,8571,-4,0,90,16,150418,0
150421,-101,-2074,246,-96,33,126,15123,2,0,-408,-120,35423,-42,34,127,0,0,3959,0,0,18138,6730,65,8581,-4,0,90,16,150418,0
150431,-100,-2076,250,-90,31,121,15123,-2,-2,-395,-120,35427,-51,34,127,0,0,3963,32,0,18138,6730,65,8591,-4,0,90,16,150418,0
150441,-54,-2076,253,-89,35,107,15123,-1,5,-379,-120,35433,-49,34,127,0,0,3961,21,0,18138,6730,65,8601,-4,0,90,16,150418,0
150451,-90,-2073,251,-91,37,115,15122,-4,-4,-399,-96,35438,-55,34,127,0,0,3959,21,0,18138,6730,65,8611,-4,0,90,16,150434,0
150461,-100,-2079,260,-93,33,108,15119,-20,-8,-444,-104,35435,-61,34,127,0,0,3963,76,0,18138,6730,65,8621,-4,0,90,16,150434,0
150471,-94,-2070,245,-90,40,112,15118,3,5,-320,-88,35431,-63,34,127,0,0,3961,0,0,18138,6730,65,8631,-4,0,90,16,150465,0
150481,-78,-2067,244,-88,34,102,15117,-2,5,-372,-112,35422,-65,34,127,0,0,3959,10,0,18138,6730,65,8641,-4,0,90,16,150465,0
150491,-75,-2075,248,-91,42,113,15117,-5,0,-367,-112,35424,-50,34,127,0,0,3959,0,0,18138,6730,65,8651,-4,0,90,16,150465,0
150501,-88,-2066,256,-94,32,109,15118,-2,-3,-375,-104,35428,-48,34,127,0,0,3959,-21,0,18138,6730,65,8661,-4,0,90,16,150481,0
150511,-89,-2074,254,-93,35,111,15117,1,1,-384,-112,35429,-39,34,127,0,0,3955,-43,0,18138,6730,65,8671,-4,0,90,16,150481,0
150521,-89,-2072,254,-91,37,114,15114,-9,-1,-434,-128,35433,-42,34,127,0,0,3957,-21,0,18138,6730,65,8681,-4,0,90,16,150512,0
150531,-87,-2073,252,-96,42,114,15096,-47,-32,-347,-96,35426,-32,34,127,0,0,3959,21,0,18138,6730,65,8691,-4,0,90,16,150512,0
150541,-109,-2073,251,-95,42,113,15070,-35,-41,-158,-64,35427,-34,34,127,0,0,3957,10,0,18138,6730,65,8701,-4,0,90,16,150512,0
150551,-78,-2077,245,-99,45,112,15071,15,45,-158,-32,35427,-42,34,127,0,0,3957,-21,0,18138,6730,65,8711,-4,0,90,16,150527,0
150561,-75,-2068,258,-100,36,116,15071,1,46,-188,-32,35429,-24,34,127,0,0,3955,0,0,18138,6730,65,8721,-4,0,90,16,150543,0
150571,-79,-2078,251,-99,32,112,15070,-1,-2,-196,-24,35440,-22,34,127,0,0,3955,-21,0,18138,6730,65,8731,-4,0,90,16,150559,0
150581,-94,-2078,244,-98,47,118,15070,7,4,-202,-40,35435,-34,34,127,0,0,3957,-10,0,18138,6730,65,8741,-4,0,90,16,150559,0
150591,-96,-2070,239,-97,42,124,15069,-1,0,-200,-64,35436,-34,34,127,0,0,3957,32,0,18138,6730,65,8751,-4,0,90,16,150574,0
150601,-72,-2082,248,-98,33,126,15069,-9,2,-185,-72,35427,-37,34,127,0,0,3959,10,0,18138,6730,65,8761,-4,0,90,16,150606,0
150611,-103,-2083,250,-98,37,131,15071,2,-2,-163,-72,35420,-24,34,127,0,0,3955,0,0,18138,6730,65,8771,-4,0,90,16,150606,0
150621,-79,-2080,249,-108,37,124,15069,2,4,-214,-64,35417,-34,34,127,0,0,3955,0,0,18138,6730,65,8781,-4,0,90,16,150606,0
150631,-82,-2089,240,-98,32,124,15068,-4,3,-224,-64,35417,-40,34,127,0,0,3955,0,0,18138,6730,65,8791,-4,0,90,16,150621,0
150642,-88,-2071,246,-104,42,124,15070,8,1,-210,-64,35428,-45,34,127,0,0,3955,-5,0,18138,6730,65,8802,-4,0,90,16,150621,0
150652,-80,-2078,239,-104,40,121,15070,8,1,-198,-64,35441,-22,34,127,0,0,3955,-32,0,18138,6730,65,8812,-4,0,90,16,150637,0
150662,-107,-2078,249,-97,41,130,15069,1,-1,-181,-56,35438,-29,34,127,0,0,3955,-49,0,18138,6730,65,8822,-4,0,90,16,150652,0
150672,-96,-2070,242,-98,37,130,15070,6,4,-192,-40,35435,-25,34,127,0,0,3957,5,0,18138,6730,65,8832,-4,0,90,16,150652,0
150682,-75,-2084,239,-100,41,126,15071,8,2,-191,-80,35432,-8,34,127,0,0,3952,-43,0,18138,6730,65,8842,-4,0,90,16,150668,0
150692,-102,-2072,239,-97,36,121,15068,0,-7,-238,-56,35432,-13,34,127,0,0,3951,-43,0,18138,6730,65,8852,-4,0,90,16,150668,0
150702,-100,-2076,248,-97,43,139,15069,1,1,-203,-56,35435,-20,34,127,0,0,3955,-38,0,18138,6730,65,8862,-4,0,90,16,150684,0
150712,-90,-2075,248,-101,43,136,15069,7,7,-199,-32,35434,-24,34,127,0,0,3950,-32,0,18138,6730,65,8872,-4,0,90,16,150715,0
150722,-97,-2083,244,-104,41,122,15068,4,3,-218,-56,35434,-30,34,127,0,0,3958,5,0,18138,6730,65,8882,-4,0,90,16,150715,0
150732,-109,-2090,240,-100,41,132,15068,-3,-1,-163,-80,35442,-16,34,127,0,0,3956,-10,0,18138,6730,65,8892,-4,0,90,16,150730,0
150742,-110,-2070,250,-99,44,137,15068,2,3,-189,-56,35442,-20,34,127,0,0,3958,5,0,18138,6730,65,8902,-4,0,90,16,150730,0
150752,-116,-2065,250,-104,44,142,15069,-1,2,-181,-56,35437,-50,34,127,0,0,3955,10,0,18138,6730,65,8912,-4,0,90,16,150746,0
150762,-74,-2075,238,-104,36,128,15068,-1,-1,-222,-56,35437,-40,34,127,0,0,3955,0,0,18138,6730,65,8922,-4,0,90,16,150746,0
150772,-86,-2075,240,-97,41,125,15068,0,0,-222,-80,35441,-42,34,127,0,0,3959,27,0,18138,6730,65,8932,-4,0,90,16,150762,0
150782,-86,-2073,247,-96,42,137,15069,5,3,-164,-32,35442,-36,34,127,0,0,3953,-16,0,18138,6730,65,8942,-4,0,90,16,150762,0
150792,-60,-2070,244,-93,43,135,15068,3,-2,-186,-32,35439,-40,34,127,0,0,3957,5,0,18138,6730,65,8952,-4,0,90,16,150777,0
150802,-95,-2078,247,-103,43,126,15069,0,1,-174,-32,35442,-35,34,127,0,0,3953,-27,0,18138,6730,65,8962,-4,0,90,16,150777,0
150812,-89,-2076,246,-99,37,131,15068,-7,-2,-239,-80,35440,-29,34,127,0,0,3956,27,0,18138,6730,65,8972,-4,0,90,16,150824,0
150822,-79,-2079,242,-101,32,129,15067,1,-3,-211,-56,35445,-38,34,127,0,0,3958,27,0,18138,6730,65,8982,-4,0,90,16,150824,0
150832,-94,-2083,244,-104,36,130,15069,-1,7,-152,-56,35441,-50,34,127,0,0,3958,10,0,18138,6730,65,8992,-4,0,90,16,150824,0
150842,-79,-2075,248,-100,35,133,15068,-6,-5,-166,-56,35438,-48,34,127,0,0,3955,-32,0,18138,6730,65,9002,-4,0,90,16,150824,0
150852,-86,-2071,239,-99,39,132,15068,7,-1,-167,-32,35433,-35,34,127,0,0,3953,-38,0,18138,6730,65,9012,-4,0,90,16,150840,0
150862,-70,-2080,237,-101,45,130,15069,-1,5,-169,-56,35439,-26,34,127,0,0,3958,10,0,18138,6730,65,9022,-4,0,90,16,150887,0
150872,-94,-2080,237,-92,36,132,15069,1,-3,-160,-32,35441,-29,34,127,0,0,3953,-16,0,18138,6730,65,9032,-4,0,90,16,150887,0
150882,-94,-2076,240,-103,39,129,15069,4,3,-172,-56,35437,-33,34,127,0,0,3955,-21,0,18138,6730,65,9042,-4,0,90,16,150887,0
150892,-107,-2084,244,-99,43,124,15068,3,4,-186,-32,35435,-34,34,127,0,0,3953,-21,0,18138,6730,65,9052,-4,0,90,16,150887,0
150902,-66,-2072,235,-99,45,131,15069,1,1,-212,-56,35427,-32,34,127,0,0,3955,-21,0,18138,6730,65,9062,-4,0,90,16,150887,0
150913,-59,-2076,239,-98,36,128,15067,-2,2,-212,-56,35434,-31,34,127,0,0,3955,21,0,18138,6730,65,9073,-4,0,90,16,150887,0
150923,-77,-2082,234,-99,35,134,15068,3,1,-219,-24,35443,-32,34,127,0,0,3955,10,0,18138,6730,65,9083,-4,0,90,16,150902,0
150933,-120,-2080,246,-101,39,130,15068,-6,-2,-166,-64,35451,-32,34,127,0,0,3955,-21,0,18138,6730,65,9093,-4,0,90,16,150934,0
150943,-105,-2078,249,-100,38,133,15069,1,1,-151,-72,35458,-22,34,127,0,0,3955,-32,0,18138,6730,65,9103,-4,0,90,16,150934,0
150953,-96,-2072,246,-103,35,128,15068,4,-2,-180,-32,35451,-19,34,127,0,0,3955,-10,0,18138,6730,65,9113,-4,0,90,16,150949,0
150963,-98,-2079,244,-95,35,126,15067,-7,1,-191,-64,35443,-20,34,127,0,0,3957,43,0,18138,6730,65,9123,-4,0,90,16,150949,0
150973,-99,-2069,235,-100,40,129,15068,0,4,-153,-32,35440,-40,34,127,0,0,3955,-21,0,18138,6730,65,9133,-4,0,90,16,150949,0
150983,-86,-2072,233,-100,36,120,15069,5,0,-193,-56,35444,-40,34,127,0,0,3955,-21,0,18138,6730,65,9143,-4,0,90,16,150965,0
150993,-95,-2070,242,-90,35,126,15069,6,0,-166,-32,35443,-23,34,127,0,0,3957,0,0,18138,6730,65,9153,-4,0,90,16,150980,0
151003,-111,-2072,243,-95,37,129,15069,7,4,-142,-32,35445,-31,34,127,0,0,3955,-21,0,18138,6730,65,9163,-4,0,90,16,150980,0
151013,-89,-2082,241,-99,32,129,15068,3,1,-172,-24,35446,-40,34,127,0,0,3957,0,0,18138,6730,65,9173,-4,0,90,16,151012,0
151023,-90,-2076,240,-94,41,129,15069,1,2,-141,-32,35444,-42,34,127,0,0,3957,0,0,18138,6730,65,9183,-4,0,90,16,151012,0
151033,-74,-2078,245,-99,40,123,15066,-8,5,-197,-16,35446,-30,34,127,0,0,3955,0,0,18138,6730,65,9193,-4,0,90,16,151012,0
151043,-82,-2086,247,-96,41,119,15068,10,1,-164,-32,35444,-24,34,127,0,0,3955,-32,0,18138,6730,65,9203,-4,0,90,16,151027,0
151053,-104,-2073,241,-101,41,133,15067,-5,-3,-186,-64,35448,-26,34,127,0,0,3957,21,0,18138,6730,65,9213,-4,0,90,16,151043,0
151063,-93,-2076,235,-99,35,132,15069,2,2,-114,-80,35448,-26,34,127,0,0,3957,-21,0,18138,6730,65,9223,-4,0,90,16,151043,0
151073,-97,-2068,236,-97,32,142,15068,4,1,-159,-24,35446,-25,34,127,0,0,3957,0,0,18138,6730,65,9233,-4,0,90,16,151043,0
151083,-100,-2067,236,-100,41,131,15068,4,3,-159,-64,35448,-21,34,127,0,0,3957,10,0,18138,6730,65,9243,-4,0,90,16,151074,0
151093,-87,-2083,244,-95,41,125,15069,11,4,-162,-72,35446,-33,34,127,0,0,3957,21,0,18138,6730,65,9253,-4,0,90,16,151074,0
151103,-99,-2081,243,-91,36,131,15068,-1,-2,-133,-32,35448,-39,34,127,0,0,3955,-10,0,18138,6730,65,9263,-4,0,90,16,151074,0
151113,-126,-2080,237,-101,39,132,15069,7,4,-155,0,35448,-46,34,127,0,0,3957,-10,0,18138,6730,65,9273,-4,0,90,16,151090,0
151123,-110,-2074,238,-96,41,122,15068,-2,1,-178,-32,35439,-36,34,127,0,0,3957,-10,0,18138,6730,65,9283,-4,0,90,16,151105,0
151133,-87,-2067,241,-97,38,126,15069,4,2,-163,-72,35436,-30,34,127,0,0,3957,21,0,18138,6730,65,9293,-4,0,90,16,151137,0
151143,-96,-2075,236,-95,36,131,15067,-9,1,-147,-32,35433,-22,34,127,0,0,3955,-32,0,18138,6730,65,9303,-4,0,90,16,151137,0
151154,-112,-2071,238,-90,36,122,15069,11,-2,-152,-32,35432,-20,34,127,0,0,3960,43,0,18138,6730,65,9314,-4,0,90,16,151137,0
151164,-114,-2079,238,-94,35,122,15067,-14,-1,-149,-32,35432,-26,34,127,0,0,3957,27,0,18138,6730,65,9324,-4,0,90,16,151152,0
151174,-81,-2082,234,-91,43,126,15070,6,0,-132,-16,35439,-30,34,127,0,0,3956,-21,0,18138,6730,65,9334,-4,0,90,16,151152,0
151184,-81,-2072,237,-98,33,129,15068,-14,-3,-171,-32,35445,-22,34,127,0,0,3957,0,0,18138,6730,65,9344,-4,0,90,16,151184,0
151194,-91,-2087,237,-89,40,125,15068,-9,-6,-168,-56,35448,-19,34,127,0,0,3958,-5,0,18138,6730,65,9354,-4,0,90,16,151184,0
151204,-94,-2087,241,-94,37,125,15069,-2,-2,-141,-32,35441,-20,34,127,0,0,3957,-5,0,18138,6730,65,9364,-4,0,90,16,151184,0
151214,-105,-2082,247,-94,37,129,15068,-1,4,-153,-32,35435,-23,34,127,0,0,3953,-32,0,18138,6730,65,9374,-4,0,90,16,151184,0
151224,-89,-2085,244,-98,34,121,15069,3,0,-139,-8,35443,-28,34,127,0,0,3956,-10,0,18138,6730,65,9384,-4,0,90,16,151215,0
151234,-105,-2079,234,-96,38,116,15067,-10,1,-147,-8,35446,-32,34,127,0,0,3956,0,0,18138,6730,65,9394,-4,0,90,16,151215,0
151244,-59,-2078,226,-101,41,110,15068,-13,-5,-138,-32,35443,-36,34,127,0,0,3957,21,0,18138,6730,65,9404,-4,0,90,16,151230,0
151254,-160,-2081,237,-103,36,117,15070,5,0,-118,-8,35433,-41,34,127,0,0,3956,-27,0,18138,6730,65,9414,-4,0,90,16,151246,0
151264,-93,-2070,250,-98,37,110,15069,1,-3,-136,-8,35431,-44,34,127,0,0,3956,-10,0,18138,6730,65,9424,-4,0,90,16,151246,0
151274,-96,-2077,248,-105,33,109,15070,5,-2,-113,-32,35435,-58,34,127,0,0,3957,-32,0,18138,6730,65,9434,-4,0,90,16,151262,0
151284,-91,-2077,238,-102,36,104,15069,0,0,-161,-32,35438,-58,34,127,0,0,3957,0,0,18138,6730,65,9444,-4,0,90,16,151262,0
151294,-86,-2069,239,-107,33,106,15069,-3,2,-87,-32,35433,-47,34,127,0,0,3957,-21,0,18138,6730,65,9454,-4,0,90,16,151277,0
151304,-82,-2076,234,-102,35,105,15067,-1,-1,-167,-32,35434,-36,34,127,0,0,3957,0,0,18138,6730,65,9464,-4,0,90,16,151293,0
151314,-89,-2074,236,-104,37,112,15068,0,-7,-151,-32,35433,-33,34,127,0,0,3953,-32,0,18138,6730,65,9474,-4,0,90,16,151293,0
151324,-77,-2073,234,-104,40,111,15071,7,3,-104,-8,35438,-31,34,127,0,0,3956,-49,0,18138,6730,65,9484,-4,0,90,16,151308,0
151334,-79,-2073,232,-102,36,115,15068,-1,-4,-139,-32,35433,-15,34,127,0,0,3957,-5,0,18138,6730,65,9494,-4,0,90,16,151308,0
151344,-50,-2075,236,-102,39,111,15068,0,-3,-160,-32,35436,-21,34,127,0,0,3957,0,0,18138,6730,65,9504,-4,0,90,16,151340,0
151354,-98,-2069,243,-101,41,121,15069,0,3,-174,-32,35433,-22,34,127,0,0,3957,0,0,18138,6730,65,9514,-4,0,90,16,151340,0
151364,-81,-2074,239,-103,38,126,15068,-8,0,-183,-32,35433,-42,34,127,0,0,3957,16,0,18138,6730,65,9524,-4,0,90,16,151340,0
151374,-71,-2077,230,-99,39,122,15068,-4,2,-165,-32,35432,-31,34,127,0,0,3957,27,0,18138,6730,65,9534,-4,0,90,16,151355,0
151385,-70,-2065,237,-103,35,124,15068,-4,-1,-135,0,35434,-20,34,127,0,0,3957,10,0,18138,6730,65,9545,-4,0,90,16,151371,0
151395,-52,-2065,231,-102,41,124,15070,0,-1,-108,-48,35436,-23,34,127,0,0,3957,-10,0,18138,6730,65,9555,-4,0,90,16,151371,0
151405,-141,-2072,226,-103,37,141,15070,9,-4,-138,-32,35433,-23,34,127,0,0,3957,-21,0,18138,6730,65,9565,-4,0,90,16,151387,0
151415,-123,-2071,228,-93,38,135,15069,-3,0,-146,0,35436,-32,34,127,0,0,3955,-21,0,18138,6730,65,9575,-4,0,90,16,151402,0
151425,-115,-2090,235,-94,46,122,15069,3,-1,-126,-8,35426,-36,34,127,0,0,3957,-10,0,18138,6730,65,9585,-4,0,90,16,151418,0
151435,-110,-2088,228,-91,37,123,15067,-10,-6,-167,-32,35424,-34,34,127,0,0,3955,-32,0,18138,6730,65,9595,-4,0,90,16,151418,0
151445,-124,-2087,227,-90,36,122,15068,0,-4,-154,-32,35421,-19,34,127,0,0,3955,-32,0,18138,6730,65,9605,-4,0,90,16,151449,0
151455,-123,-2088,233,-93,37,120,15069,4,3,-163,-32,35424,-33,34,127,0,0,3957,0,0,18138,6730,65,9615,-4,0,90,16,151449,0
151465,-116,-2082,233,-86,33,126,15069,2,-1,-141,-32,35423,-36,34,127,0,0,3957,-21,0,18138,6730,65,9625,-4,0,90,16,151480,0
151475,-109,-2082,239,-89,30,116,15069,-1,1,-175,-24,35427,-54,34,127,0,0,3957,10,0,18138,6730,65,9635,-4,0,90,16,151496,0
151485,-115,-2093,236,-88,26,106,15069,-1,1,-156,0,35425,-50,34,127,0,0,3959,21,0,18138,6730,65,9645,-4,0,90,16,151496,0
151495,-110,-2083,236,-88,35,99,15070,3,0,-147,-72,35425,-41,34,127,0,0,3955,-21,0,18138,6730,65,9655,-4,0,90,16,151496,0
151505,-98,-2081,242,-86,36,88,15068,3,-5,-174,-56,35424,-37,34,127,0,0,3955,-21,0,18138,6730,65,9665,-4,0,90,16,151496,0
151515,-101,-2069,242,-92,33,89,15070,9,0,-164,-64,35419,-26,34,127,0,0,3957,0,0,18138,6730,65,9675,-4,0,90,16,151496,0
151525,-96,-2067,230,-97,27,82,15068,3,-1,-170,-24,35428,-25,34,127,0,0,3955,-10,0,18138,6730,65,9685,-4,0,90,16,151527,0
151535,-79,-2068,228,-101,31,74,15069,2,-3,-166,-32,35434,-35,34,127,0,0,3955,-21,0,18138,6730,65,9695,-4,0,90,16,151527,0
151545,-117,-2059,231,-96,42,56,15069,6,-3,-183,-24,35432,-33,34,127,0,0,3955,-21,0,18138,6730,65,9705,-4,0,90,16,151527,0
151555,-86,-2070,235,-92,43,59,15065,-14,-5,-247,-80,35428,-35,34,127,0,0,3952,0,0,18138,6730,65,9715,-4,0,90,16,151543,0
151565,-60,-2060,241,-97,44,75,15066,-6,-3,-296,-136,35428,-37,34,127,0,0,3948,-43,0,18138,6730,65,9725,-4,0,90,16,151543,0
151575,-59,-2053,240,-98,38,79,15056,-22,-19,-348,-104,35436,-39,34,127,0,0,3948,-10,0,18138,6730,65,9735,-4,0,90,16,151574,0
151585,-59,-2064,226,-99,43,105,15042,-38,-25,-264,-120,35433,-25,34,127,0,0,3948,-21,0,18138,6730,65,9745,-4,0,90,16,151590,0
151595,-60,-2073,224,-96,41,115,15023,-44,-17,-160,-40,35427,-28,34,127,0,0,3944,-43,0,18138,6730,65,9755,-4,0,90,16,151590,0
151605,-78,-2086,224,-94,45,138,15014,-6,13,-116,-24,35424,-34,34,127,0,0,3946,-32,0,18138,6730,65,9765,-4,0,90,16,151590,0
151615,-48,-2080,223,-90,40,150,15015,-9,44,-149,-8,35424,-53,34,127,0,0,3948,21,0,18138,6730,65,9775,-4,0,90,16,151590,0
151625,-84,-2077,228,-87,44,164,15017,0,17,-100,-24,35435,-66,34,127,0,0,3946,-21,0,18138,6730,65,9785,-4,0,90,16,151605,0
151635,-76,-2083,226,-88,53,157,15018,4,2,-86,-24,35434,-54,34,127,0,0,3948,-21,0,18138,6730,65,9795,-4,0,90,16,151605,0
151646,-85,-2087,229,-79,47,166,15016,1,-3,-103,-48,35443,-47,34,127,0,0,3946,-10,0,18138,6730,65,9806,-4,0,90,16,151652,0
151656,-96,-2088,235,-78,44,160,15018,7,4,-80,-24,35438,-42,34,127,0,0,3948,-38,0,18138,6730,65,9816,-4,0,90,16,151652,0
151666,-116,-2080,241,-86,36,176,15018,-1,2,-52,-24,35430,-42,34,127,0,0,3948,-32,0,18138,6730,65,9826,-4,0,90,16,151652,0
151676,-110,-2080,249,-83,43,158,15020,15,7,-9,-8,35426,-37,34,127,0,0,3950,0,0,18138,6730,65,9836,-4,0,90,16,151652,0
151686,-121,-2084,229,-88,39,157,15018,-7,-2,6,24,35422,-37,34,127,0,0,3952,49,0,18138,6730,65,9846,-4,0,90,16,151668,0
151696,-100,-2079,226,-88,39,143,15023,0,7,110,8,35435,-38,34,127,0,0,3956,-10,0,18138,6730,65,9856,-4,0,90,16,151683,0
151706,-108,-2070,232,-83,38,135,15022,0,3,111,32,35439,-44,34,127,0,0,3955,21,0,18138,6730,65,9866,-4,0,90,16,151683,0
151716,-101,-2067,236,-80,39,125,15022,-2,-3,164,32,35432,-43,34,127,0,0,3951,-32,0,18138,6730,65,9876,-4,0,90,16,151699,0
151726,-112,-2074,236,-89,33,112,15023,2,-1,119,8,35436,-41,34,127,0,0,3952,-43,0,18138,6730,65,9886,-4,0,90,16,151715,0
151736,-119,-2070,239,-94,33,110,15020,-3,-13,38,16,35433,-52,34,127,0,0,3952,0,0,18138,6730,65,9896,-4,0,90,16,151715,0
151746,-88,-2063,230,-89,35,111,15022,0,3,58,16,35439,-47,34,127,0,0,3956,27,0,18138,6730,65,9906,-4,0,90,16,151730,0
151756,-92,-2074,228,-95,30,106,15020,-12,1,106,16,35436,-44,34,127,0,0,3952,5,0,18138,6730,65,9916,-4,0,90,16,151730,0
151766,-102,-2081,229,-89,35,102,15022,-1,0,74,16,35426,-49,34,127,0,0,3952,-16,0,18138,6730,65,9926,-4,0,90,16,151746,0
151776,-112,-2082,235,-88,31,116,15022,0,1,74,16,35439,-48,34,127,0,0,3956,16,0,18138,6730,65,9936,-4,0,90,16,151762,0
151786,-74,-2071,234,-85,31,124,15024,6,10,142,-16,35436,-56,34,127,0,0,3953,-38,0,18138,6730,65,9946,-4,0,90,16,151777,0
151796,-114,-2074,228,-88,32,116,15022,13,1,80,16,35440,-55,34,127,0,0,3949,-60,0,18138,6730,65,9956,-4,0,90,16,151793,0
151806,-80,-2080,234,-87,37,121,15022,6,1,33,16,35432,-60,34,127,0,0,3952,-10,0,18138,6730,65,9966,-4,0,90,16,151793,0
151816,-91,-2077,230,-87,32,123,15021,7,1,78,16,35428,-53,34,127,0,0,3956,16,0,18138,6730,65,9976,-4,0,90,16,151793,0
151826,-67,-2070,232,-90,32,129,15021,-5,2,79,16,35432,-38,34,127,0,0,3952,10,0,18138,6730,65,9986,-4,0,90,16,151808,0
151836,-88,-2073,238,-86,38,128,15023,6,2,72,8,35439,-30,34,127,0,0,3952,-16,0,18138,6730,65,9996,-4,0,90,16,151808,0
151846,-112,-2086,228,-79,35,133,15021,5,3,36,16,35442,-17,34,127,0,0,3952,0,0,18138,6730,65,10006,-4,0,90,16,151824,0
151856,-102,-2080,231,-77,31,125,15022,5,1,73,32,35438,-19,34,127,0,0,3951,-10,0,18138,6730,65,10016,-4,0,90,16,151855,0
151866,-111,-2085,236,-81,38,124,15023,4,8,116,32,35435,-25,34,127,0,0,3951,-38,0,18138,6730,65,10026,-4,0,90,16,151855,0
151876,-101,-2080,234,-80,34,126,15022,-8,-4,66,32,35434,-43,34,127,0,0,3955,32,0,18138,6730,65,10036,-4,0,90,16,151871,0
151886,-74,-2084,227,-78,37,111,15022,-12,-5,80,16,35424,-39,34,127,0,0,3956,43,0,18138,6730,65,10046,-4,0,90,16,151886,0
151897,-65,-2073,233,-77,28,114,15023,-3,0,85,8,35432,-48,34,127,0,0,3955,32,0,18138,6730,65,10057,-4,0,90,16,151886,0
151907,-74,-2075,226,-76,36,113,15024,7,13,164,32,35434,-60,34,127,0,0,3955,0,0,18138,6730,65,10067,-4,0,90,16,151886,0
151917,-92,-2066,239,-74,37,109,15024,-3,-3,133,8,35446,-72,34,127,0,0,3955,10,0,18138,6730,65,10077,-4,0,90,16,151918,0
151927,-67,-2069,249,-81,35,115,15025,12,-2,163,-8,35450,-51,34,127,0,0,3955,-10,0,18138,6730,65,10087,-4,0,90,16,151918,0
151937,-74,-2075,246,-81,28,117,15023,12,-1,150,0,35444,-33,34,127,0,0,3955,0,0,18138,6730,65,10097,-4,0,90,16,151918,0
151947,-117,-2077,241,-83,24,116,15023,-1,1,136,48,35440,-36,34,127,0,0,3955,10,0,18138,6730,65,10107,-4,0,90,16,151933,0
151957,-52,-2082,234,-81,31,101,15022,-7,-3,98,48,35434,-28,34,127,0,0,3952,0,0,18138,6730,65,10117,-4,0,90,16,151949,0
151967,-40,-2084,232,-84,35,102,15022,1,0,65,16,35442,-33,34,127,0,0,3955,0,0,18138,6730,65,10127,-4,0,90,16,151949,0
151977,-45,-2067,234,-82,35,116,15023,2,0,110,0,35442,-13,34,127,0,0,3952,0,0,18138,6730,65,10137,-4,0,90,16,151949,0
151987,-53,-2071,231,-79,30,119,15022,-6,-1,67,16,35448,-23,34,127,0,0,3952,0,0,18138,6730,65,10147,-4,0,90,16,152011,0
151997,-96,-2077,219,-80,34,122,15022,0,-3,29,16,35442,-19,34,127,0,0,3950,-21,0,18138,6730,65,10157,-4,0,90,16,152011,0
152007,-87,-2075,229,-80,34,119,15021,-3,3,16,16,35442,-38,34,127,0,0,3952,0,0,18138,6730,65,10167,-4,0,90,16,152011,0
152017,-78,-2074,248,-72,36,126,15022,5,-3,33,16,35437,-30,34,127,0,0,3952,0,0,18138,6730,65,10177,-4,0,90,16,152011,0
152027,-74,-2073,245,-77,38,123,15023,14,6,67,8,35441,-32,34,127,0,0,3952,-21,0,18138,6730,65,10187,-4,0,90,16,152027,0
152037,-83,-2080,233,-76,34,125,15022,6,2,76,0,35443,-45,34,127,0,0,3955,10,0,18138,6730,65,10197,-4,0,90,16,152027,0
152047,-120,-2067,233,-77,39,126,15023,3,1,123,0,35443,-45,34,127,0,0,3955,21,0,18138,6730,65,10207,-4,0,90,16,152027,0
152057,-73,-2070,227,-79,35,119,15021,-2,4,135,16,35440,-37,34,127,0,0,3952,-21,0,18138,6730,65,10217,-4,0,90,16,152043,0
152067,-83,-2070,233,-79,36,122,15021,0,2,33,16,35438,-30,34,127,0,0,3952,0,0,18138,6730,65,10227,-4,0,90,16,152058,0
152077,-88,-2074,236,-80,33,120,15022,2,-1,32,16,35440,-38,34,127,0,0,3952,0,0,18138,6730,65,10237,-4,0,90,16,152058,0
152087,-93,-2075,240,-80,36,118,15022,3,7,28,16,35436,-41,34,127,0,0,3952,0,0,18138,6730,65,10247,-4,0,90,16,152058,0
152097,-86,-2071,232,-85,38,121,15022,0,-2,35,16,35434,-33,34,127,0,0,3955,21,0,18138,6730,65,10257,-4,0,90,16,152090,0
152107,-105,-2073,238,-75,39,128,15022,-2,-2,71,16,35430,-6,34,127,0,0,3955,32,0,18138,6730,65,10267,-4,0,90,16,152090,0
152117,-48,-2081,238,-80,30,110,15023,-3,3,136,0,35433,-12,34,127,0,0,3955,21,0,18138,6730,65,10277,-4,0,90,16,152090,0
152127,-77,-2081,238,-80,35,125,15023,-1,1,133,8,35429,-9,34,127,0,0,3955,0,0,18138,6730,65,10287,-4,0,90,16,152105,0
152138,-74,-2075,242,-79,30,131,15023,-2,-2,127,32,35431,-32,34,127,0,0,3955,16,0,18138,6730,65,10298,-4,0,90,16,152152,0
152148,-68,-2074,236,-81,36,125,15024,-1,1,177,32,35433,-17,34,127,0,0,3955,0,0,18138,6730,65,10308,-4,0,90,16,152168,0
152158,-96,-2073,236,-87,37,122,15022,-3,-3,175,32,35429,-32,34,127,0,0,3955,0,0,18138,6730,65,10318,-4,0,90,16,152168,0
152168,-94,-2075,240,-85,39,119,15024,1,-3,150,8,35423,-47,34,127,0,0,3952,-32,0,18138,6730,65,10328,-4,0,90,16,152183,0
152178,-110,-2077,238,-85,37,129,15023,7,-2,94,8,35424,-49,34,127,0,0,3956,0,0,18138,6730,65,10338,-4,0,90,16,152183,0
152188,-111,-2077,239,-84,38,126,15022,-3,-2,79,32,35426,-46,34,127,0,0,3955,49,0,18138,6730,65,10348,-4,0,90,16,152183,0
152198,-47,-2094,230,-81,35,121,15022,-8,1,74,16,35430,-27,34,127,0,0,3952,10,0,18138,6730,65,10358,-4,0,90,16,152183,0
152208,-77,-2096,233,-86,37,121,15023,9,0,66,-16,35433,-45,34,127,0,0,3957,10,0,18138,6730,65,10368,-4,0,90,16,152230,0
152218,-98,-2073,216,-81,34,130,15022,2,2,133,16,35440,-42,34,127,0,0,3952,-21,0,18138,6730,65,10378,-4,0,90,16,152230,0
152228,-71,-2074,217,-83,32,132,15023,0,-8,100,32,35445,-43,34,127,0,0,3951,-27,0,18138,6730,65,10388,-4,0,90,16,152230,0
152238,-100,-2077,240,-73,24,128,15023,3,-1,107,8,35441,-37,34,127,0,0,3952,-21,0,18138,6730,65,10398,-4,0,90,16,152246,0
152248,-95,-2070,255,-75,36,120,15020,-6,-6,44,40,35432,-39,34,127,0,0,3955,38,0,18138,6730,65,10408,-4,0,90,16,152246,0
152258,-79,-2083,255,-78,26,126,15025,1,6,156,8,35424,-41,34,127,0,0,3952,-38,0,18138,6730,65,10418,-4,0,90,16,152246,0
152268,-101,-2066,237,-83,23,114,15024,14,4,137,32,35414,-42,34,127,0,0,3958,21,0,18138,6730,65,10428,-4,0,90,16,152246,0
152278,-95,-2066,224,-80,31,110,15024,-3,-2,193,32,35421,-41,34,127,0,0,3955,10,0,18138,6730,65,10438,-4,0,90,16,152293,0
152288,-87,-2072,230,-81,32,109,15025,2,2,174,32,35433,-41,34,127,0,0,3955,0,0,18138,6730,65,10448,-4,0,90,16,152293,0
152298,-93,-2050,238,-81,29,104,15025,-6,-1,169,8,35432,-54,34,127,0,0,3956,-5,0,18138,6730,65,10458,-4,0,90,16,152293,0
152308,-111,-2063,240,-80,21,107,15024,0,-1,173,32,35428,-53,34,127,0,0,3955,0,0,18138,6730,65,10468,-4,0,90,16,152293,0
152318,-84,-2046,238,-81,37,104,15023,-5,2,135,32,35412,-61,34,127,0,0,3955,16,0,18138,6730,65,10478,-4,0,90,16,152293,0
152328,-62,-2049,227,-77,36,102,15024,-5,0,169,32,35425,-52,34,127,0,0,3951,-32,0,18138,6730,65,10488,-4,0,90,16,152324,0
152338,-87,-2104,220,-73,39,103,15021,-6,-3,49,16,35440,-52,34,127,0,0,3956,32,0,18138,6730,65,10498,-4,0,90,16,152324,0
152348,-80,-2105,233,-73,38,117,15023,-11,-1,73,16,35438,-49,34,127,0,0,3952,10,0,18138,6730,65,10508,-4,0,90,16,152324,0
152358,-48,-2104,234,-73,35,114,15023,3,3,54,16,35429,-47,34,127,0,0,3952,-5,0,18138,6730,65,10518,-4,0,90,16,152355,0
152368,-48,-2111,235,-68,35,114,15022,0,5,78,8,35420,-40,34,127,0,0,3956,5,0,18138,6730,65,10528,-4,0,90,16,152355,0
152378,-31,-2080,230,-64,36,134,15022,-1,-2,97,8,35420,-55,34,127,0,0,3952,5,0,18138,6730,65,10538,-4,0,90,16,152355,0
152389,-126,-2092,229,-60,37,146,15024,16,2,115,32,35425,-43,34,127,0,0,3955,0,0,18138,6730,65,10549,-4,0,90,16,152371,0
152399,-111,-2084,239,-57,38,146,15022,-14,-1,142,32,35427,-39,34,127,0,0,3952,-10,0,18138,6730,65,10559,-4,0,90,16,152386,0
152409,-137,-2086,243,-54,37,135,15024,11,-3,119,32,35431,-26,34,127,0,0,3955,0,0,18138,6730,65,10569,-4,0,90,16,152386,0
152419,-121,-2094,237,-54,41,139,15024,-9,1,148,32,35431,-33,34,127,0,0,3955,21,0,18138,6730,65,10579,-4,0,90,16,152402,0
152429,-96,-2087,237,-55,45,130,15024,-2,-3,175,32,35427,-52,34,127,0,0,3952,-21,0,18138,6730,65,10589,-4,0,90,16,152418,0
152439,-78,-2071,233,-57,36,124,15024,4,1,137,32,35430,-50,34,127,0,0,3955,-10,0,18138,6730,65,10599,-4,0,90,16,152418,0
152449,-121,-2057,242,-54,38,137,15025,7,-3,147,32,35434,-42,34,127,0,0,3952,-21,0,18138,6730,65,10609,-4,0,90,16,152433,0
152459,-106,-2045,240,-54,35,119,15023,2,0,139,32,35434,-44,34,127,0,0,3955,0,0,18138,6730,65,10619,-4,0,90,16,152449,0
152469,-125,-2036,245,-52,33,114,15024,-1,0,170,-8,35434,-56,34,127,0,0,3955,0,0,18138,6730,65,10629,-4,0,90,16,152449,0
152479,-120,-2045,245,-52,26,116,15025,-1,2,182,64,35429,-56,34,127,0,0,3957,21,0,18138,6730,65,10639,-4,0,90,16,152464,0
152489,-107,-2072,247,-65,32,94,15024,-5,-3,183,32,35425,-52,34,127,0,0,3955,10,0,18138,6730,65,10649,-4,0,90,16,152480,0
152499,-84,-2084,262,-70,36,85,15025,0,2,200,64,35427,-31,34,127,0,0,3955,-10,0,18138,6730,65,10659,-4,0,90,16,152480,0
152509,-87,-2083,256,-82,34,78,15025,0,-1,198,-16,35426,-38,34,127,0,0,3952,-32,0,18138,6730,65,10669,-4,0,90,16,152496,0
152519,-105,-2075,251,-84,25,77,15023,0,-3,100,8,35429,-38,34,127,0,0,3955,10,0,18138,6730,65,10679,-4,0,90,16,152511,0
152529,-53,-2059,250,-86,28,70,15023,-8,-3,144,0,35430,-49,34,127,0,0,3952,-10,0,18138,6730,65,10689,-4,0,90,16,152511,0
152539,-97,-2060,249,-92,32,66,15022,7,0,91,32,35427,-53,34,127,0,0,3952,-10,0,18138,6730,65,10699,-4,0,90,16,152511,0
152549,-92,-2083,249,-94,38,59,15021,-11,-15,53,48,35432,-58,34,127,0,0,3952,0,0,18138,6730,65,10709,-4,0,90,16,152543,0
152559,-56,-2093,257,-94,42,65,15021,-10,2,-16,40,35439,-52,34,127,0,0,3950,0,0,18138,6730,65,10719,-4,0,90,16,152558,0
152569,-74,-2101,258,-98,41,67,15021,0,5,-28,0,35434,-46,34,127,0,0,3950,10,0,18138,6730,65,10729,-4,0,90,16,152574,0
152579,-84,-2106,258,-107,46,65,15020,-4,-1,-61,-32,35431,-48,34,127,0,0,3946,-10,0,18138,6730,65,10739,-4,0,90,16,152574,0
152589,-54,-2104,247,-112,41,63,15016,-16,-10,-161,-48,35423,-49,34,127,0,0,3944,-21,0,18138,6730,65,10749,-4,0,90,16,152589,0
152599,-63,-2091,244,-109,34,72,15014,-14,-8,-235,-64,35425,-56,34,127,0,0,3944,10,0,18138,6730,65,10759,-4,0,90,16,152605,0
152609,-71,-2079,234,-110,42,81,15013,-5,3,-215,-88,35431,-60,34,127,0,0,3939,-65,0,18138,6730,65,10769,-4,0,90,16,152621,0
152619,-88,-2072,243,-107,34,71,15007,-8,-13,-333,-96,35434,-58,34,127,0,0,3941,21,0,18138,6730,65,10779,-4,0,90,16,152621,0
152629,-89,-2064,245,-98,42,68,15006,-4,5,-304,-96,35437,-61,34,127,0,0,3939,0,0,18138,6730,65,10789,-4,0,90,16,152621,0
152640,-98,-2071,238,-100,45,56,15005,-2,13,-315,-144,35434,-52,34,127,0,0,3941,-10,0,18138,6730,65,10800,-4,0,90,16,152621,0
152650,-87,-2079,234,-103,48,46,15004,0,-12,-353,-136,35434,-61,34,127,0,0,3932,-60,0,18138,6730,65,10810,-4,0,90,16,152636,0
152660,-63,-2089,225,-102,44,37,15001,1,-7,-425,-152,35442,-54,34,127,0,0,3933,-65,0,18138,6730,65,10820,-4,0,90,16,152668,0
152670,-57,-2072,225,-98,47,36,14994,-21,-7,-507,-168,35447,-53,34,127,0,0,3930,-5,0,18138,6730,65,10830,-4,0,90,16,152668,0
152680,-69,-2066,225,-97,44,43,14988,-18,-6,-554,-152,35447,-48,34,127,0,0,3927,-10,0,18138,6730,65,10840,-4,0,90,16,152668,0
152690,-81,-2049,232,-80,45,53,14981,-20,0,-585,-192,35438,-50,34,127,0,0,3926,-16,0,18138,6730,65,10850,-4,0,90,16,152668,0
152700,-74,-2055,238,-85,42,49,14961,-56,-24,-499,-152,35431,-55,34,127,0,0,3923,-10,0,18138,6730,65,10860,-4,0,90,16,152683,0
152710,-72,-2069,247,-80,52,41,14930,-64,-51,-372,-136,35433,-61,34,127,0,0,3922,-5,0,18138,6730,65,10870,-4,0,90,16,152699,0
152720,-82,-2079,245,-88,52,41,14915,-15,13,-371,-152,35439,-68,34,127,0,0,3921,-27,0,18138,6730,65,10880,-4,0,90,16,152699,0
152730,-54,-2088,256,-93,46,56,14901,-45,40,-393,-152,35447,-67,34,127,0,0,3915,-49,0,18138,6730,65,10890,-4,0,90,16,152714,0
152740,-39,-2079,254,-96,43,54,14861,-77,-61,-228,-96,35447,-43,34,127,0,0,3910,-71,0,18138,6730,65,10900,-4,0,90,16,152714,0
152750,-75,-2078,225,-103,52,69,14853,3,16,-293,-96,35440,-28,34,127,0,0,3911,-54,0,18138,6730,65,10910,-4,0,90,16,152730,0
152760,-49,-2077,229,-94,45,73,14854,12,84,-315,-48,35442,-24,34,127,0,0,3908,-5,0,18138,6730,65,10920,-4,0,90,16,152746,0
152770,-52,-2072,239,-92,39,74,14853,-11,8,-348,-96,35443,-25,34,127,0,0,3911,0,0,18138,6730,65,10930,-4,0,90,16,152746,0
152780,-61,-2075,236,-93,46,81,14852,0,-5,-353,-112,35445,-28,34,127,0,0,3905,-54,0,18138,6730,65,10940,-4,0,90,16,152808,0
152790,-53,-2083,241,-92,51,90,14845,-25,-12,-411,-104,35452,-17,34,127,0,0,3905,-27,0,18138,6730,65,10950,-4,0,90,16,152808,0
152800,-34,-2085,245,-100,47,99,14836,-22,-25,-334,-80,35444,-16,34,127,0,0,3905,-38,0,18138,6730,65,10960,-4,0,90,16,152808,0
152810,-43,-2087,253,-104,42,119,14823,-28,-10,-280,-80,35435,-20,34,127,0,0,3906,-27,0,18138,6730,65,10970,-4,0,90,16,152824,0
152820,-49,-2085,238,-103,42,129,14813,-9,4,-207,-40,35427,-24,34,127,0,0,3905,5,0,18138,6730,65,10980,-4,0,90,16,152824,0
152830,-37,-2078,235,-105,41,144,14812,-9,27,-219,-56,35428,-36,34,127,0,0,3906,0,0,18138,6730,65,10990,-4,0,90,16,152824,0
152840,-38,-2080,233,-102,43,150,14813,5,6,-233,-40,35432,-30,34,127,0,0,3905,10,0,18138,6730,65,11000,-4,0,90,16,152824,0
152850,-36,-2077,233,-98,42,156,14813,-5,0,-234,-40,35437,-43,34,127,0,0,3905,32,0,18138,6730,65,11010,-4,0,90,16,152824,0
152860,-42,-2082,240,-94,50,161,14814,-1,-3,-217,-40,35445,-39,34,127,0,0,3908,38,0,18138,6730,65,11020,-4,0,90,16,152855,0
152870,-52,-2076,233,-90,49,165,14813,-5,-3,-201,-64,35454,-48,34,127,0,0,3906,10,0,18138,6730,65,11030,-4,0,90,16,152871,0
152880,-48,-2083,231,-94,48,168,14814,5,-3,-199,-64,35452,-52,34,127,0,0,3906,-16,0,18138,6730,65,11040,-4,0,90,16,152871,0
152890,-65,-2072,226,-96,39,184,14814,5,-1,-196,-64,35444,-50,34,127,0,0,3906,-16,0,18138,6730,65,11050,-4,0,90,16,152871,0
152901,-74,-2061,235,-92,35,201,14815,9,4,-143,-40,35441,-41,34,127,0,0,3911,0,0,18138,6730,65,11061,-4,0,90,16,152886,0
152911,-83,-2074,240,-92,43,204,14814,-1,3,-90,-16,35448,-30,34,127,0,0,3911,21,0,18138,6730,65,11071,-4,0,90,16,152886,0
152921,-71,-2070,248,-100,31,209,14818,10,0,-39,-24,35459,-2,34,127,0,0,3913,32,0,18138,6730,65,11081,-4,0,90,16,152902,0
152931,-87,-2070,251,-102,30,214,14817,3,0,-2,0,35457,-12,34,127,0,0,3917,54,0,18138,6730,65,11091,-4,0,90,16,152996,0
152941,-91,-2084,247,-106,35,207,14824,29,10,148,32,35447,-28,34,127,0,0,3917,0,0,18138,6730,65,11101,-4,0,90,16,152996,0
152951,-70,-2086,244,-110,33,196,14828,3,10,200,0,35441,-55,34,127,0,0,3919,0,0,18138,6730,65,11111,-4,0,90,16,152996,0
152961,-95,-2082,236,-111,38,196,14833,14,-5,244,24,35436,-46,34,127,0,0,3922,0,0,18138,6730,65,11121,-4,0,90,16,152996,0
152971,-89,-2071,229,-116,30,187,14838,14,8,228,40,35433,-31,34,127,0,0,3924,21,0,18138,6730,65,11131,-4,0,90,16,152996,0
152981,-101,-2067,228,-111,33,180,14851,30,19,207,88,35434,-29,34,127,0,0,3926,21,0,18138,6730,65,11141,-4,0,90,16,153011,0
152991,-103,-2072,229,-102,38,170,14869,24,29,138,40,35436,-45,34,127,0,0,3926,0,0,18138,6730,65,11151,-4,0,90,16,153011,0
153001,-119,-2083,239,-103,35,155,14870,0,-24,153,72,35439,-54,34,127,0,0,3930,54,0,18138,6730,65,11161,-4,0,90,16,153011,0
153011,-112,-2091,233,-99,42,148,14872,7,-30,249,40,35440,-50,34,127,0,0,3933,43,0,18138,6730,65,11171,-4,0,90,16,153011,0
153021,-75,-2094,237,-99,38,136,14873,3,6,251,88,35442,-47,34,127,0,0,3928,21,0,18138,6730,65,11181,-4,0,90,16,153011,0
153031,-60,-2108,235,-102,38,130,14873,0,2,220,56,35454,-33,34,127,0,0,3933,43,0,18138,6730,65,11191,-4,0,90,16,153011,0
153041,-67,-2098,232,-100,37,122,14877,0,1,283,72,35460,-27,34,127,0,0,3933,21,0,18138,6730,65,11201,-4,0,90,16,153011,0
153051,-89,-2081,228,-98,32,122,14877,-1,-4,263,72,35469,-27,34,127,0,0,3933,43,0,18138,6730,65,11211,-4,0,90,16,153042,0
153061,-112,-2073,233,-93,35,110,14878,4,-1,301,56,35457,-40,34,127,0,0,3930,-21,0,18138,6730,65,11221,-4,0,90,16,153058,0
153071,-104,-2055,232,-92,36,104,14878,1,-1,256,80,35445,-31,34,127,0,0,3933,10,0,18138,6730,65,11231,-4,0,90,16,153058,0
153081,-68,-2050,241,-96,41,90,14878,0,1,260,32,35439,-32,34,127,0,0,3933,21,0,18138,6730,65,11241,-4,0,90,16,153058,0
153091,-103,-2051,241,-105,39,101,14878,3,2,247,40,35440,-28,34,127,0,0,3928,-32,0,18138,6730,65,11251,-4,0,90,16,153089,0
153101,-55,-2042,237,-104,37,88,14878,10,-2,220,40,35443,-36,34,127,0,0,3928,-10,0,18138,6730,65,11261,-4,0,90,16,153089,0
153111,-61,-2046,231,-110,32,84,14877,0,3,208,8,35443,-39,34,127,0,0,3928,-21,0,18138,6730,65,11271,-4,0,90,16,153089,0
153121,-67,-2042,231,-107,37,98,14877,7,6,222,80,35442,-36,34,127,0,0,3928,-10,0,18138,6730,65,11281,-4,0,90,16,153121,0
153131,-57,-2042,227,-100,38,94,14876,-3,-1,163,24,35437,-40,34,127,0,0,3928,0,0,18138,6730,65,11291,-4,0,90,16,153121,0
153141,-62,-2054,235,-109,44,109,14876,7,0,152,56,35439,-34,34,127,0,0,3928,0,0,18138,6730,65,11301,-4,0,90,16,153121,0
153152,-69,-2066,229,-109,44,107,14876,0,3,151,24,35445,-22,34,127,0,0,3926,-16,0,18138,6730,65,11312,-4,0,90,16,153136,0
153162,-50,-2078,230,-103,48,109,14874,0,-5,74,24,35440,-19,34,127,0,0,3926,27,0,18138,6730,65,11322,-4,0,90,16,153136,0
153172,-44,-2087,227,-97,48,121,14874,-6,3,71,8,35445,-26,34,127,0,0,3924,-5,0,18138,6730,65,11332,-4,0,90,16,153152,0
153182,-51,-2104,212,-99,46,145,14874,-4,2,60,24,35454,-33,34,127,0,0,3923,-21,0,18138,6730,65,11342,-4,0,90,16,153167,0
153192,-45,-2109,219,-98,42,155,14874,8,2,82,24,35451,-34,34,127,0,0,3926,16,0,18138,6730,65,11352,-4,0,90,16,153167,0
153202,-73,-2124,216,-82,41,167,14874,3,-2,60,8,35450,-30,34,127,0,0,3924,10,0,18138,6730,65,11362,-4,0,90,16,153183,0
153212,-59,-2129,213,-74,49,172,14873,-5,5,80,32,35443,-21,34,127,0,0,3923,-38,0,18138,6730,65,11372,-4,0,90,16,153199,0
153222,-68,-2132,231,-62,48,184,14874,1,4,78,24,35435,-7,34,127,0,0,3926,5,0,18138,6730,65,11382,-4,0,90,16,153199,0
153232,-72,-2120,227,-57,45,190,14875,-1,-2,93,24,35451,-8,34,127,0,0,3926,0,0,18138,6730,65,11392,-4,0,90,16,153246,0
153242,-83,-2110,227,-54,35,199,14875,1,4,99,48,35447,-11,34,127,0,0,3932,71,0,18138,6730,65,11402,-4,0,90,16,153246,0
153252,-96,-2093,226,-52,34,207,14877,5,7,229,88,35443,-28,34,127,0,0,3933,54,0,18138,6730,65,11412,-4,0,90,16,153246,0
153262,-91,-2060,225,-57,27,209,14879,0,1,310,88,35435,-42,34,127,0,0,3939,60,0,18138,6730,65,11422,-4,0,90,16,153246,0
153272,-109,-2064,231,-51,22,207,14885,18,4,398,128,35434,-45,34,127,0,0,3937,21,0,18138,6730,65,11432,-4,0,90,16,153246,0
153282,-97,-2040,236,-57,35,203,14888,6,11,408,88,35447,-22,34,127,0,0,3941,27,0,18138,6730,65,11442,-4,0,90,16,153277,0
153292,-99,-2049,240,-53,26,192,14894,23,-5,452,136,35454,-17,34,127,0,0,3939,5,0,18138,6730,65,11452,-4,0,90,16,153277,0
153302,-105,-2049,234,-62,30,182,14903,37,14,479,160,35457,-8,34,127,0,0,3944,-21,0,18138,6730,65,11462,-4,0,90,16,153277,0
153312,-100,-2047,233,-61,33,176,14940,97,69,283,96,35457,-21,34,127,0,0,3944,27,0,18138,6730,65,11472,-4,0,90,16,153292,0
153322,-72,-2063,241,-70,28,177,14968,49,43,223,48,35451,-43,34,127,0,0,3946,-10,0,18138,6730,65,11482,-4,0,90,16,153292,0
153332,-95,-2054,249,-63,30,175,14981,22,-45,145,24,35446,-51,34,127,0,0,3946,0,0,18138,6730,65,11492,-4,0,90,16,153308,0
153342,-93,-2053,237,-78,37,168,14989,22,-32,110,8,35442,-70,34,127,0,0,3952,43,0,18138,6730,65,11502,-4,0,90,16,153339,0
153352,-113,-2056,239,-79,35,169,14997,15,-10,85,40,35432,-70,34,127,0,0,3947,43,0,18138,6730,65,11512,-4,0,90,16,153339,0
153362,-95,-2060,249,-85,37,157,14998,10,-17,97,64,35423,-77,34,127,0,0,3952,54,0,18138,6730,65,11522,-4,0,90,16,153355,0
153372,-113,-2075,252,-83,33,159,15005,7,-3,148,24,35425,-68,34,127,0,0,3950,5,0,18138,6730,65,11532,-4,0,90,16,153355,0
153382,-113,-2084,250,-90,42,136,15004,6,-3,165,48,35432,-52,34,127,0,0,3952,16,0,18138,6730,65,11542,-4,0,90,16,153355,0
153393,-107,-2098,256,-98,41,137,15006,0,-5,215,40,35445,-56,34,127,0,0,3952,-21,0,18138,6730,65,11553,-4,0,90,16,153449,0
153403,-101,-2096,245,-108,38,131,15005,-5,-1,206,40,35451,-53,34,127,0,0,3952,10,0,18138,6730,65,11563,-4,0,90,16,153449,0
153413,-76,-2091,228,-106,36,119,15007,-12,-3,209,48,35439,-50,34,127,0,0,3952,10,0,18138,6730,65,11573,-4,0,90,16,153449,0
153423,-67,-2085,233,-108,34,124,15009,1,8,233,24,35427,-48,34,127,0,0,3952,-10,0,18138,6730,65,11583,-4,0,90,16,153465,0
153433,-107,-2074,229,-105,42,130,15008,0,-1,174,40,35422,-63,34,127,0,0,3952,10,0,18138,6730,65,11593,-4,0,90,16,153465,0
153443,-83,-2069,244,-107,38,121,15007,-5,1,191,40,35420,-60,34,127,0,0,3952,0,0,18138,6730,65,11603,-4,0,90,16,153465,0
153453,-112,-2079,245,-107,43,123,15010,12,8,207,40,35422,-52,34,127,0,0,3952,-21,0,18138,6730,65,11613,-4,0,90,16,153465,0
153463,-95,-2062,253,-113,45,128,15008,-1,-1,189,40,35419,-38,34,127,0,0,3952,10,0,18138,6730,65,11623,-4,0,90,16,153465,0
153473,-67,-2063,247,-127,47,126,15009,-6,-3,188,8,35421,-50,34,127,0,0,3955,21,0,18138,6730,65,11633,-4,0,90,16,153465,0
153483,-86,-2062,240,-132,39,142,15008,0,4,213,32,35429,-54,34,127,0,0,3952,0,0,18138,6730,65,11643,-4,0,90,16,153465,0
153493,-81,-2067,223,-136,41,136,15008,4,8,205,-8,35438,-67,34,127,0,0,3952,-10,0,18138,6730,65,11653,-4,0,90,16,153465,0
153503,-106,-2066,220,-134,43,145,15009,-2,-6,181,40,35445,-58,34,127,0,0,3955,21,0,18138,6730,65,11663,-4,0,90,16,153496,0
153513,-78,-2092,229,-126,42,149,15009,3,6,204,72,35442,-63,34,127,0,0,3955,21,0,18138,6730,65,11673,-4,0,90,16,153496,0
153523,-96,-2099,233,-125,41,160,15009,-3,-1,233,32,35442,-61,34,127,0,0,3955,21,0,18138,6730,65,11683,-4,0,90,16,153527,0
153533,-60,-2105,241,-128,41,159,15010,3,-1,255,56,35446,-61,34,127,0,0,3955,10,0,18138,6730,65,11693,-4,0,90,16,153527,0
153543,-91,-2122,239,-133,38,153,15009,-1,-5,240,64,35445,-64,34,127,0,0,3955,0,0,18138,6730,65,11703,-4,0,90,16,153527,0
153553,-93,-2109,222,-133,47,152,15011,0,-3,259,64,35440,-47,34,127,0,0,3957,21,0,18138,6730,65,11713,-4,0,90,16,153527,0
153563,-95,-2099,222,-125,39,157,15013,13,0,327,48,35433,-59,34,127,0,0,3955,-32,0,18138,6730,65,11723,-4,0,90,16,153558,0
153573,-115,-2085,225,-123,37,161,15012,3,0,245,88,35443,-60,34,127,0,0,3957,32,0,18138,6730,65,11733,-4,0,90,16,153558,0
153583,-101,-2080,225,-123,40,164,15013,0,2,334,72,35443,-52,34,127,0,0,3959,32,0,18138,6730,65,11743,-4,0,90,16,153558,0
153593,-112,-2073,223,-120,43,152,15017,8,4,394,96,35441,-41,34,127,0,0,3959,0,0,18138,6730,65,11753,-4,0,90,16,153574,0
153603,-103,-2073,224,-116,42,147,15017,-4,-2,365,128,35434,-41,34,127,0,0,3959,32,0,18138,6730,65,11763,-4,0,90,16,153590,0
153613,-94,-2080,226,-120,41,129,15019,-4,-11,373,160,35440,-43,34,127,0,0,3959,10,0,18138,6730,65,11773,-4,0,90,16,153590,0
153623,-87,-2069,230,-117,36,126,15021,0,-1,412,96,35444,-45,34,127,0,0,3961,-10,0,18138,6730,65,11783,-4,0,90,16,153605,0
153634,-112,-2056,217,-118,30,118,15020,2,0,395,128,35436,-40,34,127,0,0,3960,32,0,18138,6730,65,11794,-4,0,90,16,153621,0
153644,-92,-2054,215,-115,42,117,15021,-17,-4,421,80,35431,-27,34,127,0,0,3962,-10,0,18138,6730,65,11804,-4,0,90,16,153621,0
153654,-104,-2043,211,-109,41,118,15022,-5,-2,379,104,35435,-43,34,127,0,0,3961,43,0,18138,6730,65,11814,-4,0,90,16,153636,0
153664,-91,-2041,209,-106,40,123,15022,0,0,406,104,35441,-36,34,127,0,0,3964,43,0,18138,6730,65,11824,-4,0,90,16,153636,0
153674,-92,-2042,217,-95,37,129,15023,0,-1,417,128,35442,-45,34,127,0,0,3960,27,0,18138,6730,65,11834,-4,0,90,16,153714,0
153684,-56,-2049,216,-96,45,123,15025,4,0,412,104,35437,-43,34,127,0,0,3964,10,0,18138,6730,65,11844,-4,0,90,16,153730,0
153694,-69,-2060,222,-94,43,146,15027,12,0,461,120,35434,-41,34,127,0,0,3963,0,0,18138,6730,65,11854,-4,0,90,16,153730,0
153704,-79,-2070,219,-94,35,157,15026,5,-2,434,120,35431,-43,34,127,0,0,3967,76,0,18138,6730,65,11864,-4,0,90,16,153730,0
153714,-74,-2080,217,-92,36,166,15028,0,1,475,112,35431,-30,34,127,0,0,3963,10,0,18138,6730,65,11874,-4,0,90,16,153730,0
153724,-86,-2080,216,-91,36,168,15031,12,-1,495,184,35424,-30,34,127,0,0,3960,-5,0,18138,6730,65,11884,-4,0,90,16,153730,0
153734,-82,-2095,226,-83,34,179,15037,19,8,459,144,35424,-31,34,127,0,0,3971,27,0,18138,6730,65,11894,-4,0,90,16,153730,0
153744,-102,-2095,226,-84,39,178,15056,55,27,473,136,35429,-43,34,127,0,0,3973,49,0,18138,6730,65,11904,-4,0,90,16,153730,0
153754,-98,-2105,242,-86,26,192,15082,40,44,317,112,35438,-33,34,127,0,0,3972,49,0,18138,6730,65,11914,-4,0,90,16,153730,0
153764,-95,-2116,233,-94,28,176,15082,-2,-36,389,104,35443,-27,34,127,0,0,3975,5,0,18138,6730,65,11924,-4,0,90,16,153746,0
153774,-117,-2117,226,-81,38,164,15084,3,-49,406,120,35446,-25,34,127,0,0,3971,-16,0,18138,6730,65,11934,-4,0,90,16,153777,0
153784,-105,-2099,217,-86,36,158,15085,9,-3,417,120,35455,-16,34,127,0,0,3978,-5,0,18138,6730,65,11944,-4,0,90,16,153777,0
153794,-115,-2096,221,-82,35,157,15085,0,-1,413,120,35457,-18,34,127,0,0,3974,16,0,18138,6730,65,11954,-4,0,90,16,153777,0
153804,-118,-2063,231,-75,37,148,15084,-6,-4,414,144,35449,-18,34,127,0,0,3973,5,0,18138,6730,65,11964,-4,0,90,16,153777,0
153814,-113,-2060,227,-72,36,132,15085,9,-1,436,144,35450,-17,34,127,0,0,3973,-5,0,18138,6730,65,11974,-4,0,90,16,153808,0
153824,-98,-2038,245,-76,33,129,15088,-6,6,425,136,35451,-29,34,127,0,0,3977,5,0,18138,6730,65,11984,-4,0,90,16,153808,0
153834,-110,-2024,250,-80,43,125,15089,4,-5,471,160,35450,-23,34,127,0,0,3975,-5,0,18138,6730,65,11994,-4,0,90,16,153808,0
153844,-109,-2067,227,-82,35,121,15093,11,4,464,128,35442,-36,34,127,0,0,3977,-38,0,18138,6730,65,12004,-4,0,90,16,153824,0
153854,-117,-2036,241,-87,33,121,15091,1,-6,420,152,35440,-35,34,127,0,0,3975,5,0,18138,6730,65,12014,-4,0,90,16,153855,0
153864,-109,-2097,222,-95,35,111,15094,0,-3,453,128,35447,-42,34,127,0,0,3977,-21,0,18138,6730,65,12024,-4,0,90,16,153855,0
153874,-122,-2081,219,-99,35,113,15094,7,0,439,104,35451,-49,34,127,0,0,3978,-21,0,18138,6730,65,12034,-4,0,90,16,153855,0
153885,-68,-2061,226,-100,34,106,15095,5,-1,419,120,35445,-38,34,127,0,0,3979,21,0,18138,6730,65,12045,-4,0,90,16,153871,0
153895,-87,-2084,213,-96,41,111,15096,4,2,470,144,35433,-34,34,127,0,0,3977,-10,0,18138,6730,65,12055,-4,0,90,16,153871,0
153905,-105,-2091,227,-99,37,122,15096,-4,1,417,96,35432,-34,34,127,0,0,3977,-10,0,18138,6730,65,12065,-4,0,90,16,153902,0
153915,-92,-2065,242,-103,31,128,15098,16,3,444,120,35438,-45,34,127,0,0,3977,-21,0,18138,6730,65,12075,-4,0,90,16,153902,0
153925,-93,-2084,231,-102,41,131,15098,-10,-5,394,96,35442,-34,34,127,0,0,3977,0,0,18138,6730,65,12085,-4,0,90,16,153902,0
153935,-88,-2085,229,-110,41,129,15099,4,-2,404,96,35442,-33,34,127,0,0,3977,0,0,18138,6730,65,12095,-4,0,90,16,153933,0
153945,-76,-2072,230,-112,41,136,15099,5,-2,415,112,35436,-39,34,127,0,0,3977,0,0,18138,6730,65,12105,-4,0,90,16,153933,0
153955,-91,-2091,226,-113,40,142,15098,-12,-1,387,96,35441,-41,34,127,0,0,3974,10,0,18138,6730,65,12115,-4,0,90,16,153949,0
153965,-98,-2090,224,-114,44,133,15100,3,1,387,128,35445,-43,34,127,0,0,3977,10,0,18138,6730,65,12125,-4,0,90,16,153949,0
153975,-92,-2084,228,-113,43,134,15099,-3,-1,405,152,35447,-32,34,127,0,0,3977,0,0,18138,6730,65,12135,-4,0,90,16,153980,0
153985,-97,-2092,229,-116,38,134,15099,-9,0,377,152,35446,-38,34,127,0,0,3977,21,0,18138,6730,65,12145,-4,0,90,16,153980,0
153995,-84,-2066,232,-122,38,134,15102,3,-1,379,112,35446,-36,34,127,0,0,3979,21,0,18138,6730,65,12155,-4,0,90,16,153980,0
154005,-95,-2061,224,-127,45,147,15104,7,4,407,104,35442,-41,34,127,0,0,3977,0,0,18138,6730,65,12165,-4,0,90,16,153980,0
154015,-97,-2071,217,-133,41,144,15106,6,1,418,128,35442,-46,34,127,0,0,3979,10,0,18138,6730,65,12175,-4,0,90,16,153996,0
154025,-82,-2067,220,-123,38,145,15122,42,23,323,96,35451,-46,34,127,0,0,3979,0,0,18138,6730,65,12185,-4,0,90,16,154011,0
154035,-79,-2064,210,-122,27,170,15148,47,48,162,72,35456,-50,34,127,0,0,3979,0,0,18138,6730,65,12195,-4,0,90,16,154011,0
154045,-118,-2085,213,-121,35,168,15146,-9,-36,211,72,35454,-58,34,127,0,0,3981,0,0,18138,6730,65,12205,-4,0,90,16,154027,0
154055,-83,-2096,208,-114,31,177,15151,8,-45,286,48,35454,-69,34,127,0,0,3983,10,0,18138,6730,65,12215,-4,0,90,16,154074,0
154065,-95,-2107,203,-115,34,190,15150,2,5,310,112,35445,-69,34,127,0,0,3985,32,0,18138,6730,65,12225,-4,0,90,16,154074,0
154075,-89,-2124,200,-109,36,189,15154,14,2,329,176,35443,-66,34,127,0,0,3988,43,0,18138,6730,65,12235,-4,0,90,16,154089,0
154085,-87,-2104,193,-106,33,196,15161,13,12,390,160,35436,-56,34,127,0,0,3990,10,0,18138,6730,65,12245,-4,0,90,16,154105,0
154095,-102,-2145,181,-100,33,203,15171,28,7,430,120,35437,-53,34,127,0,0,3994,21,0,18138,6730,65,12255,-4,0,90,16,154105,0
154105,-109,-2089,205,-91,38,214,15196,60,30,336,112,35431,-55,34,127,0,0,3994,10,0,18138,6730,65,12265,-4,0,90,16,154105,0
154115,-95,-2136,205,-83,20,220,15214,11,21,276,80,35433,-54,34,127,0,0,3996,10,0,18138,6730,65,12275,-4,0,90,16,154105,0
154125,-149,-2158,188,-85,36,210,15214,10,-54,362,144,35437,-59,34,127,0,0,3999,0,0,18138,6730,65,12285,-4,0,90,16,154105,0
154136,-115,-2116,198,-68,34,194,15215,5,-15,420,176,35441,-69,34,127,0,0,4002,27,0,18138,6730,65,12296,-4,0,90,16,154121,0
154146,-126,-2124,191,-73,32,190,15223,16,12,458,136,35446,-63,34,127,0,0,4003,-27,0,18138,6730,65,12306,-4,0,90,16,154152,0
154156,-137,-2053,225,-69,36,177,15224,0,-2,483,160,35443,-74,34,127,0,0,4008,43,0,18138,6730,65,12316,-4,0,90,16,154152,0
154166,-139,-2048,233,-76,40,170,15229,15,-2,536,192,35442,-85,34,127,0,0,4006,5,0,18138,6730,65,12326,-4,0,90,16,154152,0
154176,-152,-2052,228,-79,31,160,15241,33,21,509,168,35436,-88,34,127,0,0,4013,54,0,18138,6730,65,12336,-4,0,90,16,154152,0
154186,-145,-2048,236,-92,30,134,15270,80,45,359,88,35433,-83,34,127,0,0,4011,60,0,18138,6730,65,12346,-4,0,90,16,154183,0
154196,-142,-2073,247,-93,21,122,15294,25,32,214,64,35439,-68,34,127,0,0,4010,16,0,18138,6730,65,12356,-4,0,90,16,154199,0
154206,-155,-2096,225,-111,35,97,15292,0,-70,285,40,35442,-74,34,127,0,0,4011,-5,0,18138,6730,65,12366,-4,0,90,16,154199,0
154216,-144,-2049,217,-106,38,76,15293,3,-42,294,40,35442,-88,34,127,0,0,4014,0,0,18138,6730,65,12376,-4,0,90,16,154199,0
154226,-135,-2080,224,-112,17,76,15292,5,10,326,40,35442,-87,34,127,0,0,4011,-27,0,18138,6730,65,12386,-4,0,90,16,154199,0
154236,-146,-2069,190,-94,19,51,15290,-3,-2,250,48,35447,-86,34,127,0,0,4007,-16,0,18138,6730,65,12396,-4,0,90,16,154230,0
154246,-166,-2110,187,-96,5,6,15291,-1,-1,191,24,35451,-67,34,127,0,0,4005,-32,0,18138,6730,65,12406,-4,0,90,16,154230,0
154256,-217,-2108,211,-79,19,-25,15286,-6,-10,69,-8,35454,-61,34,127,0,0,4001,-27,0,18138,6730,65,12416,-4,0,90,16,154230,0
154266,-192,-2093,282,-98,43,-90,15280,-15,-13,-83,-64,35445,-64,34,127,0,0,3994,-43,0,18138,6730,65,12426,-4,0,90,16,154246,0
154276,-159,-2093,284,-115,67,-137,15268,-16,-15,-207,-136,35442,-79,34,127,0,0,3992,-49,0,18138,6730,65,12436,-4,0,90,16,154261,0
154286,-47,-2086,300,-148,91,-121,15253,-49,-17,-352,-144,35440,-69,34,127,0,0,3978,-32,0,18138,6730,65,12446,-4,0,90,16,154261,0
154296,30,-2061,259,-165,74,-63,15199,-151,-88,-272,-144,35449,-79,34,127,0,0,3972,-65,0,18138,6730,65,12456,-4,0,90,16,154277,0
154306,92,-2032,140,-141,56,56,15141,-111,-89,-167,-96,35448,-80,34,127,0,0,3969,-27,0,18138,6730,65,12466,-4,0,90,16,154292,0
154316,94,-2037,121,-113,39,145,15130,7,85,-216,-64,35441,-84,34,127,0,0,3966,10,0,18138,6730,65,12476,-4,0,90,16,154308,0
154326,57,-2072,178,-83,51,239,15132,2,119,-242,-96,35431,-73,34,127,0,0,3970,0,0,18138,6730,65,12486,-4,0,90,16,154308,0
154336,-26,-2055,216,-70,63,304,15135,12,22,-145,-24,35439,-63,34,127,0,0,3970,32,0,18138,6730,65,12496,-4,0,90,16,154339,0
154346,30,-2113,197,-85,38,401,15141,22,11,-10,32,35444,-47,34,127,0,0,3977,43,0,18138,6730,65,12506,-4,0,90,16,154339,0
154356,-16,-2058,212,-84,6,468,15149,7,15,123,88,35452,-48,34,127,0,0,3983,76,0,18138,6730,65,12516,-4,0,90,16,154339,0
154366,-164,-2055,212,-70,4,472,15166,47,19,363,168,35440,-43,34,127,0,0,3997,93,0,18138,6730,65,12526,-4,0,90,16,154339,0
154376,-174,-2055,209,-71,18,441,15211,119,68,364,192,35437,-54,34,127,0,0,4005,104,0,18138,6730,65,12536,-4,0,90,16,154371,0
154386,-179,-2058,228,-62,29,376,15260,102,64,369,184,35442,-72,34,127,0,0,4014,76,0,18138,6730,65,12546,-4,0,90,16,154386,0
154396,-237,-2071,221,-62,20,353,15317,113,11,288,96,35444,-83,34,127,0,0,4023,54,0,18138,6730,65,12556,-4,0,90,16,154386,0
154407,-290,-2067,240,-74,24,261,15362,67,-17,263,88,35436,-84,34,127,0,0,4025,21,0,18138,6730,65,12567,-4,0,90,16,154386,0
154417,-308,-2065,254,-88,41,147,15365,-2,-103,351,104,35430,-66,34,127,0,0,4025,-32,0,18138,6730,65,12577,-4,0,90,16,154433,0
154427,-247,-2094,223,-100,57,94,15365,3,-80,364,128,35438,-44,34,127,0,0,4029,10,0,18138,6730,65,12587,-4,0,90,16,154433,0
154437,-152,-2077,219,-107,37,60,15366,1,3,374,104,35444,-41,34,127,0,0,4025,-10,0,18138,6730,65,12597,-4,0,90,16,154433,0
154447,-127,-2076,236,-111,31,47,15365,-8,-1,356,96,35443,-35,34,127,0,0,4023,-54,0,18138,6730,65,12607,-4,0,90,16,154449,0
154457,-130,-2098,221,-120,41,17,15363,-7,-10,304,72,35430,-37,34,127,0,0,4023,-43,0,18138,6730,65,12617,-4,0,90,16,154449,0
154467,-113,-2094,220,-115,50,17,15359,-19,-8,162,48,35429,-54,34,127,0,0,4018,-10,0,18138,6730,65,12627,-4,0,90,16,154449,0
154477,-113,-2072,207,-113,47,33,15357,1,-1,67,48,35430,-60,34,127,0,0,4016,-10,0,18138,6730,65,12637,-4,0,90,16,154496,0
154487,-87,-2084,196,-112,43,34,15354,-4,2,4,-48,35439,-67,34,127,0,0,4012,-54,0,18138,6730,65,12647,-4,0,90,16,154496,0
154497,-105,-2080,186,-109,44,50,15345,-4,-10,-32,-32,35431,-64,34,127,0,0,4012,-10,0,18138,6730,65,12657,-4,0,90,16,154496,0
154507,-79,-2069,190,-98,37,67,15345,-6,6,-81,-8,35430,-63,34,127,0,0,4012,0,0,18138,6730,65,12667,-4,0,90,16,154496,0
154517,-100,-2079,195,-86,39,72,15343,-13,12,-161,-64,35423,-59,34,127,0,0,4007,-21,0,18138,6730,65,12677,-4,0,90,16,154496,0
154527,-126,-2059,241,-90,43,67,15339,-4,-6,-229,-72,35431,-55,34,127,0,0,4005,-10,0,18138,6730,65,12687,-4,0,90,16,154511,0
154537,-90,-2072,251,-99,48,84,15334,-14,-10,-293,-48,35446,-43,34,127,0,0,4001,-21,0,18138,6730,65,12697,-4,0,90,16,154574,0
154547,-80,-2076,234,-108,47,97,15330,-20,3,-334,-72,35455,-29,34,127,0,0,4001,-21,0,18138,6730,65,12707,-4,0,90,16,154574,0
154557,-69,-2054,217,-104,39,116,15327,-4,-1,-327,-112,35459,-30,34,127,0,0,4001,-10,0,18138,6730,65,12717,-4,0,90,16,154574,0
154567,-85,-2080,207,-107,34,131,15327,0,0,-329,-96,35450,-35,34,127,0,0,4001,0,0,18138,6730,65,12727,-4,0,90,16,154574,0
154577,-97,-2050,240,-104,40,140,15328,2,3,-334,-96,35440,-68,34,127,0,0,4001,10,0,18138,6730,65,12737,-4,0,90,16,154589,0
154587,-89,-2043,245,-106,40,139,15327,-2,-3,-300,-104,35438,-64,34,127,0,0,4001,-10,0,18138,6730,65,12747,-4,0,90,16,154589,0
154597,-97,-2070,218,-114,33,142,15325,-8,-1,-345,-128,35442,-64,34,127,0,0,4001,10,0,18138,6730,65,12757,-4,0,90,16,154589,0
154607,-116,-2070,206,-112,41,144,15323,-2,-6,-329,-88,35441,-68,34,127,0,0,4001,10,0,18138,6730,65,12767,-4,0,90,16,154589,0
154617,-114,-2053,206,-96,49,135,15323,0,4,-327,-80,35442,-78,34,127,0,0,4003,21,0,18138,6730,65,12777,-4,0,90,16,154589,0
154627,-145,-2105,179,-97,43,143,15322,-1,3,-300,-120,35440,-82,34,127,0,0,4001,0,0,18138,6730,65,12787,-4,0,90,16,154605,0
154638,-130,-2088,213,-92,50,125,15321,1,0,-261,-80,35447,-84,34,127,0,0,4001,-16,0,18138,6730,65,12798,-4,0,90,16,154636,0
154648,-134,-2103,215,-90,44,124,15320,0,1,-304,-80,35453,-64,34,127,0,0,4001,16,0,18138,6730,65,12808,-4,0,90,16,154636,0
154658,-124,-2085,217,-94,37,122,15320,0,-4,-294,-80,35450,-54,34,127,0,0,4001,5,0,18138,6730,65,12818,-4,0,90,16,154652,0
154668,-143,-2063,226,-98,32,114,15318,0,3,-282,-72,35432,-49,34,127,0,0,3997,-32,0,18138,6730,65,12828,-4,0,90,16,154652,0
154678,-149,-2076,209,-100,27,86,15318,0,3,-292,-72,35428,-49,34,127,0,0,4001,-10,0,18138,6730,65,12838,-4,0,90,16,154667,0
154688,-134,-2064,212,-103,40,59,15319,1,2,-279,-96,35439,-68,34,127,0,0,3999,-38,0,18138,6730,65,12848,-4,0,90,16,154667,0
154698,-137,-2055,220,-104,63,33,15316,1,-3,-308,-120,35447,-59,34,127,0,0,3996,-38,0,18138,6730,65,12858,-4,0,90,16,154683,0
154708,-107,-2081,222,-104,60,31,15303,-43,-20,-379,-144,35443,-55,34,127,0,0,3995,5,0,18138,6730,65,12868,-4,0,90,16,154745,0
154718,-121,-2077,209,-111,46,33,15270,-66,-67,-212,-96,35438,-58,34,127,0,0,3993,-21,0,18138,6730,65,12878,-4,0,90,16,154745,0
154728,-128,-2073,202,-110,45,32,15264,2,15,-278,-80,35431,-75,34,127,0,0,3983,-43,0,18138,6730,65,12888,-4,0,90,16,154745,0
154738,-124,-2077,197,-111,33,10,15259,-18,60,-411,-136,35433,-83,34,127,0,0,3983,-16,0,18138,6730,65,12898,-4,0,90,16,154745,0
154748,-152,-2066,210,-108,52,-11,15236,-66,-25,-374,-144,35430,-82,34,127,0,0,3979,-21,0,18138,6730,65,12908,-4,0,90,16,154745,0
154758,-157,-2068,216,-100,56,-58,15189,-102,-89,-199,-96,35424,-82,34,127,0,0,3974,-49,0,18138,6730,65,12918,-4,0,90,16,154745,0
154768,-134,-2077,205,-104,70,-50,15169,-43,-3,-282,-120,35429,-81,34,127,0,0,3964,-76,0,18138,6730,65,12928,-4,0,90,16,154745,0
154778,-97,-2072,216,-109,52,-52,15136,-78,31,-291,-120,35434,-87,34,127,0,0,3961,-54,0,18138,6730,65,12938,-4,0,90,16,154761,0
154788,-95,-2067,209,-108,43,-44,15120,-27,12,-412,-136,35444,-58,34,127,0,0,3957,5,0,18138,6730,65,12948,-4,0,90,16,154777,0
154798,-133,-2074,211,-120,34,-72,15100,-62,22,-415,-192,35444,-44,34,127,0,0,3945,-126,0,18138,6730,65,12958,-4,0,90,16,154792,0
154808,-124,-2090,210,-118,44,-110,15044,-128,-87,-287,-128,35446,-40,34,127,0,0,3944,-60,0,18138,6730,65,12968,-4,0,90,16,154808,0
154818,-143,-2099,194,-121,38,-155,14991,-99,-49,-261,-160,35431,-42,34,127,0,0,3930,-54,0,18138,6730,65,12978,-4,0,90,16,154808,0
154828,-192,-2072,214,-124,29,-152,14974,-25,89,-518,-216,35430,-36,34,127,0,0,3922,-76,0,18138,6730,65,12988,-4,0,90,16,154808,0
154838,-203,-2080,234,-120,32,-203,14937,-102,26,-466,-240,35425,-45,34,127,0,0,3910,-109,0,18138,6730,65,12998,-4,0,90,16,154808,0
154848,-206,-2079,223,-131,51,-235,14878,-150,-89,-404,-216,35438,-53,34,127,0,0,3901,-76,0,18138,6730,65,13008,-4,0,90,16,154855,0
154858,-167,-2087,221,-126,67,-282,14806,-163,-64,-354,-208,35443,-50,34,127,0,0,3884,-131,0,18138,6730,65,13018,-4,0,90,16,154855,0
154868,-87,-2095,217,-127,68,-309,14750,-110,23,-391,-240,35452,-31,34,127,0,0,3874,-153,0,18138,6730,65,13028,-4,0,90,16,154855,0
154878,21,-2149,217,-149,21,-304,14686,-150,20,-389,-208,35441,-21,34,127,0,0,3862,-104,0,18138,6730,65,13038,-4,0,90,16,154855,0
154889,384,-2111,175,-185,94,-490,14616,-131,-31,-413,-248,35433,-39,34,127,0,0,3849,-131,0,18138,6730,65,13049,-4,0,90,16,154886,0
154899,407,-2126,146,-162,156,-810,14557,-115,18,-469,-368,35438,-52,34,127,0,0,3825,-296,0,18138,6730,65,13059,-4,0,90,16,154886,0
154909,50,-1977,263,-145,32,-409,14475,-206,-29,-591,-464,35441,-54,34,127,0,0,3799,-219,0,18138,6730,65,13069,-4,0,90,16,154886,0
154919,97,-2073,334,-191,-75,-98,14356,-277,-126,-435,-360,35438,-54,34,127,0,0,3792,-43,0,18138,6730,65,13079,-4,0,90,16,154902,0
154929,319,-2150,155,-206,29,-263,14248,-227,-50,-286,-136,35434,-45,34,127,0,0,3788,-32,0,18138,6730,65,13089,-4,0,90,16,154917,0
154939,456,-2078,10,-156,136,-547,14185,-93,104,-217,-160,35437,-41,34,127,0,0,3774,-153,0,18138,6730,65,13099,-4,0,90,16,154917,0
154949,417,-2007,198,-123,75,-491,14170,-44,187,-709,-376,35442,-45,34,127,0,0,3750,-241,0,18138,6730,65,13109,-4,0,90,16,154933,0
154959,266,-2066,350,-150,-43,-264,14091,-209,-30,-563,-384,35436,-40,34,127,0,0,3737,-131,0,18138,6730,65,13119,-4,0,90,16,154964,0
154969,115,-2129,323,-233,-65,-198,13977,-253,-198,-314,-240,35431,-42,34,127,0,0,3730,-76,0,18138,6730,65,13129,-4,0,90,16,154964,0
154979,196,-2130,113,-206,27,-396,13891,-157,-11,-242,-128,35434,-30,34,127,0,0,3719,-109,0,18138,6730,65,13139,-4,0,90,16,154964,0
154989,205,-2034,50,-143,118,-607,13837,-105,122,-417,-232,35442,-34,34,127,0,0,3700,-164,0,18138,6730,65,13149,-4,0,90,16,154964,0
154999,257,-2052,189,-122,83,-577,13765,-165,32,-462,-384,35444,-50,34,127,0,0,3680,-197,0,18138,6730,65,13159,-4,0,90,16,154995,0
155009,229,-2064,315,-151,-34,-355,13687,-171,-48,-511,-320,35440,-61,34,127,0,0,3665,-120,0,18138,6730,65,13169,-4,0,90,16,154995,0
155019,198,-2080,249,-173,-67,-326,13593,-212,-35,-352,-272,35435,-72,34,127,0,0,3660,-43,0,18138,6730,65,13179,-4,0,90,16,154995,0
155029,193,-2068,76,-156,-11,-448,13522,-142,5,-315,-192,35442,-84,34,127,0,0,3654,-65,0,18138,6730,65,13189,-4,0,90,16,155011,0
155039,213,-2079,63,-113,39,-546,13462,-124,63,-269,-160,35448,-69,34,127,0,0,3638,-131,0,18138,6730,65,13199,-4,0,90,16,155042,0
155049,289,-2121,215,-87,6,-526,13420,-106,54,-417,-208,35449,-50,34,127,0,0,3625,-153,0,18138,6730,65,13209,-4,0,90,16,155042,0
155059,213,-2110,291,-103,-70,-498,13379,-80,34,-585,-264,35442,-32,34,127,0,0,3614,-120,0,18138,6730,65,13219,-4,0,90,16,155042,0
155069,113,-2094,180,-128,-120,-530,13316,-143,-38,-450,-248,35433,-56,34,127,0,0,3603,-98,0,18138,6730,65,13229,-4,0,90,16,155042,0
155079,69,-2141,84,-114,-99,-617,13247,-143,-51,-391,-216,35440,-54,34,127,0,0,3590,-164,0,18138,6730,65,13239,-4,0,90,16,155058,0
155089,-37,-2108,124,-63,-61,-738,13176,-154,-9,-401,-248,35445,-39,34,127,0,0,3577,-131,0,18138,6730,65,13249,-4,0,90,16,155089,0
155099,-21,-2123,198,-61,-30,-815,13111,-140,12,-449,-344,35442,-25,34,127,0,0,3557,-208,0,18138,6730,65,13259,-4,0,90,16,155089,0
155109,136,-2097,233,-76,-23,-871,13023,-209,-26,-455,-368,35437,-53,34,127,0,0,3541,-120,0,18138,6730,65,13269,-4,0,90,16,155089,0
155119,179,-2155,182,-83,-42,-864,12946,-152,-31,-536,-400,35434,-71,34,127,0,0,3517,-175,0,18138,6730,65,13279,-4,0,90,16,155089,0
155129,244,-2119,174,-52,-65,-852,12857,-202,-1,-441,-368,35438,-71,34,127,0,0,3502,-186,0,18138,6730,65,13289,-4,0,90,16,155105,0
155140,182,-2137,245,-42,-113,-798,12753,-218,-38,-452,-392,35440,-64,34,127,0,0,3481,-159,0,18138,6730,65,13300,-4,0,90,16,155183,0
155150,209,-2086,228,-29,-240,-767,12652,-217,-14,-376,-344,35439,-47,34,127,0,0,3469,-153,0,18138,6730,65,13310,-4,0,90,16,155183,0
155160,289,-2083,155,-83,-299,-688,12571,-169,27,-462,-272,35440,-39,34,127,0,0,3454,-76,0,18138,6730,65,13320,-4,0,90,16,155183,0
155170,89,-2184,172,-149,-240,-714,12506,-141,59,-460,-256,35430,-30,34,127,0,0,3446,-71,0,18138,6730,65,13330,-4,0,90,16,155183,0
155180,-57,-2171,224,-235,-111,-745,12444,-121,24,-400,-216,35425,-17,34,127,0,0,3437,-54,0,18138,6730,65,13340,-4,0,90,16,155198,0
155190,-23,-2145,207,-257,-4,-882,12399,-95,40,-434,-240,35418,-28,34,127,0,0,3426,-137,0,18138,6730,65,13350,-4,0,90,16,155198,0
155200,37,-2134,161,-224,-16,-938,12369,-78,70,-660,-312,35425,-44,34,127,0,0,3410,-203,0,18138,6730,65,13360,-4,0,90,16,155198,0
155210,17,-2074,173,-191,-60,-1059,12303,-156,-42,-533,-312,35432,-51,34,127,0,0,3400,-153,0,18138,6730,65,13370,-4,0,90,16,155198,0
155220,40,-2117,211,-197,-59,-1155,12237,-128,-82,-564,-336,35428,-62,34,127,0,0,3378,-186,0,18138,6730,65,13380,-4,0,90,16,155198,0
155230,60,-2143,278,-218,-63,-1281,12166,-169,0,-626,-376,35427,-50,34,127,0,0,3364,-181,0,18138,6730,65,13390,-4,0,90,16,155230,0
155240,37,-2106,287,-229,-95,-1360,12078,-206,-36,-556,-432,35438,-55,34,127,0,0,3338,-247,0,18138,6730,65,13400,-4,0,90,16,155230,0
155250,87,-2150,243,-219,-184,-1445,11976,-237,-53,-528,-464,35443,-61,34,127,0,0,3318,-203,0,18138,6730,65,13410,-4,0,90,16,155230,0
155260,67,-2150,209,-188,-215,-1487,11866,-238,-51,-512,-448,35439,-48,34,127,0,0,3305,-159,0,18138,6730,65,13420,-4,0,90,16,155230,0
155270,81,-2225,226,-192,-227,-1533,11763,-233,3,-527,-448,35426,-35,34,127,0,0,3286,-164,0,18138,6730,65,13430,-4,0,90,16,155261,0
155280,171,-2251,222,-189,-220,-1561,11657,-214,13,-472,-424,35421,-29,34,127,0,0,3268,-181,0,18138,6730,65,13440,-4,0,90,16,155261,0
155290,248,-2283,188,-180,-279,-1526,11568,-200,28,-488,-336,35424,-38,34,127,0,0,3262,-87,0,18138,6730,65,13450,-4,0,-24,0,155261,0
155300,256,-2282,225,-162,-329,-1524,11492,-130,47,-430,-216,35436,-50,34,127,0,0,3258,-27,0,18138,6730,65,13460,-4,0,-28,0,155292,0
155310,231,-2341,232,-183,-373,-1519,11453,-75,104,-465,-168,35437,-56,34,127,0,0,3253,-21,0,18138,6730,65,13470,-4,0,-28,0,155292,0
155320,144,-2306,248,-189,-400,-1579,11444,13,125,-404,-112,35434,-49,34,127,0,0,3258,-16,0,18138,6730,65,13480,-4,0,-28,0,155292,0
155330,99,-2345,217,-213,-444,-1588,11445,5,75,-409,-64,35444,-52,34,127,0,0,3262,126,0,18138,6730,65,13490,-4,0,-28,0,155355,0
155340,112,-2401,209,-251,-505,-1580,11449,26,24,-151,40,35451,-59,34,127,0,0,3280,175,0,18138,6730,65,13500,-4,0,-28,0,155370,0
155350,-52,-2480,236,-274,-597,-1653,11485,95,64,253,208,35444,-52,34,127,0,0,3302,269,0,18138,6730,65,13510,-4,0,-28,0,155370,0
155360,-171,-2586,234,-258,-636,-1781,11566,206,152,342,312,35435,-69,34,127,0,0,3329,247,0,18138,6730,65,13520,-4,0,-28,0,155370,0
155370,-203,-2728,222,-173,-707,-1986,11670,250,131,428,432,35428,-62,34,127,0,0,3364,291,0,18138,6730,65,13530,-4,0,-27,0,155370,0
155380,-241,-2776,247,-92,-843,-2120,11804,299,97,412,576,35426,-60,34,127,0,0,3403,390,0,18138,6730,65,13540,-4,0,-27,0,155370,0
155390,-235,-2874,191,49,-975,-2345,11964,372,104,448,712,35432,-43,34,127,0,0,3450,417,0,18138,6730,65,13550,-4,0,-27,0,155370,0
155401,-269,-2957,192,102,-1106,-2451,12160,412,87,445,944,35435,-36,34,127,0,0,3511,582,0,18138,6730,65,13561,-4,0,-27,0,155386,0
155411,-290,-2855,203,161,-1171,-2458,12364,468,80,506,1216,35452,-39,34,127,0,0,3585,725,0,18138,6730,65,13571,-4,0,-26,0,155386,0
155421,-95,-2589,35,170,-1001,-2579,12607,572,125,633,1528,35449,-51,34,127,0,0,3662,791,0,18138,6730,65,13581,-4,0,-26,0,155417,0
155431,-16,-2529,-15,204,-863,-2650,12907,687,191,608,1784,35439,-35,34,127,0,0,3741,791,0,18138,6730,65,13591,-4,0,-25,0,155433,0
155441,249,-2428,13,160,-644,-2674,13252,779,195,585,1992,35420,-15,34,127,0,0,3821,823,0,18138,6730,65,13601,-4,0,-24,0,155433,0
155451,700,-2412,154,44,-745,-2766,13631,849,153,544,2104,35418,-13,34,127,0,0,3902,802,0,18138,6730,65,13611,-4,0,-23,0,155433,0
155461,863,-2030,375,-171,-706,-2469,14036,896,122,582,2168,35428,-20,34,127,0,0,3994,900,0,18138,6730,65,13621,-4,0,-22,0,155433,0
155471,1152,-2038,186,-400,-613,-2657,14474,993,106,533,2168,35431,-31,34,127,0,0,4069,725,0,18138,6730,65,13631,-4,0,-21,0,155464,0
155481,1040,-1678,225,-529,-458,-2455,14916,952,82,361,1936,35426,-13,34,127,0,0,4133,593,0,18138,6730,65,13641,-4,0,-20,0,155464,0
155491,1168,-1568,110,-585,-469,-2202,15319,847,-69,313,1744,35431,-17,34,127,0,0,4192,615,0,18138,6730,65,13651,-4,0,-19,0,155480,0
155501,1008,-1258,93,-498,-440,-1751,15683,774,-159,408,1680,35433,-29,34,127,0,0,4247,549,0,18138,6730,65,13661,-4,0,-18,0,155480,0
155511,592,-832,56,-321,-154,-1279,16016,706,-130,389,1336,35447,-29,34,127,0,0,4273,197,0,18138,6730,65,13671,-4,0,-17,0,155558,0
155521,562,-978,-247,-241,214,-523,16288,552,-163,265,784,35439,-37,34,127,0,0,4258,-186,0,18138,6730,65,13681,-4,0,-16,0,155558,0
155531,-216,-773,-85,8,342,50,16469,311,-290,-24,-184,35443,-46,34,127,0,0,4196,-615,0,18138,6730,65,13691,-4,0,-15,0,155573,0
155541,-240,-634,-68,160,310,1141,16396,-312,-655,-621,-704,35430,-55,34,127,0,0,4139,-604,0,18138,6730,65,13701,-4,0,-14,0,155573,0
155551,-447,-563,15,207,213,1875,16200,-475,-743,-353,-896,35430,-47,34,127,0,0,4089,-483,0,18138,6730,65,13711,-4,0,-12,0,155573,0
155561,-256,-577,-78,200,158,2883,15972,-505,-285,-267,-896,35420,-40,34,127,0,0,4042,-450,0,18138,6730,65,13721,-4,0,-11,0,155589,0
155571,-138,-688,-121,186,146,3589,15737,-511,-70,-250,-816,35421,-46,34,127,0,0,4005,-329,0,18138,6730,65,13731,-4,0,-8,0,155589,0
155581,-57,-860,-110,174,188,4585,15510,-489,1,-208,-696,35430,-53,34,127,0,0,3974,-307,0,18138,6730,65,13741,-4,0,-7,0,155589,0
155591,-37,-968,-62,152,237,5176,15295,-459,38,-220,-560,35436,-53,34,127,0,0,3948,-241,0,18138,6730,65,13751,-4,0,-4,0,155589,0
155601,31,-1195,18,100,331,5937,15115,-379,93,-227,-456,35440,-53,34,127,0,0,3924,-263,0,18138,6730,65,13761,-4,0,-2,0,155589,0
155611,126,-1377,65,42,381,6419,14957,-323,108,-232,-376,35447,-54,34,127,0,0,3906,-164,0,18138,6730,65,13771,-4,0,0,0,155589,0
155621,221,-1601,113,-24,408,7067,14823,-289,83,-233,-256,35459,-62,34,127,0,0,3891,-109,0,18138,6730,65,13781,-4,0,2,0,155605,0
155631,226,-1727,162,-46,310,7411,14721,-202,110,-177,-144,35453,-53,34,127,0,0,3884,-21,0,18138,6730,65,13791,-4,0,5,0,155620,0
155642,266,-1919,204,-1,83,7700,14668,-61,164,-16,16,35448,-60,34,127,0,0,3890,54,0,18138,6730,65,13802,-4,0,8,0,155620,0
155652,448,-2150,158,71,-139,7913,14693,67,240,197,88,35450,-76,34,127,0,0,3911,175,0,18138,6730,65,13812,-4,0,10,0,155636,0
155662,452,-2407,173,189,-460,8156,14738,140,169,469,312,35448,-89,34,127,0,0,3939,335,0,18138,6730,65,13822,-4,0,13,0,155652,0
155672,472,-2508,179,312,-603,8155,14849,280,172,495,504,35459,-68,34,127,0,0,3973,379,0,18138,6730,65,13832,-4,0,15,0,155652,0
155682,472,-2680,161,508,-663,7919,14997,345,201,428,560,35452,-55,34,127,0,0,4006,296,0,18138,6730,65,13842,-4,0,18,0,155683,0
155692,464,-2785,186,623,-635,7733,15160,350,108,351,448,35434,-38,34,127,0,0,4018,104,0,18138,6730,65,13852,-4,0,20,0,155683,0
155702,406,-2792,293,696,-418,7392,15302,297,-7,273,272,35431,-57,34,127,0,0,4036,109,0,18138,6730,65,13862,-4,0,23,0,155683,0
155712,306,-2789,380,660,-160,7069,15413,219,-97,167,64,35446,-68,34,127,0,0,4035,-5,0,18138,6730,65,13872,-4,0,24,0,155714,0
155722,209,-2816,398,563,246,6480,15434,-24,-231,122,24,35454,-80,34,127,0,0,4037,10,0,18138,6730,65,13882,-4,0,26,0,155714,0
155732,198,-2768,373,493,507,5901,15421,-14,-253,178,-16,35444,-61,34,127,0,0,4027,-82,0,18138,6730,65,13892,-4,0,28,0,155714,0
155742,237,-2726,404,496,847,5028,15406,-64,-53,-185,-120,35434,-67,34,127,0,0,4014,-87,0,18138,6730,65,13902,-4,0,29,0,155714,0
155752,242,-2586,369,492,1016,4432,15370,-97,-57,-380,-184,35440,-67,34,127,0,0,3991,-170,0,18138,6730,65,13912,-4,0,30,0,155761,0
155762,354,-2328,419,485,1145,3565,15311,-140,-93,-365,-240,35447,-68,34,127,0,0,3980,-186,0,18138,6730,65,13922,-4,0,31,0,155761,0
155772,407,-2160,386,504,1132,2998,15244,-135,-54,-329,-200,35442,-70,34,127,0,0,3974,-82,0,18138,6730,65,13932,-4,0,32,0,155761,0
155782,460,-1942,333,521,968,2128,15175,-131,3,-253,-128,35427,-73,34,127,0,0,3968,-32,0,18138,6730,65,13942,-4,0,33,0,155761,0
155792,499,-1884,346,538,791,1566,15131,-66,55,-204,-64,35442,-67,34,127,0,0,3962,-21,0,18138,6730,65,13952,-4,0,33,0,155792,0
155802,545,-1883,339,546,480,694,15133,7,147,-325,-48,35454,-66,34,127,0,0,3968,60,0,18138,6730,65,13962,-4,0,33,0,155792,0
155812,546,-1894,346,544,268,168,15135,0,77,-229,-48,35458,-46,34,127,0,0,3968,32,0,18138,6730,65,13972,-4,0,33,0,155792,0
155822,565,-1957,347,526,9,-525,15133,-7,-15,-230,-48,35450,-49,34,127,0,0,3971,65,0,18138,6730,65,13982,-4,0,32,0,155808,0
155832,476,-2183,252,506,-118,-923,15139,18,4,-108,-32,35450,-54,34,127,0,0,3970,0,0,18138,6730,65,13992,-4,0,32,0,155855,0
155842,-1608,-5944,-816,-854,-537,269,15140,16,0,135,480,35452,-55,34,127,0,0,4077,1285,0,2884,166,66,2,1,0,31,0,155870,0
155852,-1234,-1441,1045,27,959,-665,15293,518,319,1065,1400,35451,-39,34,127,0,0,4168,769,0,2884,166,66,12,1,0,30,0,155901,0
155862,-864,-1886,-818,-219,823,-938,15586,666,602,569,1608,35436,-31,34,127,0,0,4241,758,0,2884,166,66,22,1,0,29,0,155901,0
155872,-590,-2134,-900,-373,846,-970,15910,722,196,470,1440,35435,-21,34,127,0,0,4287,477,0,2884,166,66,32,1,0,28,0,155917,0
155882,-181,-1965,-469,-24,-523,-868,16218,659,51,498,1600,35441,-35,34,127,0,0,4362,802,0,2884,166,66,42,1,0,28,0,155917,0
155893,-471,-2422,-163,33,-688,-899,16572,746,61,693,1936,35440,-29,34,127,0,0,4467,911,0,2884,166,66,53,1,0,27,0,155917,0
155903,-835,-2305,-106,168,-793,-1186,16949,851,143,633,1992,35432,-22,34,127,0,0,4537,670,0,2884,166,66,63,1,0,26,0,155917,0
155913,-444,-2202,-167,158,-657,-1607,17333,850,122,441,1800,35423,-21,34,127,0,0,4585,439,0,2884,166,66,73,1,0,25,0,155917,0
155923,-128,-2237,61,208,-767,-1675,17690,748,-34,329,1488,35428,-25,34,127,0,0,4616,307,0,2884,166,66,83,1,0,24,0,155917,0
155933,22,-2327,584,196,-815,-1687,17993,626,-158,316,1192,35436,-34,34,127,0,0,4642,263,0,2884,166,66,93,1,0,23,0,155917,0
155943,-168,-2345,858,202,-716,-1838,18251,532,-194,311,800,35456,-29,34,127,0,0,4653,98,0,2884,166,66,103,1,0,22,0,155917,0
155953,-293,-2159,716,132,-421,-1866,18442,375,-209,314,448,35451,-47,34,127,0,0,4649,-43,0,2884,166,66,113,1,0,21,0,155964,0
155963,-226,-2322,556,108,-166,-1913,18575,256,-234,199,128,35459,-52,34,127,0,0,4642,-54,0,2884,166,66,123,1,0,20,0,155964,0
155973,88,-2237,362,169,83,-2015,18601,-54,-312,-122,-96,35453,-78,34,127,0,0,4620,-219,0,2884,166,66,133,1,0,19,0,155995,0
155983,126,-2154,340,133,98,-2075,18521,-192,-426,-254,-320,35444,-68,34,127,0,0,4585,-362,0,2884,166,66,143,1,0,18,0,155995,0
155993,300,-2031,381,53,-75,-1892,18412,-280,-244,-386,-472,35436,-61,34,127,0,0,4550,-362,0,2884,166,66,153,1,0,17,0,155995,0
156003,133,-2054,318,14,-229,-1761,18251,-380,-159,-334,-600,35441,-57,34,127,0,0,4506,-384,0,2884,166,66,163,1,0,16,0,155995,0
156013,-47,-1941,66,1,-251,-1658,18069,-397,-145,-300,-648,35447,-50,34,127,0,0,4467,-428,0,2884,166,66,173,1,0,16,0,155995,0
156023,-107,-1962,-21,43,-139,-1580,17888,-415,-39,-341,-728,35460,-48,34,127,0,0,4423,-417,0,2884,166,66,183,1,0,16,0,155995,0
156033,-179,-1957,41,163,29,-1481,17693,-425,-33,-326,-776,35459,-40,34,127,0,0,4381,-417,0,2884,166,66,193,1,0,16,0,156042,0
156043,-55,-1988,67,190,93,-1464,17497,-431,-25,-339,-816,35458,-55,34,127,0,0,4339,-450,0,2884,166,66,203,1,0,16,0,156042,0
156053,11,-1960,110,200,77,-1381,17295,-440,-8,-390,-896,35455,-63,34,127,0,0,4293,-439,0,2884,166,66,213,1,0,16,0,156042,0
156063,63,-1957,116,207,70,-1311,17084,-455,-25,-338,-936,35440,-68,34,127,0,0,4251,-417,0,2884,166,66,223,1,0,16,0,156058,0
156073,-56,-2032,168,261,53,-1222,16863,-480,-34,-336,-952,35432,-54,34,127,0,0,4209,-406,0,2884,166,66,233,1,0,16,0,156058,0
156083,-158,-2088,255,310,58,-1136,16641,-484,-10,-325,-920,35431,-58,34,127,0,0,4170,-362,0,2884,166,66,243,1,0,16,0,156073,0
156093,-177,-2116,427,326,75,-1062,16424,-479,9,-344,-816,35437,-58,34,127,0,0,4130,-373,0,2884,166,66,253,1,0,16,0,156073,0
156103,-128,-2150,430,314,91,-1041,16209,-473,13,-289,-808,35443,-53,34,127,0,0,4095,-373,0,2884,166,66,263,1,0,16,0,156089,0
156113,-28,-2152,354,292,41,-999,16004,-442,18,-304,-712,35444,-56,34,127,0,0,4060,-329,0,2884,166,66,273,1,0,16,0,156105,0
156123,-76,-2106,342,271,3,-961,15805,-445,27,-318,-704,35446,-57,34,127,0,0,4025,-329,0,2884,166,66,283,1,0,16,0,156105,0
156133,-44,-2062,349,291,26,-973,15615,-418,27,-330,-632,35449,-67,34,127,0,0,3994,-329,0,2884,166,66,293,1,0,16,0,156105,0
156144,-182,-2055,343,279,35,-941,15411,-396,26,-313,-624,35460,-76,34,127,0,0,3956,-373,0,2884,166,66,304,1,0,16,0,156120,0
156154,-135,-2193,519,240,20,-928,15233,-373,19,-356,-552,35455,-63,34,127,0,0,3929,-263,0,2884,166,66,314,1,0,16,0,156136,0
156164,-114,-2162,550,187,20,-998,15067,-353,44,-374,-568,35444,-49,34,127,0,0,3900,-307,0,2884,166,66,324,1,0,16,0,156151,0
156174,-166,-2191,521,104,35,-1070,14905,-340,27,-379,-592,35446,-58,34,127,0,0,3863,-318,0,2884,166,66,334,1,0,16,0,156151,0
156184,-83,-2178,503,89,35,-1110,14740,-359,2,-393,-640,35445,-53,34,127,0,0,3828,-368,0,2884,166,66,344,1,0,16,0,156167,0
156194,-33,-2113,456,42,24,-1141,14565,-391,-12,-436,-664,35451,-65,34,127,0,0,3793,-318,0,2884,166,66,354,1,0,16,0,156183,0
156204,26,-2053,388,35,20,-1154,14390,-397,-19,-424,-688,35446,-51,34,127,0,0,3758,-346,0,2884,166,66,364,1,0,16,0,156183,0
156214,158,-1980,290,24,-6,-1096,14211,-408,-18,-404,-712,35442,-49,34,127,0,0,3726,-269,0,2884,166,66,374,1,0,16,0,156214,0
156224,182,-1977,233,36,-33,-1036,14030,-398,-6,-389,-696,35436,-53,34,127,0,0,3693,-225,0,2884,166,66,384,1,0,16,0,156214,0
156234,161,-1974,227,54,-38,-968,13843,-407,-10,-351,-632,35432,-50,34,127,0,0,3658,-324,0,2884,166,66,394,1,0,16,0,156214,0
156244,203,-1989,253,64,17,-942,13670,-362,6,-363,-640,35429,-57,34,127,0,0,3635,-274,0,2884,166,66,404,1,0,16,0,156214,0
156254,278,-1992,322,56,28,-891,13507,-353,52,-385,-648,35429,-65,34,127,0,0,3603,-313,0,2884,166,66,414,1,0,16,0,156308,0
156264,337,-2011,348,53,9,-852,13344,-348,21,-397,-584,35436,-69,34,127,0,0,3576,-241,0,2884,166,66,424,1,0,16,0,156308,0
156274,317,-2001,287,65,-28,-773,13189,-346,12,-353,-536,35444,-51,34,127,0,0,3549,-269,0,2884,166,66,434,1,0,16,0,156308,0
156284,230,-2025,310,62,-46,-728,13041,-320,24,-363,-464,35437,-41,34,127,0,0,3527,-241,0,2884,166,66,444,1,0,16,0,156308,0
156294,122,-2029,340,65,-10,-706,12913,-258,55,-414,-472,35426,-36,34,127,0,0,3504,-236,0,2884,166,66,454,1,0,16,0,156308,0
156304,212,-2011,360,47,26,-717,12793,-254,60,-398,-448,35424,-54,34,127,0,0,3479,-274,0,2884,166,66,464,1,0,16,0,156323,0
156314,306,-1996,370,14,10,-695,12672,-271,6,-424,-448,35428,-44,34,127,0,0,3458,-241,0,2884,166,66,474,1,0,16,0,156323,0
156324,240,-2009,326,8,-16,-665,12557,-238,5,-443,-440,35428,-36,34,127,0,0,3436,-263,0,2884,166,66,484,1,0,16,0,156323,0
156334,204,-2020,285,7,-15,-650,12448,-244,26,-437,-424,35422,-33,34,127,0,0,3413,-252,0,2884,166,66,494,1,0,16,0,156323,0
156344,118,-2056,335,-9,-1,-676,12343,-230,17,-492,-464,35437,-41,34,127,0,0,3392,-225,0,2884,166,66,504,1,0,16,0,156323,0
156354,156,-2080,464,-44,26,-739,12235,-220,4,-490,-464,35461,-46,34,127,0,0,3367,-296,0,2884,166,66,514,1,0,16,0,156339,0
156364,264,-2087,476,-78,24,-770,12130,-244,-4,-539,-488,35465,-64,34,127,0,0,3342,-291,0,2884,166,66,524,1,0,16,0,156339,0
156374,275,-2092,423,-119,3,-782,12010,-275,-25,-562,-584,35447,-63,34,127,0,0,3317,-285,0,2884,166,66,534,1,0,16,0,156354,0
156385,269,-2100,370,-132,-6,-800,11862,-297,-59,-471,-544,35431,-46,34,127,0,0,3289,-296,0,2884,166,66,545,1,0,16,0,156354,0
156395,288,-2108,363,-135,-6,-797,11732,-291,-16,-528,-544,35435,-43,34,127,0,0,3262,-263,0,2884,166,66,555,1,0,16,0,156390,0
156405,266,-2065,414,-159,0,-783,11601,-274,9,-541,-632,35444,-32,34,127,0,0,3236,-274,0,2884,166,66,565,1,0,16,0,156390,0
156415,327,-2024,445,-193,-10,-790,11462,-288,-14,-541,-560,35437,-50,34,127,0,0,3210,-274,0,2884,166,66,575,1,0,16,0,156390,0
156425,310,-2045,432,-233,-48,-747,11323,-308,-9,-513,-544,35429,-55,34,127,0,0,3183,-263,0,2884,166,66,585,1,0,16,0,156406,0
156435,243,-2072,402,-251,-67,-755,11183,-311,-5,-470,-552,35434,-59,34,127,0,0,3161,-241,0,2884,166,66,595,1,0,16,0,156406,0
156445,215,-2075,348,-261,-51,-829,11053,-275,7,-500,-480,35444,-61,34,127,0,0,3133,-285,0,2884,166,66,605,1,0,16,0,156437,0
156455,249,-2073,326,-259,-56,-882,10928,-291,37,-536,-536,35449,-41,34,127,0,0,3106,-274,0,2884,166,66,615,1,0,16,0,156437,0
156465,186,-2071,349,-273,-83,-980,10800,-289,5,-588,-576,35439,-43,34,127,0,0,3073,-296,0,2884,166,66,625,1,0,16,0,156437,0
156475,118,-2060,361,-276,-79,-1089,10665,-292,-22,-626,-656,35440,-56,34,127,0,0,3041,-351,0,2884,166,66,635,1,0,16,0,156468,0
156485,87,-2002,363,-298,-100,-1227,10516,-339,-35,-564,-720,35438,-57,34,127,0,0,3003,-362,0,2884,166,66,645,1,0,16,0,156468,0
156495,73,-2001,340,-326,-109,-1343,10355,-353,-43,-504,-728,35436,-41,34,127,0,0,2968,-373,0,2884,166,66,655,1,0,16,0,156468,0
156505,26,-2021,359,-346,-134,-1530,10206,-325,0,-637,-776,35438,-29,34,127,0,0,2928,-384,0,2884,166,66,665,1,0,16,0,156500,0
156515,-11,-1979,361,-345,-143,-1681,10041,-372,0,-626,-920,35434,-35,34,127,0,0,2882,-439,0,2884,166,66,675,1,0,16,0,156500,0
156525,1,-2017,356,-350,-174,-1920,9858,-414,-67,-641,-1024,35441,-36,34,127,0,0,2834,-461,0,2884,166,66,685,1,0,16,0,156500,0
156535,29,-2034,345,-347,-180,-2089,9657,-451,-72,-560,-1088,35441,-51,34,127,0,0,2781,-516,0,2884,166,66,695,1,0,16,0,156515,0
156545,57,-1995,334,-350,-177,-2322,9440,-479,-61,-609,-1144,35433,-29,34,127,0,0,2722,-615,0,2884,166,66,705,1,0,16,0,156546,0
156555,138,-2080,360,-343,-222,-2446,9210,-522,-50,-662,-1240,35434,-45,34,127,0,0,2667,-549,0,2884,166,66,715,1,0,16,0,156546,0
156565,307,-2207,501,-297,-364,-2623,8962,-553,-61,-563,-1280,35437,-52,34,127,0,0,2605,-593,0,2884,166,66,725,1,0,16,0,156546,0
156575,302,-2363,560,-298,-411,-2693,8703,-577,-56,-573,-1408,35436,-49,34,127,0,0,2548,-582,0,2884,166,66,735,1,0,16,0,156546,0
156585,258,-2300,560,-371,-634,-2647,8438,-584,-36,-495,-1296,35433,-37,34,127,0,0,2502,-483,0,2884,166,66,745,1,0,16,0,156578,0
156595,257,-2443,387,-444,-680,-2573,8176,-568,-2,-391,-1136,35430,-23,34,127,0,0,2467,-384,0,2884,166,66,755,1,0,0,0,156578,0
156605,353,-2286,219,-471,-697,-2577,7935,-508,50,-335,-840,35429,-28,34,127,0,0,2445,-186,0,2884,166,66,765,1,0,0,0,156578,0
156615,184,-2339,116,-422,-769,-2490,7737,-415,126,-345,-640,35437,-43,34,127,0,0,2432,-76,0,2884,166,66,775,1,0,1,0,156593,0
156625,251,-2308,135,-511,-674,-2539,7573,-339,141,-310,-344,35442,-58,34,127,0,0,2432,32,0,2884,166,66,785,1,0,1,0,156640,0
156635,-9,-2611,503,-572,-721,-2645,7479,-161,194,-239,-120,35439,-56,34,127,0,0,2432,0,0,2884,166,66,795,1,0,2,0,156656,0
156645,-16,-2930,687,-627,-926,-2704,7458,4,278,-201,-32,35439,-71,34,127,0,0,2438,87,0,2884,166,66,805,1,0,3,0,156656,0
156655,409,-2864,534,-711,-993,-2881,7475,55,215,55,112,35433,-64,34,127,0,0,2460,230,0,2884,166,66,815,1,0,5,0,156671,0
156665,248,-2643,308,-669,-1080,-3301,7518,110,116,361,216,35431,-67,34,127,0,0,2480,230,0,2884,166,66,825,1,0,6,0,156671,0
156676,-32,-2612,172,-583,-1072,-3476,7612,214,130,277,216,35432,-53,34,127,0,0,2500,197,0,2884,166,66,836,1,0,7,0,156671,0
156686,-204,-2740,317,-475,-1177,-3552,7689,152,63,358,304,35434,-60,34,127,0,0,2530,357,0,2884,166,66,846,1,0,9,0,156687,0
156696,-167,-2899,521,-430,-1251,-3708,7778,228,-2,519,504,35439,-69,34,127,0,0,2569,428,0,2884,166,66,856,1,0,10,0,156687,0
156706,-71,-3076,552,-389,-1310,-3976,7907,308,115,539,640,35440,-76,34,127,0,0,2621,510,0,2884,166,66,866,1,0,12,0,156687,0
156716,-157,-3036,415,-460,-1438,-4041,8071,379,137,551,920,35441,-60,34,127,0,0,2681,615,0,2884,166,66,876,1,0,14,0,156718,0
156726,-399,-3095,484,-652,-1677,-4039,8267,459,120,689,1296,35447,-43,34,127,0,0,2772,873,0,2884,166,66,886,1,0,17,0,156718,0
156736,-362,-3297,516,-586,-1751,-4223,8530,638,191,789,1760,35448,-28,34,127,0,0,2882,1082,0,2884,166,66,896,1,0,19,0,156734,0
156746,-83,-3270,326,-298,-1824,-4538,8877,826,298,785,2176,35443,-17,34,127,0,0,3000,1224,0,2884,166,66,906,1,0,23,0,156734,0
156756,-156,-2988,376,-263,-2078,-4746,9306,996,314,727,2552,35429,-17,34,127,0,0,3128,1323,0,2884,166,66,916,1,0,26,0,156734,0
156766,85,-2925,388,-202,-2239,-4984,9754,1145,296,714,2944,35419,2,34,127,0,0,3270,1362,0,2884,166,66,926,1,0,30,0,156765,0
156776,532,-3379,196,-83,-2220,-5256,10323,1285,284,669,3192,35421,-8,34,127,0,0,3399,1263,0,2884,166,66,936,1,0,33,0,156765,0
156786,713,-3236,380,2,-2303,-5385,10937,1367,220,499,3192,35422,-13,34,127,0,0,3513,1137,0,2884,166,66,946,1,0,37,0,156765,0
156796,608,-2904,528,-102,-2476,-5236,11544,1323,59,405,3144,35424,-6,34,127,0,0,3634,1203,0,2884,166,66,956,1,0,41,0,156765,0
156806,562,-2519,524,-399,-2752,-4836,12137,1307,-50,572,3392,35425,1,34,127,0,0,3768,1351,0,2884,166,66,966,1,0,46,0,156796,0
156816,659,-2162,490,-704,-2978,-4521,12758,1391,33,700,3696,35427,-1,34,127,0,0,3923,1543,0,2884,166,66,976,1,0,49,0,156796,0
156826,518,-1967,617,-806,-3192,-3979,13436,1538,177,756,3936,35431,8,34,127,0,0,4064,1439,0,2884,166,66,986,1,0,55,0,156812,0
156836,256,-1715,662,-680,-3111,-3452,14170,1634,223,595,3936,35431,26,34,127,0,0,4219,1488,0,2884,166,66,996,1,0,59,0,156828,0
156846,1668,-1408,292,-642,-1659,-3315,14937,1709,159,521,3800,35427,38,34,127,0,0,4320,922,0,2884,166,66,1006,1,0,65,0,156843,0
156856,610,-1346,43,-712,-649,-3231,15672,1529,-15,52,2304,35432,30,34,127,0,0,4289,-373,0,2884,166,66,1016,1,0,69,0,156843,0
156866,674,-1455,-52,-326,806,-2327,16223,1048,-566,-289,448,35442,-12,34,127,0,0,4200,-895,0,2884,166,66,1026,0,0,75,0,156843,0
156876,477,-1123,-71,-148,1225,-1361,16390,-96,-1093,-1894,-768,35447,-48,34,127,0,0,4120,-802,0,2884,166,66,1036,0,0,80,0,156874,0
156886,-35,-572,300,44,1554,-706,16193,-501,-1440,-443,-1136,35447,-46,34,127,0,0,4049,-747,0,2884,166,66,1046,0,0,86,72,156874,0
156896,70,-402,397,74,1588,-462,15932,-605,-802,-400,-1368,35436,-65,34,127,0,0,3971,-807,0,2884,166,66,1056,0,0,91,69,156874,0
156907,235,-475,325,49,1469,67,15596,-699,-186,-419,-1536,35432,-56,34,127,0,0,3893,-714,0,2884,166,66,1067,0,0,97,64,156890,0
156917,470,-581,161,123,1375,992,15256,-757,-144,-349,-1552,35447,-66,34,127,0,0,3840,-461,0,2884,166,66,1077,0,0,102,61,156906,0
156927,451,-616,152,189,1402,1650,14918,-729,-57,-241,-1288,35452,-51,34,127,0,0,3803,-307,0,2884,166,66,1087,0,0,108,56,156906,0
156937,448,-625,217,292,1510,2456,14611,-647,68,-175,-976,35447,-31,34,127,0,0,3774,-285,0,2884,166,66,1097,0,0,113,53,156921,0
156947,457,-676,240,322,1594,2941,14353,-539,153,-184,-736,35442,-49,34,127,0,0,3748,-252,0,2884,166,66,1107,0,0,119,48,156953,0
156957,577,-774,223,352,1699,3688,14132,-464,167,-224,-608,35453,-53,34,127,0,0,3717,-307,0,2884,166,66,1117,0,0,124,45,156953,0
156967,611,-786,232,362,1728,4254,13931,-444,114,-225,-544,35456,-67,34,127,0,0,3684,-296,0,2884,166,66,1127,0,0,130,41,156953,0
156977,583,-810,256,371,1672,5062,13745,-403,60,-252,-552,35452,-57,34,127,0,0,3651,-307,0,2884,166,66,1137,0,0,135,38,156953,0
156987,523,-855,251,389,1566,5552,13578,-361,62,-283,-504,35442,-67,34,127,0,0,3629,-219,0,2884,166,66,1147,0,0,141,34,156968,0
156997,486,-948,216,424,1356,6215,13418,-346,48,-257,-400,35444,-65,34,127,0,0,3605,-230,0,2884,166,66,1157,0,0,146,32,156968,0
157007,464,-1008,196,452,1184,6644,13279,-302,53,-316,-384,35450,-70,34,127,0,0,3583,-175,0,2884,166,66,1167,0,0,152,28,156984,0
157017,485,-1110,158,507,1025,7255,13145,-287,50,-234,-296,35451,-46,34,127,0,0,3563,-164,0,2884,166,66,1177,0,0,157,25,156999,0
157027,493,-1222,144,545,961,7695,13026,-255,41,-230,-264,35448,-37,34,127,0,0,3552,-98,0,2884,166,66,1187,0,0,163,22,157015,0
157037,431,-1369,161,610,901,8337,12947,-125,100,-260,-168,35454,-37,34,127,0,0,3546,-65,0,2884,166,66,1197,0,0,168,20,157015,0
157047,411,-1482,163,664,875,8710,12894,-108,137,-171,-88,35444,-50,34,127,0,0,3544,-10,0,2884,166,66,1207,0,0,174,17,157031,0
157057,181,-1695,189,783,848,9109,12878,-9,115,-83,-16,35438,-58,34,127,0,0,3548,32,0,2884,166,66,1217,0,0,179,15,157062,0
157067,326,-1902,144,858,865,9384,12886,20,120,22,32,35436,-67,34,127,0,0,3559,131,0,2884,166,66,1227,0,0,186,13,157062,0
157077,285,-2135,173,978,918,9784,12916,89,78,316,184,35442,-92,34,127,0,0,3585,241,0,2884,166,66,1237,0,0,190,11,157062,0
157087,321,-2286,221,1051,1011,9983,12985,194,120,487,416,35448,-96,34,127,0,0,3621,373,0,2884,166,66,1247,0,0,197,9,157062,0
157097,364,-2540,298,1121,1199,10207,13110,279,190,466,592,35445,-72,34,127,0,0,3660,384,0,2884,166,66,1257,0,0,202,8,157078,0
157107,359,-2714,350,1165,1354,10299,13261,350,150,484,720,35441,-45,34,127,0,0,3695,318,0,2884,166,66,1267,0,0,209,6,157093,0
157117,397,-2933,445,1195,1627,10413,13429,387,83,415,632,35438,-38,34,127,0,0,3719,230,0,2884,166,66,1277,0,0,213,5,157124,0
157127,346,-3017,479,1188,1810,10510,13595,342,38,336,520,35452,-42,34,127,0,0,3737,197,0,2884,166,66,1287,0,0,220,4,157124,0
157137,211,-3141,508,1126,2095,10585,13737,288,-57,348,408,35458,-49,34,127,0,0,3748,120,0,2884,166,66,1297,0,0,225,3,157124,0
157147,110,-3193,482,1105,2282,10568,13856,226,-89,295,272,35456,-52,34,127,0,0,3761,87,0,2884,166,66,1307,0,0,231,2,157124,0
157158,48,-3188,322,1133,2577,10305,13952,176,-104,353,208,35459,-72,34,127,0,0,3777,93,0,2884,166,66,1318,0,0,238,2,157140,0
157168,113,-3140,267,1165,2760,10053,14018,131,-96,323,152,35467,-82,34,127,0,0,3777,38,0,2884,166,66,1328,0,0,242,2,157140,0
157178,202,-3409,392,1102,2968,9589,14049,51,-104,328,112,35468,-63,34,127,0,0,3779,16,0,2884,166,66,1338,0,0,248,2,157171,0
157188,-256,-4500,373,944,2898,9280,14072,44,-75,292,224,35464,-22,34,127,0,0,3807,340,0,2884,166,66,1348,0,0,251,1,157171,0
157198,526,-2758,580,873,3325,7968,14131,201,50,762,464,35447,-8,34,127,0,0,3830,170,0,2884,166,66,1358,0,0,257,2,157171,0
157208,622,-2822,-149,490,3803,7216,14263,291,217,335,264,35439,-26,34,127,0,0,3834,5,0,2884,166,66,1368,0,0,260,2,157203,0
157218,835,-2931,42,546,3751,5929,14361,164,88,3,-48,35436,-54,34,127,0,0,3823,-87,0,2884,166,66,1378,0,0,264,2,157203,0
157228,972,-2757,173,811,3492,5009,14345,-103,-291,-280,-128,35431,-62,34,127,0,0,3808,-76,0,2884,166,66,1388,0,0,266,2,157203,0
157238,1318,-2173,379,803,2861,3288,14297,-89,-296,-265,-104,35428,-43,34,127,0,0,3802,-54,0,2884,166,66,1398,0,0,269,2,157234,0
157248,1639,-2086,488,580,2400,2074,14251,-84,-52,-90,-80,35430,-39,34,127,0,0,3799,-104,0,2884,166,66,1408,0,0,270,2,157249,0
157258,1530,-2395,389,421,1803,213,14232,-50,58,-292,-144,35436,-40,34,127,0,0,3783,-148,0,2884,166,66,1418,0,0,271,2,157265,0
157268,1518,-2453,222,363,1533,-940,14188,-105,1,-368,-224,35432,-46,34,127,0,0,3768,-214,0,2884,166,66,1428,0,0,272,2,157265,0
157278,477,-4863,-164,164,1168,-2078,14134,-144,-72,-483,-216,35439,-50,34,127,0,0,3779,120,0,2884,166,66,1438,0,0,272,2,157281,0
157288,2915,-4597,914,-721,1510,-2760,14128,168,35,1025,1680,35434,-53,34,127,0,0,3974,2048,0,1802,221,67,8,1,1,272,2,157281,0
157298,1410,-1689,1043,313,-340,-4116,14550,1240,914,2004,4064,35435,-25,34,127,0,0,4174,1961,0,1802,221,67,18,1,1,272,2,157281,0
157308,1437,-2793,184,-507,-418,-4151,15373,1998,1631,1468,5184,35421,42,34,127,0,0,4305,1318,0,1802,221,67,28,1,1,272,2,157281,0
157318,358,-2980,90,-450,-1326,-3944,16376,2252,1122,850,5504,35406,108,34,127,0,0,4404,933,0,1802,221,67,38,1,1,272,2,157312,0
157328,-674,-2665,-603,-175,-1722,-3735,17408,2265,376,581,5408,35397,131,34,127,0,0,4483,785,0,1802,221,67,48,1,1,272,2,157328,0
157338,-91,-1721,-918,-379,-1666,-3672,18426,2229,23,471,5200,35404,76,34,127,0,0,4558,780,0,1802,221,67,58,1,1,272,2,157328,0
157348,143,-2220,-636,-442,-1384,-3442,19420,2182,-64,626,5296,35398,49,34,127,0,0,4652,983,0,1802,221,67,68,1,1,272,2,157328,0
157358,93,-3107,94,160,-769,-3296,20404,2169,-62,783,5552,35396,42,34,127,0,0,4751,933,0,1802,221,67,78,1,1,272,2,157374,0
157368,147,-2800,269,405,-333,-3834,21392,2143,-8,335,4584,35398,52,34,127,0,0,4787,274,0,1802,221,67,88,1,1,272,2,157374,0
157378,1322,-2245,526,406,370,-4071,22277,1834,-176,-160,2704,35403,14,34,127,0,0,4768,-181,0,1802,221,67,98,1,1,272,2,157374,0
157388,1512,-2305,515,436,351,-3987,22945,1269,-614,-562,872,35418,-31,34,127,0,0,4716,-483,0,1802,221,67,108,1,1,272,2,157390,0
157398,1420,-1772,227,409,-109,-3356,23267,405,-1069,-1392,-416,35420,-61,34,127,0,0,4660,-532,0,1802,221,67,118,1,1,272,2,157390,0
157409,360,-2154,175,247,-549,-2602,23113,-395,-1556,-478,-136,35429,-71,34,127,0,0,4607,-516,580,1802,221,67,129,1,1,272,2,157390,0
157419,76,-2224,238,289,-702,-2259,23003,-127,-724,377,128,35433,-71,34,127,0,0,4570,-384,780,1802,221,67,139,1,1,272,2,157437,0
157429,-215,-2140,440,286,-522,-2152,23051,151,415,436,352,35447,-71,34,127,0,0,4537,-307,980,1802,221,67,149,1,1,272,2,157437,0
157439,-46,-2383,637,423,62,-2563,23160,271,410,535,624,35444,-72,34,127,0,0,4480,-593,1180,1802,221,67,159,1,1,272,2,157437,0
157449,1149,-2247,848,347,-345,-1614,23226,25,47,891,120,35431,-66,34,127,0,0,4478,0,1380,1802,221,67,169,1,1,272,2,157437,0
157459,745,-2249,1200,365,-1352,-1535,23085,-427,-495,803,-136,35417,-74,34,127,0,0,4469,-109,1500,1802,221,67,179,1,1,272,2,157437,0
157469,-484,-2119,364,-122,-340,-1880,22765,-817,-739,614,-568,35424,-73,34,127,0,0,4416,-560,1500,1802,221,67,189,1,1,272,2,157452,0
157479,-937,-2085,-154,44,281,-2209,22338,-959,-559,720,-536,35438,-84,34,127,0,0,4343,-747,1500,1802,221,67,199,1,1,272,2,157452,0
157489,-50,-2219,406,253,599,-2161,21931,-860,-166,860,-272,35452,-85,34,127,0,0,4264,-780,1500,1802,221,67,209,1,1,272,2,157468,0
157499,211,-2069,748,377,144,-1776,21612,-630,211,1046,-24,35457,-92,34,127,0,0,4203,-593,1500,1802,221,67,219,1,1,272,2,157499,0
157509,390,-2105,862,52,-447,-1258,21414,-361,404,1095,48,35458,-103,34,127,0,0,4168,-296,1500,1802,221,67,229,1,1,272,2,157499,0
157519,256,-2110,458,-15,-534,-1145,21282,-288,369,918,24,35445,-100,34,127,0,0,4146,-197,1500,1802,221,67,239,1,1,272,2,157499,0
157529,-218,-2016,63,21,-182,-1253,21128,-351,80,864,-32,35432,-75,34,127,0,0,4117,-241,1500,1802,221,67,249,1,1,272,2,157531,0
157539,-40,-2077,116,101,69,-1385,20910,-542,-157,810,-216,35427,-61,34,127,0,0,4075,-439,1500,1802,221,67,259,1,1,272,2,157531,0
157549,62,-1975,414,244,294,-1574,20600,-721,-310,683,-256,35435,-63,34,127,0,0,4018,-604,1500,1802,221,67,269,1,1,272,2,157531,0
157559,62,-1898,483,126,307,-1487,20302,-588,-166,884,-16,35446,-80,34,127,0,0,3959,-615,1500,1802,221,67,279,1,1,272,2,157531,0
157569,545,-1929,483,31,-100,-999,20130,-293,272,1116,88,35445,-92,34,127,0,0,3930,-318,1500,1802,221,67,289,1,1,272,2,157562,0
157579,483,-1966,451,31,-371,-751,20030,-195,392,912,96,35437,-82,34,127,0,0,3913,-164,1500,1802,221,67,299,1,1,272,2,157562,0
157589,126,-2062,217,49,-249,-757,19937,-218,146,885,64,35430,-80,34,127,0,0,3900,-153,1500,1802,221,67,309,1,1,272,2,157562,0
157599,24,-2089,290,69,-41,-888,19824,-262,-29,878,16,35437,-84,34,127,0,0,3880,-186,1500,1802,221,67,319,1,1,272,2,157593,0
157609,340,-2066,632,64,45,-996,19654,-407,-142,832,-40,35440,-75,34,127,0,0,3847,-329,1500,1802,221,67,329,1,1,272,2,157593,0
157619,240,-2028,624,45,13,-1031,19437,-501,-203,797,-80,35432,-61,34,127,0,0,3810,-406,1500,1802,221,67,339,1,1,272,2,157593,0
157629,-128,-1961,425,-64,11,-1020,19215,-455,-104,872,8,35442,-61,34,127,0,0,3774,-351,1500,1802,221,67,349,1,1,272,2,157609,0
157640,47,-1968,320,-55,-43,-936,19058,-255,161,945,88,35444,-59,34,127,0,0,3745,-192,1500,1802,221,67,360,1,1,272,2,157624,0
157650,342,-1944,419,-32,-202,-853,18944,-244,211,885,80,35454,-75,34,127,0,0,3721,-197,1500,1802,221,67,370,1,1,272,2,157640,0
157660,230,-1964,448,-53,-205,-867,18828,-287,41,890,16,35449,-75,34,127,0,0,3702,-230,1500,1802,221,67,380,1,1,272,2,157640,0
157670,131,-2055,446,-118,-64,-1082,18667,-392,-99,863,-48,35437,-61,34,127,0,0,3671,-318,1500,1802,221,67,390,1,1,272,2,157640,0
157680,238,-2055,459,-154,53,-1250,18441,-535,-211,778,-120,35438,-80,34,127,0,0,3633,-395,1500,1802,221,67,400,1,1,272,2,157687,0
157690,234,-2127,463,-118,94,-1321,18181,-574,-196,824,-112,35450,-85,34,127,0,0,3583,-505,1500,1802,221,67,410,1,1,272,2,157687,0
157700,149,-2053,339,-118,17,-1227,17964,-413,12,999,56,35447,-72,34,127,0,0,3546,-384,1500,1802,221,67,420,1,1,272,2,157687,0
157710,575,-2035,412,-136,-191,-1043,17820,-301,231,956,32,35442,-56,34,127,0,0,3523,-280,1500,1802,221,67,430,1,1,272,2,157687,0
157720,293,-1964,356,-130,-245,-1001,17678,-317,142,880,32,35436,-60,34,127,0,0,3494,-285,1500,1802,221,67,440,1,1,272,2,157702,0
157730,70,-1970,233,-105,-154,-1084,17526,-334,-18,874,8,35444,-63,34,127,0,0,3465,-302,1500,1802,221,67,450,1,1,272,2,157734,0
157740,152,-2004,273,-87,-72,-1183,17358,-385,-44,888,0,35441,-66,34,127,0,0,3438,-313,1500,1802,221,67,460,1,1,272,2,157734,0
157750,217,-2041,433,-82,-114,-1291,17178,-407,-56,886,-24,35436,-50,34,127,0,0,3405,-318,1500,1802,221,67,470,1,1,272,2,157734,0
157760,160,-2041,503,-102,-196,-1390,16975,-474,-68,859,-48,35433,-59,34,127,0,0,3362,-379,1500,1802,221,67,480,1,1,272,2,157749,0
157770,-47,-2034,428,-130,-205,-1650,16767,-522,-105,846,-72,35439,-60,34,127,0,0,3325,-422,1500,1802,221,67,490,1,1,272,2,157749,0
157780,-80,-2029,340,-130,-194,-1831,16522,-554,-89,865,-96,35442,-68,34,127,0,0,3277,-439,1500,1802,221,67,500,1,1,272,2,157765,0
157790,-47,-1949,324,-85,-224,-2128,16248,-627,-86,812,-152,35436,-63,34,127,0,0,3225,-538,1580,1802,221,67,510,1,1,272,2,157796,0
157800,-157,-1998,294,-76,-233,-2304,15939,-685,-124,920,-120,35425,-60,34,127,0,0,3165,-626,1800,1802,221,67,520,1,1,272,2,157796,0
157810,-226,-2114,367,-299,-379,-2371,15666,-546,17,1235,-32,35437,-63,34,127,0,0,3123,-433,2050,1802,221,67,530,1,1,272,2,157796,0
157820,-49,-2347,580,-247,-625,-2350,15502,-292,302,1437,96,35443,-73,34,127,0,0,3087,-335,2320,1802,221,67,540,1,1,272,2,157796,0
157830,318,-2530,817,-171,-1204,-2543,15383,-259,292,1464,144,35445,-71,34,127,0,0,3068,-203,2630,1802,221,67,550,1,1,272,2,157827,0
157840,-297,-2922,883,-265,-1216,-2616,15273,-237,76,1641,208,35456,-71,34,127,0,0,3050,-175,2970,1802,221,67,560,1,1,272,2,157827,0
157850,-904,-2577,773,-326,-865,-3107,15184,-187,54,1834,240,35453,-63,34,127,0,0,3028,-186,3120,1802,221,67,570,1,1,272,2,157827,0
157860,-638,-2518,338,-349,-611,-3450,15099,-174,46,1905,224,35456,-67,34,127,0,0,3013,-164,3290,1802,221,67,580,1,1,272,2,157843,0
157870,-17,-2286,-84,-284,-541,-3906,14992,-268,-38,2001,184,35439,-58,34,127,0,0,2992,-192,3490,1802,221,67,590,1,1,272,2,157859,0
157880,-213,-2216,-137,-361,-624,-4068,14881,-221,-62,2128,264,35439,-60,34,127,0,0,2975,-164,3690,1802,221,67,600,1,1,272,2,157874,0
157890,-270,-2687,311,-340,-642,-4291,14812,-110,51,2230,424,35438,-61,34,127,0,0,2966,-76,3910,1802,221,67,610,1,1,272,2,157874,0
157901,-217,-2762,509,-357,-621,-4622,14814,42,223,2290,760,35443,-55,34,127,0,0,2964,32,4180,1802,221,67,621,1,1,272,2,157874,0
157911,-136,-2798,595,-341,-792,-4856,14828,28,151,2563,816,35439,-23,34,127,0,0,2968,65,4450,1802,221,67,631,1,1,272,2,157937,0
157921,-591,-2782,814,-446,-1025,-5183,14899,237,110,2469,1528,35429,17,34,127,0,0,2983,186,4750,1802,221,67,641,1,1,272,2,157952,0
157931,-582,-3828,1209,-391,-1429,-5057,15118,590,397,2765,2576,35417,27,34,127,0,0,3019,406,5090,1802,221,67,651,1,1,272,2,157952,0
157941,-940,-3764,1517,-563,-1911,-5075,15540,1090,666,3146,3896,35385,66,34,127,0,0,3102,922,5520,1802,221,67,661,1,1,272,2,157952,0
157951,-691,-3622,973,-585,-2112,-5287,16207,1621,875,3447,5160,35343,140,34,127,0,0,3223,1285,6090,1802,221,67,671,1,1,272,2,157952,0
157961,36,-3714,563,-260,-2960,-5499,17062,1961,829,3776,6032,35293,269,34,127,0,0,3379,1571,6870,1802,221,67,681,1,1,272,2,157952,0
157971,-529,-4429,269,-131,-3314,-5431,18029,2199,560,4256,6712,35254,414,34,127,0,0,3555,1779,7580,1802,221,67,691,1,1,272,2,157952,0
157981,-2769,-3532,1169,-316,-3019,-5921,19130,2529,470,4586,7656,35226,566,34,127,0,0,3757,2043,8170,1802,221,67,701,1,1,272,2,157952,0
157991,-2169,-3639,916,-287,-2583,-6477,20367,2796,529,4844,8648,35190,721,34,127,0,0,3977,2186,8750,1802,221,67,711,1,1,272,2,157984,0
158001,133,-3577,-31,82,-2912,-6693,21713,3054,469,5125,9328,35140,876,34,127,0,0,4227,2537,9390,1802,221,67,721,1,1,272,2,157984,0
158011,1037,-4501,-58,124,-3241,-6366,23222,3408,524,5617,9104,35075,1046,34,127,0,0,4493,2735,6100,1802,221,67,731,1,1,272,2,157984,0
158021,918,-3539,438,-81,-3763,-7001,24572,2595,68,3158,5392,35105,1186,34,127,0,0,4719,2164,1710,1802,221,67,741,1,1,272,2,158015,0
158031,691,-3292,733,-388,-3410,-8446,25127,602,-1851,718,-720,35198,1054,34,127,0,0,4812,791,0,1802,221,67,751,1,1,272,2,158015,0
158041,-13,-3148,770,-607,-2522,-9689,24764,-1303,-3352,-1290,-4728,35323,688,34,127,0,0,4752,-769,0,1802,221,67,761,1,1,272,2,158015,0
158051,-2108,-2439,1871,-197,-2257,-8009,23693,-2960,-3091,-3782,-9952,35342,287,34,127,0,0,4669,-758,0,1802,221,67,771,0,1,272,2,158062,0
158061,2679,-2754,688,-382,-4158,-4710,21971,-3662,-2690,645,-5168,35365,280,34,127,0,0,4816,1538,0,1802,221,67,781,0,1,272,2,158062,0
158071,-23,-2160,739,-1097,-2041,-4177,20866,-1971,-17,1744,-2448,35392,197,34,127,0,0,4825,0,0,1802,221,67,791,0,1,272,2,158062,0
158081,718,-1738,79,-547,496,-3093,20210,-1269,2155,576,-1448,35446,100,34,127,0,0,4781,-593,0,1802,221,67,801,0,1,272,2,158109,0
158091,57,-1237,-312,-200,1345,-2647,19750,-935,1202,83,-1712,35463,-108,34,127,0,0,4649,-1395,0,1802,221,67,811,0,1,272,2,158109,0
158101,-26,-806,118,180,1492,-1368,19350,-908,491,-483,-2416,35443,-155,34,127,0,0,4521,-1263,0,1802,221,67,821,0,1,272,2,158109,0
158111,41,-544,381,297,1317,-463,18877,-1080,-45,-534,-2592,35434,-69,34,127,0,0,4420,-1021,0,1802,221,67,831,0,1,272,2,158124,0
158121,-52,-217,536,277,1086,731,18366,-1127,-220,-345,-2448,35424,-35,34,127,0,0,4346,-725,0,1802,221,67,841,0,1,272,2,158124,0
158131,81,-174,386,235,920,1426,17878,-1032,-31,-166,-1936,35417,-18,34,127,0,0,4289,-527,0,1802,221,67,851,0,1,272,2,158124,0
158141,357,-287,218,308,723,2482,17452,-890,167,-117,-1576,35424,-16,34,127,0,0,4238,-483,0,1802,221,67,861,0,1,272,2,158124,0
158152,435,-376,-1,373,694,3226,17064,-726,258,-133,-1248,35445,-61,34,127,0,0,4183,-488,0,1802,221,67,872,0,1,272,2,158124,0
158162,476,-442,109,473,811,4371,16765,-630,227,-170,-1000,35458,-63,34,127,0,0,4133,-565,0,1802,221,67,882,0,1,272,2,158155,0
158172,526,-434,138,502,918,5133,16512,-536,181,-250,-912,35460,-50,34,127,0,0,4089,-505,0,1802,221,67,892,0,1,272,2,158171,0
158182,511,-422,155,480,1023,6188,16279,-503,127,-240,-808,35446,-58,34,127,0,0,4039,-472,0,1802,221,67,902,0,1,272,2,158171,0
158192,474,-426,143,481,1026,6843,16063,-462,69,-292,-768,35437,-70,34,127,0,0,3994,-455,0,1802,221,67,912,0,1,272,2,158171,0
158202,484,-442,151,462,928,7734,15861,-432,63,-308,-712,35438,-73,34,127,0,0,3953,-433,0,1802,221,67,922,0,1,272,2,158202,0
158212,463,-485,163,440,832,8276,15668,-413,45,-321,-600,35440,-53,34,127,0,0,3913,-406,0,1802,221,67,932,0,1,272,2,158202,0
158222,442,-588,162,440,697,9042,15486,-384,45,-244,-448,35437,-52,34,127,0,0,3889,-291,0,1802,221,67,942,0,1,272,2,158202,0
158232,433,-671,141,448,628,9496,15328,-322,64,-246,-344,35447,-67,34,127,0,0,3858,-296,0,1802,221,67,952,0,1,272,2,158202,0
158242,442,-814,74,496,610,10197,15212,-238,127,-289,-312,35454,-78,34,127,0,0,3836,-214,0,1802,221,67,962,0,1,272,2,158234,0
158252,420,-893,42,557,609,10652,15113,-204,109,-290,-280,35446,-70,34,127,0,0,3812,-197,0,1802,221,67,972,0,1,272,2,158234,0
158262,412,-1017,23,667,609,11286,15025,-193,56,-259,-160,35442,-66,34,127,0,0,3790,-197,0,1802,221,67,982,0,1,272,2,158249,0
158272,369,-1145,70,758,548,11664,14967,-78,77,-229,-112,35436,-63,34,127,0,0,3779,-120,0,1802,221,67,992,0,1,272,2,158249,0
158282,465,-1469,165,909,396,12212,14955,2,154,-119,0,35457,-62,34,127,0,0,3773,-65,0,1802,221,67,1002,0,1,272,2,158280,0
158292,313,-1700,249,1015,259,12455,14972,45,144,114,104,35452,-54,34,127,0,0,3785,87,0,1802,221,67,1012,0,1,272,2,158280,0
158302,355,-2116,223,1115,-44,12987,15037,180,143,366,368,35446,-54,34,127,0,0,3822,390,0,1802,221,67,1022,0,1,272,2,158280,0
158312,274,-2410,215,1198,-175,13241,15154,316,198,627,824,35439,-57,34,127,0,0,3889,725,0,1802,221,67,1032,0,1,272,2,158296,0
158322,325,-2957,236,1375,-136,13277,15358,513,270,646,1272,35458,-71,34,127,0,0,3961,758,0,1802,221,67,1042,0,1,272,2,158312,0
158332,458,-3443,292,1509,47,13152,15636,640,315,625,1528,35457,-50,34,127,0,0,4019,620,0,1802,221,67,1052,0,1,272,2,158312,0
158342,537,-4126,575,1754,454,13040,15954,709,217,480,1528,35451,-45,34,127,0,0,4067,472,0,1802,221,67,1062,0,1,272,2,158327,0
158352,458,-4152,669,1866,763,12870,16270,693,75,409,1456,35433,-30,34,127,0,0,4111,433,0,1802,221,67,1072,0,1,272,2,158343,0
158362,339,-3903,592,2152,1327,12085,16572,647,-33,359,1280,35430,-30,34,127,0,0,4128,175,0,1802,221,67,1082,0,1,272,2,158343,0
158372,151,-3620,119,2374,1726,11464,16849,578,-73,225,864,35438,-47,34,127,0,0,4126,-65,0,1802,221,67,1092,0,1,272,2,158359,0
158382,210,-3252,18,2429,2468,10410,17064,440,-165,172,336,35437,-39,34,127,0,0,4112,-203,0,1802,221,67,1102,0,1,272,2,158374,0
158393,403,-3748,150,2182,3244,9371,17206,211,-271,-90,-24,35441,-63,34,127,0,0,4091,-186,0,1802,221,67,1113,0,1,272,2,158374,0
158403,677,-4153,420,1834,3848,8655,17179,-132,-453,-199,-72,35447,-73,34,127,0,0,4075,-153,0,1802,221,67,1123,0,1,272,2,158405,0
158413,1121,-4202,746,1620,4329,7232,17151,-42,-306,-180,-56,35447,-76,34,127,0,0,4058,-175,0,1802,221,67,1133,0,1,272,2,158405,0
158423,1430,-3648,980,1475,4083,5853,17129,-51,29,-314,-160,35449,-60,34,127,0,0,4029,-307,0,1802,221,67,1143,0,1,272,2,158405,0
158433,1807,-2528,982,1467,2833,3290,17087,-137,-26,-665,-408,35454,-52,34,127,0,0,3988,-373,0,1802,221,67,1153,0,1,272,2,158421,0
158443,1991,-1831,890,1195,1735,1449,16969,-288,-188,-497,-552,35451,-56,34,127,0,0,3952,-362,0,1802,221,67,1163,0,1,272,2,158421,0
158453,2050,-1923,680,748,505,-993,16837,-295,-180,-399,-504,35456,-60,34,127,0,0,3917,-296,0,1802,221,67,1173,0,1,272,2,158515,0
158463,1798,-2206,257,451,129,-2399,16699,-298,-34,-368,-392,35450,-57,34,127,0,0,3891,-252,0,1802,221,67,1183,0,1,272,2,158515,0
158473,1670,-2562,256,222,183,-4189,16578,-252,22,-322,-384,35436,-33,34,127,0,0,3858,-362,0,1802,221,67,1193,0,1,272,2,158515,0
158483,1648,-2690,110,234,421,-5084,16471,-236,60,-443,-424,35431,-54,34,127,0,0,3816,-428,0,1802,221,67,1203,0,1,272,2,158515,0
158493,-2846,-11596,-1567,-353,978,-4492,16332,-326,-29,-357,-480,35427,-53,34,127,0,0,3818,65,0,1802,221,67,1213,0,1,272,2,158515,0
158503,852,-5818,2905,-716,3369,-3890,16266,153,38,1424,1744,35420,-55,34,127,0,0,4073,2570,0,9815,2708,68,7,1,1,435,-2,158530,0
158513,-175,167,429,742,2745,-5971,16654,1083,1058,1458,3256,35409,-13,34,127,0,0,4216,1351,0,9815,2708,68,17,1,1,435,-2,158530,0
158523,152,-366,-2229,-1855,1561,-5950,17279,1435,1356,890,3664,35399,8,34,127,0,0,4304,966,0,9815,2708,68,27,1,1,435,-2,158530,0
158533,1654,-2212,-1836,-1360,1357,-4634,17987,1619,589,909,4224,35401,22,34,127,0,0,4427,1252,0,9815,2708,68,37,1,1,435,-2,158530,0
158543,744,-2563,-2381,-487,717,-4100,18802,1864,357,984,4768,35401,49,34,127,0,0,4579,1516,0,9815,2708,68,47,1,1,435,-2,158546,0
158553,-413,-3705,-723,262,-190,-4009,19718,2050,405,879,5152,35400,73,34,127,0,0,4726,1472,0,9815,2708,68,57,1,1,435,-2,158546,0
158563,403,-3698,265,545,-823,-4654,20678,2134,278,736,5320,35395,81,34,127,0,0,4829,933,0,9815,2708,68,67,1,1,435,-2,158562,0
158573,1404,-2546,910,57,-1271,-5300,21627,2042,66,231,4560,35403,39,34,127,0,0,4849,76,0,9815,2708,68,77,1,1,435,-2,158562,0
158583,2232,-2538,628,-220,-954,-5524,22490,1814,-184,-44,2872,35419,-6,34,127,0,0,4801,-527,0,9815,2708,68,87,1,1,435,-2,158562,0
158593,845,-1676,309,-136,-827,-5239,23143,1217,-556,-728,456,35432,-60,34,127,0,0,4702,-988,0,9815,2708,68,97,1,1,435,-2,158593,0
158603,625,-1892,-80,-67,-802,-4775,23281,-199,-1385,-2178,-136,35441,-72,34,127,0,0,4609,-911,580,9815,2708,68,107,1,1,435,-2,158608,0
158613,137,-2295,293,213,-683,-4116,23190,-119,-1558,336,120,35446,-90,34,127,0,0,4519,-845,780,9815,2708,68,117,1,1,435,-2,158608,0
158623,13,-2429,556,200,-731,-3482,23220,55,-132,482,136,35439,-85,34,127,0,0,4471,-450,980,9815,2708,68,127,1,1,435,-2,158608,0
158633,1142,-2483,945,210,-1739,-2852,23085,-481,-63,633,-376,35433,-63,34,127,0,0,4449,-263,1180,9815,2708,68,137,1,1,435,-2,158608,0
158644,1543,-2263,1256,-27,-599,-3061,22506,-1458,-1126,518,-2424,35447,-63,34,127,0,0,4365,-994,1400,9815,2708,68,148,1,1,435,-2,158624,0
158654,-1506,-1935,151,-310,382,-3974,21710,-1805,-1256,645,-2784,35470,-83,34,127,0,0,4228,-1499,1500,9815,2708,68,158,1,1,435,-2,158655,0
158664,-813,-2012,-247,-246,1278,-4028,20936,-1621,-422,767,-2096,35480,-118,34,127,0,0,4078,-1538,1500,9815,2708,68,168,1,1,435,-2,158655,0
158674,565,-1729,382,118,512,-3264,20307,-1278,332,817,-1120,35472,-139,34,127,0,0,3945,-1235,1500,9815,2708,68,178,1,1,435,-2,158655,0
158684,1607,-2158,1021,-109,-44,-2382,19850,-878,607,901,-152,35458,-130,34,127,0,0,3860,-780,1500,9815,2708,68,188,1,1,435,-2,158655,0
158694,919,-2147,801,-259,-715,-1263,19653,-212,824,1403,264,35459,-108,34,127,0,0,3819,-346,1500,9815,2708,68,198,1,1,435,-2,158687,0
158704,649,-1736,52,-228,-991,-877,19637,-40,880,927,192,35462,-88,34,127,0,0,3833,104,1500,9815,2708,68,208,1,1,435,-2,158687,0
158714,152,-2150,-284,-8,-260,-657,19581,-155,251,908,88,35455,-67,34,127,0,0,3836,87,1500,9815,2708,68,218,1,1,435,-2,158702,0
158724,-287,-1951,-49,64,25,-892,19450,-343,-226,847,-8,35445,-45,34,127,0,0,3815,-192,1500,9815,2708,68,228,1,1,435,-2,158702,0
158734,251,-1935,357,17,261,-1271,19224,-559,-330,760,-120,35447,-61,34,127,0,0,3772,-368,1500,9815,2708,68,238,1,1,435,-2,158718,0
158744,343,-2061,623,-35,295,-1272,18925,-678,-332,705,-160,35458,-83,34,127,0,0,3718,-516,1500,9815,2708,68,248,1,1,435,-2,158718,0
158754,53,-1973,479,-20,186,-1047,18686,-420,-33,1077,8,35459,-104,34,127,0,0,3666,-483,1500,9815,2708,68,258,1,1,435,-2,158733,0
158764,524,-2004,498,-42,-140,-853,18601,-155,414,1004,120,35452,-94,34,127,0,0,3654,-126,1500,9815,2708,68,268,1,1,435,-2,158765,0
158774,513,-1878,447,-26,-485,-638,18529,-150,323,878,128,35445,-66,34,127,0,0,3645,-54,1500,9815,2708,68,278,1,1,435,-2,158765,0
158784,132,-1806,475,-107,-397,-648,18458,-162,34,887,96,35446,-63,34,127,0,0,3633,-115,1500,9815,2708,68,288,1,1,435,-2,158765,0
158794,91,-1964,292,-145,-116,-936,18346,-287,-86,869,40,35447,-69,34,127,0,0,3615,-197,1500,9815,2708,68,298,1,1,435,-2,158765,0
158804,208,-1955,376,-136,1,-1086,18176,-414,-197,859,-40,35448,-69,34,127,0,0,3580,-285,1500,9815,2708,68,308,1,1,435,-2,158812,0
158814,220,-2014,484,-165,-40,-1220,17962,-473,-186,820,-48,35452,-66,34,127,0,0,3545,-351,1500,9815,2708,68,318,1,1,435,-2,158812,0
158824,298,-2014,443,-205,-130,-1256,17748,-480,-71,885,-40,35453,-79,34,127,0,0,3504,-411,1500,9815,2708,68,328,1,1,435,-2,158827,0
158834,143,-2018,354,-264,-216,-1283,17559,-388,51,946,24,35447,-82,34,127,0,0,3469,-307,1500,9815,2708,68,338,1,1,435,-2,158843,0
158844,233,-1937,342,-256,-265,-1267,17401,-354,109,907,8,35444,-80,34,127,0,0,3439,-324,1500,9815,2708,68,348,1,1,435,-2,158858,0
158854,162,-1938,333,-210,-321,-1331,17236,-365,31,886,8,35455,-51,34,127,0,0,3407,-307,1500,9815,2708,68,358,1,1,435,-2,158858,0
158864,85,-1938,370,-189,-319,-1461,17057,-404,-44,891,-40,35461,-48,34,127,0,0,3378,-340,1570,9815,2708,68,368,1,1,435,-2,158858,0
158874,72,-2009,407,-166,-364,-1722,16841,-495,-53,886,-48,35471,-63,34,127,0,0,3338,-417,1740,9815,2708,68,378,1,1,435,-2,158858,0
158884,-12,-2047,417,-155,-481,-1831,16615,-482,-59,1081,-32,35457,-70,34,127,0,0,3299,-373,1930,9815,2708,68,388,1,1,435,-2,158874,0
158895,47,-2070,512,-79,-887,-1980,16395,-416,-9,1259,8,35457,-77,34,127,0,0,3254,-373,2180,9815,2708,68,399,1,1,435,-2,158874,0
158905,36,-2373,609,-48,-1176,-2164,16208,-422,74,1369,32,35468,-88,34,127,0,0,3216,-373,2460,9815,2708,68,409,1,1,435,-2,158905,0
158915,-412,-2512,571,-170,-1003,-2333,16005,-448,-12,1487,48,35469,-99,34,127,0,0,3183,-318,2780,9815,2708,68,419,1,1,435,-2,158905,0
158925,-579,-2360,313,-283,-783,-2679,15834,-340,23,1809,120,35468,-102,34,127,0,0,3150,-285,3170,9815,2708,68,429,1,1,435,-2,158921,0
158935,-366,-2238,169,-275,-824,-2802,15718,-202,168,1995,288,35446,-78,34,127,0,0,3128,-219,3610,9815,2708,68,439,1,1,435,-2,158921,0
158945,-467,-2135,202,-268,-1039,-3006,15652,-128,209,2182,400,35442,-44,34,127,0,0,3113,-175,3840,9815,2708,68,449,1,1,435,-2,158921,0
158955,-626,-2233,39,-400,-1086,-3349,15592,-151,103,2379,352,35446,-27,34,127,0,0,3102,-175,4110,9815,2708,68,459,1,1,435,-2,158937,0
158965,-540,-2635,493,-492,-776,-3989,15504,-226,-52,2573,216,35463,-33,34,127,0,0,3082,-219,4420,9815,2708,68,469,1,1,435,-2,158968,0
158975,-324,-2602,196,-452,-568,-4551,15325,-462,-226,2644,80,35462,-45,34,127,0,0,3052,-362,4770,9815,2708,68,479,1,1,435,-2,158968,0
158985,-470,-2562,225,-585,-468,-5123,15064,-593,-335,2808,40,35458,-62,34,127,0,0,3003,-472,5160,9815,2708,68,489,1,1,435,-2,158968,0
158995,-444,-2940,444,-568,-520,-5395,14811,-496,-155,3230,248,35449,-68,34,127,0,0,2959,-417,5570,9815,2708,68,499,1,1,435,-2,158968,0
159005,-380,-3134,917,-552,-938,-5498,14719,-84,336,3352,1008,35446,-55,34,127,0,0,2942,-131,6030,9815,2708,68,509,1,1,435,-2,158999,0
159015,-250,-3298,1114,-612,-1165,-5696,14752,94,560,3597,1392,35439,-26,34,127,0,0,2948,65,6590,9815,2708,68,519,1,1,435,-2,158999,0
159025,-882,-3327,1220,-604,-1528,-6044,14826,217,300,3963,1864,35417,45,34,127,0,0,2961,153,7290,9815,2708,68,529,1,1,435,-2,159015,0
159035,-1070,-3511,991,-545,-1809,-6258,15016,539,300,4300,2976,35396,104,34,127,0,0,2994,384,8120,9815,2708,68,539,1,1,435,-2,159015,0
159045,-1337,-4120,1198,-525,-2586,-6219,15487,1283,753,4981,5360,35374,211,34,127,0,0,3084,955,9150,9815,2708,68,549,1,1,435,-2,159030,0
159055,-768,-5040,1297,-540,-3182,-5812,16363,2187,1332,5725,7656,35316,442,34,127,0,0,3243,1691,10600,9815,2708,68,559,1,1,435,-2,159030,0
159065,-1037,-4465,909,-499,-4198,-5454,17620,3030,1512,6626,10184,35202,823,34,127,0,0,3478,2384,12170,9815,2708,68,569,1,1,435,-2,159046,0
159075,-1418,-4571,791,-692,-4570,-5298,19308,3991,1553,7530,12216,35031,1378,34,127,0,0,3777,3043,13690,9815,2708,68,579,1,1,435,-2,159061,0
159085,-2248,-4506,983,-1045,-4762,-5444,21297,4497,1429,8195,14048,34835,2003,34,127,0,0,4137,3625,15550,9815,2708,68,589,1,1,435,-2,159061,0
159095,-2341,-3635,958,-675,-4759,-5791,23541,5140,1041,9529,15456,34633,2683,34,127,0,0,4541,4053,17440,9815,2708,68,599,1,1,435,-2,159077,0
159105,-937,-4614,373,-405,-4720,-6036,25886,5083,718,10130,14904,34416,3387,34,127,0,0,4935,3933,13580,9815,2708,68,609,1,1,435,-2,159093,0
159115,689,-4755,182,-491,-4699,-6915,27888,3852,-422,6540,7440,34343,3551,34,127,0,0,5277,3295,1850,9815,2708,68,619,1,1,435,-2,159093,0
159125,887,-4352,429,-1025,-3883,-10682,28495,179,-3317,506,-2472,34592,2624,34,127,0,0,5387,856,0,9815,2708,68,629,1,1,435,-2,159108,0
159135,156,-4004,1008,-1058,-3419,-12006,27658,-2443,-5598,-508,-8496,34969,1351,34,127,0,0,5244,-1625,0,9815,2708,68,639,1,1,435,-2,159108,0
159146,-4313,-1755,3375,391,-4517,-10120,25690,-4391,-4320,-1666,-10280,35256,437,34,127,0,0,4952,-2845,0,9815,2708,68,650,0,1,435,-2,159140,0
159156,2003,-2425,1362,263,-4357,-4936,23746,-4155,-1979,813,-6392,35345,193,34,127,0,0,5021,895,0,9815,2708,68,660,0,1,435,-2,159140,0
159166,404,-2188,584,-1701,-1321,-3871,22364,-2595,921,1578,-4096,35377,57,34,127,0,0,4931,-977,0,9815,2708,68,670,0,1,435,-2,159140,0
159176,-71,-1746,160,-590,-493,-2496,21411,-1917,1971,414,-3048,35443,-175,34,127,0,0,4847,-889,0,9815,2708,68,680,0,1,435,-2,159155,0
159186,-529,-690,-805,428,447,-2005,20689,-1483,1230,123,-2936,35476,-236,34,127,0,0,4705,-1477,0,9815,2708,68,690,0,1,435,-2,159265,0
159196,-672,-343,-411,693,982,-1183,20076,-1327,649,-318,-3368,35449,-113,34,127,0,0,4554,-1527,0,9815,2708,68,700,0,1,435,-2,159265,0
159206,-289,15,506,1008,680,329,19431,-1456,152,-512,-3424,35430,-66,34,127,0,0,4437,-1142,0,9815,2708,68,710,0,1,435,-2,159265,0
159216,-89,156,467,929,1013,1435,18765,-1452,-115,-248,-3064,35411,-37,34,127,0,0,4346,-917,0,9815,2708,68,720,0,1,435,-2,159265,0
159226,-46,91,314,876,1539,2835,18149,-1306,55,-101,-2512,35409,-40,34,127,0,0,4278,-714,0,9815,2708,68,730,0,1,435,-2,159265,0
159236,46,-56,150,1000,1808,3610,17618,-1115,264,-80,-2072,35410,-36,34,127,0,0,4204,-725,0,9815,2708,68,740,0,1,435,-2,159280,0
159246,114,-273,42,1193,2257,4740,17171,-935,323,-161,-1880,35412,-37,34,127,0,0,4124,-807,0,9815,2708,68,750,0,1,435,-2,159280,0
159256,220,-283,34,1283,2564,5561,16768,-878,249,-311,-1872,35411,-37,34,127,0,0,4049,-802,0,9815,2708,68,760,0,1,435,-2,159280,0
159266,234,-300,126,1359,2837,6817,16385,-825,120,-295,-1720,35418,-28,34,127,0,0,3979,-686,0,9815,2708,68,770,0,1,435,-2,159280,0
159276,284,-294,123,1360,2874,7541,16021,-782,74,-281,-1488,35413,-26,34,127,0,0,3926,-477,0,9815,2708,68,780,0,1,435,-2,159280,0
159286,353,-296,179,1316,2800,8473,15695,-682,109,-237,-1216,35417,-28,34,127,0,0,3874,-483,0,9815,2708,68,790,0,1,435,-2,159280,0
159296,407,-386,211,1242,2689,9059,15409,-612,156,-247,-976,35418,-50,34,127,0,0,3843,-329,0,9815,2708,68,800,0,1,435,-2,159280,0
159306,399,-565,126,1136,2521,9875,15171,-491,162,-278,-760,35424,-64,34,127,0,0,3801,-357,0,9815,2708,68,810,0,1,435,-2,159280,0
159316,492,-716,227,1065,2427,10406,14969,-428,162,-300,-576,35433,-65,34,127,0,0,3780,-258,0,9815,2708,68,820,0,1,435,-2,159311,0
159326,561,-830,168,985,2303,11124,14805,-344,136,-266,-368,35437,-53,34,127,0,0,3751,-258,0,9815,2708,68,830,0,1,435,-2,159311,0
159336,530,-947,194,938,2161,11567,14679,-257,140,-282,-280,35438,-47,34,127,0,0,3728,-236,0,9815,2708,68,840,0,1,435,-2,159311,0
159346,525,-1127,230,915,1814,12206,14579,-215,123,-344,-248,35429,-64,34,127,0,0,3702,-197,0,9815,2708,68,850,0,1,435,-2,159343,0
159356,511,-1260,249,942,1489,12612,14510,-130,104,-378,-184,35424,-70,34,127,0,0,3691,-82,0,9815,2708,68,860,0,1,435,-2,159358,0
159366,623,-1528,289,1022,898,13044,14478,-45,129,-203,-8,35427,-72,34,127,0,0,3691,27,0,9815,2708,68,870,0,1,435,-2,159358,0
159376,514,-1778,277,1112,362,13390,14494,57,166,218,192,35433,-72,34,127,0,0,3712,230,0,9815,2708,68,880,0,1,435,-2,159358,0
159386,583,-2241,276,1226,-214,13774,14581,252,219,529,592,35437,-82,34,127,0,0,3757,411,0,9815,2708,68,890,0,1,435,-2,159358,0
159397,691,-2904,262,1471,-406,14033,14760,401,286,579,1000,35445,-75,34,127,0,0,3823,593,0,9815,2708,68,901,0,1,435,-2,159374,0
159407,606,-3291,265,1692,-363,14142,14987,528,246,571,1280,35448,-57,34,127,0,0,3882,615,0,9815,2708,68,911,0,1,435,-2,159405,0
159417,640,-3893,340,2180,-113,13983,15259,618,203,519,1280,35448,-37,34,127,0,0,3924,384,0,9815,2708,68,921,0,1,435,-2,159405,0
159427,569,-4055,336,2503,245,13697,15541,611,108,363,1128,35441,-47,34,127,0,0,3946,208,0,9815,2708,68,931,0,1,435,-2,159405,0
