state_time,accelx,accely,accelz,gyrox,gyroy,gyroz,mot_ang,mot_vel,mot_acc,mot_cur,mot_volt,batt_volt,batt_curr,temperature,status_mn,status_ex,status_re,ank_ang,ank_vel,ank_torque,peak_ank_torque,step_energy,step_count,step_time,gait_state,movement,speed,incline,sys_time,eventFlags
192442,-44,-2054,368,-82,34,113,14742,3,3,-195,-64,35796,-36,31,127,0,0,3900,76,0,1120,25,57,6934,-4,0,54,12,192444,0
192452,-79,-2056,372,-78,34,121,14742,-4,-4,-157,-64,35790,-40,31,127,0,0,3893,-21,0,1120,25,57,6944,-4,0,54,12,192444,0
192462,-74,-2060,370,-86,41,124,14742,14,-2,-179,-56,35795,-30,31,127,0,0,3893,-27,0,1120,25,57,6954,-4,0,54,12,192459,0
192472,-71,-2059,377,-81,30,122,14743,7,7,-150,-56,35793,-30,31,127,0,0,3893,-54,0,1120,25,57,6964,-4,0,54,12,192459,0
192482,-69,-2059,372,-80,34,124,14742,8,1,-149,-56,35780,-24,31,127,0,0,3896,-16,0,1120,25,57,6974,-4,0,54,12,192459,0
192492,-79,-2055,370,-78,36,126,14742,9,3,-158,-32,35786,-19,31,127,0,0,3892,0,0,1120,25,57,6984,-4,0,54,12,192491,0
192502,-67,-2060,372,-83,30,120,14741,-6,3,-183,-56,35797,-14,31,127,0,0,3893,-16,0,1120,25,57,6994,-4,0,54,12,192491,0
192512,-73,-2054,369,-86,37,124,14742,-1,2,-173,-32,35792,-18,31,127,0,0,3892,0,0,1120,25,57,7004,-4,0,54,12,192491,0
192522,-68,-2061,369,-81,36,122,14739,-12,-5,-223,-56,35796,-18,31,127,0,0,3896,49,0,1120,25,57,7014,-4,0,54,12,192506,0
192532,-66,-2056,367,-89,40,125,14744,5,6,-164,-16,35784,-19,31,127,0,0,3891,-5,0,1120,25,57,7024,-4,0,54,12,192522,0
192542,-54,-2063,371,-86,32,113,14741,-8,-2,-147,-56,35796,-25,31,127,0,0,3896,-21,0,1120,25,57,7034,-4,0,54,12,192537,0
192552,-69,-2062,369,-81,36,112,14741,-5,-12,-143,-56,35797,-52,31,127,0,0,3893,-10,0,1120,25,57,7044,-4,0,54,12,192537,0
192562,-89,-2057,368,-86,28,131,14741,-1,-1,-188,-56,35788,-60,31,127,0,0,3893,-27,0,1120,25,57,7054,-4,0,54,12,192553,0
192572,-75,-2057,365,-84,36,118,14742,2,7,-174,-16,35794,-46,31,127,0,0,3894,16,0,1120,25,57,7064,-4,0,54,12,192569,0
192582,-41,-2057,369,-82,39,111,14741,-6,2,-186,-56,35788,-37,31,127,0,0,3900,32,0,1120,25,57,7074,-4,0,54,12,192569,0
192592,-91,-2055,369,-84,24,121,14742,-6,0,-172,-40,35797,-31,31,127,0,0,3892,27,0,1120,25,57,7084,-4,0,54,12,192584,0
192602,-68,-2065,365,-79,36,120,14743,11,1,-149,-32,35796,-25,31,127,0,0,3892,-43,0,1120,25,57,7094,-4,0,54,12,192584,0
192613,-71,-2055,369,-83,40,123,14742,3,-2,-167,-64,35785,-15,31,127,0,0,3893,-10,0,1120,25,57,7105,-4,0,54,12,192616,0
192623,-65,-2063,374,-81,33,120,14742,-2,0,-176,-24,35784,-16,31,127,0,0,3893,0,0,1120,25,57,7115,-4,0,54,12,192616,0
192633,-76,-2057,374,-85,31,119,14742,0,6,-151,-32,35779,-17,31,127,0,0,3893,-10,0,1120,25,57,7125,-4,0,54,12,192631,0
192643,-79,-2059,378,-84,27,119,14739,-14,-5,-194,-56,35782,-10,31,127,0,0,3893,0,0,1120,25,57,7135,-4,0,54,12,192647,0
192653,-56,-2059,372,-87,32,124,14740,-9,-5,-201,-56,35772,-18,31,127,0,0,3893,0,0,1120,25,57,7145,-4,0,54,12,192647,0
192663,-65,-2058,371,-82,37,125,14742,2,6,-202,-56,35767,-32,31,127,0,0,3897,43,0,1120,25,57,7155,-4,0,54,12,192662,0
192673,-38,-2051,377,-82,33,128,14744,7,4,-104,0,35769,-33,31,127,0,0,3895,10,0,1120,25,57,7165,-4,0,54,12,192662,0
192683,-30,-2049,371,-87,34,126,14740,-22,-10,-186,-56,35776,-22,31,127,0,0,3895,10,0,1120,25,57,7175,-4,0,54,12,192694,0
192693,-53,-2061,372,-80,39,126,14744,6,0,-154,-40,35779,-21,31,127,0,0,3893,-21,0,1120,25,57,7185,-4,0,54,12,192694,0
192703,-65,-2051,366,-81,39,126,14742,10,2,-152,-32,35778,-34,31,127,0,0,3895,0,0,1120,25,57,7195,-4,0,54,12,192694,0
192713,-107,-2061,367,-85,31,129,14744,8,1,-108,-88,35781,-36,31,127,0,0,3895,-43,0,1120,25,57,7205,-4,0,54,12,192709,0
192723,-116,-2054,360,-86,39,130,14743,14,-1,-127,-72,35788,-36,31,127,0,0,3895,-32,0,1120,25,57,7215,-4,0,54,12,192709,0
192733,-55,-2053,372,-81,34,128,14741,-6,2,-161,-56,35790,-26,31,127,0,0,3895,0,0,1120,25,57,7225,-4,0,54,12,192709,0
192743,-69,-2050,380,-81,34,126,14742,2,-1,-151,-24,35791,-28,31,127,0,0,3893,0,0,1120,25,57,7235,-4,0,54,12,192741,0
192753,-64,-2070,371,-84,32,117,14741,-4,-3,-189,-64,35786,-34,31,127,0,0,3893,-10,0,1120,25,57,7245,-4,0,54,12,192741,0
192763,-55,-2063,368,-86,33,123,14743,8,0,-160,-32,35785,-23,31,127,0,0,3895,0,0,1120,25,57,7255,-4,0,54,12,192756,0
192773,-59,-2056,367,-88,41,116,14741,-13,-3,-171,-24,35799,-34,31,127,0,0,3897,43,0,1120,25,57,7265,-4,0,54,12,192772,0
192783,-82,-2076,373,-87,31,120,14743,-3,-6,-140,-64,35797,-22,31,127,0,0,3895,21,0,1120,25,57,7275,-4,0,54,12,192772,0
192793,-37,-2064,374,-88,31,111,14742,-5,-1,-156,-40,35799,-27,31,127,0,0,3893,-10,0,1120,25,57,7285,-4,0,54,12,192772,0
192803,-38,-2055,375,-87,32,113,14742,-7,-3,-208,-56,35800,-20,31,127,0,0,3893,21,0,1120,25,57,7295,-4,0,54,12,192803,0
192813,-66,-2063,370,-88,36,111,14743,-3,-2,-191,-64,35795,-20,31,127,0,0,3893,-21,0,1120,25,57,7305,-4,0,54,12,192803,0
192823,-77,-2054,371,-87,32,105,14743,17,0,-186,-56,35788,-19,31,127,0,0,3895,0,0,1120,25,57,7315,-4,0,54,12,192803,0
192833,-66,-2050,370,-89,35,112,14742,8,-2,-153,-24,35784,-18,31,127,0,0,3893,-10,0,1120,25,57,7325,-4,0,54,12,192834,0
192843,-54,-2054,374,-88,32,108,14741,3,-3,-187,-56,35788,-24,31,127,0,0,3893,-21,0,1120,25,57,7335,-4,0,54,12,192834,0
192853,-75,-2054,373,-96,19,104,14742,4,-3,-175,-24,35794,-35,31,127,0,0,3895,10,0,1120,25,57,7345,-4,0,54,12,192834,0
192864,-69,-2054,375,-95,40,100,14741,-8,-4,-179,-56,35791,-36,31,127,0,0,3900,49,0,1120,25,57,7356,-4,0,54,12,192850,0
192874,-62,-2045,367,-102,30,106,14742,-10,-1,-167,-88,35775,-30,31,127,0,0,3894,-10,0,1120,25,57,7366,-4,0,54,12,192881,0
192884,-87,-2056,369,-96,34,92,14741,10,-2,-215,-56,35785,-40,31,127,0,0,3893,0,0,1120,25,57,7376,-4,0,54,12,192881,0
192894,-61,-2054,365,-87,34,96,14740,-6,-1,-245,-56,35790,-37,31,127,0,0,3890,16,0,1120,25,57,7386,-4,0,54,12,192881,0
192904,-56,-2050,370,-98,31,104,14737,-17,-10,-306,-72,35790,-31,31,127,0,0,3891,32,0,1120,25,57,7396,-4,0,54,12,192944,0
192914,-50,-2053,370,-89,30,101,14740,9,5,-258,-80,35782,-24,31,127,0,0,3891,0,0,1120,25,57,7406,-4,0,54,12,192944,0
192924,-66,-2052,376,-94,34,100,14736,-3,-2,-323,-120,35783,-12,31,127,0,0,3886,-27,0,1120,25,57,7416,-4,0,54,12,192948,0
192934,-55,-2057,376,-92,35,104,14730,-16,-15,-342,-112,35782,-23,31,127,0,0,3886,-5,0,1120,25,57,7426,-4,0,54,12,192948,0
192944,-51,-2057,375,-93,36,111,14726,-18,-3,-330,-96,35780,-2,31,127,0,0,3886,-5,0,1120,25,57,7436,-4,0,54,12,192948,0
192954,-54,-2053,370,-95,36,109,14725,-3,2,-328,-96,35769,-5,31,127,0,0,3886,-16,0,1120,25,57,7446,-4,0,54,12,192948,0
192964,-54,-2055,372,-92,35,120,14722,-9,0,-341,-88,35764,-4,31,127,0,0,3893,65,0,1120,25,57,7456,-4,0,54,12,192948,0
192974,-45,-2050,369,-91,37,117,14719,-11,1,-310,-88,35784,-21,31,127,0,0,3886,21,0,1120,25,57,7466,-4,0,54,12,192964,0
192984,-55,-2052,362,-97,44,125,14710,-27,-16,-278,-72,35799,-19,31,127,0,0,3886,16,0,1120,25,57,7476,-4,0,54,12,193010,0
192994,-50,-2062,358,-88,31,122,14692,-42,-31,-122,-32,35806,-20,31,127,0,0,3886,0,0,1120,25,57,7486,-4,0,54,12,193010,0
193004,-69,-2060,355,-87,36,120,14687,6,13,-21,-16,35801,-7,31,127,0,0,3886,0,0,1120,25,57,7496,-4,0,54,12,193010,0
193014,-59,-2058,371,-85,48,125,14689,10,40,4,-24,35802,4,31,127,0,0,3886,-60,0,1120,25,57,7506,-4,0,54,12,193026,0
193024,-80,-2063,378,-79,38,125,14688,5,6,-29,0,35799,26,31,127,0,0,3885,5,0,1120,25,57,7516,-4,0,54,12,193026,0
193034,-48,-2063,375,-91,50,131,14687,-2,1,-34,-24,35784,14,31,127,0,0,3886,0,0,1120,25,57,7526,-4,0,54,12,193026,0
193044,-44,-2057,371,-88,47,132,14686,-8,3,-68,-16,35775,10,31,127,0,0,3886,5,0,1120,25,57,7536,-4,0,54,12,193026,0
193054,-58,-2054,372,-86,36,141,14689,11,0,32,0,35776,-12,31,127,0,0,3885,-49,0,1120,25,57,7546,-4,0,54,12,193057,0
193064,-42,-2051,376,-90,39,138,14686,-2,-1,34,32,35790,4,31,127,0,0,3888,-10,0,1120,25,57,7556,-4,0,54,12,193057,0
193074,-74,-2057,358,-88,40,143,14686,-12,-7,41,0,35792,8,31,127,0,0,3889,-16,0,1120,25,57,7566,-4,0,54,12,193073,0
193084,-52,-2053,356,-77,43,141,14688,1,-2,-3,-16,35779,19,31,127,0,0,3893,43,0,1120,25,57,7576,-4,0,54,12,193073,0
193094,-46,-2054,361,-73,51,155,14689,0,6,30,24,35770,18,31,127,0,0,3888,5,0,1120,25,57,7586,-4,0,54,12,193073,0
193104,-59,-2052,373,-76,37,163,14688,4,0,-9,0,35770,8,31,127,0,0,3892,49,0,1120,25,57,7596,-4,0,54,12,193089,0
193114,-53,-2058,387,-71,42,168,14691,5,2,84,0,35780,-2,31,127,0,0,3892,-5,0,1120,25,57,7606,-4,0,54,12,193120,0
193125,-66,-2050,374,-77,32,180,14691,6,3,106,56,35779,1,31,127,0,0,3893,43,0,1120,25,57,7617,-4,0,54,12,193120,0
193135,-55,-2047,377,-82,34,188,14694,0,1,149,40,35773,10,31,127,0,0,3895,32,0,1120,25,57,7627,-4,0,54,12,193135,0
193145,-63,-2045,376,-84,33,185,14695,2,-3,219,96,35769,3,31,127,0,0,3895,43,0,1120,25,57,7637,-4,0,54,12,193135,0
193155,-76,-2041,375,-83,31,184,14700,7,6,236,72,35770,-10,31,127,0,0,3897,10,0,1120,25,57,7647,-4,0,54,12,193167,0
193165,-80,-2045,372,-81,35,172,14700,-5,-12,248,72,35769,-16,31,127,0,0,3902,54,0,1120,25,57,7657,-4,0,54,12,193167,0
193175,-104,-2051,374,-87,35,162,14707,25,0,326,120,35770,-3,31,127,0,0,3900,10,0,1120,25,57,7667,-4,0,54,12,193167,0
193185,-96,-2050,373,-89,32,145,14720,34,31,239,88,35771,-16,31,127,0,0,3902,10,0,1120,25,57,7677,-4,0,54,12,193167,0
193195,-84,-2056,377,-95,37,136,14746,49,36,119,24,35775,-18,31,127,0,0,3902,0,0,1120,25,57,7687,-4,0,54,12,193198,0
193205,-97,-2059,380,-94,29,120,14748,-13,-31,137,56,35779,-18,31,127,0,0,3902,0,0,1120,25,57,7697,-4,0,54,12,193198,0
193215,-82,-2061,376,-92,37,112,14749,5,-45,121,24,35776,-12,31,127,0,0,3902,0,0,1120,25,57,7707,-4,0,54,12,193213,0
193225,-58,-2059,374,-92,33,107,14747,-5,4,64,40,35774,-7,31,127,0,0,3904,54,0,1120,25,57,7717,-4,0,54,12,193213,0
193235,-41,-2066,379,-101,32,108,14749,3,3,122,24,35772,-20,31,127,0,0,3902,0,0,1120,25,57,7727,-4,0,54,12,193229,0
193245,-51,-2065,371,-104,33,108,14748,-1,1,95,24,35790,-22,31,127,0,0,3902,21,0,1120,25,57,7737,-4,0,54,12,193245,0
193255,-54,-2064,366,-99,28,105,14748,1,-3,121,24,35782,-25,31,127,0,0,3902,0,0,1120,25,57,7747,-4,0,54,12,193245,0
193265,-65,-2059,365,-101,27,107,14747,-7,-2,119,24,35775,-12,31,127,0,0,3900,-32,0,1120,25,57,7757,-4,0,54,12,193260,0
193275,-64,-2058,369,-97,34,104,14747,4,-4,95,24,35780,-21,31,127,0,0,3900,-21,0,1120,25,57,7767,-4,0,54,12,193260,0
193285,-89,-2056,370,-97,31,113,14747,-6,-1,101,24,35784,-25,31,127,0,0,3902,-10,0,1120,25,57,7777,-4,0,54,12,193276,0
193295,-79,-2057,365,-97,30,111,14748,3,1,124,24,35786,-25,31,127,0,0,3902,0,0,1120,25,57,7787,-4,0,54,12,193307,0
193305,-29,-2048,370,-99,35,117,14745,-21,0,70,32,35772,-16,31,127,0,0,3902,43,0,1120,25,57,7797,-4,0,54,12,193307,0
193315,-38,-2049,375,-97,33,124,14745,-18,-8,58,40,35772,-5,31,127,0,0,3900,0,0,1120,25,57,7807,-4,0,54,12,193323,0
193325,-83,-2052,370,-99,34,126,14748,10,5,43,-16,35776,17,31,127,0,0,3902,10,0,1120,25,57,7817,-4,0,54,12,193323,0
193335,-94,-2049,366,-94,35,130,14746,-4,-3,102,24,35764,9,31,127,0,0,3900,-10,0,1120,25,57,7827,-4,0,54,12,193323,0
193345,-86,-2051,368,-96,31,135,14747,1,-4,102,24,35757,7,31,127,0,0,3904,10,0,1120,25,57,7837,-4,0,54,12,193323,0
193355,-93,-2060,364,-94,29,141,14747,-2,-1,137,24,35751,8,31,127,0,0,3902,-10,0,1120,25,57,7847,-4,0,54,12,193338,0
193366,-80,-2054,370,-101,27,148,14747,3,2,109,24,35767,-9,31,127,0,0,3902,-10,0,1120,25,57,7858,-4,0,54,12,193354,0
193376,-60,-2056,369,-99,29,146,14749,3,7,89,24,35779,-24,31,127,0,0,3899,-27,0,1120,25,57,7868,-4,0,54,12,193370,0
193386,-74,-2058,360,-98,30,144,14748,7,1,106,48,35779,-24,31,127,0,0,3901,-5,0,1120,25,57,7878,-4,0,54,12,193385,0
193396,-62,-2057,372,-96,29,141,14747,-8,-4,131,48,35768,-21,31,127,0,0,3904,43,0,1120,25,57,7888,-4,0,54,12,193385,0
193406,-63,-2058,368,-93,32,140,14748,-15,-3,117,24,35770,-13,31,127,0,0,3899,-21,0,1120,25,57,7898,-4,0,54,12,193401,0
193416,-54,-2058,369,-100,31,132,14748,8,-1,99,40,35779,0,31,127,0,0,3901,-5,0,1120,25,57,7908,-4,0,54,12,193401,0
193426,-74,-2059,362,-94,33,135,14748,-11,0,88,24,35782,3,31,127,0,0,3902,5,0,1120,25,57,7918,-4,0,54,12,193448,0
193436,-73,-2058,362,-97,29,137,14750,9,-1,121,40,35788,11,31,127,0,0,3901,-10,0,1120,25,57,7928,-4,0,54,12,193448,0
193446,-77,-2064,371,-97,28,132,14748,-2,2,110,0,35798,17,31,127,0,0,3900,-38,0,1120,25,57,7938,-4,0,54,12,193448,0
193456,-82,-2065,365,-97,27,131,14749,7,-3,108,24,35801,15,31,127,0,0,3899,-43,0,1120,25,57,7948,-4,0,54,12,193448,0
193466,-75,-2057,366,-97,32,141,14747,-7,1,84,24,35786,12,31,127,0,0,3905,38,0,1120,25,57,7958,-4,0,54,12,193448,0
193476,-72,-2055,361,-98,26,141,14749,-4,2,137,40,35777,15,31,127,0,0,3904,43,0,1120,25,57,7968,-4,0,54,12,193479,0
193486,-59,-2052,360,-99,18,138,14750,1,2,155,16,35770,11,31,127,0,0,3905,21,0,1120,25,57,7978,-4,0,54,12,193479,0
193496,-67,-2056,358,-97,21,141,14750,3,-3,193,64,35782,-1,31,127,0,0,3903,-21,0,1120,25,57,7988,-4,0,54,12,193479,0
193506,-68,-2058,365,-91,26,152,14752,13,-3,233,64,35791,-1,31,127,0,0,3910,21,0,1120,25,57,7998,-4,0,54,12,193510,0
193516,-69,-2057,369,-95,23,162,14754,3,6,266,56,35794,4,31,127,0,0,3913,71,0,1120,25,57,8008,-4,0,54,12,193510,0
193526,-83,-2054,364,-101,17,168,14761,18,13,293,96,35787,11,31,127,0,0,3911,38,0,1120,25,57,8018,-4,0,54,12,193526,0
193536,-83,-2053,355,-96,23,171,14766,2,5,244,80,35792,20,31,127,0,0,3911,60,0,1120,25,57,8028,-4,0,54,12,193526,0
193546,-69,-2056,353,-91,17,166,14778,41,8,285,56,35799,11,31,127,0,0,3911,-16,0,1120,25,57,8038,-4,0,54,12,193588,0
193556,-58,-2056,364,-85,25,167,14799,47,35,149,64,35808,8,31,127,0,0,3912,32,0,1120,25,57,8048,-4,0,54,12,193588,0
193566,-34,-2069,369,-85,16,178,14816,15,2,139,32,35803,7,31,127,0,0,3918,5,0,1120,25,57,8058,-4,0,54,12,193588,0
193576,-85,-2056,371,-92,15,183,14812,-5,-54,204,64,35796,27,31,127,0,0,3917,43,0,1120,25,57,8068,-4,0,54,12,193588,0
193586,-74,-2062,369,-91,25,195,14814,-1,-14,138,56,35785,21,31,127,0,0,3921,27,0,1120,25,57,8078,-4,0,54,12,193588,0
193596,-132,-2072,357,-89,34,184,14823,43,29,345,88,35776,22,31,127,0,0,3925,32,0,1120,25,57,8088,-4,0,54,12,193588,0
193606,-73,-2054,365,-91,22,185,14825,-8,12,389,104,35777,33,31,127,0,0,3924,27,0,1120,25,57,8098,-4,0,54,12,193604,0
193617,-67,-2058,357,-83,26,187,14826,-1,-34,430,88,35788,44,31,127,0,0,3926,21,0,1120,25,57,8109,-4,0,54,12,193604,0
193627,-87,-2052,362,-90,25,188,14828,3,-1,478,152,35795,54,31,127,0,0,3926,-21,0,1120,25,57,8119,-4,0,54,12,193620,0
193637,-84,-2060,366,-87,23,182,14831,7,0,506,120,35793,42,31,127,0,0,3930,10,0,1120,25,57,8129,-4,0,54,12,193635,0
193647,-76,-2058,367,-88,26,181,14837,6,4,501,192,35790,24,31,127,0,0,3933,76,0,1120,25,57,8139,-4,0,54,12,193635,0
193657,-87,-2063,363,-87,26,182,14854,37,23,451,184,35794,17,31,127,0,0,3935,43,0,1120,25,57,8149,-4,0,54,12,193635,0
193667,-92,-2048,371,-85,22,183,14882,48,42,358,144,35791,14,31,127,0,0,3935,43,0,1120,25,57,8159,-4,0,54,12,193667,0
193677,-78,-2050,363,-89,19,170,14887,-16,-37,384,152,35797,5,31,127,0,0,3939,54,0,1120,25,57,8169,-4,0,54,12,193667,0
193687,-119,-2047,365,-84,25,169,14891,8,-52,468,136,35793,12,31,127,0,0,3939,0,0,1120,25,57,8179,-4,0,54,12,193698,0
193697,-100,-2050,364,-86,31,150,14890,-2,-5,475,136,35794,22,31,127,0,0,3941,21,0,1120,25,57,8189,-4,0,54,12,193698,0
193707,-98,-2058,364,-82,36,147,14892,1,-2,489,168,35784,34,31,127,0,0,3941,43,0,1120,25,57,8199,-4,0,54,12,193698,0
193717,-80,-2063,364,-81,25,147,14894,-2,1,465,120,35783,26,31,127,0,0,3941,10,0,1120,25,57,8209,-4,0,54,12,193713,0
193727,-87,-2055,362,-82,28,144,14894,-5,-8,475,152,35791,26,31,127,0,0,3941,10,0,1120,25,57,8219,-4,0,54,12,193729,0
193737,-92,-2067,370,-79,27,141,14898,7,3,527,168,35789,33,31,127,0,0,3944,0,0,1120,25,57,8229,-4,0,54,12,193745,0
193747,-82,-2058,368,-81,25,136,14909,26,19,481,144,35791,32,31,127,0,0,3944,0,0,1120,25,57,8239,-4,0,54,12,193760,0
193757,-83,-2056,370,-86,29,139,14930,53,33,326,120,35801,37,31,127,0,0,3946,32,0,1120,25,57,8249,-4,0,54,12,193760,0
193767,-87,-2055,365,-84,21,138,14957,38,27,200,56,35790,28,31,127,0,0,3944,10,0,1120,25,57,8259,-4,0,54,12,193760,0
193777,-121,-2056,359,-78,25,130,14952,-1,-58,261,96,35787,23,31,127,0,0,3946,10,0,1120,25,57,8269,-4,0,54,12,193760,0
193787,-96,-2060,361,-79,23,122,14952,-15,-40,272,96,35788,3,31,127,0,0,3946,10,0,1120,25,57,8279,-4,0,54,12,193791,0
193797,-95,-2055,365,-78,25,104,14954,0,7,279,40,35806,-6,31,127,0,0,3946,0,0,1120,25,57,8289,-4,0,54,12,193791,0
193807,-123,-2053,371,-84,25,104,14953,0,-4,301,80,35814,-1,31,127,0,0,3948,32,0,1120,25,57,8299,-4,0,54,12,193791,0
193817,-94,-2050,361,-81,23,83,14954,-5,-5,330,112,35808,6,31,127,0,0,3946,10,0,1120,25,57,8309,-4,0,54,12,193807,0
193827,-105,-2043,371,-73,19,74,14953,-14,-3,274,80,35794,10,31,127,0,0,3944,0,0,1120,25,57,8319,-4,0,54,12,193838,0
193837,-131,-2056,366,-80,17,41,14953,0,-4,232,56,35801,7,31,127,0,0,3944,-21,0,1120,25,57,8329,-4,0,54,12,193838,0
193847,-116,-2055,369,-80,16,18,14953,3,3,201,56,35811,15,31,127,0,0,3944,0,0,1120,25,57,8339,-4,0,54,12,193838,0
193857,-131,-2048,374,-84,35,-29,14951,-11,0,149,0,35806,16,31,127,0,0,3937,-54,0,1120,25,57,8349,-4,0,54,12,193854,0
193868,-110,-2057,372,-87,47,-59,14948,12,-3,59,-24,35785,12,31,127,0,0,3932,-93,0,1120,25,57,8360,-4,0,54,12,193854,0
193878,-68,-2077,370,-91,45,-77,14939,-20,-10,-99,-56,35805,14,31,127,0,0,3924,-131,0,1120,25,57,8370,-4,0,54,12,193885,0
193888,-60,-2065,378,-93,37,-59,14925,-33,-23,-284,-80,35805,4,31,127,0,0,3923,-32,0,1120,25,57,8380,-4,0,54,12,193885,0
193898,-73,-2064,369,-98,36,-66,14904,-63,-14,-232,-80,35805,-4,31,127,0,0,3918,-65,0,1120,25,57,8390,-4,0,54,12,193885,0
193908,-71,-2065,372,-98,38,-87,14856,-103,-65,-124,-88,35794,0,31,127,0,0,3910,-104,0,1120,25,57,8400,-4,0,54,12,193916,0
193918,-43,-2062,370,-100,41,-86,14811,-102,-36,-95,-48,35805,16,31,127,0,0,3908,-16,0,1120,25,57,8410,-4,0,54,12,193916,0
193928,-121,-2054,377,-101,51,-78,14810,24,96,-205,-80,35803,17,31,127,0,0,3897,-87,0,1120,25,57,8420,-4,0,54,12,193916,0
193938,-44,-2054,372,-108,36,-72,14800,-19,69,-375,-128,35803,5,31,127,0,0,3891,-82,0,1120,25,57,8430,-4,0,54,12,193916,0
193948,-6,-2057,356,-110,33,-38,14785,-38,-34,-520,-176,35786,7,31,127,0,0,3891,-16,0,1120,25,57,8440,-4,0,54,12,193948,0
193958,-21,-2054,356,-103,43,-25,14753,-86,-44,-385,-184,35797,13,31,127,0,0,3884,-60,0,1120,25,57,8450,-4,0,54,12,193948,0
193968,-43,-2057,358,-98,45,-16,14705,-98,-64,-275,-112,35798,8,31,127,0,0,3885,21,0,1120,25,57,8460,-4,0,54,12,193948,0
193978,-16,-2052,350,-91,46,8,14664,-77,-5,-136,-72,35808,9,31,127,0,0,3878,-38,0,1120,25,57,8470,-4,0,54,12,193979,0
193988,-20,-2049,348,-92,42,35,14658,0,89,-242,-56,35803,14,31,127,0,0,3878,32,0,1120,25,57,8480,-4,0,54,12,193979,0
193998,6,-2056,355,-90,30,78,14659,-6,73,-294,-104,35805,3,31,127,0,0,3877,-16,0,1120,25,57,8490,-4,0,54,12,193979,0
194008,-39,-2052,364,-85,43,95,14652,-10,-13,-321,-88,35807,6,31,127,0,0,3873,16,0,1120,25,57,8500,-4,0,54,12,193995,0
194018,-32,-2061,380,-86,37,118,14641,-21,-16,-317,-120,35812,-15,31,127,0,0,3872,-5,0,1120,25,57,8510,-4,0,54,12,194026,0
194028,-25,-2058,376,-85,33,125,14617,-55,-30,-167,-48,35812,-2,31,127,0,0,3874,60,0,1120,25,57,8520,-4,0,54,12,194026,0
194038,-4,-2048,364,-89,35,136,14618,2,29,-138,-48,35811,7,31,127,0,0,3868,-10,0,1120,25,57,8530,-4,0,54,12,194026,0
194048,-4,-2054,354,-83,35,136,14617,-2,35,-174,-64,35809,11,31,127,0,0,3869,-54,0,1120,25,57,8540,-4,0,54,12,194026,0
194058,-69,-2051,356,-79,40,148,14616,-1,-1,-175,-16,35805,13,31,127,0,0,3867,-21,0,1120,25,57,8550,-4,0,54,12,194057,0
194068,-29,-2056,359,-77,42,142,14616,-8,5,-189,-64,35803,7,31,127,0,0,3872,-10,0,1120,25,57,8560,-4,0,54,12,194088,0
194078,-58,-2057,368,-71,32,141,14620,16,1,-132,-24,35798,19,31,127,0,0,3873,21,0,1120,25,57,8570,-4,0,54,12,194088,0
194088,-72,-2055,375,-81,35,141,14618,-2,2,-59,-24,35804,10,31,127,0,0,3873,0,0,1120,25,57,8580,-4,0,54,12,194120,0
194098,-68,-2062,369,-78,43,137,14617,-12,-3,-107,-24,35796,13,31,127,0,0,3873,32,0,1120,25,57,8590,-4,0,54,12,194120,0
194108,-53,-2051,365,-78,35,131,14620,-3,2,-126,-48,35791,21,31,127,0,0,3871,-16,0,1120,25,57,8600,-4,0,54,12,194120,0
194119,-69,-2063,361,-76,39,129,14617,-3,2,-173,-72,35787,23,31,127,0,0,3873,32,0,1120,25,57,8611,-4,0,54,12,194135,0
194129,-43,-2056,363,-78,39,114,14619,14,6,-66,-24,35794,9,31,127,0,0,3873,0,0,1120,25,57,8621,-4,0,54,12,194135,0
194139,-67,-2062,368,-77,40,113,14615,-17,-7,-122,-8,35805,15,31,127,0,0,3871,43,0,1120,25,57,8631,-4,0,54,12,194135,0
194149,-39,-2075,378,-84,42,109,14618,-9,-6,-160,0,35804,11,31,127,0,0,3873,10,0,1120,25,57,8641,-4,0,54,12,194135,0
194159,-49,-2059,371,-80,39,112,14619,16,10,-148,-72,35809,5,31,127,0,0,3871,-21,0,1120,25,57,8651,-4,0,54,12,194135,0
194169,-46,-2056,371,-82,39,113,14615,7,-8,-132,-8,35807,7,31,127,0,0,3871,-10,0,1120,25,57,8661,-4,0,54,12,194213,0
194179,-45,-2064,362,-81,34,110,14615,-5,0,-91,-16,35815,1,31,127,0,0,3873,0,0,1120,25,57,8671,-4,0,54,12,194229,0
194189,-76,-2057,370,-83,36,116,14617,-3,3,-96,-56,35799,17,31,127,0,0,3873,10,0,1120,25,57,8681,-4,0,54,12,194229,0
194199,-82,-2057,363,-84,39,109,14619,9,3,-81,-16,35792,20,31,127,0,0,3873,10,0,1120,25,57,8691,-4,0,54,12,194245,0
194209,-59,-2054,360,-79,36,101,14619,1,4,-83,-96,35786,29,31,127,0,0,3869,-65,0,1120,25,57,8701,-4,0,54,12,194260,0
194219,-87,-2062,356,-73,40,88,14612,0,-14,-199,-56,35792,16,31,127,0,0,3869,0,0,1120,25,57,8711,-4,0,54,12,194276,0
194229,-69,-2066,363,-79,42,79,14613,-5,4,-209,-56,35788,4,31,127,0,0,3869,0,0,1120,25,57,8721,-4,0,54,12,194276,0
194239,-60,-2059,366,-71,48,75,14613,-10,5,-231,-48,35785,14,31,127,0,0,3869,10,0,1120,25,57,8731,-4,0,54,12,194276,0
194249,-58,-2060,370,-71,45,65,14613,-6,-3,-277,-80,35788,19,31,127,0,0,3867,0,0,1120,25,57,8741,-4,0,54,12,194276,0
194259,-74,-2059,362,-74,40,60,14612,7,1,-254,-80,35799,27,31,127,0,0,3864,-43,0,1120,25,57,8751,-4,0,54,12,194276,0
194269,-72,-2056,376,-76,36,45,14604,-20,-15,-323,-120,35814,9,31,127,0,0,3862,-21,0,1120,25,57,8761,-4,0,54,12,194276,0
194279,-78,-2060,377,-78,36,33,14603,0,-2,-371,-144,35815,3,31,127,0,0,3860,-32,0,1120,25,57,8771,-4,0,54,12,194276,0
194289,-69,-2064,369,-82,43,14,14599,-10,8,-410,-128,35815,2,31,127,0,0,3856,-65,0,1120,25,57,8781,-4,0,54,12,194276,0
194299,-59,-2057,363,-79,42,2,14589,-39,-16,-479,-184,35814,5,31,127,0,0,3854,-21,0,1120,25,57,8791,-4,0,54,12,194307,0
194309,-56,-2063,360,-79,42,-7,14563,-74,-52,-384,-144,35806,10,31,127,0,0,3849,-21,0,1120,25,57,8801,-4,0,54,12,194323,0
194319,-81,-2054,361,-77,49,-28,14517,-89,-69,-210,-80,35802,3,31,127,0,0,3845,-65,0,1120,25,57,8811,-4,0,54,12,194323,0
194329,-23,-2066,363,-80,47,-36,14488,-74,3,-264,-128,35790,-6,31,127,0,0,3840,-54,0,1120,25,57,8821,-4,0,54,12,194323,0
194339,-67,-2046,361,-74,46,-41,14462,-25,36,-240,-88,35789,-23,31,127,0,0,3836,-54,0,1120,25,57,8831,-4,0,54,12,194323,0
194349,-18,-2048,372,-75,42,-26,14459,-15,61,-434,-160,35794,-33,31,127,0,0,3832,-32,0,1120,25,57,8841,-4,0,54,12,194338,0
194359,-25,-2054,382,-72,36,-17,14446,-39,13,-475,-168,35792,-34,31,127,0,0,3827,-21,0,1120,25,57,8851,-4,0,54,12,194338,0
194370,-18,-2050,374,-77,40,-18,14395,-116,-90,-258,-112,35791,-27,31,127,0,0,3823,-54,0,1120,25,57,8862,-4,0,54,12,194385,0
194380,-48,-2054,374,-78,45,-5,14371,-41,-10,-357,-136,35790,-17,31,127,0,0,3819,-10,0,1120,25,57,8872,-4,0,54,12,194385,0
194390,1,-2052,358,-76,42,2,14345,-70,41,-273,-88,35793,-27,31,127,0,0,3813,-5,0,1120,25,57,8882,-4,0,54,12,194385,0
194400,-24,-2057,350,-71,32,17,14337,8,25,-326,-112,35791,-15,31,127,0,0,3808,-71,0,1120,25,57,8892,-4,0,54,12,194385,0
194410,-1,-2059,348,-61,30,29,14331,-29,45,-453,-128,35792,-12,31,127,0,0,3810,5,0,1120,25,57,8902,-4,0,54,12,194401,0
194420,-33,-2057,348,-58,38,43,14328,0,-4,-460,-144,35804,-30,31,127,0,0,3804,-21,0,1120,25,57,8912,-4,0,54,12,194416,0
194430,-12,-2067,353,-52,34,53,14322,-14,5,-497,-160,35810,-49,31,127,0,0,3802,-27,0,1120,25,57,8922,-4,0,54,12,194416,0
194440,-8,-2071,364,-47,33,60,14310,-35,-23,-496,-160,35815,-63,31,127,0,0,3803,0,0,1120,25,57,8932,-4,0,54,12,194510,0
194450,-14,-2073,367,-43,34,69,14283,-74,-48,-308,-136,35805,-45,31,127,0,0,3801,-38,0,1120,25,57,8942,-4,0,54,12,194510,0
194460,-30,-2067,361,-38,23,63,14252,-52,-39,-247,-112,35791,-31,31,127,0,0,3800,-21,0,1120,25,57,8952,-4,0,54,12,194510,0
194470,-15,-2073,368,-35,41,72,14238,-24,36,-187,-64,35791,-23,31,127,0,0,3799,0,0,1120,25,57,8962,-4,0,54,12,194510,0
194480,-7,-2073,370,-36,27,90,14223,-53,26,-188,-56,35786,-24,31,127,0,0,3796,10,0,1120,25,57,8972,-4,0,54,12,194510,0
194490,-29,-2063,363,-31,31,90,14211,0,-4,-66,-24,35782,-28,31,127,0,0,3796,-16,0,1120,25,57,8982,-4,0,54,12,194526,0
194500,2,-2067,374,-31,23,100,14211,-7,42,-108,-24,35777,-29,31,127,0,0,3793,-32,0,1120,25,57,8992,-4,0,54,12,194526,0
194510,-11,-2061,382,-33,27,103,14210,0,12,-162,-48,35776,-42,31,127,0,0,3794,-5,0,1120,25,57,9002,-4,0,54,12,194526,0
194520,2,-2058,378,-40,22,112,14211,3,6,-119,-48,35785,-61,31,127,0,0,3794,-49,0,1120,25,57,9012,-4,0,54,12,194526,0
194530,-37,-2052,380,-40,27,116,14209,4,-1,-179,-48,35795,-56,31,127,0,0,3794,0,0,1120,25,57,9022,-4,0,54,12,194526,0
194540,-28,-2051,382,-40,25,118,14208,-9,-2,-184,-48,35797,-45,31,127,0,0,3797,32,0,1120,25,57,9032,-4,0,54,12,194526,0
194550,-22,-2051,384,-44,23,123,14209,-10,2,-156,-48,35798,-11,31,127,0,0,3794,-16,0,1120,25,57,9042,-4,0,54,12,194557,0
194560,-45,-2049,385,-48,32,116,14210,6,2,-157,-64,35797,-26,31,127,0,0,3795,-21,0,1120,25,57,9052,-4,0,54,12,194557,0
194570,-49,-2043,387,-55,27,115,14207,1,-5,-170,-48,35793,-32,31,127,0,0,3794,0,0,1120,25,57,9062,-4,0,54,12,194557,0
194580,-23,-2048,382,-58,34,109,14206,-9,3,-204,-64,35788,-35,31,127,0,0,3792,16,0,1120,25,57,9072,-4,0,54,12,194588,0
194590,-35,-2049,389,-65,33,90,14204,-14,-2,-254,-80,35782,-34,31,127,0,0,3790,5,0,1120,25,57,9082,-4,0,54,12,194588,0
194600,-52,-2044,392,-69,33,84,14203,-2,1,-253,-56,35786,-57,31,127,0,0,3789,-10,0,1120,25,57,9092,-4,0,54,12,194588,0
194611,-42,-2057,395,-81,36,73,14199,-17,-6,-329,-96,35791,-53,31,127,0,0,3790,32,0,1120,25,57,9103,-4,0,54,12,194604,0
194621,-23,-2057,388,-84,35,65,14200,-3,-2,-323,-136,35790,-34,31,127,0,0,3785,-32,0,1120,25,57,9113,-4,0,54,12,194604,0
194631,-50,-2060,391,-93,41,58,14195,-1,0,-347,-120,35800,-17,31,127,0,0,3785,-21,0,1120,25,57,9123,-4,0,54,12,194635,0
194641,-39,-2061,399,-97,42,48,14192,-12,-5,-379,-104,35800,-31,31,127,0,0,3783,0,0,1120,25,57,9133,-4,0,54,12,194635,0
194651,-26,-2058,396,-109,38,47,14189,-14,-1,-432,-120,35804,-39,31,127,0,0,3779,-32,0,1120,25,57,9143,-4,0,54,12,194635,0
194661,-34,-2061,396,-109,26,29,14179,-35,-14,-476,-152,35797,-37,31,127,0,0,3777,-21,0,1120,25,57,9153,-4,0,54,12,194651,0
194671,-35,-2057,396,-115,38,23,14150,-81,-52,-381,-160,35792,-31,31,127,0,0,3777,0,0,1120,25,57,9163,-4,0,54,12,194666,0
194681,-59,-2068,387,-126,40,4,14123,-34,-29,-283,-88,35800,-20,31,127,0,0,3770,-54,0,1120,25,57,9173,-4,0,54,12,194666,0
194691,-7,-2067,389,-130,35,2,14116,-18,49,-432,-128,35813,-21,31,127,0,0,3770,-10,0,1120,25,57,9183,-4,0,54,12,194682,0
194701,-22,-2059,391,-130,39,8,14093,-66,-6,-341,-128,35808,-2,31,127,0,0,3763,-54,0,1120,25,57,9193,-4,0,54,12,194698,0
194711,-33,-2056,387,-139,36,-20,14046,-82,-73,-138,-96,35800,12,31,127,0,0,3761,-65,0,1120,25,57,9203,-4,0,54,12,194713,0
194721,-13,-2051,378,-147,51,-34,14027,-28,31,-143,-72,35800,18,31,127,0,0,3757,-54,0,1120,25,57,9213,-4,0,54,12,194713,0
194731,-6,-2047,378,-149,38,-29,14011,-34,60,-221,-80,35805,-1,31,127,0,0,3755,-21,0,1120,25,57,9223,-4,0,54,12,194713,0
194741,1,-2053,377,-158,42,-22,14008,1,25,-311,-128,35805,-2,31,127,0,0,3750,-54,0,1120,25,57,9233,-4,0,54,12,194744,0
194751,7,-2053,378,-153,32,-29,14000,-20,12,-424,-144,35800,-16,31,127,0,0,3744,-32,0,1120,25,57,9243,-4,0,54,12,194744,0
194761,11,-2058,374,-153,40,-12,13991,-20,-15,-505,-184,35799,-23,31,127,0,0,3739,-32,0,1120,25,57,9253,-4,0,54,12,194744,0
194771,22,-2056,372,-161,39,4,13980,-22,-5,-574,-168,35802,-33,31,127,0,0,3737,-21,0,1120,25,57,9263,-4,0,54,12,194776,0
194781,21,-2056,373,-160,31,17,13954,-76,-38,-467,-216,35813,-39,31,127,0,0,3733,-54,0,1120,25,57,9273,-4,0,54,12,194776,0
194791,-8,-2058,358,-157,35,19,13909,-86,-69,-305,-112,35811,-28,31,127,0,0,3730,-21,0,1120,25,57,9283,-4,0,54,12,194776,0
194801,22,-2055,357,-153,35,26,13867,-84,-15,-149,-48,35810,-17,31,127,0,0,3728,-32,0,1120,25,57,9293,-4,0,54,12,194838,0
194811,6,-2061,357,-146,31,48,13863,13,86,-274,-120,35803,-26,31,127,0,0,3724,-32,0,1120,25,57,9303,-4,0,54,12,194854,0
194821,21,-2056,357,-142,26,64,13858,-20,68,-368,-96,35806,-30,31,127,0,0,3724,0,0,1120,25,57,9313,-4,0,54,12,194869,0
194831,14,-2060,349,-146,30,77,13856,-6,-10,-357,-112,35803,-18,31,127,0,0,3722,-21,0,1120,25,57,9323,-4,0,54,12,194869,0
194841,14,-2057,356,-140,33,81,13850,-16,4,-380,-176,35784,3,31,127,0,0,3722,-10,0,1120,25,57,9333,-4,0,54,12,194869,0
194851,14,-2058,357,-134,31,95,13828,-52,-38,-235,-96,35779,9,31,127,0,0,3719,-43,0,1120,25,57,9343,-4,0,54,12,194885,0
194861,-5,-2053,354,-131,29,111,13804,-29,-30,-124,-72,35787,4,31,127,0,0,3717,-21,0,1120,25,57,9353,-4,0,54,12,194885,0
194872,36,-2060,353,-130,28,113,13806,-1,55,-172,-40,35791,0,31,127,0,0,3716,-27,0,1120,25,57,9364,-4,0,54,12,194885,0
194882,-3,-2058,359,-126,26,128,13805,6,30,-149,-40,35804,5,31,127,0,0,3719,-32,0,1120,25,57,9374,-4,0,54,12,194885,0
194892,-12,-2048,365,-127,23,136,13806,9,-3,-141,-64,35803,-9,31,127,0,0,3717,-60,0,1120,25,57,9384,-4,0,54,12,194885,0
194902,12,-2064,364,-124,31,134,13806,7,2,-170,-64,35805,-14,31,127,0,0,3724,21,0,1120,25,57,9394,-4,0,54,12,194885,0
194912,-12,-2063,362,-119,25,150,13805,1,0,-143,-16,35813,-23,31,127,0,0,3718,32,0,1120,25,57,9404,-4,0,54,12,194932,0
194922,54,-2066,362,-120,37,137,13803,-10,0,-191,-32,35817,-7,31,127,0,0,3719,49,0,1120,25,57,9414,-4,0,54,12,194932,0
194932,16,-2067,357,-123,27,148,13804,-3,-2,-167,-40,35810,-6,32,127,0,0,3723,32,0,1120,25,57,9424,-4,0,54,12,194932,0
194942,0,-2062,359,-119,26,155,13807,9,5,-95,-40,35791,-18,31,127,0,0,3723,0,0,1120,25,57,9434,-4,0,54,12,194932,0
194952,-36,-2058,364,-114,31,154,13805,0,-3,-116,-16,35787,-26,31,127,0,0,3722,38,0,1120,25,57,9444,-4,0,54,12,194932,0
194962,17,-2058,360,-118,33,156,13808,5,-1,-51,-16,35795,-24,31,127,0,0,3722,0,0,1120,25,57,9454,-4,0,54,12,194963,0
194972,-8,-2060,360,-116,28,155,13807,1,1,-68,-16,35796,-9,31,127,0,0,3722,16,0,1120,25,57,9464,-4,0,54,12,194963,0
194982,3,-2063,362,-115,28,160,13807,2,-4,-31,0,35792,-12,31,127,0,0,3724,21,0,1120,25,57,9474,-4,0,54,12,194963,0
194992,-10,-2066,362,-117,30,165,13807,0,4,-5,0,35798,-21,31,127,0,0,3724,27,0,1120,25,57,9484,-4,0,54,12,195010,0
195002,5,-2058,355,-117,33,153,13810,8,5,46,0,35814,-21,31,127,0,0,3724,5,0,1120,25,57,9494,-4,0,54,12,195026,0
195012,9,-2064,352,-112,27,150,13810,4,0,101,16,35814,-12,31,127,0,0,3723,-43,0,1120,25,57,9504,-4,0,54,12,195026,0
195022,-28,-2057,350,-108,34,145,13812,2,3,100,24,35811,-9,31,127,0,0,3723,-43,0,1120,25,57,9514,-4,0,54,12,195026,0
195032,-15,-2056,349,-106,34,137,13813,9,-2,147,40,35793,-14,31,127,0,0,3728,-21,0,1120,25,57,9524,-4,0,54,12,195026,0
195042,-5,-2054,352,-109,36,130,13813,-2,7,130,40,35796,-21,31,127,0,0,3722,-38,0,1120,25,57,9534,-4,0,54,12,195026,0
195052,18,-2054,355,-100,40,123,13813,0,-6,104,16,35797,-12,31,127,0,0,3726,-43,0,1120,25,57,9544,-4,0,54,12,195057,0
195062,-8,-2052,350,-102,37,124,13813,5,-3,147,40,35794,5,31,127,0,0,3728,10,0,1120,25,57,9554,-4,0,54,12,195057,0
195072,15,-2054,350,-99,31,124,13815,-1,-1,154,40,35790,-1,31,127,0,0,3728,0,0,1120,25,57,9564,-4,0,54,12,195057,0
195082,-12,-2053,344,-86,35,129,13816,6,0,149,40,35801,-2,31,127,0,0,3728,0,0,1120,25,57,9574,-4,0,54,12,195072,0
195092,-5,-2060,344,-92,40,130,13815,6,2,185,32,35811,-15,31,127,0,0,3728,-32,0,1120,25,57,9584,-4,0,54,12,195088,0
195102,-9,-2058,344,-84,33,130,13816,2,-4,157,40,35812,-21,31,127,0,0,3728,0,0,1120,25,57,9594,-4,0,54,12,195088,0
195113,6,-2062,356,-81,42,126,13812,-17,-5,100,48,35800,-17,31,127,0,0,3726,10,0,1120,25,57,9605,-4,0,54,12,195104,0
195123,29,-2068,350,-78,29,126,13814,-9,2,98,40,35787,-24,31,127,0,0,3728,21,0,1120,25,57,9615,-4,0,54,12,195119,0
195133,-1,-2064,358,-79,37,128,13813,-8,-4,103,56,35791,-14,31,127,0,0,3728,32,0,1120,25,57,9625,-4,0,54,12,195119,0
195143,23,-2064,366,-77,41,133,13814,-9,-1,101,0,35792,-8,31,127,0,0,3728,21,0,1120,25,57,9635,-4,0,54,12,195119,0
195153,-7,-2063,360,-77,38,126,13817,12,5,168,24,35798,-3,31,127,0,0,3728,0,0,1120,25,57,9645,-4,0,54,12,195151,0
195163,-2,-2060,350,-77,37,129,13815,-7,-5,135,0,35800,-6,31,127,0,0,3730,21,0,1120,25,57,9655,-4,0,54,12,195151,0
195173,9,-2057,354,-76,29,131,13817,12,-2,166,32,35808,-12,31,127,0,0,3728,0,0,1120,25,57,9665,-4,0,54,12,195244,0
195183,-9,-2064,350,-75,41,129,13815,4,2,149,40,35809,-9,31,127,0,0,3728,0,0,1120,25,57,9675,-4,0,54,12,195244,0
195193,-10,-2063,357,-69,38,125,13816,4,-2,167,72,35794,-6,31,127,0,0,3728,0,0,1120,25,57,9685,-4,0,54,12,195244,0
195203,-2,-2066,352,-68,35,121,13816,0,5,156,32,35793,-26,31,127,0,0,3728,10,0,1120,25,57,9695,-4,0,54,12,195244,0
195213,3,-2055,348,-59,43,115,13813,-14,-5,102,56,35784,-21,31,127,0,0,3726,10,0,1120,25,57,9705,-4,0,54,12,195260,0
195223,24,-2068,339,-61,39,105,13816,1,0,122,32,35784,-6,31,127,0,0,3726,-21,0,1120,25,57,9715,-4,0,54,12,195260,0
195233,-28,-2056,349,-53,38,116,13814,4,-1,106,0,35781,15,31,127,0,0,3728,0,0,1120,25,57,9725,-4,0,54,12,195260,0
195243,-19,-2059,355,-50,42,122,13815,0,-2,150,40,35776,1,31,127,0,0,3728,0,0,1120,25,57,9735,-4,0,54,12,195260,0
195253,20,-2054,363,-56,35,124,13814,-13,-1,102,16,35778,-22,31,127,0,0,3728,10,0,1120,25,57,9745,-4,0,54,12,195260,0
195263,5,-2055,373,-60,35,131,13816,15,2,142,32,35780,-25,31,127,0,0,3728,-10,0,1120,25,57,9755,-4,0,54,12,195260,0
195273,-1,-2059,374,-67,33,137,13814,5,3,138,40,35785,-3,31,127,0,0,3728,21,0,1120,25,57,9765,-4,0,54,12,195260,0
195283,16,-2062,380,-73,40,136,13816,-3,-1,153,32,35778,1,31,127,0,0,3728,0,0,1120,25,57,9775,-4,0,54,12,195260,0
195293,0,-2059,366,-78,35,146,13815,0,5,150,40,35785,-6,31,127,0,0,3728,0,0,1120,25,57,9785,-4,0,54,12,195276,0
195303,-9,-2059,360,-74,39,142,13816,0,4,176,24,35799,-12,31,127,0,0,3728,-10,0,1120,25,57,9795,-4,0,54,12,195338,0
195313,-27,-2058,352,-73,38,142,13814,-9,-6,158,40,35812,-4,31,127,0,0,3728,0,0,1120,25,57,9805,-4,0,54,12,195338,0
195323,-16,-2059,353,-74,40,137,13814,0,2,150,40,35797,0,31,127,0,0,3728,0,0,1120,25,57,9815,-4,0,54,12,195338,0
195333,-14,-2058,356,-67,36,137,13815,-3,-1,149,40,35791,-5,31,127,0,0,3728,0,0,1120,25,57,9825,-4,0,54,12,195338,0
195343,-5,-2057,358,-67,35,134,13815,-2,1,128,40,35779,-20,31,127,0,0,3728,21,0,1120,25,57,9835,-4,0,54,12,195338,0
195353,-25,-2053,361,-68,38,132,13816,2,4,151,32,35782,-18,31,127,0,0,3728,0,0,1120,25,57,9845,-4,0,54,12,195354,0
195364,-17,-2061,367,-71,34,129,13814,-6,-2,128,40,35786,-7,31,127,0,0,3728,16,0,1120,25,57,9856,-4,0,54,12,195354,0
195374,5,-2066,374,-74,30,124,13815,-2,-2,148,40,35779,3,31,127,0,0,3725,-32,0,1120,25,57,9866,-4,0,54,12,195369,0
195384,-3,-2061,371,-75,34,118,13814,0,0,111,40,35789,-14,31,127,0,0,3728,16,0,1120,25,57,9876,-4,0,54,12,195369,0
195394,-16,-2063,371,-77,32,126,13815,-8,3,156,40,35789,-12,31,127,0,0,3728,0,0,1120,25,57,9886,-4,0,54,12,195385,0
195404,-11,-2064,367,-81,35,125,13816,9,-3,146,32,35796,-12,31,127,0,0,3728,0,0,1120,25,57,9896,-4,0,54,12,195385,0
195414,-10,-2063,362,-82,32,124,13816,1,4,149,32,35783,-10,31,127,0,0,3725,-32,0,1120,25,57,9906,-4,0,54,12,195400,0
195424,9,-2060,360,-81,32,116,13815,9,-3,134,32,35797,-24,31,127,0,0,3728,-10,0,1120,25,57,9916,-4,0,54,12,195447,0
195434,4,-2051,364,-82,39,118,13813,-11,-3,109,40,35806,-29,31,127,0,0,3728,43,0,1120,25,57,9926,-4,0,54,12,195447,0
195444,25,-2059,361,-76,35,123,13815,-6,4,144,32,35800,-17,31,127,0,0,3728,0,0,1120,25,57,9936,-4,0,54,12,195447,0
195454,-4,-2053,358,-77,37,124,13816,1,4,124,40,35781,-6,31,127,0,0,3725,-5,0,1120,25,57,9946,-4,0,54,12,195447,0
195464,3,-2062,362,-78,42,116,13814,-5,-4,118,40,35767,-13,31,127,0,0,3728,5,0,1120,25,57,9956,-4,0,54,12,195447,0
195474,-4,-2055,375,-80,35,120,13815,-3,-2,143,16,35770,-18,31,127,0,0,3729,-5,0,1120,25,57,9966,-4,0,54,12,195463,0
195484,-27,-2061,364,-77,40,121,13814,2,-1,107,40,35775,-26,31,127,0,0,3725,10,0,1120,25,57,9976,-4,0,54,12,195479,0
195494,2,-2061,360,-83,35,111,13813,-12,-4,83,40,35771,-21,31,127,0,0,3728,21,0,1120,25,57,9986,-4,0,54,12,195494,0
195504,-14,-2061,363,-80,35,122,13815,0,1,115,32,35772,-18,31,127,0,0,3725,-27,0,1120,25,57,9996,-4,0,54,12,195494,0
195514,-10,-2058,358,-85,30,118,13815,7,1,125,16,35772,-9,31,127,0,0,3729,-16,0,1120,25,57,10006,-4,0,54,12,195494,0
195524,-26,-2055,355,-82,37,118,13815,4,-5,123,8,35790,-1,31,127,0,0,3726,-32,0,1120,25,57,10016,-4,0,54,12,195572,0
195534,-5,-2060,363,-77,36,121,13814,3,-1,80,16,35806,-1,31,127,0,0,3726,-5,0,1120,25,57,10026,-4,0,54,12,195572,0
195544,30,-2057,360,-80,41,116,13814,0,1,96,40,35794,-16,31,127,0,0,3725,-10,0,1120,25,57,10036,-4,0,54,12,195588,0
195554,-13,-2052,365,-76,32,133,13814,-7,3,118,40,35780,-18,31,127,0,0,3728,5,0,1120,25,57,10046,-4,0,54,12,195588,0
195564,15,-2056,365,-81,44,133,13816,4,5,162,40,35774,-23,31,127,0,0,3728,-27,0,1120,25,57,10056,-4,0,54,12,195588,0
195574,6,-2059,363,-82,36,131,13814,3,-5,122,16,35783,-19,31,127,0,0,3729,10,0,1120,25,57,10066,-4,0,54,12,195604,0
195584,-8,-2066,368,-79,40,129,13815,-5,0,152,32,35779,-23,31,127,0,0,3728,0,0,1120,25,57,10076,-4,0,54,12,195604,0
195594,-14,-2058,367,-78,39,129,13815,0,-3,121,40,35769,-3,31,127,0,0,3728,5,0,1120,25,57,10086,-4,0,54,12,195604,0
195604,-25,-2066,357,-79,40,134,13816,3,1,145,40,35760,-6,31,127,0,0,3728,0,0,1120,25,57,10096,-4,0,54,12,195604,0
195615,-6,-2066,362,-74,35,129,13817,11,4,172,24,35780,-8,31,127,0,0,3728,0,0,1120,25,57,10107,-4,0,54,12,195604,0
195625,-16,-2065,360,-74,40,136,13816,2,3,169,32,35779,-11,31,127,0,0,3728,-21,0,1120,25,57,10117,-4,0,54,12,195619,0
195635,-10,-2059,365,-78,39,132,13814,-3,-10,152,32,35790,-10,31,127,0,0,3728,0,0,1120,25,57,10127,-4,0,54,12,195650,0
195645,-6,-2058,358,-80,40,133,13815,0,-2,151,40,35782,-13,31,127,0,0,3728,0,0,1120,25,57,10137,-4,0,54,12,195650,0
195655,-4,-2055,361,-75,37,137,13816,3,1,151,40,35786,-9,31,127,0,0,3728,10,0,1120,25,57,10147,-4,0,54,12,195666,0
195665,-6,-2057,364,-74,44,135,13815,-1,0,163,72,35782,11,31,127,0,0,3728,0,0,1120,25,57,10157,-4,0,54,12,195666,0
195675,1,-2058,365,-77,36,137,13816,1,1,168,24,35770,4,31,127,0,0,3728,-10,0,1120,25,57,10167,-4,0,54,12,195666,0
195685,-9,-2051,357,-73,35,146,13815,-4,2,167,120,35774,-8,31,127,0,0,3728,0,0,1120,25,57,10177,-4,0,54,12,195666,0
195695,12,-2055,364,-74,34,144,13814,-12,-1,170,72,35791,-12,31,127,0,0,3728,0,0,1120,25,57,10187,-4,0,54,12,195697,0
195705,-15,-2062,360,-80,33,144,13817,7,-2,171,72,35807,-18,31,127,0,0,3730,10,0,1120,25,57,10197,-4,0,54,12,195697,0
195715,-18,-2054,361,-70,35,144,13817,4,5,225,48,35793,-13,31,127,0,0,3728,-21,0,1120,25,57,10207,-4,0,54,12,195713,0
195725,-34,-2065,357,-71,34,134,13816,0,-3,221,96,35778,-14,31,127,0,0,3733,32,0,1120,25,57,10217,-4,0,54,12,195713,0
195735,-3,-2062,357,-74,36,130,13825,23,16,302,56,35773,-7,31,127,0,0,3733,-32,0,1120,25,57,10227,-4,0,54,12,195744,0
195745,-4,-2055,364,-74,36,130,13822,-8,1,261,64,35796,-13,31,127,0,0,3733,21,0,1120,25,57,10237,-4,0,54,12,195744,0
195755,-4,-2065,364,-70,29,132,13825,0,-13,272,64,35801,-4,31,127,0,0,3735,21,0,1120,25,57,10247,-4,0,54,12,195744,0
195765,-3,-2051,369,-74,36,136,13823,-3,-3,248,128,35782,-14,31,127,0,0,3735,43,0,1120,25,57,10257,-4,0,54,12,195744,0
195775,-2,-2063,365,-68,34,133,13824,-7,-4,264,64,35767,-2,31,127,0,0,3733,-21,0,1120,25,57,10267,-4,0,54,12,195775,0
195785,-24,-2053,359,-63,39,133,13822,10,-6,267,72,35767,-7,31,127,0,0,3733,-10,0,1120,25,57,10277,-4,0,54,12,195775,0
195795,-21,-2059,363,-66,36,128,13825,16,2,339,88,35772,-11,31,127,0,0,3733,-65,0,1120,25,57,10287,-4,0,54,12,195775,0
195805,-35,-2058,361,-67,32,133,13822,-9,-2,262,64,35775,-7,31,127,0,0,3735,21,0,1120,25,57,10297,-4,0,54,12,195807,0
195815,-4,-2059,370,-62,43,132,13827,1,4,284,48,35782,-7,31,127,0,0,3733,-10,0,1120,25,57,10307,-4,0,54,12,195807,0
195825,-17,-2056,361,-68,41,134,13826,5,2,279,64,35782,-5,31,127,0,0,3735,21,0,1120,25,57,10317,-4,0,54,12,195822,0
195835,-18,-2054,361,-63,39,130,13826,6,-2,330,80,35789,-1,31,127,0,0,3735,0,0,1120,25,57,10327,-4,0,54,12,195822,0
195845,-10,-2057,362,-60,34,134,13829,5,6,342,120,35779,-1,31,127,0,0,3735,0,0,1120,25,57,10337,-4,0,54,12,195854,0
195855,2,-2055,358,-58,31,129,13829,1,1,339,120,35792,-1,31,127,0,0,3737,0,0,1120,25,57,10347,-4,0,54,12,195854,0
195865,-6,-2059,355,-53,46,139,13831,-2,0,324,112,35785,-7,31,127,0,0,3737,10,0,1120,25,57,10357,-4,0,54,12,195854,0
195875,-6,-2057,366,-53,40,143,13833,0,0,289,72,35790,4,31,127,0,0,3737,32,0,1120,25,57,10367,-4,0,54,12,195869,0
195886,3,-2053,369,-51,45,152,13835,2,-3,298,96,35767,26,31,127,0,0,3734,0,0,1120,25,57,10378,-4,0,54,12,195869,0
195896,13,-2061,384,-49,30,147,13835,2,-2,310,88,35782,23,31,127,0,0,3737,-10,0,1120,25,57,10388,-4,0,54,12,195900,0
195906,1,-2051,384,-62,32,158,13841,9,2,295,80,35790,19,31,127,0,0,3737,0,0,1120,25,57,10398,-4,0,54,12,195900,0
195916,-1,-2056,385,-65,37,169,13850,17,12,225,64,35797,-8,31,127,0,0,3737,0,0,1120,25,57,10408,-4,0,54,12,195900,0
195926,-20,-2052,372,-65,30,171,13863,27,11,187,40,35792,-14,31,127,0,0,3740,0,0,1120,25,57,10418,-4,0,54,12,195916,0
195936,-4,-2055,365,-63,31,180,13869,4,-7,193,48,35785,-15,31,127,0,0,3739,0,0,1120,25,57,10428,-4,0,54,12,195932,0
195946,-30,-2060,358,-61,31,180,13870,5,-24,249,88,35780,10,31,127,0,0,3744,27,0,1120,25,57,10438,-4,0,54,12,195932,0
195956,-15,-2060,361,-59,33,169,13877,15,4,285,96,35781,9,31,127,0,0,3743,5,0,1120,25,57,10448,-4,0,54,12,195947,0
195966,-19,-2059,368,-59,35,164,13878,-3,-2,297,104,35775,8,31,127,0,0,3746,32,0,1120,25,57,10458,-4,0,54,12,195963,0
195976,-19,-2053,373,-62,38,165,13883,20,-5,355,64,35779,-13,31,127,0,0,3750,-16,0,1120,25,57,10468,-4,0,54,12,195963,0
195986,-33,-2062,374,-58,36,162,13885,17,6,389,88,35790,-2,31,127,0,0,3752,27,0,1120,25,57,10478,-4,0,54,12,195994,0
195996,-26,-2065,372,-70,38,162,13886,4,-1,399,128,35789,18,31,127,0,0,3750,21,0,1120,25,57,10488,-4,0,54,12,195994,0
196006,-20,-2054,378,-63,41,165,13886,-4,-2,393,104,35787,39,31,127,0,0,3748,5,0,1120,25,57,10498,-4,0,54,12,195994,0
196016,-22,-2054,377,-70,36,162,13887,1,-6,402,128,35781,30,31,127,0,0,3757,71,0,1120,25,57,10508,-4,0,54,12,195994,0
196026,-7,-2050,371,-64,35,157,13893,11,12,444,168,35770,21,31,127,0,0,3751,60,0,1120,25,57,10518,-4,0,54,12,196025,0
196036,-10,-2046,376,-70,46,160,13905,36,17,434,144,35773,26,31,127,0,0,3758,21,0,1120,25,57,10528,-4,0,54,12,196041,0
196046,-25,-2055,377,-64,27,156,13932,68,33,291,96,35781,29,31,127,0,0,3755,38,0,1120,25,57,10538,-4,0,54,12,196041,0
196056,-9,-2056,365,-63,40,158,13953,33,17,220,72,35784,5,31,127,0,0,3757,-5,0,1120,25,57,10548,-4,0,54,12,196041,0
196066,-13,-2055,372,-71,34,151,13952,-7,-59,265,72,35777,-12,31,127,0,0,3760,60,0,1120,25,57,10558,-4,0,54,12,196057,0
196076,-22,-2059,376,-70,43,154,13958,15,-32,342,80,35776,-21,31,127,0,0,3759,-27,0,1120,25,57,10568,-4,0,54,12,196057,0
196086,-16,-2054,377,-72,40,159,13960,-7,13,267,48,35776,-7,31,127,0,0,3757,-16,0,1120,25,57,10578,-4,0,54,12,196088,0
196096,-21,-2062,370,-73,38,157,13963,15,-10,308,48,35788,-9,31,127,0,0,3760,-16,0,1120,25,57,10588,-4,0,54,12,196088,0
196106,-25,-2058,374,-70,31,162,13963,1,2,308,88,35792,-8,31,127,0,0,3761,38,0,1120,25,57,10598,-4,0,54,12,196088,0
196117,-22,-2060,373,-71,38,158,13974,33,14,277,40,35787,-15,31,127,0,0,3761,0,0,1120,25,57,10609,-4,0,54,12,196135,0
196127,-30,-2055,366,-70,37,160,13994,55,41,123,32,35790,-26,31,127,0,0,3761,10,0,1120,25,57,10619,-4,0,54,12,196135,0
196137,-19,-2058,363,-72,36,162,14006,0,0,89,-8,35786,-4,31,127,0,0,3763,0,0,1120,25,57,10629,-4,0,54,12,196135,0
196147,-40,-2052,371,-71,47,161,14005,2,-49,131,48,35793,-8,31,127,0,0,3761,-10,0,1120,25,57,10639,-4,0,54,12,196135,0
196157,-23,-2056,374,-69,39,156,14005,0,-12,141,32,35794,3,31,127,0,0,3766,21,0,1120,25,57,10649,-4,0,54,12,196135,0
196167,-30,-2052,373,-69,36,156,14006,-6,1,219,56,35797,8,31,127,0,0,3763,0,0,1120,25,57,10659,-4,0,54,12,196182,0
196177,-33,-2066,370,-66,37,152,14007,-3,1,208,56,35795,20,31,127,0,0,3763,-10,0,1120,25,57,10669,-4,0,54,12,196182,0
196187,-9,-2053,373,-69,32,158,14006,-21,-7,211,80,35800,20,31,127,0,0,3763,0,0,1120,25,57,10679,-4,0,54,12,196182,0
196197,-18,-2059,375,-67,40,142,14010,-7,-4,227,72,35797,8,31,127,0,0,3768,21,0,1120,25,57,10689,-4,0,54,12,196182,0
196207,-12,-2058,381,-70,31,151,14012,0,1,255,80,35791,30,31,127,0,0,3770,43,0,1120,25,57,10699,-4,0,54,12,196197,0
196217,-15,-2064,375,-72,40,150,14015,13,4,330,80,35793,43,31,127,0,0,3770,-10,0,1120,25,57,10709,-4,0,54,12,196213,0
196227,-39,-2055,365,-69,33,151,14016,6,1,348,80,35804,20,31,127,0,0,3770,0,0,1120,25,57,10719,-4,0,54,12,196213,0
196237,-22,-2056,365,-62,41,155,14016,1,-8,350,80,35814,-23,31,127,0,0,3770,0,0,1120,25,57,10729,-4,0,54,12,196228,0
196247,-15,-2060,373,-61,34,155,14017,4,2,360,112,35819,-25,31,127,0,0,3770,0,0,1120,25,57,10739,-4,0,54,12,196260,0
196257,-26,-2054,370,-67,39,157,14017,-2,3,360,112,35808,6,31,127,0,0,3772,21,0,1120,25,57,10749,-4,0,54,12,196260,0
196267,-25,-2056,372,-63,39,153,14018,3,0,399,104,35796,33,31,127,0,0,3772,0,0,1120,25,57,10759,-4,0,54,12,196260,0
196277,-39,-2051,386,-73,34,144,14021,11,3,433,120,35791,24,31,127,0,0,3774,10,0,1120,25,57,10769,-4,0,54,12,196260,0
196287,-46,-2061,401,-70,33,136,14022,0,-3,413,80,35786,14,31,127,0,0,3774,21,0,1120,25,57,10779,-4,0,54,12,196338,0
196297,-73,-2064,392,-82,24,117,14023,3,-5,420,112,35793,10,31,127,0,0,3772,-32,0,1120,25,57,10789,-4,0,54,12,196338,0
196307,-74,-2063,369,-85,29,98,14021,-9,-4,378,128,35796,21,31,127,0,0,3772,10,0,1120,25,57,10799,-4,0,54,12,196353,0
196317,-52,-2061,361,-80,29,80,14023,-8,0,339,104,35792,14,31,127,0,0,3772,21,0,1120,25,57,10809,-4,0,54,12,196353,0
196327,-45,-2056,380,-81,10,69,14023,1,0,335,104,35784,13,31,127,0,0,3772,10,0,1120,25,57,10819,-4,0,54,12,196353,0
196337,-49,-2059,397,-90,28,39,14022,-4,-5,306,72,35781,27,31,127,0,0,3770,10,0,1120,25,57,10829,-4,0,54,12,196353,0
196347,-71,-2053,394,-103,42,11,14022,-5,-4,277,32,35790,21,31,127,0,0,3766,-65,0,1120,25,57,10839,-4,0,54,12,196353,0
196357,-18,-2048,376,-100,58,-4,14011,-36,-22,82,72,35788,22,31,127,0,0,3761,10,0,1120,25,57,10849,-4,0,54,12,196353,0
196368,26,-2051,375,-93,61,14,14011,-10,-2,0,-24,35786,6,31,127,0,0,3759,-38,0,1120,25,57,10860,-4,0,54,12,196369,0
196378,54,-2065,374,-93,50,40,14007,-16,6,-153,-40,35786,12,31,127,0,0,3750,-49,0,1120,25,57,10870,-4,0,54,12,196369,0
196388,49,-2037,374,-92,52,60,14002,-1,-7,-212,-56,35798,21,31,127,0,0,3755,-10,0,1120,25,57,10880,-4,0,54,12,196400,0
196398,75,-2060,381,-96,33,81,13998,-26,3,-314,-96,35798,18,31,127,0,0,3747,-10,0,1120,25,57,10890,-4,0,54,12,196400,0
196408,411,-2151,250,-182,63,-124,13997,2,-2,-346,-136,35796,23,31,127,0,0,3746,-60,0,1120,25,57,10900,-4,0,54,12,196400,0
196418,342,-1954,148,-232,109,-668,13992,-18,1,-456,-248,35788,10,31,127,0,0,3725,-269,0,1120,25,57,10910,-4,0,54,12,196400,0
196428,25,-2023,302,-180,94,-283,13936,-194,-114,-641,-440,35779,15,31,127,0,0,3708,-170,0,1120,25,57,10920,-4,0,54,12,196431,0
196438,146,-2098,427,-90,-7,59,13810,-287,-249,-252,-240,35784,21,31,127,0,0,3704,-5,0,1120,25,57,10930,-4,0,54,12,196431,0
196448,318,-2122,353,-152,7,-130,13713,-157,-44,18,-24,35789,13,31,127,0,0,3701,-60,0,1120,25,57,10940,-4,0,54,12,196431,0
196458,217,-1992,200,-230,89,-600,13700,-14,245,-244,-184,35788,-9,31,127,0,0,3683,-219,0,1120,25,57,10950,-4,0,54,12,196463,0
196468,90,-1963,282,-235,92,-604,13658,-125,75,-511,-368,35795,-8,31,127,0,0,3656,-291,0,1120,25,57,10960,-4,0,54,12,196463,0
196478,269,-2136,442,-193,52,-422,13556,-250,-185,-433,-360,35795,-20,31,127,0,0,3635,-181,0,1120,25,57,10970,-4,0,54,12,196463,0
196488,352,-2113,327,-226,31,-470,13449,-238,-112,-361,-312,35794,-11,31,127,0,0,3623,-137,0,1120,25,57,10980,-4,0,54,12,196494,0
196498,295,-2053,188,-279,40,-673,13346,-215,8,-377,-336,35786,-26,31,127,0,0,3601,-203,0,1120,25,57,10990,-4,0,54,12,196494,0
196508,281,-1993,236,-267,87,-711,13236,-252,-6,-382,-376,35785,-13,31,127,0,0,3577,-208,0,1120,25,57,11000,-4,0,54,12,196494,0
196518,319,-2073,374,-212,64,-468,13127,-246,-12,-425,-384,35781,7,31,127,0,0,3558,-137,0,1120,25,57,11010,-4,0,54,12,196510,0
196528,434,-2043,394,-193,8,-336,13015,-249,-5,-306,-248,35781,24,31,127,0,0,3549,-71,0,1120,25,57,11020,-4,0,54,12,196525,0
196538,407,-2059,296,-235,-42,-281,12925,-163,36,-174,-128,35786,13,31,127,0,0,3546,-54,0,1120,25,57,11030,-4,0,54,12,196525,0
196548,292,-2055,208,-234,-37,-352,12881,-59,146,-136,-48,35793,-19,31,127,0,0,3537,-82,0,1120,25,57,11040,-4,0,54,12,196541,0
196558,238,-2099,150,-167,70,-392,12866,-48,142,-351,-136,35796,-22,31,127,0,0,3529,-104,0,1120,25,57,11050,-4,0,54,12,196541,0
196568,315,-2124,202,-116,61,-377,12827,-91,-12,-319,-168,35791,-34,31,127,0,0,3522,-131,0,1120,25,57,11060,-4,0,54,12,196572,0
196578,422,-2130,368,-106,-19,-296,12805,-45,-8,-501,-192,35794,-29,31,127,0,0,3512,-71,0,1120,25,57,11070,-4,0,54,12,196572,0
196588,335,-2136,423,-137,-60,-293,12773,-77,16,-490,-216,35786,-15,31,127,0,0,3500,-148,0,1120,25,57,11080,-4,0,54,12,196572,0
196598,159,-2104,384,-190,-42,-330,12735,-99,-33,-520,-232,35786,-4,31,127,0,0,3494,-82,0,1120,25,57,11090,-4,0,54,12,196588,0
196608,70,-2068,342,-190,-7,-386,12669,-147,-71,-334,-216,35796,-2,31,127,0,0,3483,-109,0,1120,25,57,11100,-4,0,54,12,196619,0
196619,32,-2073,339,-177,4,-421,12601,-122,-26,-374,-200,35810,-37,31,127,0,0,3471,-109,0,1120,25,57,11111,-4,0,54,12,196619,0
196629,128,-2023,316,-210,2,-486,12539,-136,11,-349,-208,35807,-21,31,127,0,0,3458,-131,0,1120,25,57,11121,-4,0,54,12,196619,0
196639,61,-2017,332,-213,15,-529,12473,-136,-14,-345,-216,35797,10,31,127,0,0,3443,-131,0,1120,25,57,11131,-4,0,54,12,196619,0
196649,129,-2037,287,-215,53,-563,12419,-113,20,-467,-296,35781,12,31,127,0,0,3427,-164,0,1120,25,57,11141,-4,0,54,12,196713,0
196659,228,-2067,316,-203,73,-575,12360,-123,2,-499,-352,35796,14,31,127,0,0,3407,-208,0,1120,25,57,11151,-4,0,54,12,196713,0
196669,238,-2033,366,-222,43,-525,12278,-196,-55,-438,-312,35792,25,31,127,0,0,3394,-142,0,1120,25,57,11161,-4,0,54,12,196713,0
196679,220,-2044,336,-216,43,-547,12190,-182,-51,-408,-312,35792,23,31,127,0,0,3377,-186,0,1120,25,57,11171,-4,0,54,12,196713,0
196689,198,-2037,316,-237,114,-538,12102,-205,-4,-429,-344,35782,5,31,127,0,0,3361,-153,0,1120,25,57,11181,-4,0,54,12,196728,0
196699,173,-2096,308,-253,165,-480,12017,-175,1,-482,-384,35788,-10,31,127,0,0,3344,-131,0,1120,25,57,11191,-4,0,54,12,196728,0
196709,176,-2037,273,-274,276,-374,11931,-194,6,-403,-272,35789,-6,31,127,0,0,3331,-87,0,1120,25,57,11201,-4,0,54,12,196728,0
196719,310,-2007,298,-226,210,-354,11854,-153,13,-378,-208,35789,3,31,127,0,0,3326,-32,0,1120,25,57,11211,-4,0,54,12,196728,0
196729,401,-2034,270,-179,90,-249,11787,-132,47,-284,-160,35787,13,31,127,0,0,3320,-43,0,1120,25,57,11221,-4,0,54,12,196728,0
196739,380,-2059,306,-168,35,-157,11746,-63,75,-277,-96,35789,4,31,127,0,0,3317,0,0,1120,25,57,11231,-4,0,54,12,196728,0
196749,268,-2079,385,-132,-51,-86,11737,-11,111,-301,-64,35793,12,31,127,0,0,3317,10,0,1120,25,57,11241,-4,0,54,12,196728,0
196759,204,-2104,373,-121,-76,-80,11731,-12,58,-178,0,35801,15,31,127,0,0,3320,0,0,1120,25,57,11251,-4,0,54,12,196791,0
196769,180,-2132,343,-135,-8,-99,11734,5,18,-128,-56,35812,24,31,127,0,0,3322,10,0,1120,25,57,11261,-4,0,54,12,196791,0
196779,156,-2081,295,-135,13,-114,11734,11,7,-72,-24,35810,16,31,127,0,0,3322,0,0,1120,25,57,11271,-4,0,54,12,196806,0
196789,155,-2031,273,-130,10,-134,11733,-1,-1,-97,-64,35799,7,31,127,0,0,3322,10,0,1120,25,57,11281,-4,0,54,12,196822,0
196799,156,-2060,288,-123,1,-141,11734,2,0,-82,-24,35791,3,31,127,0,0,3322,0,0,1120,25,57,11291,-4,0,54,12,196822,0
196809,122,-2061,335,-120,-2,-166,11734,1,2,-105,-16,35791,10,31,127,0,0,3324,32,0,1120,25,57,11301,-4,0,54,12,196838,0
196819,107,-2072,344,-127,7,-204,11735,-3,2,-95,-16,35794,10,31,127,0,0,3322,10,0,1120,25,57,11311,-4,0,54,12,196838,0
196829,146,-2067,338,-148,40,-239,11734,5,-1,-77,-24,35808,8,31,127,0,0,3324,21,0,1120,25,57,11321,-4,0,54,12,196838,0
196839,179,-2070,341,-155,41,-239,11735,0,3,-66,-16,35814,13,31,127,0,0,3320,-43,0,1120,25,57,11331,-4,0,54,12,196838,0
196849,232,-2038,320,-149,31,-262,11734,8,0,-81,-24,35817,18,31,127,0,0,3320,-32,0,1120,25,57,11341,-4,0,54,12,196838,0
196860,282,-2031,298,-147,27,-276,11732,-1,-2,-112,-40,35815,-1,31,127,0,0,3316,-38,0,1120,25,57,11352,-4,0,54,12,196853,0
196870,259,-2020,285,-130,16,-284,11730,-5,-2,-199,-104,35820,-5,31,127,0,0,3316,-43,0,1120,25,57,11362,-4,0,54,12,196853,0
196880,255,-2035,296,-118,11,-278,11712,-41,-27,-234,-104,35829,-6,31,127,0,0,3311,-27,0,1120,25,57,11372,-4,0,54,12,196900,0
196890,240,-2035,288,-114,-10,-258,11703,-7,-7,-323,-104,35816,-3,31,127,0,0,3312,16,0,1120,25,57,11382,-4,0,54,12,196900,0
196900,252,-2039,268,-111,-21,-236,11702,-11,33,-378,-104,35805,-14,31,127,0,0,3305,10,0,1120,25,57,11392,-4,0,54,12,196900,0
196910,240,-2041,239,-106,-9,-253,11702,-1,7,-421,-144,35797,-32,31,127,0,0,3304,-38,0,1120,25,57,11402,-4,0,54,12,196900,0
196920,251,-2068,238,-86,6,-250,11699,6,-3,-434,-136,35794,-27,31,127,0,0,3301,-71,0,1120,25,57,11412,-4,0,54,12,196900,0
196930,292,-2048,252,-66,25,-252,11693,-12,-7,-450,-104,35803,-23,31,127,0,0,3296,-54,0,1120,25,57,11422,-4,0,54,12,196931,0
196940,329,-2032,266,-58,39,-251,11691,-5,1,-491,-168,35806,-26,31,127,0,0,3300,-76,0,1120,25,57,11432,-4,0,54,12,196931,0
196950,294,-2045,288,-54,64,-245,11681,-27,-7,-491,-176,35815,-17,31,127,0,0,3298,-32,0,1120,25,57,11442,-4,0,54,12,196947,0
196960,317,-2035,313,-46,51,-237,11655,-61,-45,-366,-104,35811,-11,31,127,0,0,3296,-16,0,1120,25,57,11452,-4,0,54,12,196947,0
196970,336,-2001,315,-39,52,-246,11645,7,7,-320,-120,35809,-13,31,127,0,0,3295,-54,0,1120,25,57,11462,-4,0,54,12,196963,0
196980,388,-2014,324,-39,40,-233,11640,-23,46,-450,-160,35814,-22,31,127,0,0,3291,-27,0,1120,25,57,11472,-4,0,54,12,196994,0
196990,356,-1993,324,-36,34,-236,11638,0,3,-510,-184,35810,-16,31,127,0,0,3286,-65,0,1120,25,57,11482,-4,0,54,12,196994,0
197000,363,-2006,328,-31,29,-251,11629,-20,-3,-550,-208,35808,-1,31,127,0,0,3284,-82,0,1120,25,57,11492,-4,0,54,12,196994,0
197010,371,-2008,324,-29,19,-236,11610,-57,-33,-560,-200,35799,18,31,127,0,0,3279,-21,0,1120,25,57,11502,-4,0,54,12,196994,0
197020,355,-2018,319,-32,-4,-222,11563,-117,-80,-383,-176,35798,31,31,127,0,0,3272,-54,0,1120,25,57,11512,-4,0,54,12,197009,0
197030,351,-2028,309,-24,-18,-214,11512,-114,-50,-253,-144,35802,39,31,127,0,0,3266,-109,0,1120,25,57,11522,-4,0,54,12,197025,0
197040,300,-2031,308,-20,-10,-227,11495,-8,60,-416,-176,35803,23,31,127,0,0,3259,-104,0,1120,25,57,11532,-4,0,54,12,197056,0
197050,317,-2054,319,-27,-10,-214,11486,-43,81,-599,-232,35806,4,31,127,0,0,3253,-71,0,1120,25,57,11542,-4,0,54,12,197056,0
197060,310,-2021,309,-18,-15,-220,11449,-97,-55,-466,-200,35803,1,31,127,0,0,3248,-71,0,1120,25,57,11552,-4,0,54,12,197056,0
197070,276,-2010,281,-17,6,-260,11416,-80,-48,-526,-232,35800,-11,31,127,0,0,3239,-98,0,1120,25,57,11562,-4,0,54,12,197056,0
197080,339,-2027,283,-15,26,-299,11361,-119,-33,-369,-216,35811,-23,31,127,0,0,3231,-153,0,1120,25,57,11572,-4,0,54,12,197056,0
197090,358,-2014,292,-16,37,-346,11309,-94,-40,-396,-200,35824,-26,31,127,0,0,3218,-153,0,1120,25,57,11582,-4,0,54,12,197103,0
197100,312,-2040,315,-16,36,-339,11278,-78,56,-617,-296,35825,-5,31,127,0,0,3210,-142,0,1120,25,57,11592,-4,0,54,12,197103,0
197110,290,-2068,377,-9,51,-339,11218,-140,-19,-479,-248,35817,15,31,127,0,0,3197,-93,0,1120,25,57,11602,-4,0,54,12,197103,0
197120,359,-2091,390,-24,43,-336,11158,-131,-64,-371,-240,35800,-7,31,127,0,0,3192,-104,0,1120,25,57,11612,-4,0,54,12,197103,0
197131,359,-2056,399,-29,36,-357,11094,-112,13,-364,-176,35797,-29,31,127,0,0,3181,-98,0,1120,25,57,11623,-4,0,54,12,197119,0
197141,346,-2069,377,-46,11,-364,11039,-101,25,-350,-120,35801,-22,31,127,0,0,3175,-65,0,1120,25,57,11633,-4,0,54,12,197134,0
197151,367,-2085,351,-29,11,-375,11003,-91,44,-370,-144,35803,-1,31,127,0,0,3164,-76,0,1120,25,57,11643,-4,0,54,12,197134,0
197161,303,-2096,330,-33,7,-382,10975,-55,39,-463,-176,35807,12,31,127,0,0,3157,-54,0,1120,25,57,11653,-4,0,54,12,197150,0
197171,315,-2146,356,-34,2,-387,10933,-106,-10,-350,-120,35819,0,31,127,0,0,3150,-76,0,1120,25,57,11663,-4,0,54,12,197166,0
197181,324,-2153,345,-23,8,-413,10908,-34,0,-472,-168,35815,-10,31,127,0,0,3146,-54,0,1120,25,57,11673,-4,0,54,12,197166,0
197191,324,-2125,333,-35,19,-448,10890,-49,52,-445,-184,35823,-12,31,127,0,0,3144,-32,0,1120,25,57,11683,-4,0,54,12,197213,0
197201,253,-2087,338,-31,11,-500,10870,-32,3,-440,-128,35808,0,31,127,0,0,3137,-76,0,1120,25,57,11693,-4,0,54,12,197228,0
197211,251,-2145,340,-33,-5,-514,10864,-19,29,-636,-208,35801,-5,31,127,0,0,3135,-21,0,1120,25,57,11703,-4,0,54,12,197228,0
197221,270,-2143,387,-2,5,-541,10852,-22,10,-576,-184,35793,9,31,127,0,0,3135,0,0,1120,25,57,11713,-4,0,54,12,197228,0
197231,298,-2085,378,-20,2,-590,10843,-32,-2,-549,-160,35793,18,31,127,0,0,3133,-21,0,1120,25,57,11723,-4,0,54,12,197228,0
197241,302,-2046,348,-54,-9,-669,10814,-85,-43,-372,-128,35800,13,31,127,0,0,3133,-10,0,1120,25,57,11733,-4,0,54,12,197244,0
197251,312,-2008,288,-46,-15,-732,10787,-32,-35,-293,-96,35818,-14,32,127,0,0,3128,-21,0,1120,25,57,11743,-4,0,54,12,197244,0
197261,387,-1988,249,-29,-68,-778,10776,-30,49,-391,-120,35836,-24,31,127,0,0,3124,-32,0,1120,25,57,11753,-4,0,54,12,197259,0
197271,396,-2036,299,-14,-97,-785,10746,-84,-20,-329,-120,35834,-20,31,127,0,0,3117,-21,0,1120,25,57,11763,-4,0,54,12,197259,0
197281,391,-2100,331,-26,-98,-840,10732,-6,-5,-385,-112,35817,-9,31,127,0,0,3113,-32,0,1120,25,57,11773,-4,0,54,12,197259,0
197291,437,-2097,309,-38,-84,-860,10732,-13,68,-454,-168,35811,-12,31,127,0,0,3113,-10,0,1120,25,57,11783,-4,0,54,12,197291,0
197301,400,-2024,215,-35,-106,-883,10732,0,15,-496,-192,35816,-4,31,127,0,0,3111,0,0,1120,25,57,11793,-4,0,54,12,197291,0
197311,335,-1996,163,-3,-118,-927,10730,-1,0,-486,-152,35813,10,31,127,0,0,3113,0,0,1120,25,57,11803,-4,0,54,12,197291,0
197321,308,-1996,154,20,-109,-1023,10732,0,2,-460,-160,35812,12,31,127,0,0,3111,-21,0,1120,25,57,11813,-4,0,54,12,197322,0
197331,399,-1963,220,6,-24,-1129,10730,-4,-3,-493,-184,35800,-1,31,127,0,0,3109,-54,0,1120,25,57,11823,-4,0,54,12,197322,0
197341,442,-1838,291,-68,84,-1289,10722,-36,-17,-623,-232,35805,-18,31,127,0,0,3100,-65,0,1120,25,57,11833,-4,0,54,12,197338,0
197351,565,-1906,326,-122,110,-1315,10687,-112,-79,-602,-288,35796,-9,31,127,0,0,3084,-142,0,1120,25,57,11843,-4,0,54,12,197338,0
197362,700,-1958,444,-116,57,-1280,10605,-189,-134,-477,-328,35793,-1,31,127,0,0,3069,-137,0,1120,25,57,11854,-4,0,54,12,197369,0
197372,759,-1951,536,-105,-25,-1227,10522,-171,-76,-437,-272,35792,-6,31,127,0,0,3048,-164,0,1120,25,57,11864,-4,0,54,12,197369,0
197382,843,-1903,521,-60,-140,-1174,10457,-148,25,-465,-248,35795,-24,31,127,0,0,3044,-109,0,1120,25,57,11874,-4,0,54,12,197369,0
197392,786,-1866,492,-64,-204,-1140,10397,-131,33,-406,-232,35799,-24,31,127,0,0,3030,-115,0,1120,25,57,11884,-4,0,54,12,197400,0
197402,879,-1892,445,-117,-214,-1107,10340,-147,9,-381,-208,35798,-25,31,127,0,0,3024,-87,0,1120,25,57,11894,-4,0,54,12,197400,0
197412,849,-1873,397,-126,-213,-1083,10281,-137,-5,-370,-200,35801,-28,31,127,0,0,3016,-71,0,1120,25,57,11904,-4,0,54,12,197400,0
197422,786,-1902,305,-145,-203,-851,10229,-115,17,-348,-144,35801,-46,31,127,0,0,3005,-71,0,1120,25,57,11914,-4,0,54,12,197416,0
197432,941,-2023,329,-161,-187,-744,10186,-78,31,-266,-72,35799,-28,31,127,0,0,3003,-32,0,1120,25,57,11924,-4,0,54,12,197431,0
197442,1056,-1947,331,-165,-134,-702,10167,-39,61,-176,-32,35797,-6,31,127,0,0,3006,5,0,1120,25,57,11934,-4,0,54,12,197447,0
197452,1072,-1823,295,-195,-127,-608,10168,9,79,-171,-56,35790,9,31,127,0,0,3008,-27,0,1120,25,57,11944,-4,0,54,12,197462,0
197462,1003,-1775,229,-171,-144,-378,10167,2,37,-121,-32,35792,-4,31,127,0,0,3010,16,0,1120,25,57,11954,-4,0,54,12,197462,0
197472,986,-1870,233,-138,-174,-258,10170,9,4,-8,8,35787,-18,31,127,0,0,3014,5,0,1120,25,57,11964,-4,0,54,12,197462,0
197482,941,-1917,311,-140,-212,-163,10173,13,4,155,88,35795,-10,31,127,0,0,3026,126,0,1120,25,57,11974,-4,0,54,12,197462,0
197492,844,-1910,344,-156,-248,-88,10200,80,53,334,168,35794,-17,31,127,0,0,3043,186,0,1120,25,57,11984,-4,0,54,12,197494,0
197502,681,-1970,273,-185,-283,12,10258,128,114,343,208,35797,-10,31,127,0,0,3052,142,0,1120,25,57,11994,-4,0,54,12,197494,0
197512,613,-2020,236,-182,-275,15,10332,161,76,310,232,35797,-22,31,127,0,0,3072,142,0,1120,25,57,12004,-4,0,54,12,197494,0
197522,543,-2013,269,-187,-248,-101,10413,183,36,360,312,35796,-15,31,127,0,0,3097,241,0,1120,25,57,12014,-4,0,54,12,197541,0
197532,421,-2022,333,-212,-241,-180,10516,236,54,298,248,35791,-31,31,127,0,0,3115,175,0,1120,25,57,12024,-4,0,54,12,197541,0
197542,375,-2070,429,-265,-213,-301,10625,226,53,265,208,35790,-42,31,127,0,0,3133,159,0,1120,25,57,12034,-4,0,54,12,197556,0
197552,417,-2051,449,-313,-188,-427,10707,178,-50,327,224,35788,-50,31,127,0,0,3149,126,0,1120,25,57,12044,-4,0,54,12,197556,0
197562,453,-2025,433,-369,-191,-592,10784,141,-54,295,200,35787,-42,31,127,0,0,3162,142,0,1120,25,57,12054,-4,0,54,12,197556,0
197572,502,-2011,434,-389,-196,-703,10840,104,-60,356,208,35787,-36,31,127,0,0,3176,120,0,1120,25,57,12064,-4,0,54,12,197556,0
197582,564,-2002,403,-414,-240,-808,10910,175,-11,301,184,35788,-6,31,127,0,0,3180,43,0,1120,25,57,12074,-4,0,54,12,197587,0
197592,651,-2017,394,-443,-286,-876,10980,132,31,279,128,35789,-1,31,127,0,0,3199,54,0,1120,25,57,12084,-4,0,54,12,197587,0
197602,582,-1976,392,-460,-317,-961,11032,106,-49,298,136,35791,-5,31,127,0,0,3210,109,0,1120,25,57,12094,-4,0,0,0,197587,0
197613,638,-2007,363,-499,-325,-1036,11084,113,-26,311,160,35796,-13,31,127,0,0,3218,109,0,1120,25,57,12105,-4,0,0,0,197603,0
197623,692,-1988,327,-527,-304,-1100,11124,98,-13,372,168,35792,-2,31,127,0,0,3227,76,0,1120,25,57,12115,-4,0,0,0,197634,0
197633,761,-1939,264,-569,-297,-1110,11168,79,-10,365,192,35796,-16,31,127,0,0,3236,131,0,1120,25,57,12125,-4,0,0,0,197634,0
197643,737,-1912,246,-574,-313,-1130,11224,137,29,377,208,35793,-29,31,127,0,0,3247,76,0,1120,25,57,12135,-4,0,0,0,197634,0
197653,752,-1890,209,-532,-392,-1164,11287,144,45,306,224,35786,-44,31,127,0,0,3260,131,0,1120,25,57,12145,-4,0,0,0,197634,0
197663,680,-1891,164,-506,-412,-1210,11358,159,28,296,160,35789,-12,31,127,0,0,3273,142,0,1120,25,57,12155,-4,0,0,0,197666,0
197673,630,-1939,193,-524,-386,-1294,11413,110,-21,405,200,35793,-19,31,127,0,0,3287,109,0,1120,25,57,12165,-4,0,0,0,197666,0
197683,653,-1950,231,-517,-372,-1375,11465,149,-35,413,248,35796,-31,31,127,0,0,3295,98,0,1120,25,57,12175,-4,0,0,0,197666,0
197693,748,-1946,180,-488,-418,-1434,11540,169,52,359,216,35795,-49,31,127,0,0,3313,98,0,1120,25,57,12185,-4,0,0,0,197681,0
197703,745,-1948,190,-483,-472,-1472,11603,137,10,373,216,35794,-38,31,127,0,0,3324,131,0,1120,25,57,12195,-4,0,0,0,197697,0
197713,697,-1986,259,-459,-530,-1512,11675,168,-2,356,232,35798,-29,31,127,0,0,3339,153,0,1120,25,57,12205,-4,0,0,0,197697,0
197723,727,-1983,302,-440,-564,-1574,11756,168,31,382,304,35797,-39,31,127,0,0,3359,197,0,1120,25,57,12215,-4,0,0,0,197712,0
197733,683,-1922,341,-456,-651,-1688,11839,183,11,425,336,35794,-42,31,127,0,0,3377,164,0,1120,25,57,12225,-4,0,0,0,197744,0
197743,676,-1943,345,-478,-691,-1769,11931,212,23,386,360,35796,-32,31,127,0,0,3401,208,0,1120,25,57,12235,-4,0,0,0,197744,0
197753,650,-1952,348,-524,-712,-1910,12034,229,40,420,312,35789,-28,31,127,0,0,3421,175,0,1120,25,57,12245,-4,0,0,0,197744,0
197763,679,-1935,348,-550,-732,-1977,12139,211,24,378,368,35788,-20,31,127,0,0,3440,230,0,1120,25,57,12255,-4,0,0,0,197759,0
197773,764,-1886,342,-572,-798,-2138,12236,219,-18,442,392,35791,-40,31,127,0,0,3462,208,0,1120,25,57,12265,-4,0,0,0,197775,0
197783,854,-1835,325,-599,-882,-2186,12336,208,-9,400,408,35801,-17,31,127,0,0,3484,252,0,1120,25,57,12275,-4,0,0,0,197775,0
197793,986,-1735,316,-745,-842,-2225,12443,252,17,445,440,35802,-6,31,127,0,0,3506,219,0,1120,25,57,12285,-4,0,0,0,197791,0
197803,973,-1923,308,-801,-983,-2126,12559,249,33,422,448,35795,2,31,127,0,0,3537,296,0,1120,25,57,12295,-4,0,1,0,197806,0
197813,361,-1881,346,-812,-1287,-1837,12674,270,10,471,496,35794,-10,31,127,0,0,3570,373,0,1120,25,57,12305,-4,0,1,0,197806,0
197823,614,-1890,105,-898,-1052,-1750,12807,319,44,576,848,35797,-23,31,127,0,0,3636,725,0,1120,25,57,12315,-4,0,1,0,197837,0
197833,698,-2487,243,-1218,-720,-2563,12994,452,149,670,1096,35799,-32,31,127,0,0,3678,362,0,1120,25,57,12325,-4,0,2,0,197837,0
197843,-24,-2591,626,-1238,-743,-2101,13208,467,156,429,920,35791,-29,31,127,0,0,3715,428,0,1120,25,57,12335,-4,0,2,0,197837,0
197853,856,-2984,635,-1483,-834,-2157,13423,489,41,587,1304,35786,-35,31,127,0,0,3794,791,0,1120,25,57,12345,-4,0,3,0,197837,0
197864,840,-3066,559,-1550,-900,-2514,13717,634,126,688,1600,35779,-19,31,127,0,0,3871,686,0,1120,25,57,12356,-4,0,3,0,197853,0
197874,529,-2606,346,-1366,-1226,-2509,14031,710,189,621,1776,35790,-3,31,127,0,0,3949,791,0,1120,25,57,12366,-4,0,4,0,197869,0
197884,636,-2700,175,-1227,-1395,-2536,14391,815,165,622,1992,35788,7,31,127,0,0,4040,911,0,1120,25,57,12376,-4,0,5,0,197869,0
197894,672,-3240,289,-1135,-1312,-2975,14792,910,164,578,2056,35785,1,31,127,0,0,4126,807,0,1120,25,57,12386,-4,0,6,0,197884,0
197904,547,-3223,551,-1077,-1325,-3119,15207,908,98,481,2080,35793,-17,32,127,0,0,4209,845,0,1120,25,57,12396,-4,0,7,0,197900,0
197914,502,-3033,656,-1164,-1350,-3105,15620,913,11,567,2176,35788,-2,31,127,0,0,4297,922,0,1120,25,57,12406,-4,0,9,0,197900,0
197924,507,-3008,620,-1233,-1422,-3185,16047,951,30,653,2352,35794,15,31,127,0,0,4393,911,0,1120,25,57,12416,-4,0,10,0,197900,0
197934,448,-3001,278,-1284,-1561,-3262,16496,1014,78,672,2496,35775,29,31,127,0,0,4498,1010,0,1120,25,57,12426,-4,0,12,0,197931,0
197944,444,-2978,172,-1303,-1619,-3249,16968,1045,87,609,2544,35774,13,31,127,0,0,4596,983,0,1120,25,57,12436,-4,0,14,0,197947,0
197954,312,-2772,185,-1279,-1709,-2930,17455,1083,66,639,2728,35773,10,31,127,0,0,4701,1076,0,1120,25,57,12446,-4,0,16,0,197947,0
197964,282,-2465,284,-1324,-1707,-2555,17974,1171,92,728,2952,35778,13,31,127,0,0,4830,1274,0,1120,25,57,12456,-4,0,18,0,197947,0
197974,191,-1890,413,-1447,-1617,-1946,18544,1298,168,834,3296,35784,33,31,127,0,0,4972,1483,0,1120,25,57,12466,-4,0,21,0,197978,0
197984,30,-1407,346,-1433,-1334,-1554,19178,1430,228,864,3712,35786,35,31,127,0,0,5133,1642,0,1120,25,57,12476,-4,0,23,0,197978,0
197994,1127,-1282,-263,-1293,763,-1804,19876,1575,247,807,3984,35784,39,31,127,0,0,5272,1334,0,1120,25,57,12486,-4,0,26,0,197978,0
198004,358,-1001,-333,-1090,2067,-2797,20579,1477,110,141,2800,35778,46,31,127,0,0,5251,-357,0,1120,25,57,12496,-4,0,28,0,197994,0
198014,460,-1362,-88,-629,3268,-3492,21138,1099,-322,-371,536,35772,34,31,127,0,0,5113,-1444,0,1120,25,57,12506,-4,0,32,0,197994,0
198024,743,-1379,259,-480,3519,-3260,21225,-357,-1281,-2517,-1632,35780,-9,31,127,0,0,4930,-1834,0,1120,25,57,12516,-4,0,34,0,198056,0
198034,593,-1330,441,-365,3604,-2839,20863,-947,-1800,-1225,-2960,35790,-11,31,127,0,0,4735,-1928,0,1120,25,57,12526,-4,0,37,0,198056,0
198044,752,-1408,422,-329,3314,-2207,20291,-1374,-1149,-942,-3736,35783,14,31,127,0,0,4572,-1598,0,1120,25,57,12536,-4,0,40,0,198072,0
198054,905,-1360,398,-266,2682,-1160,19594,-1581,-643,-532,-3800,35770,52,31,127,0,0,4449,-1203,0,1120,25,57,12546,-4,0,43,0,198072,0
198064,1016,-1322,337,-196,2320,-446,18868,-1585,-294,-232,-3432,35761,53,31,127,0,0,4349,-944,0,1120,25,57,12556,-4,0,46,0,198072,0
198074,1120,-1254,212,-25,1901,506,18184,-1455,27,-89,-2872,35760,16,31,127,0,0,4276,-758,0,1120,25,57,12566,-4,0,49,57,198072,0
198084,1209,-1184,113,83,1681,1030,17582,-1265,236,-54,-2408,35772,1,31,127,0,0,4204,-747,0,1120,25,57,12576,-4,0,52,53,198072,0
198094,1270,-974,30,196,1395,1725,17067,-1080,329,-124,-2216,35783,-12,31,127,0,0,4117,-884,0,1120,25,57,12586,-4,0,56,49,198072,0
198104,1344,-913,31,244,1245,2155,16604,-1002,276,-316,-2336,35798,-14,31,127,0,0,4004,-1192,0,1120,25,57,12596,-4,0,58,46,198134,0
198114,1377,-819,63,318,1127,2721,16126,-1090,68,-611,-2792,35808,-28,31,127,0,0,3857,-1472,0,1120,25,57,12606,-4,0,62,41,198150,0
198124,1262,-743,81,322,987,3186,15613,-1319,-219,-818,-3464,35810,-16,31,127,0,0,3684,-1702,0,1120,25,57,12616,-4,0,65,39,198150,0
198134,1090,-778,136,239,603,4091,14923,-1592,-439,-731,-3952,35799,13,31,127,0,0,3515,-1647,0,1120,25,57,12626,-4,0,68,35,198150,0
198144,1008,-872,205,203,317,4767,14153,-1717,-386,-492,-4016,35778,40,31,127,0,0,3360,-1488,0,1120,25,57,12636,-4,0,71,32,198165,0
198154,951,-1117,218,187,-23,5751,13382,-1667,-120,-303,-3784,35770,36,31,127,0,0,3251,-1060,0,1120,25,57,12646,-4,0,74,29,198165,0
198164,930,-1290,210,233,-99,6287,12674,-1502,144,-194,-3400,35780,10,31,127,0,0,3159,-834,0,1120,25,57,12656,-4,0,77,26,198165,0
198175,875,-1425,227,357,-20,6821,11984,-1320,280,-167,-2832,35784,3,31,127,0,0,3067,-823,0,1120,25,57,12667,-4,0,81,23,198181,0
198185,808,-1426,214,440,76,7201,11436,-1163,288,-242,-2560,35785,12,31,127,0,0,2992,-714,0,1120,25,57,12677,-4,0,85,20,198181,0
198195,767,-1490,196,448,55,7501,10945,-1040,248,-248,-2224,35774,20,31,127,0,0,2928,-637,0,1120,25,57,12687,-4,0,87,18,198181,0
198205,812,-1724,162,508,8,7974,10510,-911,215,-250,-1760,35785,10,31,127,0,0,2891,-373,0,1120,25,57,12697,-4,0,91,15,198212,0
198215,834,-1884,169,623,62,8203,10147,-753,250,-186,-1248,35797,-5,31,127,0,0,2878,-109,0,1120,25,57,12707,-4,0,94,14,198212,0
198225,797,-2036,224,865,249,8323,9866,-556,303,-166,-760,35795,-9,31,127,0,0,2874,-65,0,1120,25,57,12717,-4,0,98,11,198212,0
198235,817,-2114,285,973,433,8352,9668,-390,321,-224,-376,35783,-19,31,127,0,0,2871,-21,0,1120,25,57,12727,-4,0,101,10,198228,0
198245,833,-2232,419,1070,772,8333,9543,-239,288,-147,-72,35781,-53,31,127,0,0,2871,-10,0,1120,25,57,12737,-4,0,105,8,198228,0
198255,697,-2322,366,1157,1022,8329,9498,-33,292,-38,8,35798,-60,31,127,0,0,2878,98,0,1120,25,57,12747,-4,0,107,7,198259,0
198265,777,-2461,207,1256,1383,8473,9520,56,280,159,144,35804,-48,31,127,0,0,2906,329,0,1120,25,57,12757,-4,0,111,6,198259,0
198275,752,-2459,154,1346,1666,8500,9580,185,185,494,416,35791,-25,31,127,0,0,2950,461,0,1120,25,57,12767,-4,0,114,5,198259,0
198285,762,-2387,137,1468,2081,8393,9712,343,223,458,712,35778,-27,31,127,0,0,3001,505,0,1120,25,57,12777,-4,0,118,4,198290,0
198295,775,-2355,200,1498,2243,8342,9892,401,225,409,864,35775,-23,31,127,0,0,3065,637,0,1120,25,57,12787,-4,0,121,3,198290,0
198305,796,-2335,262,1459,2290,8285,10097,470,125,515,1104,35781,-14,31,127,0,0,3135,703,0,1120,25,57,12797,-4,0,125,2,198290,0
198315,880,-2399,287,1436,2273,8237,10345,567,138,513,1344,35772,-2,31,127,0,0,3212,780,0,1120,25,57,12807,-4,0,127,2,198306,0
198325,958,-2532,240,1451,2209,8012,10635,669,165,507,1584,35771,-24,31,127,0,0,3280,648,0,1120,25,57,12817,-4,0,131,1,198322,0
198335,988,-2554,237,1470,2128,7826,10951,699,128,420,1488,35777,-37,31,127,0,0,3328,428,0,1120,25,57,12827,-4,0,133,1,198322,0
198345,913,-2519,256,1451,1929,7634,11262,660,21,262,1264,35789,-38,31,127,0,0,3361,318,0,1120,25,57,12837,-4,0,137,1,198337,0
198355,872,-2477,259,1394,1750,7523,11535,570,-99,255,976,35787,-23,31,127,0,0,3388,263,0,1120,25,57,12847,-4,0,139,1,198337,0
198366,796,-2459,238,1318,1456,7311,11786,481,-156,231,656,35783,-12,31,127,0,0,3393,98,0,1120,25,57,12858,-4,0,142,1,198369,0
198376,751,-2455,220,1285,1240,7131,11967,371,-162,179,336,35787,-29,31,127,0,0,3398,10,0,1120,25,57,12868,-4,0,144,1,198369,0
198386,714,-2441,201,1255,880,6967,12091,236,-194,20,64,35782,-40,31,127,0,0,3399,0,0,1120,25,57,12878,-4,0,146,1,198384,0
198396,649,-2379,211,1248,663,6834,12111,-38,-320,41,24,35782,-44,31,127,0,0,3399,21,0,1120,25,57,12888,-4,0,148,1,198384,0
198406,579,-2291,201,1219,272,6522,12093,-17,-270,193,40,35775,-29,31,127,0,0,3400,49,0,1120,25,57,12898,-4,0,150,1,198415,0
198416,594,-2266,192,1192,47,6317,12098,-3,6,156,48,35784,-27,31,127,0,0,3399,32,0,1120,25,57,12908,-4,0,151,1,198415,0
198426,541,-2261,169,1180,-299,5969,12098,1,20,139,48,35784,-38,31,127,0,0,3399,49,0,1120,25,57,12918,-4,0,153,1,198415,0
198436,481,-2247,157,1177,-518,5688,12099,0,-1,201,48,35788,-37,31,127,0,0,3402,32,0,1120,25,57,12928,-4,0,154,1,198415,0
198446,436,-2195,171,1166,-828,5154,12101,6,2,283,72,35777,-28,31,127,0,0,3407,60,0,1120,25,57,12938,-4,0,155,1,198447,0
198456,386,-2160,164,1145,-1003,4722,12103,9,2,348,64,35779,-32,31,127,0,0,3401,-32,0,1120,25,57,12948,-4,0,156,2,198447,0
198466,338,-2170,189,1046,-1186,4034,12103,7,-5,305,88,35780,-46,31,127,0,0,3406,10,0,1120,25,57,12958,-4,0,157,2,198447,0
198476,301,-2172,208,948,-1276,3516,12105,4,4,354,104,35785,-50,31,127,0,0,3405,27,0,1120,25,57,12968,-4,0,157,2,198540,0
198486,240,-2149,177,775,-1312,2617,12105,-3,0,313,56,35775,-36,31,127,0,0,3401,-38,0,1120,25,57,12978,-4,0,157,2,198540,0
198496,222,-2104,133,627,-1225,1915,12102,-4,-12,196,16,35772,-36,31,127,0,0,3396,-54,0,1120,25,57,12988,-4,0,157,2,198540,0
198506,188,-2082,103,391,-933,871,12096,-18,-12,-40,-80,35772,-38,31,127,0,0,3382,-170,0,1120,25,57,12998,-4,0,157,2,198556,0
198516,258,-2076,76,213,-680,192,12072,-55,-46,-358,-192,35766,-28,31,127,0,0,3367,-208,0,1120,25,57,13008,-4,0,157,1,198556,0
198526,316,-2036,4,-24,-181,-771,12036,-111,-59,-571,-296,35767,-23,31,127,0,0,3348,-137,0,1120,25,57,13018,-4,0,157,1,198556,0
198536,354,-1995,-21,-143,203,-1417,11957,-192,-112,-399,-328,35761,-11,31,127,0,0,3327,-247,0,1120,25,57,13028,-4,0,156,1,198556,0
198546,451,-1897,-71,-259,809,-2347,11862,-213,-108,-423,-416,35760,-27,31,127,0,0,3307,-269,0,1120,25,57,13038,-4,0,155,1,198556,0
198556,548,-1829,-102,-324,1210,-2872,11745,-277,-70,-417,-464,35761,-32,31,127,0,0,3275,-274,0,1120,25,57,13048,-4,0,154,1,198556,0
198566,-746,-8484,712,-1225,1287,-1147,11615,-269,-70,336,640,35764,-28,31,127,0,0,3439,2010,0,1100,201,58,6,1,0,153,0,198556,0
198576,-238,-1084,3325,826,1879,-1211,11829,765,706,1611,2680,35764,-1,31,127,0,0,3649,2010,0,1100,201,58,16,1,0,152,0,198556,0
198586,-1122,-1291,1000,541,-428,-1514,12335,1190,1277,879,3296,35753,30,31,127,0,0,3799,1532,0,1100,201,58,26,1,0,151,0,198587,0
198596,-515,-1728,307,83,-984,-768,12956,1468,683,1103,4216,35756,35,31,127,0,0,4015,2164,0,1100,201,58,36,1,0,150,0,198587,0
198606,-835,-1627,-746,-619,-1132,-1549,13752,1864,569,930,4768,35749,70,31,127,0,0,4208,1928,0,1100,201,58,46,1,0,149,0,198587,0
198617,-1110,-2573,-968,-231,-829,-2268,14762,2055,537,555,4760,35745,76,31,127,0,0,4390,1625,0,1100,201,58,57,1,0,147,0,198618,0
198627,-1039,-2568,-613,11,-819,-2374,15673,1957,139,355,4456,35732,85,31,127,0,0,4526,1340,0,1100,201,58,67,1,0,146,0,198618,0
198637,-340,-2214,-6,89,-1322,-2537,16509,1783,-196,315,4032,35745,61,31,127,0,0,4647,1197,0,1100,201,58,77,1,0,145,0,198634,0
198647,-110,-2411,296,5,-1410,-2612,17264,1617,-306,325,3720,35763,41,31,127,0,0,4748,1021,0,1100,201,58,87,1,0,144,0,198634,0
198657,18,-2176,498,-35,-1234,-2993,17954,1476,-265,302,3216,35759,17,31,127,0,0,4825,747,0,1100,201,58,97,1,0,142,0,198650,0
198667,-116,-2540,956,14,-895,-3303,18566,1279,-277,195,2496,35747,22,31,127,0,0,4862,296,0,1100,201,58,107,1,0,141,0,198650,0
198677,-266,-1772,1115,68,-456,-3521,19063,1005,-384,65,1536,35748,27,31,127,0,0,4862,-10,0,1100,201,58,117,1,0,139,0,198712,0
198687,145,-2012,1162,-176,-91,-3536,19418,686,-500,24,752,35754,5,31,127,0,0,4853,-109,0,1100,201,58,127,1,0,138,0,198712,0
198697,325,-2031,1232,-306,-108,-3620,19637,397,-536,-34,24,35759,-28,31,127,0,0,4822,-329,0,1100,201,58,137,1,0,137,0,198712,0
198707,384,-2086,1030,-500,-269,-3500,19642,-155,-681,-614,-440,35761,-24,31,127,0,0,4779,-439,0,1100,201,58,147,1,0,135,0,198712,0
198717,329,-2335,888,-509,-48,-3644,19492,-356,-710,-395,-744,35759,-15,31,127,0,0,4710,-747,0,1100,201,58,157,1,0,133,0,198728,0
198727,-228,-1905,467,-563,-13,-3699,19290,-497,-345,-535,-1368,35761,-10,31,127,0,0,4618,-966,0,1100,201,58,167,1,0,132,0,198728,0
198737,36,-1988,347,-616,139,-3800,19000,-689,-278,-623,-1856,35759,-15,31,127,0,0,4521,-999,0,1100,201,58,177,1,0,130,0,198728,0
198747,5,-1765,69,-661,143,-3705,18629,-857,-322,-609,-2224,35762,-19,31,127,0,0,4409,-1175,0,1100,201,58,187,1,0,129,0,198728,0
198757,6,-2026,38,-507,5,-3253,18182,-1031,-295,-528,-2400,35772,-14,31,127,0,0,4308,-1010,0,1100,201,58,197,1,0,127,0,198759,0
198767,-9,-2059,50,-417,-16,-3146,17700,-1066,-204,-415,-2440,35775,-7,31,127,0,0,4214,-944,0,1100,201,58,207,1,0,126,0,198759,0
198777,-117,-2028,226,-295,66,-3200,17214,-1066,-57,-364,-2400,35772,5,31,127,0,0,4124,-922,0,1100,201,58,217,1,0,124,0,198759,0
198787,-53,-1978,474,-228,122,-3128,16737,-1050,14,-391,-2480,35760,19,31,127,0,0,4031,-955,0,1100,201,58,227,1,0,124,0,198775,0
198797,233,-1973,687,-201,86,-2832,16258,-1051,12,-349,-2352,35765,32,31,127,0,0,3944,-867,0,1100,201,58,237,1,0,124,0,198775,0
198807,432,-1968,744,-246,8,-2671,15780,-1046,-2,-322,-2264,35780,25,31,127,0,0,3867,-758,0,1100,201,58,247,1,0,124,0,198822,0
198817,400,-1908,625,-328,-105,-2490,15316,-1011,34,-292,-2128,35785,33,31,127,0,0,3794,-725,0,1100,201,58,257,1,0,124,0,198822,0
198827,215,-1836,507,-351,-136,-2348,14872,-955,66,-283,-2008,35776,24,31,127,0,0,3724,-670,0,1100,201,58,267,1,0,124,0,198822,0
198837,156,-1889,335,-305,-97,-2156,14454,-905,96,-301,-1872,35761,13,31,127,0,0,3662,-626,0,1100,201,58,277,1,0,124,0,198837,0
198847,283,-1888,331,-245,-48,-2146,14065,-833,107,-298,-1704,35760,-14,31,127,0,0,3601,-582,0,1100,201,58,287,1,0,124,0,198837,0
198857,454,-1896,368,-208,-8,-2106,13703,-783,106,-293,-1632,35772,-22,31,127,0,0,3535,-648,0,1100,201,58,297,1,0,124,0,198837,0
198868,522,-1959,429,-183,-48,-1935,13328,-731,82,-325,-1544,35792,-6,31,127,0,0,3471,-609,0,1100,201,58,308,1,0,124,0,198853,0
198878,558,-2020,520,-171,-136,-1642,13010,-682,82,-327,-1456,35803,15,31,127,0,0,3426,-455,0,1100,201,58,318,1,0,124,0,198900,0
198888,554,-2029,527,-179,-162,-1575,12716,-616,87,-317,-1304,35798,26,31,127,0,0,3379,-411,0,1100,201,58,328,1,0,124,0,198900,0
198898,440,-1996,470,-210,-138,-1526,12444,-592,92,-363,-1288,35801,33,31,127,0,0,3332,-422,0,1100,201,58,338,1,0,124,0,198900,0
198908,360,-1969,413,-201,-123,-1480,12183,-567,58,-375,-1232,35792,48,31,127,0,0,3288,-390,0,1100,201,58,348,1,0,124,0,198900,0
198918,384,-1981,385,-206,-112,-1401,11938,-528,47,-438,-1200,35790,37,31,127,0,0,3240,-428,0,1100,201,58,358,1,0,124,0,198900,0
198928,410,-1967,412,-217,-123,-1394,11693,-549,26,-433,-1168,35798,33,31,127,0,0,3197,-384,0,1100,201,58,368,1,0,124,0,198947,0
198938,356,-2010,452,-222,-113,-1426,11453,-523,6,-404,-1136,35801,31,31,127,0,0,3153,-444,0,1100,201,58,378,1,0,124,0,198951,0
198948,345,-2022,522,-225,-112,-1454,11224,-501,28,-493,-1120,35799,41,31,127,0,0,3110,-444,0,1100,201,58,388,1,0,124,0,198951,0
198958,321,-2041,651,-255,-117,-1511,10990,-511,5,-436,-1104,35790,30,31,127,0,0,3060,-477,0,1100,201,58,398,1,0,124,0,198951,0
198968,354,-2025,602,-283,-114,-1579,10758,-505,-1,-480,-1128,35787,27,31,127,0,0,3006,-483,0,1100,201,58,408,1,0,124,0,198951,0
198978,406,-1945,613,-391,-151,-1702,10525,-510,1,-495,-1112,35799,26,31,127,0,0,2960,-494,0,1100,201,58,418,1,0,124,0,198966,0
198988,385,-1988,554,-450,-179,-1758,10293,-524,-4,-508,-1176,35801,29,31,127,0,0,2905,-505,0,1100,201,58,428,1,0,124,0,198982,0
198998,337,-1952,476,-468,-226,-1782,10045,-544,-40,-499,-1192,35808,17,31,127,0,0,2853,-510,0,1100,201,58,438,1,0,124,0,198982,0
199008,298,-1861,478,-462,-225,-1876,9799,-542,-18,-492,-1208,35808,18,31,127,0,0,2800,-554,0,1100,201,58,448,1,0,124,0,199013,0
199018,434,-1860,445,-544,-169,-1928,9551,-546,-1,-497,-1256,35801,7,31,127,0,0,2746,-527,0,1100,201,58,458,1,0,124,0,199013,0
199028,567,-1925,465,-656,67,-1974,9297,-563,38,-453,-1256,35802,22,31,127,0,0,2685,-615,0,1100,201,58,468,1,0,124,0,199013,0
199038,604,-2018,660,-675,-513,-1845,9041,-568,14,-472,-1256,35799,28,31,127,0,0,2636,-488,0,1100,201,58,478,1,0,124,0,199013,0
199048,529,-2023,570,-774,-752,-1843,8787,-551,-59,-390,-1128,35799,19,31,127,0,0,2594,-428,0,1100,201,58,488,1,0,124,0,199045,0
199058,549,-2503,769,-628,-1084,-1855,8547,-509,34,-355,-1016,35799,-7,31,127,0,0,2558,-384,0,1100,201,58,498,1,0,124,0,199045,0
199068,106,-2774,621,-589,-997,-1775,8328,-469,71,-325,-824,35805,0,31,127,0,0,2538,-192,0,1100,201,58,508,1,0,124,0,199045,0
199078,146,-2238,568,-723,-959,-1856,8133,-419,86,-300,-512,35796,22,31,127,0,0,2533,-16,0,1100,201,58,518,1,0,124,0,199076,0
199088,147,-1975,404,-836,-923,-2017,7977,-327,112,-164,-232,35805,61,31,127,0,0,2525,-82,0,1100,201,58,528,1,0,124,0,199076,0
199098,158,-2159,126,-902,-858,-2225,7871,-201,167,-95,-112,35809,32,31,127,0,0,2518,-76,0,1100,201,58,538,1,0,124,0,199076,0
199108,189,-2251,72,-880,-768,-2369,7827,-61,208,-130,-72,35805,29,31,127,0,0,2508,-109,0,1100,201,58,548,1,0,124,0,199091,0
199119,302,-2235,109,-862,-685,-2530,7808,-24,167,-317,-128,35807,21,31,127,0,0,2502,-32,0,1100,201,58,559,1,0,124,0,199123,0
199129,337,-2323,324,-852,-710,-2715,7808,0,69,-398,-128,35805,13,31,127,0,0,2502,10,0,1100,201,58,569,1,0,124,0,199123,0
199139,322,-2345,468,-898,-691,-2859,7806,-2,29,-393,-136,35798,-9,31,127,0,0,2500,0,0,1100,201,58,579,1,0,124,0,199123,0
199149,215,-2338,667,-945,-726,-3072,7806,-6,-2,-398,-104,35803,-11,31,127,0,0,2502,21,0,1100,201,58,589,1,0,124,0,199138,0
199159,202,-2491,659,-998,-812,-3118,7806,2,-3,-296,-24,35803,-10,31,127,0,0,2515,131,0,1100,201,58,599,1,0,124,0,199154,0
199169,194,-2542,710,-1068,-904,-3238,7821,53,27,184,168,35806,-11,31,127,0,0,2537,219,0,1100,201,58,609,1,0,124,0,199170,0
199179,231,-2412,669,-1106,-912,-3399,7869,130,99,441,312,35804,-1,31,127,0,0,2570,329,0,1100,201,58,619,1,0,124,0,199170,0
199189,293,-2194,569,-1104,-954,-3642,7952,203,130,530,456,35802,15,31,127,0,0,2608,384,0,1100,201,58,629,1,0,124,0,199185,0
199199,382,-2284,397,-1095,-1013,-3740,8073,286,137,537,664,35805,5,31,127,0,0,2649,439,0,1100,201,58,639,1,0,124,0,199185,0
199209,412,-2414,327,-1109,-1210,-3797,8231,369,142,469,792,35800,-12,31,127,0,0,2707,549,0,1100,201,58,649,1,0,9,0,199201,0
199219,317,-2489,413,-1046,-1625,-3822,8408,411,107,566,1024,35809,-22,31,127,0,0,2770,637,0,1100,201,58,659,1,0,10,0,199279,0
199229,74,-2280,339,-1335,-1649,-3151,8617,502,104,724,1536,35800,-2,31,127,0,0,2887,1208,0,1100,201,58,669,1,0,13,0,199279,0
199239,411,-2653,461,-1437,-1443,-3985,8925,782,272,812,2072,35795,20,31,127,0,0,2992,988,0,1100,201,58,679,1,0,15,0,199295,0
199249,-1043,-3204,927,-1290,-1444,-3748,9313,865,359,520,2096,35787,31,31,127,0,0,3102,1230,0,1100,201,58,689,1,0,18,0,199295,0
199259,29,-3628,727,-1501,-1580,-4138,9745,1020,211,808,2864,35776,39,31,127,0,0,3258,1571,0,1100,201,58,699,1,0,21,0,199326,0
199269,-266,-3446,918,-1470,-1869,-4658,10294,1286,333,759,3296,35772,47,31,127,0,0,3414,1538,0,1100,201,58,709,1,0,25,0,199326,0
199279,-262,-3565,561,-1518,-1640,-4936,10929,1440,390,703,3632,35767,58,31,127,0,0,3568,1516,0,1100,201,58,719,1,0,28,0,199326,0
199289,70,-3262,449,-1387,-2061,-5198,11609,1507,234,637,4016,35763,67,31,127,0,0,3744,1845,0,1100,201,58,729,1,0,34,0,199326,0
199299,279,-4153,452,-1386,-2107,-5920,12347,1672,191,725,4296,35763,72,31,127,0,0,3893,1472,0,1100,201,58,739,1,0,38,0,199326,0
199309,-171,-4359,981,-1159,-2254,-6195,13124,1709,190,495,4248,35771,62,31,127,0,0,4036,1439,0,1100,201,58,749,1,0,43,0,199341,0
199319,-401,-3911,1124,-1212,-2446,-6097,13908,1723,72,508,4136,35777,48,31,127,0,0,4187,1538,0,1100,201,58,759,1,0,48,0,199341,0
199329,-416,-3425,1305,-1386,-2762,-5542,14708,1764,35,590,4232,35784,42,31,127,0,0,4352,1680,0,1100,201,58,769,1,0,55,0,199341,0
199339,-682,-2996,1213,-1525,-2965,-5004,15526,1812,62,715,4448,35781,51,31,127,0,0,4530,1801,0,1100,201,58,779,1,0,61,0,199341,0
199349,-864,-1980,1078,-1573,-3049,-3602,16371,1876,82,819,4776,35775,77,31,127,0,0,4739,2109,0,1100,201,58,789,1,0,70,0,199341,0
199359,-527,-1439,806,-1500,-3253,-2486,17282,2099,195,1226,5736,35777,108,31,127,0,0,5016,2834,0,1100,201,58,799,1,0,76,0,199341,0
199370,1420,-1571,-9,-1400,-896,-3076,18500,2585,567,1016,6184,35774,159,31,127,0,0,5242,1713,0,1100,201,58,810,1,0,86,0,199373,0
199380,905,-1329,-96,-1113,708,-3681,19636,2388,379,20,4368,35770,143,31,127,0,0,5227,-307,0,1100,201,58,820,1,0,93,0,199373,0
199390,686,-1233,-103,-484,2214,-3791,20521,1706,-556,-985,1304,35774,77,31,127,0,0,5067,-1691,0,1100,201,58,830,0,0,102,73,199388,0
199400,503,-1075,-7,-235,2422,-3118,20832,61,-1685,-2933,-1448,35799,-3,32,127,0,0,4862,-2054,0,1100,201,58,840,0,0,109,70,199388,0
199410,362,-898,237,11,2399,-1918,20513,-886,-2407,-1265,-2928,35807,-23,31,127,0,0,4674,-1856,0,1100,201,58,850,0,0,118,64,199420,0
199420,515,-940,300,136,2226,-917,19955,-1334,-1520,-852,-3560,35799,10,31,127,0,0,4529,-1417,0,1100,201,58,860,0,0,125,61,199420,0
199430,621,-980,356,261,1977,486,19281,-1515,-630,-382,-3464,35778,50,31,127,0,0,4427,-966,0,1100,201,58,870,0,0,134,55,199420,0
199440,700,-1021,374,363,1886,1321,18604,-1462,-182,-153,-3032,35773,41,31,127,0,0,4349,-752,0,1100,201,58,880,0,0,140,52,199451,0
199450,857,-971,339,503,1825,2323,17984,-1313,131,-69,-2456,35775,39,31,127,0,0,4273,-670,0,1100,201,58,890,0,0,150,47,199451,0
199460,940,-856,259,527,1845,2902,17447,-1131,279,-79,-2144,35779,18,31,127,0,0,4205,-703,0,1100,201,58,900,0,0,156,44,199466,0
199470,1056,-746,202,520,1969,3779,16984,-973,298,-180,-2064,35782,0,31,127,0,0,4112,-917,0,1100,201,58,910,0,0,166,40,199466,0
199480,1143,-706,140,516,2163,4358,16553,-942,191,-353,-2256,35781,-10,31,127,0,0,4005,-1142,0,1100,201,58,920,0,0,172,37,199466,0
199490,1192,-621,82,493,2535,5207,16100,-1043,-6,-555,-2640,35791,15,31,127,0,0,3872,-1362,0,1100,201,58,930,0,0,181,33,199482,0
199500,1132,-592,70,490,2738,5774,15565,-1246,-227,-728,-3200,35791,21,31,127,0,0,3711,-1587,0,1100,201,58,940,0,0,187,30,199482,0
199510,905,-634,60,471,2754,6743,14919,-1499,-383,-732,-3704,35786,45,31,127,0,0,3543,-1675,0,1100,201,58,950,0,0,196,27,199498,0
199520,782,-668,62,415,2570,7458,14188,-1639,-375,-508,-3808,35786,24,31,127,0,0,3402,-1455,0,1100,201,58,960,0,0,202,25,199513,0
199530,748,-799,242,326,2203,8468,13456,-1587,-139,-304,-3616,35781,32,31,127,0,0,3299,-1010,0,1100,201,58,970,0,0,210,21,199513,0
199540,801,-928,309,345,1979,9058,12782,-1436,132,-177,-3128,35787,22,31,127,0,0,3215,-714,0,1100,201,58,980,0,0,216,19,199529,0
199550,917,-1132,347,399,1623,9728,12191,-1244,283,-115,-2552,35788,35,31,127,0,0,3166,-538,0,1100,201,58,990,0,0,225,16,199544,0
199560,926,-1225,401,432,1245,10050,11695,-1037,342,-111,-1984,35791,18,31,127,0,0,3126,-346,0,1100,201,58,1000,0,0,231,15,199544,0
199570,977,-1473,427,512,473,10527,11289,-828,352,-113,-1408,35800,12,31,127,0,0,3110,-120,0,1100,201,58,1010,0,0,240,12,199576,0
199580,1195,-1616,388,599,-2,10744,10976,-633,349,-87,-744,35797,-16,31,127,0,0,3109,49,0,1100,201,58,1020,0,0,245,11,199576,0
199590,1121,-2084,380,832,-357,11126,10759,-418,357,-91,-264,35792,-1,31,127,0,0,3114,49,0,1100,201,58,1030,0,0,253,9,199576,0
199600,1234,-2329,387,1013,-412,11462,10658,-102,413,316,184,35794,-4,31,127,0,0,3139,274,0,1100,201,58,1040,0,0,259,8,199607,0
199610,1197,-2457,487,1296,-499,11960,10735,224,579,401,472,35790,-27,31,127,0,0,3193,576,0,1100,201,58,1050,0,0,267,6,199607,0
199620,1090,-2478,536,1469,-593,12047,10883,364,441,526,952,35797,-27,31,127,0,0,3269,741,0,1100,201,58,1060,0,0,272,5,199638,0
199631,977,-2493,488,1735,-633,11718,11129,531,262,504,1248,35802,-38,31,127,0,0,3339,604,0,1100,201,58,1071,0,0,280,4,199638,0
199641,813,-2562,280,2062,-489,11279,11395,597,202,370,1216,35795,-12,31,127,0,0,3377,351,0,1100,201,58,1081,0,0,287,3,199654,0
199651,800,-2623,124,2314,-267,11026,11651,549,39,270,904,35785,-11,31,127,0,0,3399,175,0,1100,201,58,1091,0,0,291,3,199654,0
199661,622,-2588,57,2703,100,10706,11877,464,-88,192,536,35781,2,31,127,0,0,3401,21,0,1100,201,58,1101,0,0,298,2,199654,0
199671,669,-2527,110,2847,284,10580,12049,333,-172,93,168,35790,-2,31,127,0,0,3396,-32,0,1100,201,58,1111,0,0,302,2,199685,0
199681,735,-2445,235,2929,503,10410,12130,73,-291,-176,-24,35808,-21,31,127,0,0,3394,-21,0,1100,201,58,1121,0,0,308,1,199685,0
199691,711,-2470,250,2908,589,10243,12098,-86,-402,-27,-88,35809,-32,32,127,0,0,3383,-142,0,1100,201,58,1131,0,0,312,1,199685,0
199701,792,-2653,157,2782,622,10064,12065,-38,-174,-309,-144,35803,-25,31,127,0,0,3370,-142,0,1100,201,58,1141,0,0,317,1,199685,0
199711,858,-2786,72,2677,655,9933,12032,-101,11,-441,-224,35793,-11,31,127,0,0,3357,-120,0,1100,201,58,1151,0,0,320,1,199716,0
199721,681,-2965,-91,2513,668,9377,11975,-131,-59,-307,-144,35800,-24,31,127,0,0,3359,0,0,1100,201,58,1161,0,0,324,1,199716,0
199731,524,-3050,-196,2426,571,8555,11938,-34,11,-121,-72,35799,-34,32,127,0,0,3357,-32,0,1100,201,58,1171,0,0,327,1,199716,0
199741,439,-3092,-238,2138,460,6745,11946,26,141,-197,-56,35803,-39,31,127,0,0,3361,21,0,1100,201,58,1181,0,0,330,1,199748,0
199751,416,-3099,-194,1785,490,5191,11948,-8,59,-163,-72,35795,-30,31,127,0,0,3359,-10,0,1100,201,58,1191,0,0,332,1,199763,0
199761,631,-3099,-149,1010,867,2472,11947,3,-24,-220,-56,35799,-25,31,127,0,0,3357,0,0,1100,201,58,1201,0,0,333,1,199763,0
199771,857,-3019,-176,432,1305,498,11946,-12,0,-270,-160,35800,-39,31,127,0,0,3346,-142,0,1100,201,58,1211,0,0,334,1,199763,0
199781,1219,-2691,-227,-366,1917,-2259,11925,-86,-46,-660,-368,35794,-46,31,127,0,0,3311,-384,0,1100,201,58,1221,0,0,334,1,199763,0
199791,1455,-2473,-131,-652,2151,-3771,11826,-265,-205,-687,-712,35802,-37,31,127,0,0,3265,-505,0,1100,201,58,1231,0,0,334,1,199779,0
199801,1707,-2151,-166,-997,2524,-5360,11664,-374,-271,-521,-928,35808,-17,31,127,0,0,3208,-549,0,1100,201,58,1241,0,0,334,1,199794,0
199811,1736,-1938,-100,-1068,2826,-6054,11466,-476,-184,-574,-1128,35811,4,31,127,0,0,3150,-560,0,1100,201,58,1251,0,0,334,1,199810,0
199821,-873,-9019,1510,-1632,2112,-3333,11220,-576,-171,-220,24,35808,-2,31,127,0,0,3245,1340,0,1456,564,59,5,1,1,334,1,199810,0
199831,-19,-2179,3733,1572,3166,-3032,11420,1043,878,2882,3704,35794,24,31,127,0,0,3443,1856,0,1456,564,59,15,1,1,334,1,199810,0
199841,-1097,101,1034,1554,-817,-2234,12126,1708,1994,1403,5096,35787,69,31,127,0,0,3636,2010,0,1456,564,59,25,1,1,334,1,199841,0
199851,474,-225,-524,-233,-1327,-1752,13093,2327,1304,1610,6704,35759,147,31,127,0,0,3893,2581,0,1456,564,59,35,1,1,334,1,199857,0
199861,199,-2352,-852,-1700,-762,-3243,14382,3022,1130,1147,7432,35732,219,31,127,0,0,4100,1955,0,1456,564,59,45,1,1,334,1,199857,0
199871,-1011,-3347,-1228,-1026,-1071,-3657,15814,3128,853,509,7208,35729,211,32,127,0,0,4242,1406,0,1456,564,59,55,1,1,334,1,199857,0
199882,-556,-2671,-748,-78,-1589,-3492,17291,2885,-45,400,6896,35744,174,31,127,0,0,4396,1422,0,1456,564,59,66,1,1,334,1,199888,0
199892,-130,-2216,-127,-117,-1836,-3645,18581,2823,-267,450,6552,35770,129,31,127,0,0,4512,1071,0,1456,564,59,76,1,1,334,1,199888,0
199902,285,-2231,58,-430,-1595,-4201,19794,2578,-234,223,5480,35779,94,31,127,0,0,4581,598,0,1456,564,59,86,1,1,334,1,199888,0
199912,456,-2785,395,-419,-1143,-4577,20822,2117,-538,-163,3760,35781,61,31,127,0,0,4599,142,0,1456,564,59,96,1,1,334,1,199904,0
199922,464,-1991,545,-172,-650,-4804,21628,1611,-802,-473,1936,35793,10,31,127,0,0,4571,-280,0,1456,564,59,106,1,1,334,1,199919,0
199932,48,-1779,1159,-258,-420,-4597,22146,930,-990,-557,328,35819,-21,31,127,0,0,4516,-472,0,1456,564,59,116,1,1,334,1,199935,0
199942,568,-1891,1258,-567,-290,-4203,22271,-107,-1351,-1406,-432,35824,-45,31,127,0,0,4483,-373,0,1456,564,59,126,1,1,334,1,199935,0
199952,937,-2439,1187,-692,-428,-4187,22132,-326,-1281,-365,-56,35820,-44,31,127,0,0,4424,-593,580,1456,564,59,136,1,1,334,1,200044,0
199962,230,-1750,753,-431,-43,-4310,22062,-48,-230,399,136,35811,-32,31,127,0,0,4311,-1170,780,1456,564,59,146,1,1,334,1,200044,0
199972,1636,-2133,890,-423,-340,-2935,22009,-208,187,552,-40,35805,-23,31,127,0,0,4289,-142,980,1456,564,59,156,1,1,334,1,200060,0
199982,1452,-1923,806,-528,-1626,-2796,21703,-892,-547,465,-1264,35808,-31,31,127,0,0,4253,-417,1180,1456,564,59,166,1,1,334,1,200060,0
199992,-303,-1768,-63,-944,-670,-3073,21125,-1382,-1040,519,-1976,35801,-39,31,127,0,0,4155,-1065,1380,1456,564,59,176,1,1,334,1,200060,0
200002,-1159,-1764,-450,-512,613,-3738,20482,-1393,-582,691,-1624,35805,-51,31,127,0,0,4038,-1230,1500,1456,564,59,186,1,1,334,1,200060,0
200012,-73,-1971,-55,-371,775,-3535,19891,-1260,33,844,-1256,35812,-53,31,127,0,0,3923,-1115,1500,1456,564,59,196,1,1,334,1,200060,0
200022,706,-2153,344,-241,432,-2780,19358,-1127,222,856,-824,35816,-64,31,127,0,0,3811,-1093,1500,1456,564,59,206,1,1,334,1,200060,0
200032,562,-2076,498,-276,-61,-2520,18908,-917,307,875,-280,35815,-70,31,127,0,0,3734,-769,1500,1456,564,59,216,1,1,334,1,200060,0
200042,326,-1975,518,-160,-417,-2110,18585,-612,332,1150,16,35819,-70,31,127,0,0,3678,-510,1500,1456,564,59,226,1,1,334,1,200060,0
200052,664,-1909,647,-85,-692,-1746,18354,-512,332,1055,-104,35817,-58,31,127,0,0,3643,-318,1500,1456,564,59,236,1,1,334,1,200060,0
200062,408,-1860,720,-216,-379,-1619,18065,-704,52,710,-280,35818,-59,31,127,0,0,3599,-472,1500,1456,564,59,246,1,1,334,1,200060,0
200072,-170,-1950,719,-318,-91,-1777,17719,-756,-233,793,-200,35812,-55,31,127,0,0,3535,-631,1500,1456,564,59,256,1,1,334,1,200060,0
200082,175,-1858,562,-418,132,-1789,17407,-654,-48,943,-88,35818,-62,31,127,0,0,3479,-554,1500,1456,564,59,266,1,1,334,1,200076,0
200092,498,-1975,507,-415,-15,-1536,17151,-525,179,1065,-64,35826,-45,31,127,0,0,3429,-483,1500,1456,564,59,276,1,1,334,1,200107,0
200102,500,-1952,360,-359,-260,-1265,16940,-457,197,938,-32,35827,-46,31,127,0,0,3390,-368,1500,1456,564,59,286,1,1,334,1,200107,0
200112,334,-2023,327,-339,-229,-1323,16728,-470,79,876,-48,35822,-37,31,127,0,0,3356,-274,1500,1456,564,59,296,1,1,334,1,200107,0
200122,178,-1896,421,-355,-88,-1447,16502,-513,-28,858,-64,35808,-47,31,127,0,0,3315,-335,1500,1456,564,59,306,1,1,334,1,200107,0
200133,262,-1989,551,-377,-44,-1481,16241,-603,-104,789,-144,35809,-40,31,127,0,0,3256,-527,1500,1456,564,59,317,1,1,334,1,200122,0
200143,174,-1960,458,-395,-18,-1590,15933,-690,-158,797,-160,35819,-31,31,127,0,0,3199,-593,1500,1456,564,59,327,1,1,334,1,200138,0
200153,239,-2051,355,-405,-64,-1618,15647,-586,-31,1017,-96,35818,-23,31,127,0,0,3150,-505,1500,1456,564,59,337,1,1,334,1,200154,0
200163,509,-1999,369,-408,-203,-1517,15422,-477,182,1002,-56,35815,-17,31,127,0,0,3106,-428,1500,1456,564,59,347,1,1,334,1,200154,0
200173,357,-1890,402,-422,-361,-1542,15182,-573,61,835,-128,35808,-15,31,127,0,0,3060,-439,1630,1456,564,59,357,1,1,334,1,200169,0
200183,21,-1986,414,-414,-296,-1712,14901,-625,-134,936,-96,35810,-24,31,127,0,0,3012,-516,1770,1456,564,59,367,1,1,334,1,200169,0
200193,135,-2064,471,-470,-146,-1896,14633,-567,-34,1175,-48,35814,-36,31,127,0,0,2968,-450,1940,1456,564,59,377,1,1,334,1,200185,0
200203,480,-1992,577,-547,-214,-1865,14395,-522,95,1269,-40,35819,-36,31,127,0,0,2920,-461,2120,1456,564,59,387,1,1,334,1,200185,0
200213,503,-1989,636,-676,-427,-1926,14127,-627,-14,1215,-64,35815,-51,31,127,0,0,2876,-472,2310,1456,564,59,397,1,1,334,1,200216,0
200223,252,-2049,625,-719,-546,-2109,13823,-676,-136,1357,-104,35811,-56,31,127,0,0,2821,-527,2400,1456,564,59,407,1,1,334,1,200216,0
200233,108,-2207,708,-604,-853,-2348,13523,-650,-47,1498,-64,35809,-68,31,127,0,0,2766,-560,2500,1456,564,59,417,1,1,334,1,200216,0
200243,80,-2570,700,-459,-993,-2341,13259,-543,89,1669,-24,35807,-67,31,127,0,0,2718,-472,2600,1456,564,59,427,1,1,334,1,200232,0
200253,-70,-2485,524,-541,-875,-2332,13058,-396,204,1710,72,35814,-80,31,127,0,0,2678,-395,2700,1456,564,59,437,1,1,334,1,200232,0
200263,41,-2305,448,-675,-810,-2392,12933,-222,271,1703,208,35817,-66,31,127,0,0,2656,-197,2810,1456,564,59,447,1,1,334,1,200247,0
200273,321,-2147,186,-850,-866,-2466,12863,-136,250,1728,256,35819,-42,31,127,0,0,2643,-109,2930,1456,564,59,457,1,1,334,1,200279,0
200283,221,-2189,42,-857,-877,-2484,12820,-48,147,1759,424,35805,-25,31,127,0,0,2634,-98,3060,1456,564,59,467,1,1,334,1,200279,0
200293,394,-2423,204,-823,-839,-2536,12826,30,157,1880,528,35795,-7,31,127,0,0,2636,21,3210,1456,564,59,477,1,1,334,1,200279,0
200303,295,-2314,348,-755,-849,-2717,12828,-7,75,1999,528,35784,15,31,127,0,0,2636,0,3380,1456,564,59,487,1,1,334,1,200294,0
200313,288,-2242,540,-844,-874,-2939,12832,5,-15,2083,592,35783,22,31,127,0,0,2636,0,3560,1456,564,59,497,1,1,334,1,200310,0
200323,305,-2390,606,-976,-825,-3049,12841,11,14,2196,648,35789,-2,31,127,0,0,2638,21,3770,1456,564,59,507,1,1,334,1,200326,0
200333,132,-2381,694,-1135,-705,-3288,12857,34,21,2303,784,35788,-1,31,127,0,0,2641,10,3990,1456,564,59,517,1,1,334,1,200341,0
200343,35,-2284,665,-1240,-706,-3452,12896,119,60,2380,1040,35783,8,31,127,0,0,2649,76,4230,1456,564,59,527,1,1,334,1,200372,0
200353,137,-2429,636,-1323,-956,-3533,13009,305,201,2441,1648,35770,26,31,127,0,0,2669,197,4500,1456,564,59,537,1,1,334,1,200372,0
200363,206,-2559,534,-1350,-1107,-3503,13235,589,373,2677,2536,35765,41,31,127,0,0,2711,406,4830,1456,564,59,547,1,1,334,1,200372,0
200374,366,-2640,508,-1294,-1424,-3354,13653,958,524,3127,3416,35757,76,31,127,0,0,2790,708,5290,1456,564,59,558,1,1,334,1,200372,0
200384,385,-2636,392,-1307,-1592,-3294,14194,1293,585,3368,4344,35737,169,31,127,0,0,2886,966,5830,1456,564,59,568,1,1,334,1,200372,0
200394,142,-2691,373,-1407,-1876,-3095,14896,1649,604,3693,5208,35702,267,31,127,0,0,3011,1296,6490,1456,564,59,578,1,1,334,1,200388,0
200404,-97,-2886,285,-1527,-1993,-2852,15754,1987,609,4040,6144,35672,385,31,127,0,0,3171,1636,7310,1456,564,59,588,1,1,334,1,200388,0
200414,-1214,-2432,106,-1652,-1591,-2867,16795,2432,655,4498,7600,35634,529,31,127,0,0,3362,1994,8200,1456,564,59,598,1,1,334,1,200419,0
200424,-675,-3443,278,-1767,-1695,-2792,18046,2873,765,5128,8488,35575,737,31,127,0,0,3583,2290,8920,1456,564,59,608,1,1,334,1,200419,0
200434,-749,-3421,633,-1357,-1813,-2949,19457,3185,690,5472,9352,35498,953,31,127,0,0,3837,2510,9740,1456,564,59,618,1,1,334,1,200435,0
200444,-853,-3198,457,-1360,-2152,-3290,20943,3294,429,5786,10152,35404,1193,31,127,0,0,4111,2691,10650,1456,564,59,628,1,1,334,1,200435,0
200454,-822,-3359,480,-1563,-2057,-3527,22526,3592,320,6510,10696,35337,1392,31,127,0,0,4401,2922,11660,1456,564,59,638,1,1,334,1,200435,0
200464,-944,-3280,542,-1520,-2233,-3887,24262,3874,507,7072,11024,35264,1640,31,127,0,0,4693,2905,11970,1456,564,59,648,1,1,334,1,200451,0
200474,28,-4449,652,-1615,-2376,-4420,25968,3667,194,6805,10432,35192,1857,31,127,0,0,4986,2927,11650,1456,564,59,658,1,1,334,1,200451,0
200484,-225,-4574,1030,-1659,-2477,-5092,27479,3141,-501,6565,8816,35160,1974,31,127,0,0,5244,2559,11080,1456,564,59,668,1,1,334,1,200482,0
200494,-460,-4390,1263,-1687,-2434,-6117,28655,2312,-1070,5284,6096,35175,1879,31,127,0,0,5468,2224,5940,1456,564,59,678,1,1,334,1,200482,0
200504,-187,-3957,1208,-1661,-2179,-7128,29275,905,-1775,2694,1368,35301,1442,31,127,0,0,5588,1148,2630,1456,564,59,688,1,1,334,1,200497,0
200514,-266,-2791,1083,-1978,-1749,-8311,29178,-610,-2505,888,-536,35471,845,31,127,0,0,5572,-269,1620,1456,564,59,698,1,1,334,1,200497,0
200524,-1130,-2011,1205,-1850,-1724,-8033,28741,-1017,-1942,440,-1088,35637,316,31,127,0,0,5493,-829,0,1456,564,59,708,0,1,334,1,200529,0
200534,-3302,618,1217,-1053,-2219,-4844,28297,-1084,-509,-1732,-4640,35743,18,31,127,0,0,5521,401,0,1456,564,59,718,0,1,334,1,200529,0
200544,2637,-2162,-273,-1684,-1380,-3399,27446,-2031,-844,-1269,-6264,35752,30,31,127,0,0,5723,1856,0,1456,564,59,728,0,1,334,1,200529,0
200554,1736,-2378,25,-1575,701,-3249,26366,-2339,-1209,193,-3384,35736,106,31,127,0,0,5801,697,0,1456,564,59,738,0,1,334,1,200544,0
200564,953,-1924,-143,-969,1996,-2959,25553,-1537,234,709,-1800,35743,105,31,127,0,0,5761,-532,0,1456,564,59,748,0,1,334,1,200544,0
200574,706,-1429,-44,-303,3133,-2560,25030,-1030,1152,44,-2032,35766,26,31,127,0,0,5615,-1576,0,1456,564,59,758,0,1,334,1,200622,0
200584,514,-1172,189,105,3261,-2030,24581,-1047,618,-1042,-3216,35789,-27,31,127,0,0,5419,-1988,0,1456,564,59,768,0,1,334,1,200622,0
200594,493,-854,334,382,3099,-964,23951,-1521,-295,-1177,-4152,35772,3,31,127,0,0,5205,-2015,0,1456,564,59,778,0,1,334,1,200622,0
200604,492,-811,488,423,2804,-109,23148,-1848,-705,-804,-4552,35753,57,31,127,0,0,5029,-1763,0,1456,564,59,788,0,1,334,1,200622,0
200614,584,-889,472,479,2494,1180,22280,-1911,-421,-515,-4520,35735,72,31,127,0,0,4869,-1571,0,1456,564,59,798,0,1,334,1,200622,0
200624,705,-898,444,497,2309,2040,21444,-1787,-24,-326,-4208,35731,53,31,127,0,0,4734,-1312,0,1456,564,59,808,0,1,334,1,200638,0
200634,813,-823,441,478,2096,3310,20677,-1641,217,-262,-3888,35742,26,31,127,0,0,4621,-1115,0,1456,564,59,818,0,1,334,1,200638,0
200645,955,-759,294,487,2053,4510,19898,-1518,239,-236,-3448,35757,12,31,127,0,0,4506,-966,0,1456,564,59,829,0,1,334,1,200638,0
200655,1057,-719,152,467,2189,5211,19238,-1416,184,-178,-3080,35765,14,31,127,0,0,4398,-1109,0,1456,564,59,839,0,1,334,1,200669,0
200665,1141,-583,49,417,2629,6032,18622,-1325,172,-304,-3056,35771,-12,31,127,0,0,4264,-1362,0,1456,564,59,849,0,1,334,1,200685,0
200675,1087,-445,13,381,2930,6551,18016,-1346,93,-493,-3304,35779,-8,31,127,0,0,4102,-1702,0,1456,564,59,859,0,1,334,1,200685,0
200685,916,-425,45,309,3040,7486,17366,-1482,-87,-670,-3736,35788,0,32,127,0,0,3930,-1746,0,1456,564,59,869,0,1,334,1,200700,0
200695,833,-602,121,332,2900,8141,16656,-1598,-215,-598,-4000,35779,29,31,127,0,0,3761,-1680,0,1456,564,59,879,0,1,334,1,200700,0
200705,860,-700,107,303,2571,9121,15891,-1718,-215,-478,-4032,35769,29,31,127,0,0,3610,-1494,0,1456,564,59,889,0,1,334,1,200700,0
200715,877,-789,183,300,2339,9768,15109,-1730,-132,-351,-3808,35767,46,32,127,0,0,3482,-1263,0,1456,564,59,899,0,1,334,1,200716,0
200725,833,-975,166,404,1907,10723,14358,-1609,38,-187,-3312,35770,38,31,127,0,0,3385,-944,0,1456,564,59,909,0,1,334,1,200716,0
200735,792,-1137,187,495,1442,11268,13699,-1380,257,-68,-2608,35786,26,32,127,0,0,3326,-560,0,1456,564,59,919,0,1,334,1,200732,0
200745,820,-1419,371,678,535,11781,13161,-1098,422,9,-1688,35776,-11,31,127,0,0,3304,-164,0,1456,564,59,929,0,1,334,1,200747,0
200755,969,-1640,411,825,-118,11950,12758,-793,497,48,-848,35778,-43,31,127,0,0,3300,-21,0,1456,564,59,939,0,1,334,1,200747,0
200765,975,-2005,290,1069,-849,12115,12498,-491,533,80,-176,35777,-53,31,127,0,0,3306,54,0,1456,564,59,949,0,1,334,1,200779,0
200775,1166,-2438,234,1247,-1053,12459,12414,4,617,681,240,35787,-42,31,127,0,0,3324,197,0,1456,564,59,959,0,1,334,1,200794,0
200785,1340,-2879,268,1544,-1289,13263,12505,251,698,539,640,35782,-33,31,127,0,0,3381,637,0,1456,564,59,969,0,1,334,1,200794,0
200795,1171,-2929,441,1761,-1602,13547,12672,421,431,751,1384,35783,-21,31,127,0,0,3480,1021,0,1456,564,59,979,0,1,334,1,200794,0
200805,933,-2836,582,2078,-2227,13214,12958,722,380,865,2056,35778,-21,31,127,0,0,3588,1076,0,1456,564,59,989,0,1,334,1,200794,0
200815,897,-2900,516,2302,-2526,12563,13365,969,477,663,2384,35779,3,31,127,0,0,3665,703,0,1456,564,59,999,0,1,334,1,200794,0
200825,872,-3051,159,2765,-2452,11605,13816,990,298,360,2040,35775,24,31,127,0,0,3693,219,0,1456,564,59,1009,0,1,334,1,200825,0
200835,664,-3020,-79,2995,-2080,11299,14223,838,-34,127,1376,35774,21,31,127,0,0,3693,-21,0,1456,564,59,1019,0,1,334,1,200825,0
200845,736,-2656,-151,3193,-1152,10927,14543,643,-274,92,744,35773,-16,31,127,0,0,3691,-43,0,1456,564,59,1029,0,1,334,1,200825,0
200855,772,-2551,-165,3256,-602,10587,14774,459,-339,116,296,35788,-26,31,127,0,0,3680,-142,0,1456,564,59,1039,0,1,334,1,200857,0
200865,853,-2712,-206,3181,2,9847,14907,189,-356,-144,-16,35796,-3,31,127,0,0,3660,-197,0,1456,564,59,1049,0,1,334,1,200857,0
200876,825,-2852,-288,2983,351,9156,14873,-152,-521,-242,-176,35786,6,31,127,0,0,3630,-346,0,1456,564,59,1060,0,1,334,1,200857,0
200886,731,-3177,-86,2497,795,7827,14789,-189,-359,-290,-232,35786,19,31,127,0,0,3603,-274,0,1456,564,59,1070,0,1,334,1,200888,0
200896,635,-3389,23,2084,1056,6693,14716,-159,-40,-399,-232,35788,1,31,127,0,0,3579,-164,0,1456,564,59,1080,0,1,334,1,200888,0
200906,702,-3421,14,1468,1369,4432,14640,-146,15,-217,-64,35796,3,31,127,0,0,3577,-5,0,1456,564,59,1090,0,1,334,1,200888,0
200916,854,-3235,-217,1015,1586,2550,14633,51,147,51,0,35790,-15,31,127,0,0,3570,-104,0,1456,564,59,1100,0,1,334,1,200919,0
200926,1113,-2805,-472,248,2045,-484,14642,0,169,-104,-80,35773,5,31,127,0,0,3548,-230,0,1456,564,59,1110,0,1,334,1,200919,0
200936,1316,-2617,-419,-214,2422,-2348,14612,-95,-74,-460,-312,35773,4,31,127,0,0,3501,-483,0,1456,564,59,1120,0,1,334,1,200919,0
200946,1630,-2466,-72,-630,2458,-4621,14517,-277,-209,-712,-672,35787,11,31,127,0,0,3445,-543,0,1456,564,59,1130,0,1,334,1,200950,0
200956,-555,-6748,-930,-1115,2240,-5102,14343,-433,-286,-458,-696,35791,5,31,127,0,0,3450,214,0,1456,564,59,1140,0,1,334,1,200950,0
200966,406,-3294,3831,-353,3272,-3527,14273,209,101,1589,1152,35782,-2,31,127,0,0,3699,2576,0,13605,5342,60,6,1,1,396,-1,200950,0
200976,-1045,-2015,1520,1485,1239,-4391,14608,968,1147,1443,2752,35775,-22,31,127,0,0,3816,1049,0,13605,5342,60,16,1,1,396,-1,200966,0
200986,-768,-777,404,526,-560,-3167,15177,1360,1201,1154,3776,35768,-8,31,127,0,0,3972,1653,0,13605,5342,60,26,1,1,396,-1,200982,0
200996,395,-56,-859,-996,-325,-3085,15948,1840,794,1305,4960,35767,36,31,127,0,0,4159,1873,0,13605,5342,60,36,1,1,396,-1,200982,0
201006,-211,-2550,-1586,-1511,44,-3981,16909,2220,755,1013,5616,35752,98,31,127,0,0,4322,1560,0,13605,5342,60,46,1,1,396,-1,200997,0
201016,-720,-3065,-1361,-693,134,-4228,17969,2357,528,623,5608,35739,121,31,127,0,0,4441,1219,0,13605,5342,60,56,1,1,396,-1,201013,0
201026,-132,-2337,-595,48,-579,-4185,19024,2291,-90,423,5296,35737,106,31,127,0,0,4531,851,0,13605,5342,60,66,1,1,396,-1,201013,0
201036,401,-2516,429,-14,-984,-4072,19991,2060,-307,390,4984,35747,63,31,127,0,0,4616,802,0,13605,5342,60,76,1,1,396,-1,201029,0
201046,759,-2419,544,-366,-1565,-4431,20883,1909,-83,315,4272,35759,49,31,127,0,0,4674,455,0,13605,5342,60,86,1,1,396,-1,201044,0
201056,467,-2490,530,-390,-1388,-4643,21674,1657,-327,-57,2824,35758,31,31,127,0,0,4670,-76,0,13605,5342,60,96,1,1,396,-1,201044,0
201066,468,-1730,355,-459,-944,-4547,22300,1239,-502,-274,1280,35760,-2,31,127,0,0,4636,-351,0,13605,5342,60,106,1,1,396,-1,201138,0
201076,570,-1800,499,-395,-718,-4327,22695,700,-763,-507,16,35781,-42,31,127,0,0,4596,-411,0,13605,5342,60,116,1,1,396,-1,201138,0
201086,1196,-2602,1045,-224,144,-4718,22701,-243,-1187,-990,-744,35788,-47,31,127,0,0,4509,-950,0,13605,5342,60,126,1,1,396,-1,201138,0
201096,182,-1832,1020,-184,-71,-4641,22491,-541,-1198,-438,-280,35786,-20,31,127,0,0,4380,-1356,620,13605,5342,60,136,1,1,396,-1,201138,0
201106,1603,-2412,1103,-460,-549,-3359,22197,-722,-551,319,-520,35778,-9,31,127,0,0,4327,-576,820,13605,5342,60,146,1,1,396,-1,201154,0
201116,1148,-2111,1297,-630,-1136,-3091,21734,-1149,-478,451,-1496,35771,-25,31,127,0,0,4260,-631,1020,13605,5342,60,156,1,1,396,-1,201154,0
201126,-1120,-2079,103,-926,-573,-3191,21198,-1341,-601,498,-1744,35775,-38,31,127,0,0,4162,-1005,1220,13605,5342,60,166,1,1,396,-1,201154,0
201136,-1663,-1981,-307,-714,178,-3549,20623,-1216,-199,695,-1200,35773,-61,31,127,0,0,4058,-1060,1420,13605,5342,60,176,1,1,396,-1,201154,0
201146,78,-1906,-48,-454,422,-3407,20115,-1089,193,887,-904,35775,-79,31,127,0,0,3956,-961,1500,13605,5342,60,186,1,1,396,-1,201154,0
201156,744,-1997,333,-400,54,-3056,19614,-1121,119,885,-1024,35781,-90,31,127,0,0,3867,-895,1500,13605,5342,60,196,1,1,396,-1,201154,0
201167,193,-2035,359,-381,-152,-2838,19045,-1128,-39,837,-888,35786,-73,31,127,0,0,3768,-878,1500,13605,5342,60,207,1,1,396,-1,201154,0
201177,17,-1957,372,-341,65,-2784,18568,-1022,65,841,-512,35798,-67,31,127,0,0,3682,-802,1500,13605,5342,60,217,1,1,396,-1,201154,0
201187,292,-1973,664,-288,61,-2552,18142,-912,181,946,-392,35814,-46,31,127,0,0,3603,-812,1500,13605,5342,60,227,1,1,396,-1,201200,0
201197,529,-2040,802,-324,-140,-2204,17751,-842,158,910,-296,35820,-54,31,127,0,0,3535,-670,1500,13605,5342,60,237,1,1,396,-1,201200,0
201207,340,-1989,716,-384,-204,-2081,17397,-744,135,973,-160,35817,-58,31,127,0,0,3471,-604,1500,13605,5342,60,247,1,1,396,-1,201200,0
201217,432,-1869,452,-470,-251,-1869,17105,-610,192,1005,-104,35794,-67,31,127,0,0,3418,-483,1500,13605,5342,60,257,1,1,396,-1,201216,0
201227,392,-1813,328,-465,-252,-1724,16831,-609,144,897,-160,35774,-54,31,127,0,0,3368,-472,1500,13605,5342,60,267,1,1,396,-1,201216,0
201237,253,-1947,225,-427,-88,-1723,16529,-672,-36,811,-176,35778,-67,31,127,0,0,3313,-494,1500,13605,5342,60,277,1,1,396,-1,201263,0
201247,251,-1947,240,-360,18,-1721,16237,-621,-30,936,-128,35788,-61,31,127,0,0,3258,-538,1550,13605,5342,60,287,1,1,396,-1,201263,0
201257,560,-1993,323,-313,-58,-1526,15977,-548,98,1062,-64,35787,-55,31,127,0,0,3210,-494,1720,13605,5342,60,297,1,1,396,-1,201263,0
201267,601,-1999,355,-286,-204,-1296,15768,-432,162,1137,-8,35780,-46,31,127,0,0,3168,-406,1870,13605,5342,60,307,1,1,396,-1,201278,0
201277,580,-1996,393,-310,-318,-1154,15601,-358,168,1179,48,35773,-44,31,127,0,0,3142,-296,2000,13605,5342,60,317,1,1,396,-1,201278,0
201287,445,-2095,433,-305,-315,-1121,15456,-309,116,1261,56,35772,-69,31,127,0,0,3115,-285,2140,13605,5342,60,327,1,1,396,-1,201278,0
201297,405,-1937,394,-337,-202,-1192,15302,-348,21,1317,40,35780,-57,31,127,0,0,3087,-263,2290,13605,5342,60,337,1,1,396,-1,201278,0
201307,424,-1906,453,-431,-158,-1255,15112,-438,-96,1368,40,35787,-31,31,127,0,0,3052,-373,2440,13605,5342,60,347,1,1,396,-1,201294,0
201317,176,-2001,503,-504,-355,-1262,14910,-433,-91,1515,8,35791,-13,31,127,0,0,3014,-329,2610,13605,5342,60,357,1,1,396,-1,201325,0
201327,62,-2056,495,-533,-417,-1322,14729,-375,29,1631,80,35787,-21,31,127,0,0,2983,-252,2790,13605,5342,60,367,1,1,396,-1,201325,0
201337,69,-2206,490,-478,-482,-1450,14573,-328,95,1734,120,35780,-28,31,127,0,0,2955,-263,2990,13605,5342,60,377,1,1,396,-1,201341,0
201347,343,-2165,661,-388,-679,-1596,14425,-340,57,1852,112,35764,-24,31,127,0,0,2928,-263,3220,13605,5342,60,387,1,1,396,-1,201341,0
201357,344,-2274,692,-339,-870,-1740,14256,-370,-32,1984,96,35762,-20,31,127,0,0,2895,-340,3390,13605,5342,60,397,1,1,396,-1,201341,0
201368,225,-2285,677,-442,-889,-1811,14073,-356,-22,2096,120,35774,-27,31,127,0,0,2861,-340,3530,13605,5342,60,408,1,1,396,-1,201357,0
201378,-92,-2194,547,-670,-699,-1956,13913,-329,21,2167,168,35780,-35,31,127,0,0,2832,-324,3680,13605,5342,60,418,1,1,396,-1,201388,0
201388,-114,-2283,374,-813,-709,-2012,13800,-215,110,2285,280,35774,-15,31,127,0,0,2814,-225,3830,13605,5342,60,428,1,1,396,-1,201388,0
201398,140,-2356,311,-867,-754,-2138,13739,-123,194,2308,480,35762,-2,31,127,0,0,2801,-148,3990,13605,5342,60,438,1,1,396,-1,201388,0
201408,91,-2392,259,-843,-822,-2206,13723,-3,175,2392,648,35757,15,31,127,0,0,2801,-32,4180,13605,5342,60,448,1,1,396,-1,201388,0
201418,93,-2267,386,-809,-851,-2413,13727,3,121,2547,768,35763,14,31,127,0,0,2801,0,4390,13605,5342,60,458,1,1,396,-1,201403,0
201428,121,-2269,488,-844,-948,-2579,13733,15,27,2699,832,35756,10,31,127,0,0,2800,16,4640,13605,5342,60,468,1,1,396,-1,201482,0
201438,87,-2388,660,-941,-1119,-2872,13738,20,8,2843,912,35753,14,31,127,0,0,2800,5,4910,13605,5342,60,478,1,1,396,-1,201482,0
201448,37,-2489,608,-1070,-1098,-3049,13748,23,15,3022,1008,35742,14,31,127,0,0,2803,16,5220,13605,5342,60,488,1,1,396,-1,201482,0
201458,-132,-2490,620,-1310,-1010,-3395,13765,44,22,3196,1128,35742,20,31,127,0,0,2805,32,5570,13605,5342,60,498,1,1,396,-1,201482,0
201468,-342,-2468,622,-1419,-1053,-3559,13827,190,106,3332,1512,35731,65,31,127,0,0,2821,137,5960,13605,5342,60,508,1,1,396,-1,201482,0
201478,-282,-2551,539,-1476,-1199,-3752,13971,391,262,3585,2184,35715,101,31,127,0,0,2843,241,6420,13605,5342,60,518,1,1,396,-1,201482,0
201488,-164,-2612,454,-1537,-1254,-3826,14232,655,395,3973,3032,35694,137,31,127,0,0,2893,472,6970,13605,5342,60,528,1,1,396,-1,201482,0
201498,-41,-2582,470,-1634,-1460,-3803,14635,997,505,4371,3968,35669,196,31,127,0,0,2964,780,7660,13605,5342,60,538,1,1,396,-1,201482,0
201508,94,-2598,450,-1683,-1618,-3688,15195,1333,588,4795,4864,35640,275,31,127,0,0,3054,933,8540,13605,5342,60,548,1,1,396,-1,201497,0
201518,74,-2658,380,-1785,-1746,-3529,15924,1709,620,5295,6008,35603,394,31,127,0,0,3192,1406,9630,13605,5342,60,558,1,1,396,-1,201528,0
201528,-186,-2763,247,-1818,-1884,-3411,16829,2104,658,5987,7160,35533,562,31,127,0,0,3358,1691,11020,13605,5342,60,568,1,1,396,-1,201528,0
201538,-923,-2517,-34,-1853,-1721,-2900,17947,2634,757,6843,8808,35431,779,31,127,0,0,3559,2070,12390,13605,5342,60,578,1,1,396,-1,201528,0
201548,-1391,-2117,85,-1761,-1753,-2834,19362,3306,1005,7664,10472,35293,1072,31,127,0,0,3813,2554,13610,13605,5342,60,588,1,1,396,-1,201544,0
201558,-342,-3389,550,-1920,-1853,-2687,20965,3578,915,8172,11504,35146,1483,31,127,0,0,4104,2966,15020,13605,5342,60,598,1,1,396,-1,201544,0
201568,-353,-3406,709,-1765,-2065,-2837,22706,3979,581,9207,12432,34995,1959,31,127,0,0,4420,3164,16640,13605,5342,60,608,1,1,396,-1,201560,0
201578,-627,-3536,616,-2009,-2392,-3080,24635,4303,651,9939,13368,34844,2454,31,127,0,0,4737,3087,18240,13605,5342,60,618,1,1,396,-1,201560,0
201588,-586,-3441,828,-2156,-2506,-3459,26608,4352,400,10451,13344,34720,2945,31,127,0,0,5080,3279,18050,13605,5342,60,628,1,1,396,-1,201575,0
201598,-668,-4526,894,-2016,-2766,-4444,28438,3805,-242,10122,11816,34654,3357,31,127,0,0,5403,3164,17490,13605,5342,60,638,1,1,396,-1,201607,0
201608,-484,-4633,1182,-1971,-2878,-5342,29920,3056,-1033,9730,9616,34709,3549,31,127,0,0,5695,2817,16500,13605,5342,60,648,1,1,396,-1,201607,0
201618,-745,-4311,1451,-1993,-2874,-6475,31138,2530,-1158,8862,7384,34852,3353,31,127,0,0,5916,2202,10970,13605,5342,60,658,1,1,396,-1,201607,0
201628,-86,-4227,1307,-1976,-2824,-7077,31929,1262,-1349,4986,2400,35106,2832,31,127,0,0,6063,1395,5120,13605,5342,60,668,1,1,396,-1,201622,0
201639,128,-3395,1141,-2425,-2629,-8352,31825,-808,-2703,1690,-848,35397,1071,31,127,0,0,6053,-329,2870,13605,5342,60,679,1,1,396,-1,201638,0
201649,-1164,-1668,1091,-2003,-2559,-8074,31154,-1656,-2603,957,-424,35638,335,31,127,0,0,5943,-1153,0,13605,5342,60,689,0,1,396,-1,201638,0
201659,-1161,-939,1599,-1594,-2260,-6272,30418,-1859,-981,-2716,-7496,35734,92,31,127,0,0,5864,-659,0,13605,5342,60,699,0,1,396,-1,201653,0
201669,1994,-2221,-728,-1605,-1600,-3389,28971,-3493,-1582,-1502,-6840,35700,224,31,127,0,0,5989,1417,0,13605,5342,60,709,0,1,396,-1,201653,0
201679,1042,-2115,-323,-1691,602,-3634,27638,-2576,-1071,1600,-3616,35717,199,31,127,0,0,5991,-131,0,13605,5342,60,719,0,1,396,-1,201669,0
201689,1190,-1890,-214,-663,3303,-2604,26756,-1729,1337,512,-2432,35732,146,31,127,0,0,5915,-823,0,13605,5342,60,729,0,1,396,-1,201669,0
201699,778,-1331,-277,-226,4277,-2139,26123,-1268,1278,31,-2576,35796,-71,31,127,0,0,5761,-1625,0,13605,5342,60,739,0,1,396,-1,201700,0
201709,452,-1028,241,455,4787,-1264,25578,-1243,581,-970,-3632,35771,3,31,127,0,0,5559,-2043,0,13605,5342,60,749,0,1,396,-1,201700,0
201719,441,-852,377,686,4731,-662,24872,-1677,-230,-1205,-4632,35752,56,31,127,0,0,5334,-2252,0,13605,5342,60,759,0,1,396,-1,201700,0
201729,593,-730,542,766,4391,310,23992,-2046,-673,-1001,-5216,35747,123,31,127,0,0,5119,-2098,0,13605,5342,60,769,0,1,396,-1,201731,0
201739,680,-671,596,774,4135,1045,23008,-2201,-518,-663,-5320,35738,141,31,127,0,0,4919,-1999,0,13605,5342,60,779,0,1,396,-1,201731,0
201749,832,-646,485,707,3763,2376,22004,-2181,-201,-471,-5208,35743,134,31,127,0,0,4741,-1746,0,13605,5342,60,789,0,1,396,-1,201731,0
201759,932,-665,396,598,3619,3285,21057,-2026,107,-290,-4840,35755,110,31,127,0,0,4590,-1472,0,13605,5342,60,799,0,1,396,-1,201763,0
201769,1027,-730,224,572,3564,4556,20181,-1891,253,-263,-4400,35760,78,31,127,0,0,4462,-1241,0,13605,5342,60,809,0,1,396,-1,201763,0
201779,999,-680,48,587,3623,5301,19353,-1789,218,-173,-3984,35770,51,31,127,0,0,4333,-1274,0,13605,5342,60,819,0,1,396,-1,201763,0
201789,1047,-586,-141,589,3847,6290,18572,-1674,182,-180,-3664,35769,42,31,127,0,0,4201,-1340,0,13605,5342,60,829,0,1,396,-1,201778,0
201799,1147,-498,-145,610,4062,6885,17848,-1556,207,-253,-3568,35777,51,31,127,0,0,4056,-1494,0,13605,5342,60,839,0,1,396,-1,201903,0
201809,1140,-446,-37,571,4168,7786,17156,-1516,160,-454,-3680,35773,53,31,127,0,0,3895,-1625,0,13605,5342,60,849,0,1,396,-1,201903,0
201819,1059,-475,30,497,4020,8436,16448,-1582,16,-555,-3896,35769,54,31,127,0,0,3733,-1614,0,13605,5342,60,859,0,1,396,-1,201903,0
201829,975,-599,134,324,3462,9466,15701,-1672,-121,-467,-3952,35755,62,31,127,0,0,3585,-1461,0,13605,5342,60,869,0,1,396,-1,201903,0
201839,989,-755,165,286,2959,10166,14937,-1672,-105,-301,-3600,35753,64,31,127,0,0,3473,-1065,0,13605,5342,60,879,0,1,396,-1,201919,0
201849,1066,-1023,276,329,2062,11036,14227,-1496,93,-155,-3024,35754,56,31,127,0,0,3394,-758,0,13605,5342,60,889,0,1,396,-1,201962,0
201859,1035,-1170,409,403,1321,11428,13624,-1248,333,-59,-2280,35760,32,31,127,0,0,3344,-461,0,13605,5342,60,899,0,1,396,-1,201962,0
201869,1083,-1545,570,490,24,11916,13149,-954,457,-33,-1528,35763,9,31,127,0,0,3326,-153,0,13605,5342,60,909,0,1,396,-1,201962,0
201879,1159,-1730,511,620,-688,12027,12807,-665,502,7,-680,35765,-4,31,127,0,0,3328,21,0,13605,5342,60,919,0,1,396,-1,201962,0
201889,1401,-2218,181,744,-1293,12533,12601,-363,515,155,24,35767,-5,31,127,0,0,3348,208,0,13605,5342,60,929,0,1,396,-1,201962,0
201899,1441,-2617,151,908,-1426,12973,12611,167,688,671,504,35771,-6,31,127,0,0,3392,450,0,13605,5342,60,939,0,1,396,-1,201962,0
201909,1375,-2939,321,1264,-1786,13529,12748,346,652,638,1040,35770,4,31,127,0,0,3465,758,0,13605,5342,60,949,0,1,396,-1,201962,0
201920,1130,-2946,488,1552,-2224,13437,13005,597,364,788,1704,35766,5,31,127,0,0,3566,884,0,13605,5342,60,960,0,1,396,-1,201962,0
201930,822,-2881,580,1903,-2791,12767,13342,795,373,658,2064,35775,12,31,127,0,0,3641,791,0,13605,5342,60,970,0,1,396,-1,201962,0
201940,845,-2911,388,2131,-2948,12185,13740,896,289,520,2088,35785,17,31,127,0,0,3704,521,0,13605,5342,60,980,0,1,396,-1,201962,0
201950,717,-2886,-128,2546,-2512,11244,14147,884,108,306,1688,35795,11,31,127,0,0,3719,93,0,13605,5342,60,990,0,1,396,-1,201962,0
201960,566,-2838,-360,2826,-1989,10871,14501,725,-101,144,1072,35795,10,31,127,0,0,3716,-49,0,13605,5342,60,1000,0,1,396,-1,201962,0
201970,533,-2540,-274,3219,-1040,10261,14772,538,-272,104,520,35790,13,31,127,0,0,3707,-104,0,13605,5342,60,1010,0,1,396,-1,201962,0
201980,676,-2483,-217,3326,-469,9808,14957,338,-327,40,120,35786,18,31,127,0,0,3696,-126,0,13605,5342,60,1020,0,1,396,-1,201962,0
201990,725,-2654,-199,3204,167,9081,15014,9,-419,-292,-104,35798,16,32,127,0,0,3676,-181,0,13605,5342,60,1030,0,1,396,-1,201978,0
202000,704,-2784,-154,2857,494,8448,14968,-94,-442,-221,-96,35808,3,32,127,0,0,3661,-159,0,13605,5342,60,1040,0,1,396,-1,202009,0
202010,661,-3229,79,2253,996,7223,14931,-59,-125,-230,-104,35811,-8,31,127,0,0,3640,-159,0,13605,5342,60,1050,0,1,396,-1,202009,0
202020,656,-3489,161,1837,1298,6134,14929,7,92,-347,-80,35796,-6,31,127,0,0,3635,-109,0,13605,5342,60,1060,0,1,396,-1,202009,0
202030,828,-3402,20,1323,1593,4022,14932,5,60,-257,-48,35793,0,31,127,0,0,3628,-60,0,13605,5342,60,1070,0,1,396,-1,202009,0
202040,971,-2996,-232,941,1586,2349,14937,13,16,-176,0,35796,-9,31,127,0,0,3621,-76,0,13605,5342,60,1080,0,1,396,-1,202041,0
202050,1211,-2517,-398,319,1608,-295,14939,-2,-5,-189,-56,35793,-7,31,127,0,0,3605,-148,0,13605,5342,60,1090,0,1,396,-1,202041,0
202060,1339,-2399,-353,-41,1618,-1937,14929,-35,-26,-474,-192,35787,0,31,127,0,0,3578,-236,0,13605,5342,60,1100,0,1,396,-1,202041,0
202070,1563,-2332,-251,-517,1747,-3946,14874,-169,-105,-556,-368,35782,13,31,127,0,0,3546,-335,0,13605,5342,60,1110,0,1,396,-1,202056,0
202080,1262,-2953,-201,-775,1923,-4891,14764,-253,-200,-413,-424,35780,1,31,127,0,0,3514,-285,0,13605,5342,60,1120,0,1,396,-1,202056,0
