state_time,accelx,accely,accelz,gyrox,gyroy,gyroz,mot_ang,mot_vel,mot_acc,mot_cur,mot_volt,batt_volt,batt_curr,temperature,status_mn,status_ex,status_re,ank_ang,ank_vel,ank_torque,peak_ank_torque,step_energy,step_count,step_time,gait_state,movement,speed,incline,sys_time,eventFlags
278993,82,-2022,340,-29,-9,-41,13858,-10,0,291,72,35827,-56,32,127,0,0,3741,21,0,23114,11459,93,11705,-4,0,71,0,279035,0
279003,76,-2025,347,-32,-6,-42,13860,10,4,318,104,35835,-57,32,127,0,0,3739,-21,0,23114,11459,93,11715,-4,0,71,0,279035,0
279013,73,-2028,348,-40,-5,-41,13860,-1,-3,307,72,35844,-59,32,127,0,0,3739,-21,0,23114,11459,93,11725,-4,0,71,0,279035,0
279023,87,-2024,342,-38,-9,-41,13859,0,-3,289,72,35838,-58,32,127,0,0,3741,21,0,23114,11459,93,11735,-4,0,71,0,279035,0
279033,102,-2025,346,-39,-9,-39,13859,-4,5,305,72,35834,-64,32,127,0,0,3739,0,0,23114,11459,93,11745,-4,0,71,0,279035,0
279043,82,-2023,342,-36,-9,-45,13859,-2,-2,292,80,35846,-60,32,127,0,0,3739,10,0,23114,11459,93,11755,-4,0,71,0,279035,0
279053,97,-2025,333,-38,-9,-42,13859,-7,0,298,72,35857,-56,32,127,0,0,3739,0,0,23114,11459,93,11765,-4,0,71,0,279066,0
279063,88,-2021,345,-35,-7,-45,13859,1,2,292,72,35852,-54,32,127,0,0,3741,10,0,23114,11459,93,11775,-4,0,71,0,279066,0
279073,83,-2023,346,-35,-11,-41,13859,9,-2,287,72,35843,-56,31,127,0,0,3737,-21,0,23114,11459,93,11785,-4,0,71,0,279066,0
279083,105,-2027,343,-40,-9,-50,13857,-7,-6,265,80,35838,-61,31,127,0,0,3739,-10,0,23114,11459,93,11795,-4,0,71,0,279066,0
279093,71,-2027,350,-38,-15,-41,13859,-1,3,273,40,35851,-52,31,127,0,0,3739,-10,0,23114,11459,93,11805,-4,0,71,0,279082,0
279103,53,-2022,349,-37,-10,-47,13857,2,0,285,72,35850,-50,32,127,0,0,3741,21,0,23114,11459,93,11815,-4,0,71,0,279191,0
279113,102,-2024,346,-40,-10,-53,13860,1,6,302,72,35841,-48,32,127,0,0,3739,0,0,23114,11459,93,11825,-4,0,71,0,279191,0
279123,89,-2030,337,-35,-13,-53,13858,-7,0,258,48,35833,-48,32,127,0,0,3739,0,0,23114,11459,93,11835,-4,0,71,0,279207,0
279133,85,-2028,352,-39,-10,-53,13858,16,-5,282,72,35835,-43,32,127,0,0,3739,-10,0,23114,11459,93,11845,-4,0,71,0,279207,0
279143,69,-2027,353,-37,-11,-59,13857,-5,3,281,40,35836,-50,32,127,0,0,3737,-32,0,23114,11459,93,11855,-4,0,71,0,279207,0
279153,68,-2028,346,-45,-14,-61,13858,10,-3,272,40,35827,-55,32,127,0,0,3739,0,0,23114,11459,93,11865,-4,0,71,0,279207,0
279163,73,-2025,342,-42,-15,-61,13858,-8,4,275,88,35827,-55,32,127,0,0,3739,10,0,23114,11459,93,11875,-4,0,71,0,279207,0
279173,83,-2031,337,-45,-12,-77,13858,-1,-3,281,40,35831,-57,32,127,0,0,3739,0,0,23114,11459,93,11885,-4,0,71,0,279207,0
279183,77,-2029,333,-35,-6,-86,13858,-2,2,255,48,35834,-55,32,127,0,0,3737,0,0,23114,11459,93,11895,-4,0,71,0,279207,0
279193,74,-2026,334,-38,0,-99,13857,-2,-1,232,56,35829,-57,32,127,0,0,3733,-43,0,23114,11459,93,11905,-4,0,71,0,279207,0
279203,108,-2030,335,-37,-3,-94,13853,-18,-7,171,24,35825,-61,32,127,0,0,3733,-32,0,23114,11459,93,11915,-4,0,71,0,279207,0
279213,109,-2025,349,-37,-5,-90,13851,-5,-6,100,16,35828,-57,32,127,0,0,3733,-21,0,23114,11459,93,11925,-4,0,71,0,279207,0
279223,105,-2027,346,-38,-12,-84,13847,-8,4,73,-8,35835,-65,32,127,0,0,3728,-65,0,23114,11459,93,11935,-4,0,71,0,279207,0
279233,95,-2020,344,-37,-8,-79,13841,-7,-11,0,-24,35849,-50,32,127,0,0,3730,-10,0,23114,11459,93,11945,-4,0,71,0,279222,0
279243,101,-2023,341,-36,-11,-66,13842,0,8,-27,-8,35871,-58,32,127,0,0,3728,0,0,23114,11459,93,11955,-4,0,71,0,279238,0
279253,104,-2027,342,-32,-8,-55,13839,-5,1,-43,-8,35875,-53,32,127,0,0,3728,0,0,23114,11459,93,11965,-4,0,71,0,279253,0
279263,103,-2026,341,-30,-5,-51,13841,5,7,-60,-32,35860,-60,32,127,0,0,3728,10,0,23114,11459,93,11975,-4,0,71,0,279253,0
279273,101,-2031,335,-32,-12,-46,13840,4,6,-19,-40,35836,-54,32,127,0,0,3728,0,0,23114,11459,93,11985,-4,0,71,0,279253,0
279283,90,-2028,341,-30,-10,-37,13839,2,4,-3,-16,35832,-50,31,127,0,0,3728,-10,0,23114,11459,93,11995,-4,0,71,0,279285,0
279293,79,-2027,335,-25,-9,-38,13837,-6,-1,-19,-40,35836,-52,32,127,0,0,3728,-10,0,23114,11459,93,12005,-4,0,71,0,279285,0
279303,63,-2023,334,-21,-12,-32,13838,5,0,-25,-40,35842,-61,32,127,0,0,3728,0,0,23114,11459,93,12015,-4,0,71,0,279285,0
279313,110,-2019,341,-22,-8,-35,13838,7,5,-3,0,35835,-58,32,127,0,0,3728,0,0,23114,11459,93,12025,-4,0,71,0,279300,0
279323,97,-2025,344,-17,-11,-38,13837,-1,-3,-45,-24,35847,-51,32,127,0,0,3726,-10,0,23114,11459,93,12035,-4,0,71,0,279316,0
279333,118,-2027,337,-15,-3,-33,13837,-4,-1,-40,0,35844,-61,31,127,0,0,3728,-10,0,23114,11459,93,12045,-4,0,71,0,279316,0
279343,85,-2020,348,-19,-8,-26,13837,-1,1,-45,0,35851,-60,32,127,0,0,3728,21,0,23114,11459,93,12055,-4,0,71,0,279331,0
279353,89,-2020,353,-21,-9,-24,13838,-3,1,-11,0,35836,-43,31,127,0,0,3728,0,0,23114,11459,93,12065,-4,0,71,0,279331,0
279363,88,-2022,352,-21,-12,-25,13837,-1,-7,-5,0,35831,-50,31,127,0,0,3728,0,0,23114,11459,93,12075,-4,0,71,0,279363,0
279373,89,-2023,347,-24,-12,-30,13837,-5,-3,-13,0,35823,-54,32,127,0,0,3728,10,0,23114,11459,93,12085,-4,0,71,0,279363,0
279383,94,-2030,343,-26,-14,-25,13838,-4,-2,-5,0,35831,-66,32,127,0,0,3728,0,0,23114,11459,93,12095,-4,0,71,0,279363,0
279393,78,-2016,348,-23,-15,-36,13839,4,5,-10,-8,35842,-65,32,127,0,0,3728,10,0,23114,11459,93,12105,-4,0,71,0,279410,0
279403,86,-2024,341,-26,-15,-40,13840,2,6,26,-8,35834,-65,32,127,0,0,3726,-65,0,23114,11459,93,12115,-4,0,71,0,279410,0
279413,81,-2030,343,-31,-12,-41,13837,-1,-8,-15,0,35825,-62,32,127,0,0,3728,0,0,23114,11459,93,12125,-4,0,71,0,279410,0
279423,91,-2025,356,-19,-14,-45,13837,-9,3,-25,0,35819,-64,31,127,0,0,3728,0,0,23114,11459,93,12135,-4,0,71,0,279410,0
279433,102,-2029,353,-28,-20,-42,13840,12,3,-15,32,35833,-64,32,127,0,0,3728,0,0,23114,11459,93,12145,-4,0,71,0,279410,0
279443,96,-2028,349,-39,-10,-49,13837,-3,-2,3,72,35839,-65,32,127,0,0,3728,10,0,23114,11459,93,12155,-4,0,71,0,279441,0
279453,79,-2028,347,-26,-10,-56,13838,-11,0,0,-16,35833,-66,32,127,0,0,3728,-10,0,23114,11459,93,12165,-4,0,71,0,279441,0
279463,87,-2023,363,-32,-18,-45,13839,0,-4,-10,32,35828,-73,32,127,0,0,3728,10,0,23114,11459,93,12175,-4,0,71,0,279441,0
279473,63,-2020,354,-35,-14,-42,13839,1,1,-3,-8,35839,-67,31,127,0,0,3728,-21,0,23114,11459,93,12185,-4,0,71,0,279550,0
279483,66,-2025,339,-40,-16,-47,13838,3,-5,5,24,35846,-54,32,127,0,0,3730,10,0,23114,11459,93,12195,-4,0,71,0,279550,0
279493,69,-2022,339,-37,-7,-56,13838,-4,-1,49,-24,35837,-43,32,127,0,0,3730,0,0,23114,11459,93,12205,-4,0,71,0,279550,0
279503,64,-2025,356,-36,-6,-53,13838,-1,1,36,-16,35823,-58,32,127,0,0,3730,0,0,23114,11459,93,12215,-4,0,71,0,279550,0
279513,116,-2027,353,-37,-5,-61,13838,-2,0,28,-16,35814,-57,32,127,0,0,3730,10,0,23114,11459,93,12225,-4,0,71,0,279566,0
279523,79,-2021,353,-37,-8,-60,13839,1,0,13,-8,35817,-62,31,127,0,0,3730,0,0,23114,11459,93,12235,-4,0,71,0,279566,0
279533,76,-2025,352,-38,-12,-63,13839,15,4,21,-8,35818,-47,31,127,0,0,3728,-21,0,23114,11459,93,12245,-4,0,71,0,279566,0
279543,71,-2022,352,-44,-9,-73,13837,1,-2,10,24,35816,-56,32,127,0,0,3730,10,0,23114,11459,93,12255,-4,0,71,0,279566,0
279553,87,-2027,355,-44,-24,-73,13839,-1,4,20,-16,35821,-46,31,127,0,0,3728,-10,0,23114,11459,93,12265,-4,0,71,0,279566,0
279563,90,-2030,355,-41,-16,-78,13838,-1,1,-13,0,35820,-58,31,127,0,0,3728,0,0,23114,11459,93,12275,-4,0,71,0,279566,0
279573,94,-2029,351,-45,-20,-83,13837,-7,-4,-14,0,35816,-42,32,127,0,0,3728,0,0,23114,11459,93,12285,-4,0,71,0,279566,0
279583,91,-2023,348,-48,-2,-100,13839,7,2,-12,-40,35827,-58,31,127,0,0,3726,-32,0,23114,11459,93,12295,-4,0,71,0,279566,0
279593,75,-2022,348,-51,1,-109,13835,0,-2,-79,-24,35847,-58,32,127,0,0,3724,-21,0,23114,11459,93,12305,-4,0,71,0,279597,0
279603,94,-2023,346,-47,-3,-117,13833,-16,-2,-138,-48,35862,-56,32,127,0,0,3722,-32,0,23114,11459,93,12315,-4,0,71,0,279597,0
279613,103,-2021,344,-48,-8,-114,13830,-15,-6,-232,-56,35853,-50,32,127,0,0,3719,-10,0,23114,11459,93,12325,-4,0,71,0,279613,0
279623,75,-2025,342,-48,1,-120,13823,-16,-11,-274,-104,35827,-59,32,127,0,0,3717,0,0,23114,11459,93,12335,-4,0,71,0,279613,0
279633,74,-2030,352,-42,-4,-132,13819,-9,2,-287,-72,35823,-67,32,127,0,0,3717,-10,0,23114,11459,93,12345,-4,0,71,0,279613,0
279643,81,-2018,350,-42,-3,-132,13813,-12,-5,-321,-96,35834,-65,32,127,0,0,3713,-32,0,23114,11459,93,12355,-4,0,71,0,279675,0
279653,97,-2023,353,-50,1,-143,13793,-45,-24,-253,-88,35843,-64,32,127,0,0,3713,-32,0,23114,11459,93,12365,-4,0,71,0,279675,0
279663,79,-2021,346,-49,-3,-149,13766,-60,-38,-205,-72,35831,-55,32,127,0,0,3708,0,0,23114,11459,93,12375,-4,0,71,0,279675,0
279673,100,-2020,350,-53,1,-155,13756,-11,15,-266,-88,35821,-69,31,127,0,0,3704,-10,0,23114,11459,93,12385,-4,0,71,0,279691,0
279683,124,-2018,354,-54,1,-156,13755,-8,42,-385,-120,35824,-53,32,127,0,0,3700,-65,0,23114,11459,93,12395,-4,0,71,0,279691,0
279693,108,-2020,358,-52,-10,-159,13734,-58,-27,-382,-104,35831,-49,32,127,0,0,3700,0,0,23114,11459,93,12405,-4,0,71,0,279691,0
279703,81,-2028,348,-54,0,-175,13699,-73,-69,-229,-104,35827,-40,32,127,0,0,3695,-10,0,23114,11459,93,12415,-4,0,71,0,279691,0
279713,80,-2025,351,-58,1,-174,13680,-20,5,-206,-96,35825,-28,32,127,0,0,3689,-87,0,23114,11459,93,12425,-4,0,71,0,279691,0
279723,138,-2027,356,-64,1,-184,13653,-78,27,-234,-56,35833,-14,31,127,0,0,3687,-32,0,23114,11459,93,12435,-4,0,71,0,279722,0
279733,80,-2029,348,-64,-4,-180,13638,-4,-7,-246,-112,35846,1,31,127,0,0,3682,-32,0,23114,11459,93,12445,-4,0,71,0,279722,0
279743,123,-2015,352,-63,0,-187,13637,-1,61,-390,-120,35841,12,32,127,0,0,3678,-54,0,23114,11459,93,12455,-4,0,71,0,279753,0
279753,116,-2023,350,-69,-5,-190,13629,-18,11,-453,-152,35844,7,32,127,0,0,3671,-65,0,23114,11459,93,12465,-4,0,71,0,279753,0
279763,126,-2028,344,-68,-10,-185,13606,-66,-38,-497,-152,35840,10,32,127,0,0,3669,-32,0,23114,11459,93,12475,-4,0,71,0,279769,0
279773,114,-2019,349,-66,2,-194,13569,-81,-64,-324,-136,35850,5,31,127,0,0,3662,-65,0,23114,11459,93,12485,-4,0,71,0,279769,0
279783,123,-2021,351,-69,-4,-179,13547,-58,-4,-457,-152,35844,-16,31,127,0,0,3658,-21,0,23114,11459,93,12495,-4,0,71,0,279769,0
279793,124,-2021,341,-68,-4,-187,13503,-109,-21,-263,-88,35843,-33,32,127,0,0,3656,-43,0,23114,11459,93,12505,-4,0,71,0,279785,0
279803,123,-2018,344,-64,-10,-173,13461,-95,-33,-226,-88,35841,-64,32,127,0,0,3651,-21,0,23114,11459,93,12515,-4,0,71,0,279785,0
279813,87,-2026,345,-67,-2,-178,13443,3,46,-213,-96,35843,-74,32,127,0,0,3647,-32,0,23114,11459,93,12525,-4,0,71,0,279800,0
279823,166,-2014,361,-71,-5,-171,13442,-19,87,-407,-104,35851,-64,32,127,0,0,3647,43,0,23114,11459,93,12535,-4,0,71,0,279800,0
279833,130,-2025,348,-73,-10,-161,13439,-3,23,-402,-160,35848,-44,32,127,0,0,3638,-76,0,23114,11459,93,12545,-4,0,71,0,279831,0
279843,140,-2017,345,-74,-19,-157,13419,-59,-30,-479,-136,35841,-43,32,127,0,0,3636,-10,0,23114,11459,93,12555,-4,0,71,0,279831,0
279853,118,-2030,342,-74,-9,-168,13380,-78,-72,-283,-80,35829,-52,32,127,0,0,3632,-65,0,23114,11459,93,12565,-4,0,71,0,279831,0
279863,125,-2029,347,-73,-1,-161,13359,-51,0,-328,-88,35832,-64,32,127,0,0,3632,-10,0,23114,11459,93,12575,-4,0,71,0,279847,0
279873,157,-2025,335,-83,-17,-162,13332,-70,17,-198,-88,35845,-64,32,127,0,0,3625,-54,0,23114,11459,93,12585,-4,0,71,0,279878,0
279883,126,-2023,332,-84,-10,-159,13312,-23,-3,-252,-80,35841,-82,32,127,0,0,3623,-43,0,23114,11459,93,12595,-4,0,71,0,279878,0
279893,150,-2019,349,-74,-9,-148,13309,-4,62,-345,-96,35840,-89,31,127,0,0,3618,-43,0,23114,11459,93,12605,-4,0,71,0,279894,0
279903,147,-2022,350,-78,-16,-142,13297,-36,11,-367,-96,35833,-98,31,127,0,0,3614,-65,0,23114,11459,93,12615,-4,0,71,0,279894,0
279913,136,-2015,352,-89,-14,-146,13264,-75,-61,-285,-88,35837,-101,32,127,0,0,3612,-54,0,23114,11459,93,12625,-4,0,71,0,279894,0
279923,117,-2027,344,-82,-8,-141,13252,-6,1,-369,-104,35844,-113,31,127,0,0,3607,-43,0,23114,11459,93,12635,-4,0,71,0,279909,0
279933,150,-2012,335,-87,-12,-139,13254,-6,69,-419,-104,35848,-122,32,127,0,0,3607,-32,0,23114,11459,93,12645,-4,0,71,0,279956,0
279943,142,-2025,337,-89,-21,-136,13253,-8,13,-449,-160,35848,-122,32,127,0,0,3605,-32,0,23114,11459,93,12655,-4,0,71,0,279956,0
279953,145,-2022,332,-81,-8,-136,13246,-22,-13,-503,-168,35843,-127,32,127,0,0,3605,0,0,23114,11459,93,12665,-4,0,71,0,279956,0
279963,142,-2026,334,-81,-10,-133,13229,-48,-35,-449,-184,35828,-112,32,127,0,0,3599,-54,0,23114,11459,93,12675,-4,0,71,0,279956,0
279973,126,-2014,325,-77,-6,-141,13188,-79,-61,-299,-136,35831,-105,31,127,0,0,3596,-54,0,23114,11459,93,12685,-4,0,71,0,279956,0
279983,153,-2030,332,-75,-7,-121,13172,-29,8,-357,-104,35846,-96,32,127,0,0,3594,-10,0,23114,11459,93,12695,-4,0,71,0,279972,0
279993,164,-2031,334,-71,-12,-114,13153,-51,42,-276,-72,35864,-82,32,127,0,0,3592,-21,0,23114,11459,93,12705,-4,0,71,0,279988,0
280003,142,-2025,333,-76,-12,-110,13139,-17,-4,-220,-136,35864,-68,32,127,0,0,3592,0,0,23114,11459,93,12715,-4,0,71,0,279988,0
280013,145,-2037,336,-68,-18,-105,13138,9,40,-248,-88,35854,-70,32,127,0,0,3588,-43,0,23114,11459,93,12725,-4,0,71,0,280003,0
280023,162,-2024,334,-68,-11,-104,13132,-17,18,-327,-144,35860,-84,32,127,0,0,3585,-43,0,23114,11459,93,12735,-4,0,71,0,280034,0
280033,156,-2018,329,-70,-9,-95,13125,-8,-20,-359,-104,35862,-96,32,127,0,0,3585,0,0,23114,11459,93,12745,-4,0,71,0,280034,0
280043,159,-2024,323,-69,-9,-87,13121,-4,7,-357,-136,35858,-87,32,127,0,0,3585,0,0,23114,11459,93,12755,-4,0,71,0,280034,0
280053,176,-2025,331,-64,-14,-78,13114,-19,2,-337,-120,35844,-70,32,127,0,0,3583,-10,0,23114,11459,93,12765,-4,0,71,0,280034,0
280063,155,-2025,329,-61,-13,-69,13097,-49,-26,-293,-80,35846,-50,32,127,0,0,3583,0,0,23114,11459,93,12775,-4,0,71,0,280050,0
280073,143,-2019,322,-54,-12,-72,13073,-40,-40,-154,-16,35856,-47,32,127,0,0,3583,32,0,23114,11459,93,12785,-4,0,71,0,280066,0
280083,147,-2026,332,-53,-9,-67,13079,12,41,-169,-64,35862,-43,32,127,0,0,3581,-10,0,23114,11459,93,12795,-4,0,71,0,280066,0
280093,142,-2022,329,-55,-15,-66,13076,11,35,-190,-48,35845,-43,31,127,0,0,3581,10,0,23114,11459,93,12805,-4,0,71,0,280081,0
280103,161,-2020,324,-49,-12,-61,13075,0,2,-155,-72,35843,-47,32,127,0,0,3581,-32,0,23114,11459,93,12815,-4,0,71,0,280097,0
280113,140,-2024,330,-47,-15,-61,13075,0,2,-195,-56,35844,-64,32,127,0,0,3579,-43,0,23114,11459,93,12825,-4,0,71,0,280097,0
280123,142,-2021,333,-48,-6,-62,13074,-4,-3,-238,-48,35862,-60,31,127,0,0,3581,0,0,23114,11459,93,12835,-4,0,71,0,280128,0
280133,161,-2025,341,-45,-12,-56,13074,-7,7,-204,-80,35853,-53,31,127,0,0,3579,-21,0,23114,11459,93,12845,-4,0,71,0,280128,0
280143,158,-2022,342,-52,-12,-52,13074,8,2,-214,-48,35846,-54,31,127,0,0,3581,-10,0,23114,11459,93,12855,-4,0,71,0,280144,0
280153,140,-2020,336,-48,-16,-48,13074,-1,0,-223,-80,35838,-63,32,127,0,0,3581,21,0,23114,11459,93,12865,-4,0,71,0,280144,0
280163,141,-2020,332,-51,-15,-49,13076,9,5,-201,-88,35843,-41,32,127,0,0,3577,-54,0,23114,11459,93,12875,-4,0,71,0,280144,0
280173,130,-2021,317,-47,-13,-55,13071,-10,-2,-247,-80,35853,-35,32,127,0,0,3581,10,0,23114,11459,93,12885,-4,0,71,0,280175,0
280183,126,-2018,333,-44,-17,-51,13073,-6,-1,-277,-128,35848,-41,32,127,0,0,3581,32,0,23114,11459,93,12895,-4,0,71,0,280175,0
280193,135,-2024,337,-43,-5,-52,13073,16,6,-221,-72,35847,-62,32,127,0,0,3579,-21,0,23114,11459,93,12905,-4,0,71,0,280191,0
280203,141,-2019,335,-39,-12,-58,13070,-12,0,-269,-88,35840,-65,32,127,0,0,3577,-21,0,23114,11459,93,12915,-4,0,71,0,280191,0
280213,138,-2021,336,-46,-14,-66,13071,9,-3,-301,-88,35843,-54,32,127,0,0,3577,-32,0,23114,11459,93,12925,-4,0,71,0,280300,0
280223,136,-2018,332,-46,-7,-71,13067,-6,3,-340,-112,35841,-59,32,127,0,0,3577,43,0,23114,11459,93,12935,-4,0,71,0,280300,0
280233,161,-2026,340,-47,-13,-70,13068,8,2,-324,-152,35841,-65,32,127,0,0,3572,-32,0,23114,11459,93,12945,-4,0,71,0,280300,0
280243,159,-2022,337,-53,-13,-75,13064,-3,4,-330,-104,35841,-67,32,127,0,0,3572,-43,0,23114,11459,93,12955,-4,0,71,0,280316,0
280253,149,-2018,339,-55,-10,-73,13062,-3,-8,-383,-96,35834,-62,32,127,0,0,3574,21,0,23114,11459,93,12965,-4,0,71,0,280316,0
280263,160,-2019,330,-50,-11,-66,13063,-2,10,-379,-120,35829,-57,32,127,0,0,3574,10,0,23114,11459,93,12975,-4,0,71,0,280316,0
280273,162,-2032,323,-51,-11,-64,13062,5,6,-325,-128,35821,-61,32,127,0,0,3574,-21,0,23114,11459,93,12985,-4,0,71,0,280316,0
280283,143,-2029,334,-52,-17,-57,13060,-4,-1,-361,-80,35829,-55,32,127,0,0,3572,0,0,23114,11459,93,12995,-4,0,71,0,280316,0
280293,158,-2021,328,-42,-11,-47,13060,-8,-2,-409,-136,35829,-64,32,127,0,0,3572,0,0,23114,11459,93,13005,-4,0,71,0,280316,0
280303,160,-2021,328,-41,-12,-50,13055,-1,-5,-391,-88,35820,-55,32,127,0,0,3572,0,0,23114,11459,93,13015,-4,0,71,0,280316,0
280313,159,-2016,335,-46,-8,-41,13054,-4,-2,-381,-96,35814,-67,31,127,0,0,3570,-21,0,23114,11459,93,13025,-4,0,71,0,280316,0
280323,165,-2014,334,-43,-7,-39,13055,4,5,-379,-104,35823,-74,32,127,0,0,3572,0,0,23114,11459,93,13035,-4,0,71,0,280316,0
280333,149,-2023,332,-39,-7,-31,13055,8,4,-378,-104,35835,-78,31,127,0,0,3572,-10,0,23114,11459,93,13045,-4,0,71,0,280316,0
280343,138,-2019,338,-44,-7,-36,13053,-10,-1,-388,-120,35841,-69,31,127,0,0,3572,0,0,23114,11459,93,13055,-4,0,71,0,280331,0
280353,158,-2027,332,-44,-8,-35,13051,-6,-10,-360,-56,35861,-54,32,127,0,0,3572,0,0,23114,11459,93,13065,-4,0,71,0,280331,0
280363,160,-2019,336,-43,-6,-35,13051,-12,-2,-376,-96,35863,-64,31,127,0,0,3572,-10,0,23114,11459,93,13075,-4,0,71,0,280347,0
280373,141,-2019,332,-46,-10,-31,13049,-5,-8,-368,-80,35872,-60,31,127,0,0,3572,21,0,23114,11459,93,13085,-4,0,71,0,280378,0
280383,149,-2014,324,-48,-5,-41,13050,8,2,-332,-128,35850,-53,32,127,0,0,3572,0,0,23114,11459,93,13095,-4,0,71,0,280378,0
280393,164,-2016,336,-46,-6,-36,13048,-3,6,-350,-72,35832,-36,31,127,0,0,3572,32,0,23114,11459,93,13105,-4,0,71,0,280378,0
280403,168,-2023,336,-44,-1,-42,13046,7,0,-336,-40,35823,-41,32,127,0,0,3570,-10,0,23114,11459,93,13115,-4,0,71,0,280409,0
280413,151,-2025,337,-48,-8,-37,13045,-8,7,-333,-80,35831,-49,32,127,0,0,3572,0,0,23114,11459,93,13125,-4,0,71,0,280409,0
280423,138,-2028,336,-46,-10,-34,13047,0,-3,-313,-88,35833,-60,32,127,0,0,3572,0,0,23114,11459,93,13135,-4,0,71,0,280409,0
280433,155,-2023,338,-49,-7,-39,13045,-3,-1,-313,-80,35825,-54,32,127,0,0,3570,-21,0,23114,11459,93,13145,-4,0,71,0,280409,0
280443,166,-2019,330,-51,-7,-43,13043,-10,-8,-327,-80,35819,-63,32,127,0,0,3570,-21,0,23114,11459,93,13155,-4,0,71,0,280441,0
280453,131,-2021,331,-47,-10,-33,13041,-1,-4,-283,-72,35829,-70,32,127,0,0,3572,-10,0,23114,11459,93,13165,-4,0,71,0,280441,0
280463,153,-2020,333,-44,-14,-35,13040,-1,1,-275,-104,35840,-63,32,127,0,0,3572,0,0,23114,11459,93,13175,-4,0,71,0,280441,0
280473,169,-2025,331,-47,-6,-38,13036,-12,-5,-267,-64,35838,-51,32,127,0,0,3572,21,0,23114,11459,93,13185,-4,0,71,0,280472,0
280483,160,-2021,323,-46,-4,-36,13034,-1,-3,-225,-56,35834,-52,32,127,0,0,3572,0,0,23114,11459,93,13195,-4,0,71,0,280472,0
280493,150,-2021,326,-44,-9,-33,13033,-5,14,-213,-72,35832,-60,32,127,0,0,3574,10,0,23114,11459,93,13205,-4,0,71,0,280472,0
280503,133,-2023,339,-42,-8,-34,13036,1,-3,-191,-64,35844,-67,31,127,0,0,3570,-32,0,23114,11459,93,13215,-4,0,71,0,280487,0
280513,148,-2011,339,-46,-7,-38,13032,-10,-6,-248,-8,35842,-67,32,127,0,0,3572,10,0,23114,11459,93,13225,-4,0,71,0,280487,0
280523,159,-2020,331,-44,-2,-43,13032,2,-4,-231,-56,35838,-67,32,127,0,0,3572,-10,0,23114,11459,93,13235,-4,0,71,0,280519,0
280533,148,-2019,332,-45,-12,-39,13031,0,2,-221,-56,35837,-77,31,127,0,0,3572,0,0,23114,11459,93,13245,-4,0,71,0,280519,0
280543,151,-2018,337,-39,-8,-35,13032,9,1,-199,-64,35832,-68,31,127,0,0,3570,-21,0,23114,11459,93,13255,-4,0,71,0,280534,0
280553,136,-2021,339,-46,-12,-47,13031,-5,-1,-186,-32,35840,-62,32,127,0,0,3572,0,0,23114,11459,93,13265,-4,0,71,0,280550,0
280563,153,-2020,339,-46,-6,-40,13030,-14,0,-214,-48,35834,-52,31,127,0,0,3572,0,0,23114,11459,93,13275,-4,0,71,0,280566,0
280573,146,-2016,328,-43,0,-42,13031,2,-3,-184,-32,35832,-47,32,127,0,0,3572,-10,0,23114,11459,93,13285,-4,0,71,0,280566,0
280583,145,-2028,336,-43,-7,-42,13030,-8,-3,-217,-48,35833,-44,32,127,0,0,3574,21,0,23114,11459,93,13295,-4,0,71,0,280566,0
280593,158,-2030,336,-43,-9,-41,13030,3,-3,-191,-48,35832,-58,32,127,0,0,3572,0,0,23114,11459,93,13305,-4,0,71,0,280659,0
280603,151,-2028,336,-41,-1,-43,13028,3,4,-214,-48,35830,-59,32,127,0,0,3572,0,0,23114,11459,93,13315,-4,0,71,0,280659,0
280613,159,-2028,335,-42,-5,-42,13027,-2,0,-221,-48,35830,-74,31,127,0,0,3572,0,0,23114,11459,93,13325,-4,0,71,0,280659,0
280623,159,-2022,335,-47,-4,-41,13029,7,8,-193,-80,35830,-66,32,127,0,0,3574,0,0,23114,11459,93,13335,-4,0,71,0,280659,0
280633,167,-2028,337,-45,-6,-30,13030,2,-3,-174,-48,35831,-70,32,127,0,0,3574,21,0,23114,11459,93,13345,-4,0,71,0,280659,0
280643,130,-2021,331,-42,-2,-31,13029,13,8,-161,-48,35825,-63,32,127,0,0,3572,-32,0,23114,11459,93,13355,-4,0,71,0,280675,0
280653,137,-2024,333,-50,-6,-37,13027,0,0,-172,-24,35820,-58,32,127,0,0,3572,-10,0,23114,11459,93,13365,-4,0,71,0,280675,0
280663,159,-2022,335,-48,-2,-40,13026,-12,2,-212,-8,35829,-63,32,127,0,0,3572,0,0,23114,11459,93,13375,-4,0,71,0,280675,0
280673,139,-2012,337,-47,-3,-39,13028,-5,5,-211,-16,35836,-62,32,127,0,0,3572,10,0,23114,11459,93,13385,-4,0,71,0,280675,0
280683,166,-2027,328,-47,-3,-36,13028,-4,2,-166,-16,35837,-52,31,127,0,0,3577,21,0,23114,11459,93,13395,-4,0,71,0,280675,0
280693,165,-2019,339,-46,-8,-37,13029,-1,0,-132,-24,35834,-43,32,127,0,0,3577,32,0,23114,11459,93,13405,-4,0,71,0,280675,0
280703,132,-2015,337,-50,-2,-34,13029,-2,-4,-118,-24,35843,-44,32,127,0,0,3574,21,0,23114,11459,93,13415,-4,0,71,0,280691,0
280713,159,-2007,328,-48,-9,-45,13028,-9,-5,-142,-24,35846,-51,32,127,0,0,3574,10,0,23114,11459,93,13425,-4,0,71,0,280691,0
280723,139,-2013,332,-54,-5,-39,13028,-1,-2,-150,-56,35842,-45,32,127,0,0,3574,10,0,23114,11459,93,13435,-4,0,71,0,280706,0
280733,146,-2019,327,-51,-9,-37,13028,1,1,-157,-48,35832,-37,31,127,0,0,3572,-10,0,23114,11459,93,13445,-4,0,71,0,280737,0
280743,163,-2016,328,-50,-8,-36,13029,3,1,-161,-48,35831,-40,32,127,0,0,3574,0,0,23114,11459,93,13455,-4,0,71,0,280737,0
280753,160,-2018,338,-54,-13,-37,13028,1,7,-160,-48,35841,-50,32,127,0,0,3572,0,0,23114,11459,93,13465,-4,0,71,0,280737,0
280763,172,-2028,336,-52,-9,-32,13029,3,7,-105,-72,35834,-61,32,127,0,0,3574,-10,0,23114,11459,93,13475,-4,0,71,0,280769,0
280773,143,-2030,337,-57,-10,-35,13029,5,3,-119,-24,35834,-56,32,127,0,0,3574,0,0,23114,11459,93,13485,-4,0,71,0,280769,0
280783,152,-2030,335,-55,-11,-30,13028,-5,-3,-134,-24,35838,-54,31,127,0,0,3577,43,0,23114,11459,93,13495,-4,0,71,0,280769,0
280793,141,-2028,328,-56,-12,-31,13032,12,6,-72,-80,35846,-46,32,127,0,0,3577,0,0,23114,11459,93,13505,-4,0,71,0,280769,0
280803,125,-2023,324,-54,-11,-32,13030,-6,3,-83,8,35852,-46,32,127,0,0,3577,21,0,23114,11459,93,13515,-4,0,71,0,280800,0
280813,139,-2028,320,-51,-11,-32,13032,0,-5,-92,8,35851,-60,32,127,0,0,3577,10,0,23114,11459,93,13525,-4,0,71,0,280800,0
280823,150,-2026,324,-57,-6,-33,13031,-7,5,-56,-80,35841,-64,32,127,0,0,3574,0,0,23114,11459,93,13535,-4,0,71,0,280816,0
280833,177,-2027,312,-52,-8,-43,13031,-1,-3,-70,-80,35842,-63,32,127,0,0,3577,21,0,23114,11459,93,13545,-4,0,71,0,280816,0
280843,135,-2027,332,-51,-6,-33,13032,18,-1,-44,-8,35847,-53,32,127,0,0,3577,-10,0,23114,11459,93,13555,-4,0,71,0,280831,0
280853,150,-2012,329,-44,-4,-28,13030,-6,-1,-114,-64,35855,-39,32,127,0,0,3574,21,0,23114,11459,93,13565,-4,0,71,0,280847,0
280863,151,-2027,335,-43,-8,-26,13033,11,2,-55,-16,35846,-35,32,127,0,0,3577,-10,0,23114,11459,93,13575,-4,0,71,0,280847,0
280873,130,-2027,326,-43,-10,-29,13031,0,7,-84,0,35850,-49,32,127,0,0,3574,-10,0,23114,11459,93,13585,-4,0,71,0,280878,0
280883,156,-2020,327,-42,-6,-36,13032,4,-7,-99,-32,35842,-57,32,127,0,0,3577,21,0,23114,11459,93,13595,-4,0,71,0,280878,0
280893,130,-2019,323,-37,-3,-34,13036,25,14,-1,-16,35848,-52,32,127,0,0,3577,-43,0,23114,11459,93,13605,-4,0,71,0,280878,0
280903,124,-2003,328,-36,-11,-43,13032,-6,-7,-26,8,35843,-45,31,127,0,0,3577,-10,0,23114,11459,93,13615,-4,0,71,0,280925,0
280913,125,-2014,330,-37,-9,-46,13033,-7,-6,-66,-16,35850,-55,32,127,0,0,3577,10,0,23114,11459,93,13625,-4,0,71,0,280925,0
280923,143,-2023,333,-39,-8,-55,13034,6,8,-41,-16,35851,-66,32,127,0,0,3579,0,0,23114,11459,93,13635,-4,0,71,0,280940,0
280933,139,-2023,337,-42,-13,-59,13035,3,-4,-5,8,35851,-73,32,127,0,0,3579,-10,0,23114,11459,93,13645,-4,0,71,0,280940,0
280943,116,-2027,344,-41,-8,-66,13035,3,-2,-20,8,35829,-54,32,127,0,0,3577,-10,0,23114,11459,93,13655,-4,0,71,0,280940,0
280953,99,-2027,341,-44,-13,-71,13038,27,3,38,-8,35824,-56,31,127,0,0,3577,-65,0,23114,11459,93,13665,-4,0,71,0,280940,0
280963,121,-2021,346,-50,-13,-77,13035,-10,-3,-65,-16,35834,-63,32,127,0,0,3577,-10,0,23114,11459,93,13675,-4,0,71,0,280940,0
280973,150,-2026,346,-61,-13,-78,13037,5,-6,-51,-16,35845,-65,31,127,0,0,3577,-10,0,23114,11459,93,13685,-4,0,71,0,280987,0
280983,146,-2026,343,-67,-19,-73,13033,-20,3,-74,24,35849,-70,31,127,0,0,3577,32,0,23114,11459,93,13695,-4,0,71,0,281003,0
280993,136,-2025,343,-73,-15,-81,13036,7,1,-62,-56,35840,-68,32,127,0,0,3579,0,0,23114,11459,93,13705,-4,0,71,0,281003,0
281003,113,-2029,335,-74,-18,-79,13034,5,-2,-33,-16,35840,-70,32,127,0,0,3574,-21,0,23114,11459,93,13715,-4,0,71,0,281003,0
281013,157,-2020,337,-85,-18,-93,13032,-7,-10,-101,-80,35843,-56,32,127,0,0,3577,10,0,23114,11459,93,13725,-4,0,71,0,281050,0
281023,141,-2030,329,-82,-10,-91,13032,5,6,-87,-48,35849,-46,32,127,0,0,3574,-10,0,23114,11459,93,13735,-4,0,71,0,281050,0
281033,165,-2018,330,-85,-6,-90,13029,-12,4,-177,-16,35856,-62,32,127,0,0,3574,32,0,23114,11459,93,13745,-4,0,71,0,281050,0
281043,151,-2034,332,-84,-7,-84,13030,0,0,-186,-48,35859,-59,32,127,0,0,3572,0,0,23114,11459,93,13755,-4,0,71,0,281050,0
281053,155,-2026,328,-89,-7,-76,13027,4,4,-203,-48,35862,-60,32,127,0,0,3570,-21,0,23114,11459,93,13765,-4,0,71,0,281050,0
281063,181,-2022,331,-90,-8,-64,13025,-9,-3,-231,-48,35851,-41,32,127,0,0,3570,-10,0,23114,11459,93,13775,-4,0,71,0,281050,0
281073,177,-2028,331,-85,-10,-55,13025,0,1,-246,-72,35840,-51,31,127,0,0,3572,21,0,23114,11459,93,13785,-4,0,71,0,281065,0
281083,174,-2023,326,-88,-7,-45,13027,4,7,-199,-80,35860,-57,32,127,0,0,3572,-10,0,23114,11459,93,13795,-4,0,71,0,281065,0
281093,183,-2031,329,-94,-5,-33,13024,-5,-3,-223,-24,35870,-61,32,127,0,0,3572,21,0,23114,11459,93,13805,-4,0,71,0,281097,0
281103,174,-2028,327,-91,-5,-28,13025,-5,2,-201,-72,35882,-61,32,127,0,0,3570,-10,0,23114,11459,93,13815,-4,0,71,0,281097,0
281113,161,-2021,325,-92,-5,-16,13023,-9,-5,-237,-56,35860,-47,32,127,0,0,3570,0,0,23114,11459,93,13825,-4,0,71,0,281097,0
281123,172,-2020,316,-88,-1,-14,13024,1,-1,-233,-24,35835,-52,32,127,0,0,3570,0,0,23114,11459,93,13835,-4,0,71,0,281112,0
281133,160,-2015,320,-78,0,-9,13024,1,2,-219,-72,35830,-52,32,127,0,0,3570,0,0,23114,11459,93,13845,-4,0,71,0,281112,0
281143,162,-2013,317,-83,-6,-6,13025,3,0,-190,-72,35835,-51,32,127,0,0,3570,-32,0,23114,11459,93,13855,-4,0,71,0,281128,0
281153,135,-2025,325,-83,2,8,13025,-1,2,-210,-32,35844,-58,32,127,0,0,3572,0,0,23114,11459,93,13865,-4,0,71,0,281159,0
281163,148,-2021,325,-81,2,4,13024,-7,-4,-205,-24,35849,-61,32,127,0,0,3572,10,0,23114,11459,93,13875,-4,0,71,0,281175,0
281173,161,-2030,322,-81,-2,17,13025,6,1,-190,-40,35845,-76,32,127,0,0,3572,0,0,23114,11459,93,13885,-4,0,71,0,281175,0
281183,154,-2026,323,-84,-3,22,13026,8,4,-134,-24,35842,-64,32,127,0,0,3574,0,0,23114,11459,93,13895,-4,0,71,0,281175,0
281193,165,-2021,324,-82,-20,42,13028,6,4,-50,64,35838,-55,32,127,0,0,3579,32,0,23114,11459,93,13905,-4,0,71,0,281175,0
281203,158,-2030,318,-86,-20,50,13035,3,11,-28,-24,35841,-41,32,127,0,0,3581,65,0,23114,11459,93,13915,-4,0,71,0,281190,0
281213,136,-2031,325,-82,-17,54,13037,9,-3,76,32,35841,-42,32,127,0,0,3583,32,0,23114,11459,93,13925,-4,0,71,0,281190,0
281223,132,-2025,326,-84,-7,46,13041,12,1,141,40,35856,-46,32,127,0,0,3583,0,0,23114,11459,93,13935,-4,0,71,0,281222,0
281233,161,-2018,324,-85,-10,42,13054,30,15,125,24,35864,-52,32,127,0,0,3588,21,0,23114,11459,93,13945,-4,0,71,0,281222,0
281243,148,-2027,315,-81,-16,56,13079,54,41,77,0,35865,-38,32,127,0,0,3592,21,0,23114,11459,93,13955,-4,0,71,0,281222,0
281253,125,-2025,319,-85,-15,47,13081,-1,-22,182,16,35863,-50,32,127,0,0,3594,43,0,23114,11459,93,13965,-4,0,71,0,281253,0
281263,110,-2024,321,-83,-9,54,13084,12,-40,259,104,35860,-60,32,127,0,0,3594,32,0,23114,11459,93,13975,-4,0,71,0,281253,0
281273,143,-2021,322,-81,-9,36,13091,13,17,279,80,35863,-70,32,127,0,0,3601,54,0,23114,11459,93,13985,-4,0,71,0,281269,0
281283,114,-2019,317,-87,-16,37,13096,19,-2,364,128,35854,-57,32,127,0,0,3601,32,0,23114,11459,93,13995,-4,0,71,0,281269,0
281293,120,-2037,306,-88,-16,31,13112,45,21,331,120,35837,-43,32,127,0,0,3605,32,0,23114,11459,93,14005,-4,0,71,0,281300,0
281303,113,-2037,311,-82,-15,25,13147,78,60,217,48,35834,-51,32,127,0,0,3605,0,0,23114,11459,93,14015,-4,0,71,0,281300,0
281313,132,-2028,322,-81,-15,15,13160,1,-11,186,56,35836,-52,32,127,0,0,3607,21,0,23114,11459,93,14025,-4,0,71,0,281300,0
281323,101,-2032,307,-83,-9,4,13159,11,-72,280,48,35829,-59,32,127,0,0,3610,0,0,23114,11459,93,14035,-4,0,71,0,281300,0
281333,120,-2026,322,-83,-10,-11,13162,5,-10,290,112,35835,-48,32,127,0,0,3612,21,0,23114,11459,93,14045,-4,0,71,0,281393,0
281343,107,-2033,320,-81,-20,-12,13170,25,13,280,48,35834,-64,32,127,0,0,3610,0,0,23114,11459,93,14055,-4,0,71,0,281393,0
281353,118,-2027,314,-78,-10,-27,13188,48,33,167,48,35841,-58,32,127,0,0,3610,-21,0,23114,11459,93,14065,-4,0,71,0,281409,0
281363,146,-2029,313,-81,-16,-23,13204,16,15,58,8,35828,-70,32,127,0,0,3612,0,0,23114,11459,93,14075,-4,0,71,0,281409,0
281373,117,-2022,308,-77,-11,-36,13202,-1,-43,118,48,35823,-71,31,127,0,0,3612,0,0,23114,11459,93,14085,-4,0,71,0,281409,0
281383,150,-2014,308,-76,-10,-41,13207,10,-12,137,32,35820,-72,32,127,0,0,3614,-43,0,23114,11459,93,14095,-4,0,71,0,281409,0
281393,111,-2026,302,-65,-15,-38,13203,7,0,120,40,35832,-73,32,127,0,0,3614,-10,0,23114,11459,93,14105,-4,0,71,0,281409,0
281403,133,-2025,305,-63,-13,-41,13203,-11,0,80,24,35831,-78,32,127,0,0,3614,21,0,23114,11459,93,14115,-4,0,71,0,281409,0
281413,138,-2024,303,-59,-21,-38,13206,18,7,131,72,35829,-79,32,127,0,0,3612,-10,0,23114,11459,93,14125,-4,0,71,0,281409,0
281423,165,-2015,295,-54,-12,-40,13208,-4,10,129,72,35825,-79,31,127,0,0,3616,0,0,23114,11459,93,14135,-4,0,71,0,281409,0
281433,135,-2027,304,-48,-12,-28,13209,12,-5,150,0,35832,-82,32,127,0,0,3616,10,0,23114,11459,93,14145,-4,0,71,0,281409,0
281443,123,-2020,300,-42,-16,-20,13208,1,-3,174,56,35848,-90,32,127,0,0,3614,21,0,23114,11459,93,14155,-4,0,71,0,281440,0
281453,143,-2023,304,-44,-14,-32,13208,-11,3,177,8,35843,-84,32,127,0,0,3614,-21,0,23114,11459,93,14165,-4,0,71,0,281440,0
281463,134,-2023,301,-35,-11,-27,13209,2,0,182,40,35837,-74,32,127,0,0,3614,-32,0,23114,11459,93,14175,-4,0,71,0,281472,0
281473,123,-2034,310,-36,-10,-24,13209,-7,1,212,40,35828,-75,32,127,0,0,3616,-21,0,23114,11459,93,14185,-4,0,71,0,281472,0
281483,139,-2031,319,-28,-13,-17,13213,4,-2,254,72,35833,-85,32,127,0,0,3618,0,0,23114,11459,93,14195,-4,0,71,0,281487,0
281493,130,-2027,316,-24,-10,-14,13217,3,3,260,64,35827,-85,32,127,0,0,3618,-21,0,23114,11459,93,14205,-4,0,71,0,281487,0
281503,136,-2031,318,-33,-8,-18,13217,16,-2,274,48,35827,-76,32,127,0,0,3618,-32,0,23114,11459,93,14215,-4,0,71,0,281487,0
281513,135,-2027,313,-30,-12,-16,13216,-8,-8,271,88,35831,-87,32,127,0,0,3623,21,0,23114,11459,93,14225,-4,0,71,0,281518,0
281523,134,-2034,318,-31,-11,-14,13224,20,12,284,72,35840,-92,32,127,0,0,3621,-10,0,23114,11459,93,14235,-4,0,71,0,281518,0
281533,128,-2031,313,-31,-13,-12,13231,16,12,274,80,35840,-93,32,127,0,0,3623,10,0,23114,11459,93,14245,-4,0,71,0,281518,0
281543,124,-2025,314,-30,-13,-7,13252,48,22,171,40,35825,-84,31,127,0,0,3623,0,0,23114,11459,93,14255,-4,0,71,0,281518,0
281553,116,-2020,307,-32,-23,-16,13268,17,14,73,64,35823,-88,32,127,0,0,3625,0,0,23114,11459,93,14265,-4,0,71,0,281550,0
281563,127,-2029,299,-32,-7,-26,13266,6,-42,144,32,35830,-107,32,127,0,0,3625,-10,0,23114,11459,93,14275,-4,0,71,0,281565,0
281573,162,-2034,337,-31,-13,-15,13266,-5,-25,144,72,35839,-120,32,127,0,0,3625,10,0,23114,11459,93,14285,-4,0,71,0,281565,0
281583,154,-2019,342,-40,-18,-2,13268,0,1,178,56,35830,-112,32,127,0,0,3627,0,0,23114,11459,93,14295,-4,0,71,0,281581,0
281593,132,-2028,318,-50,-20,6,13269,4,-3,201,56,35826,-110,31,127,0,0,3627,10,0,23114,11459,93,14305,-4,0,71,0,281581,0
281603,116,-2026,299,-43,-11,-6,13272,9,0,274,56,35833,-123,32,127,0,0,3629,-21,0,23114,11459,93,14315,-4,0,71,0,281612,0
281613,134,-2022,311,-40,-12,-13,13275,-5,3,292,80,35845,-130,31,127,0,0,3634,43,0,23114,11459,93,14325,-4,0,71,0,281612,0
281623,126,-2017,315,-39,-7,-14,13281,14,7,365,96,35846,-128,31,127,0,0,3632,-32,0,23114,11459,93,14335,-4,0,71,0,281612,0
281633,119,-2021,319,-45,-12,-15,13283,5,-4,320,96,35835,-114,32,127,0,0,3636,32,0,23114,11459,93,14345,-4,0,71,0,281612,0
281643,117,-2028,323,-51,-12,-7,13286,14,-8,379,80,35826,-101,32,127,0,0,3636,32,0,23114,11459,93,14355,-4,0,71,0,281659,0
281653,118,-2022,312,-50,-6,-20,13292,12,10,405,128,35837,-107,32,127,0,0,3636,-21,0,23114,11459,93,14365,-4,0,71,0,281659,0
281663,121,-2022,317,-49,-5,-26,13300,15,13,303,120,35835,-125,32,127,0,0,3636,0,0,23114,11459,93,14375,-4,0,71,0,281659,0
281673,120,-2019,324,-48,-10,-29,13315,26,14,202,56,35827,-116,32,127,0,0,3636,10,0,23114,11459,93,14385,-4,0,71,0,281659,0
281683,128,-2017,318,-58,-16,-39,13326,18,2,183,72,35822,-103,31,127,0,0,3638,-10,0,23114,11459,93,14395,-4,0,71,0,281659,0
281693,116,-2027,314,-57,-9,-50,13324,-17,-32,226,48,35836,-95,32,127,0,0,3640,43,0,23114,11459,93,14405,-4,0,71,0,281753,0
281703,112,-2030,317,-55,-8,-57,13329,5,-13,265,72,35840,-96,32,127,0,0,3638,0,0,23114,11459,93,14415,-4,0,71,0,281753,0
281713,136,-2024,307,-54,-9,-66,13327,-20,-5,183,56,35837,-87,32,127,0,0,3636,0,0,23114,11459,93,14425,-4,0,71,0,281753,0
281723,161,-2032,311,-60,-9,-70,13331,15,-10,209,32,35828,-77,32,127,0,0,3640,-10,0,23114,11459,93,14435,-4,0,71,0,281753,0
281733,111,-2029,313,-58,-16,-60,13330,0,5,270,40,35830,-74,32,127,0,0,3638,0,0,23114,11459,93,14445,-4,0,71,0,281753,0
281743,128,-2032,318,-55,-13,-68,13328,-7,-5,216,16,35833,-84,32,127,0,0,3636,-10,0,23114,11459,93,14455,-4,0,71,0,281768,0
281753,117,-2035,302,-60,-12,-75,13329,6,7,216,88,35830,-82,32,127,0,0,3640,10,0,23114,11459,93,14465,-4,0,71,0,281768,0
281763,124,-2041,306,-45,-11,-72,13331,1,7,214,56,35826,-87,31,127,0,0,3636,-21,0,23114,11459,93,14475,-4,0,71,0,281768,0
281773,135,-2041,305,-47,-6,-79,13330,7,-2,196,48,35826,-96,32,127,0,0,3636,-32,0,23114,11459,93,14485,-4,0,71,0,281768,0
281783,130,-2032,302,-43,-11,-91,13327,-3,-8,151,56,35846,-104,31,127,0,0,3638,10,0,23114,11459,93,14495,-4,0,71,0,281768,0
281793,123,-2026,316,-37,0,-99,13329,3,7,172,16,35873,-106,31,127,0,0,3638,-21,0,23114,11459,93,14505,-4,0,71,0,281784,0
281803,97,-2029,308,-34,4,-113,13327,9,3,119,-8,35875,-104,32,127,0,0,3632,-54,0,23114,11459,93,14515,-4,0,71,0,281784,0
281813,132,-2022,307,-40,-3,-117,13322,-12,-11,5,-16,35861,-117,32,127,0,0,3632,-10,0,23114,11459,93,14525,-4,0,71,0,281800,0
281823,135,-2031,305,-39,0,-105,13320,-5,3,-84,-24,35851,-121,32,127,0,0,3629,0,0,23114,11459,93,14535,-4,0,71,0,281815,0
281833,128,-2021,312,-34,-5,-111,13317,-7,4,-126,-40,35856,-102,32,127,0,0,3625,-43,0,23114,11459,93,14545,-4,0,71,0,281815,0
281843,134,-2013,301,-34,-6,-111,13309,-20,-8,-153,-32,35858,-94,31,127,0,0,3625,-21,0,23114,11459,93,14555,-4,0,71,0,281831,0
281853,147,-2025,316,-29,-8,-112,13304,-18,0,-214,0,35846,-80,32,127,0,0,3623,-10,0,23114,11459,93,14565,-4,0,71,0,281847,0
281863,139,-2022,316,-31,-4,-106,13293,-32,-6,-203,0,35851,-93,32,127,0,0,3621,-32,0,23114,11459,93,14575,-4,0,71,0,281847,0
281873,135,-2018,310,-29,-5,-117,13273,-44,-33,-67,-40,35858,-104,32,127,0,0,3618,-54,0,23114,11459,93,14585,-4,0,71,0,281862,0
281883,137,-2022,309,-32,-6,-111,13269,11,12,-96,-56,35864,-91,31,127,0,0,3618,-21,0,23114,11459,93,14595,-4,0,71,0,281878,0
281893,157,-2027,310,-29,-4,-107,13267,-14,37,-157,-40,35854,-93,32,127,0,0,3618,-10,0,23114,11459,93,14605,-4,0,71,0,281878,0
281903,130,-2030,309,-31,0,-102,13267,-3,0,-249,-80,35856,-95,32,127,0,0,3614,-21,0,23114,11459,93,14615,-4,0,71,0,281893,0
281913,117,-2036,310,-22,-3,-111,13260,-4,-5,-266,-72,35841,-114,32,127,0,0,3610,-76,0,23114,11459,93,14625,-4,0,71,0,281909,0
281923,161,-2032,311,-25,-5,-107,13256,-19,2,-371,-120,35840,-108,32,127,0,0,3610,-21,0,23114,11459,93,14635,-4,0,71,0,281909,0
281933,153,-2033,317,-26,-4,-95,13250,-9,0,-380,-136,35838,-109,31,127,0,0,3610,0,0,23114,11459,93,14645,-4,0,71,0,281909,0
281943,156,-2029,319,-27,-2,-91,13244,-9,-4,-371,-112,35842,-94,32,127,0,0,3607,-21,0,23114,11459,93,14655,-4,0,71,0,281940,0
281953,148,-2031,312,-22,-5,-73,13231,-33,-3,-332,-88,35850,-106,32,127,0,0,3607,-32,0,23114,11459,93,14665,-4,0,71,0,281940,0
281963,166,-2036,312,-22,-4,-71,13207,-57,-30,-230,-64,35846,-101,32,127,0,0,3607,0,0,23114,11459,93,14675,-4,0,71,0,281940,0
281973,134,-2036,314,-21,-4,-51,13202,21,11,-176,-72,35854,-98,32,127,0,0,3607,10,0,23114,11459,93,14685,-4,0,71,0,281971,0
281983,148,-2029,323,-18,-11,-46,13201,-4,54,-208,-32,35855,-90,32,127,0,0,3605,10,0,23114,11459,93,14695,-4,0,71,0,281971,0
281993,154,-2040,319,-27,-7,-33,13203,14,15,-195,-16,35859,-98,32,127,0,0,3603,-43,0,23114,11459,93,14705,-4,0,71,0,281971,0
282003,170,-2027,311,-29,-3,-38,13202,4,6,-169,-56,35855,-102,32,127,0,0,3607,-10,0,23114,11459,93,14715,-4,0,71,0,281991,0
282013,150,-2021,308,-23,-2,-22,13203,-3,0,-187,-48,35848,-82,31,127,0,0,3607,21,0,23114,11459,93,14725,-4,0,71,0,281991,0
282023,139,-2025,309,-21,0,-28,13204,12,4,-183,-56,35856,-74,32,127,0,0,3607,-10,0,23114,11459,93,14735,-4,0,71,0,282023,0
282033,147,-2019,296,-17,0,-18,13201,9,3,-193,-48,35849,-71,32,127,0,0,3607,32,0,23114,11459,93,14745,-4,0,71,0,282038,0
282043,147,-2010,303,-14,0,-18,13204,1,6,-161,-88,35855,-78,32,127,0,0,3605,-32,0,23114,11459,93,14755,-4,0,71,0,282038,0
282053,130,-2023,313,-13,8,-23,13200,9,-5,-205,-112,35841,-76,32,127,0,0,3603,-21,0,23114,11459,93,14765,-4,0,71,0,282038,0
282063,132,-2017,315,-15,0,-22,13202,13,5,-168,-56,35840,-70,32,127,0,0,3603,-43,0,23114,11459,93,14775,-4,0,71,0,282116,0
282073,128,-2025,328,-15,3,-38,13200,-6,7,-167,-64,35839,-86,32,127,0,0,3607,10,0,23114,11459,93,14785,-4,0,71,0,282116,0
282083,106,-2018,327,-11,1,-29,13202,8,-1,-159,-96,35841,-77,32,127,0,0,3607,21,0,23114,11459,93,14795,-4,0,71,0,282116,0
282093,162,-2025,325,-24,-2,-32,13201,-8,2,-157,-8,35839,-83,32,127,0,0,3607,21,0,23114,11459,93,14805,-4,0,71,0,282116,0
282103,130,-2021,323,-22,-3,-37,13201,-3,-4,-173,-56,35835,-74,32,127,0,0,3607,43,0,23114,11459,93,14815,-4,0,71,0,282132,0
282113,128,-2028,318,-22,-9,-50,13204,10,4,-116,-64,35832,-93,32,127,0,0,3607,-10,0,23114,11459,93,14825,-4,0,71,0,282132,0
282123,77,-2036,323,-22,-7,-53,13203,12,-1,-119,-24,35841,-102,32,127,0,0,3607,0,0,23114,11459,93,14835,-4,0,71,0,282132,0
282133,142,-2026,318,-24,-4,-68,13201,-17,-2,-138,-24,35841,-98,32,127,0,0,3605,0,0,23114,11459,93,14845,-4,0,71,0,282132,0
282143,165,-2032,323,-30,-5,-71,13202,-3,-2,-165,-24,35842,-85,32,127,0,0,3607,21,0,23114,11459,93,14855,-4,0,71,0,282132,0
282153,125,-2031,327,-32,-14,-60,13204,0,8,-129,-64,35837,-83,31,127,0,0,3607,0,0,23114,11459,93,14865,-4,0,71,0,282148,0
282163,94,-2033,332,-28,-9,-67,13203,8,-2,-137,-48,35855,-91,31,127,0,0,3607,0,0,23114,11459,93,14875,-4,0,71,0,282148,0
282173,140,-2032,327,-36,-5,-80,13202,8,1,-147,-64,35868,-90,32,127,0,0,3607,10,0,23114,11459,93,14885,-4,0,71,0,282179,0
282183,118,-2033,334,-39,-7,-82,13202,2,4,-156,-48,35866,-85,32,127,0,0,3605,-10,0,23114,11459,93,14895,-4,0,71,0,282179,0
282193,169,-2032,326,-42,-9,-86,13199,-12,-7,-210,-40,35854,-77,32,127,0,0,3605,21,0,23114,11459,93,14905,-4,0,71,0,282179,0
282203,155,-2023,323,-51,-9,-94,13200,6,-1,-217,-128,35837,-74,32,127,0,0,3603,0,0,23114,11459,93,14915,-4,0,71,0,282210,0
282213,142,-2030,313,-50,4,-98,13197,-21,0,-282,-120,35847,-87,32,127,0,0,3601,0,0,23114,11459,93,14925,-4,0,71,0,282210,0
282223,132,-2016,318,-50,4,-100,13192,-8,-13,-334,-64,35839,-88,32,127,0,0,3599,-32,0,23114,11459,93,14935,-4,0,71,0,282226,0
282233,156,-2023,318,-47,1,-98,13186,-19,-8,-401,-112,35836,-79,31,127,0,0,3596,-21,0,23114,11459,93,14945,-4,0,71,0,282226,0
282243,160,-2023,322,-51,-5,-85,13179,-19,-5,-371,-96,35829,-78,32,127,0,0,3596,-10,0,23114,11459,93,14955,-4,0,71,0,282226,0
282253,166,-2020,324,-49,1,-64,13163,-39,-20,-289,-136,35849,-76,32,127,0,0,3592,-43,0,23114,11459,93,14965,-4,0,71,0,282257,0
282263,154,-2016,322,-49,-2,-74,13136,-49,-32,-146,-72,35847,-79,32,127,0,0,3594,0,0,23114,11459,93,14975,-4,0,71,0,282257,0
282273,193,-2018,334,-55,-5,-48,13136,5,44,-192,-56,35846,-67,32,127,0,0,3592,0,0,23114,11459,93,14985,-4,0,71,0,282273,0
282283,164,-2013,321,-54,-4,-45,13137,4,50,-178,-104,35832,-62,32,127,0,0,3592,-32,0,23114,11459,93,14995,-4,0,71,0,282273,0
282293,172,-2019,308,-51,-3,-30,13134,-7,-12,-224,-56,35850,-65,32,127,0,0,3592,10,0,23114,11459,93,15005,-4,0,71,0,282288,0
282303,146,-2023,305,-53,1,-27,13135,-2,6,-212,-32,35864,-61,32,127,0,0,3592,10,0,23114,11459,93,15015,-4,0,71,0,282351,0
282313,125,-2027,307,-48,-6,-15,13135,-7,0,-202,-56,35866,-52,32,127,0,0,3592,-21,0,23114,11459,93,15025,-4,0,71,0,282366,0
282323,156,-2021,302,-37,-4,-19,13136,9,-1,-243,-48,35862,-49,32,127,0,0,3592,10,0,23114,11459,93,15035,-4,0,71,0,282366,0
282333,143,-2031,310,-35,2,-8,13136,6,7,-207,-56,35850,-49,32,127,0,0,3592,-21,0,23114,11459,93,15045,-4,0,71,0,282382,0
282343,137,-2031,306,-33,-1,-9,13135,1,0,-178,-64,35855,-53,32,127,0,0,3592,-32,0,23114,11459,93,15055,-4,0,71,0,282382,0
282353,149,-2040,315,-24,4,-1,13135,-4,-4,-175,-64,35842,-55,32,127,0,0,3592,-21,0,23114,11459,93,15065,-4,0,71,0,282382,0
282363,159,-2034,319,-19,2,9,13136,0,0,-162,-32,35834,-49,32,127,0,0,3594,0,0,23114,11459,93,15075,-4,0,71,0,282382,0
282373,136,-2031,307,-15,0,18,13138,8,3,-138,-40,35826,-52,32,127,0,0,3596,10,0,23114,11459,93,15085,-4,0,71,0,282382,0
282383,141,-2032,313,-12,0,30,13139,14,6,-92,-40,35837,-58,32,127,0,0,3594,-21,0,23114,11459,93,15095,-4,0,71,0,282397,0
282393,147,-2031,315,-8,-6,51,13136,1,-2,-120,0,35844,-59,32,127,0,0,3596,10,0,23114,11459,93,15105,-4,0,71,0,282397,0
282403,172,-2031,314,-10,-13,71,13141,8,4,-5,24,35851,-73,32,127,0,0,3603,76,0,23114,11459,93,15115,-4,0,71,0,282397,0
282413,167,-2039,310,2,-18,81,13150,16,17,92,32,35866,-83,32,127,0,0,3607,65,0,23114,11459,93,15125,-4,0,71,0,282397,0
282423,127,-2028,308,-1,-16,72,13153,8,-5,226,72,35885,-84,31,127,0,0,3610,43,0,23114,11459,93,15135,-4,0,71,0,282491,0
282433,137,-2024,317,13,-6,78,13169,47,13,255,64,35886,-67,31,127,0,0,3612,32,0,23114,11459,93,15145,-4,0,71,0,282507,0
282443,133,-2019,306,13,-4,84,13199,80,57,133,48,35874,-69,32,127,0,0,3614,10,0,23114,11459,93,15155,-4,0,71,0,282507,0
282453,162,-2019,313,18,-18,93,13216,3,8,88,80,35849,-78,31,127,0,0,3618,32,0,23114,11459,93,15165,-4,0,71,0,282507,0
282463,117,-2022,314,19,-13,101,13218,18,-64,266,88,35838,-91,31,127,0,0,3623,21,0,23114,11459,93,15175,-4,0,71,0,282507,0
282473,130,-2020,323,17,-1,84,13231,37,-2,306,104,35838,-84,32,127,0,0,3625,21,0,23114,11459,93,15185,-4,0,71,0,282522,0
282483,132,-2023,332,17,-5,85,13266,103,69,213,120,35831,-79,32,127,0,0,3629,10,0,23114,11459,93,15195,-4,0,71,0,282522,0
282493,174,-2013,340,12,-16,96,13294,19,31,190,112,35825,-80,32,127,0,0,3636,43,0,23114,11459,93,15205,-4,0,71,0,282522,0
282503,96,-2026,318,14,-8,105,13298,16,-74,321,128,35821,-99,32,127,0,0,3643,87,0,23114,11459,93,15215,-4,0,71,0,282522,0
282513,113,-2020,316,17,-4,93,13322,77,-3,341,88,35823,-108,32,127,0,0,3647,76,0,23114,11459,93,15225,-4,0,71,0,282522,0
282523,147,-2018,332,14,-7,91,13349,55,55,339,104,35819,-101,32,127,0,0,3647,0,0,23114,11459,93,15235,-4,0,71,0,282522,0
282533,122,-2028,331,13,-6,101,13360,21,-29,387,128,35835,-89,32,127,0,0,3647,-43,0,23114,11459,93,15245,-4,0,71,0,282522,0
282543,141,-2017,322,19,-7,103,13382,52,-10,289,112,35858,-71,32,127,0,0,3658,76,0,23114,11459,93,15255,-4,0,71,0,282522,0
282553,151,-2023,328,15,-10,119,13413,50,43,244,72,35870,-64,32,127,0,0,3660,65,0,23114,11459,93,15265,-4,0,71,0,282538,0
282563,97,-2019,327,16,-10,115,13430,37,-15,287,80,35866,-47,32,127,0,0,3662,43,0,23114,11459,93,15275,-4,0,71,0,282569,0
282573,112,-2027,327,21,-5,116,13460,71,-4,225,104,35854,-44,32,127,0,0,3667,32,0,23114,11459,93,15285,-4,0,71,0,282569,0
282583,126,-2019,332,17,-12,114,13468,-4,-6,320,128,35840,-54,32,127,0,0,3673,43,0,23114,11459,93,15295,-4,0,71,0,282569,0
282593,71,-2031,336,11,0,101,13473,16,-58,452,136,35837,-65,32,127,0,0,3676,21,0,23114,11459,93,15305,-4,0,71,0,282569,0
282603,94,-2025,340,10,-3,86,13482,27,4,469,168,35836,-66,32,127,0,0,3678,32,0,23114,11459,93,15315,-4,0,71,0,282601,0
282613,77,-2034,340,10,-4,71,13508,77,44,403,128,35838,-43,32,127,0,0,3682,43,0,23114,11459,93,15325,-4,0,71,0,282616,0
282623,91,-2031,356,1,-5,74,13539,54,52,330,128,35834,-47,31,127,0,0,3687,54,0,23114,11459,93,15335,-4,0,71,0,282616,0
282633,48,-2025,358,-2,1,64,13563,66,-15,355,96,35831,-56,31,127,0,0,3691,21,0,23114,11459,93,15345,-4,0,71,0,282616,0
282643,90,-2031,358,-13,-2,61,13600,70,17,183,112,35832,-52,32,127,0,0,3693,43,0,23114,11459,93,15355,-4,0,71,0,282647,0
282653,63,-2029,347,-23,-9,50,13622,51,-15,242,120,35835,-31,32,127,0,0,3697,21,0,23114,11459,93,15365,-4,0,71,0,282647,0
282663,93,-2035,339,-28,-8,58,13652,60,-8,161,40,35832,-5,32,127,0,0,3697,10,0,23114,11459,93,15375,-4,0,71,0,282663,0
282673,72,-2038,337,-30,-18,34,13649,-14,-42,262,136,35835,16,32,127,0,0,3702,32,0,23114,11459,93,15385,-4,0,71,0,282663,0
282683,88,-2039,333,-27,-12,40,13653,3,-50,324,112,35851,11,32,127,0,0,3706,43,0,23114,11459,93,15395,-4,0,71,0,282663,0
282693,68,-2039,342,-31,-6,22,13658,16,8,432,160,35862,27,31,127,0,0,3706,0,0,23114,11459,93,15405,-4,0,71,0,282694,0
282703,95,-2032,338,-34,-7,10,13661,0,-7,420,136,35861,29,32,127,0,0,3708,0,0,23114,11459,93,15415,-4,0,71,0,282694,0
282713,95,-2025,336,-31,-1,7,13662,2,-8,436,136,35849,12,32,127,0,0,3711,21,0,23114,11459,93,15425,-4,0,71,0,282694,0
282723,96,-2023,334,-30,2,3,13667,21,0,530,176,35843,2,32,127,0,0,3713,0,0,23114,11459,93,15435,-4,0,71,0,282726,0
282733,116,-2021,341,-29,-4,8,13689,56,41,439,152,35840,1,32,127,0,0,3713,-10,0,23114,11459,93,15445,-4,0,71,0,282726,0
282743,125,-2023,341,-33,-10,37,13723,46,53,224,88,35835,4,32,127,0,0,3715,10,0,23114,11459,93,15455,-4,0,71,0,282726,0
282753,91,-2019,318,-28,-7,29,13725,1,-48,338,104,35842,-12,32,127,0,0,3717,0,0,23114,11459,93,15465,-4,0,71,0,282757,0
282763,104,-2021,313,-23,-2,46,13727,10,-54,394,88,35855,-32,32,127,0,0,3719,21,0,23114,11459,93,15475,-4,0,71,0,282757,0
282773,111,-2020,325,-16,11,46,13735,34,14,459,120,35858,-32,32,127,0,0,3724,0,0,23114,11459,93,15485,-4,0,71,0,282757,0
282783,119,-2015,333,-14,8,56,13757,67,35,346,88,35858,-26,31,127,0,0,3724,21,0,23114,11459,93,15495,-4,0,71,0,282772,0
282793,151,-2017,330,-6,-6,94,13787,42,49,215,72,35846,-29,31,127,0,0,3730,76,0,23114,11459,93,15505,-4,0,71,0,282897,0
282803,77,-2025,333,-1,-5,86,13793,15,-42,361,160,35852,-52,31,127,0,0,3733,43,0,23114,11459,93,15515,-4,0,71,0,282897,0
282813,81,-2017,336,-2,1,83,13804,35,-31,412,136,35845,-60,32,127,0,0,3737,54,0,23114,11459,93,15525,-4,0,71,0,282897,0
282823,71,-2023,346,-9,2,85,13844,95,65,291,88,35832,-64,31,127,0,0,3739,32,0,23114,11459,93,15535,-4,0,71,0,282897,0
282833,77,-2030,354,-18,-8,79,13856,-5,3,307,80,35828,-52,32,127,0,0,3741,32,0,23114,11459,93,15545,-4,0,71,0,282897,0
282843,30,-2030,344,-17,-1,64,13856,11,-75,432,120,35833,-61,31,127,0,0,3746,21,0,23114,11459,93,15555,-4,0,71,0,282913,0
282853,43,-2030,351,-20,1,38,13868,28,-3,439,128,35840,-60,31,127,0,0,3746,10,0,23114,11459,93,15565,-4,0,71,0,282913,0
282863,37,-2037,351,-35,4,21,13893,67,52,320,104,35832,-58,32,127,0,0,3750,32,0,23114,11459,93,15575,-4,0,71,0,282913,0
282873,71,-2029,347,-28,-2,5,13912,15,20,250,96,35829,-46,31,127,0,0,3748,10,0,23114,11459,93,15585,-4,0,71,0,282913,0
282883,50,-2032,334,-29,0,-15,13909,1,-65,313,96,35834,-47,32,127,0,0,3750,0,0,23114,11459,93,15595,-4,0,71,0,282913,0
282893,48,-2028,346,-37,0,-27,13910,-2,-25,290,96,35841,-56,32,127,0,0,3748,-21,0,23114,11459,93,15605,-4,0,71,0,282913,0
282903,71,-2034,350,-40,-5,-39,13908,1,-2,268,64,35836,-59,32,127,0,0,3748,0,0,23114,11459,93,15615,-4,0,71,0,282913,0
282913,78,-2029,352,-37,-9,-35,13909,-2,2,295,56,35832,-38,32,127,0,0,3748,-32,0,23114,11459,93,15625,-4,0,71,0,282913,0
282923,70,-2024,349,-40,-8,-34,13907,-4,-2,251,72,35831,-46,32,127,0,0,3750,32,0,23114,11459,93,15635,-4,0,71,0,282913,0
282933,108,-2018,361,-44,2,-36,13910,2,0,298,56,35844,-53,32,127,0,0,3748,-10,0,23114,11459,93,15645,-4,0,71,0,282913,0
282943,88,-2013,355,-50,-4,-32,13909,9,-6,292,96,35865,-63,32,127,0,0,3750,0,0,23114,11459,93,15655,-4,0,71,0,282944,0
282953,108,-2018,346,-54,-1,-19,13910,-11,-2,270,64,35864,-45,32,127,0,0,3750,21,0,23114,11459,93,15665,-4,0,71,0,282944,0
282963,72,-2018,342,-59,-5,-19,13907,1,-6,265,104,35859,-45,32,127,0,0,3748,0,0,23114,11459,93,15675,-4,0,71,0,282944,0
282973,47,-2021,341,-57,-7,-20,13909,0,4,282,96,35849,-56,32,127,0,0,3750,0,0,23114,11459,93,15685,-4,0,71,0,282960,0
282983,71,-2024,341,-57,-4,-18,13909,-9,-7,263,112,35849,-63,32,127,0,0,3748,0,0,23114,11459,93,15695,-4,0,71,0,282960,0
282993,79,-2026,338,-61,2,-18,13910,7,1,290,16,35860,-66,32,127,0,0,3750,0,0,23114,11459,93,15705,-4,0,71,0,282991,0
283003,68,-2026,335,-58,-4,-7,13912,15,1,327,88,35860,-67,32,127,0,0,3750,0,0,23114,11459,93,15715,-4,0,71,0,282991,0
283013,91,-2029,337,-62,-13,10,13911,4,7,343,120,35857,-79,32,127,0,0,3752,0,0,23114,11459,93,15725,-4,0,71,0,282991,0
283023,92,-2029,338,-61,-13,3,13915,18,8,404,56,35863,-90,31,127,0,0,3755,0,0,23114,11459,93,15735,-4,0,71,0,283022,0
283033,41,-2023,338,-65,-16,-13,13918,1,7,401,120,35857,-73,32,127,0,0,3755,-10,0,23114,11459,93,15745,-4,0,71,0,283022,0
283043,31,-2027,336,-63,-6,-30,13918,-3,0,361,112,35858,-58,32,127,0,0,3752,-21,0,23114,11459,93,15755,-4,0,71,0,283022,0
283053,38,-2032,335,-68,-5,-53,13922,5,-3,357,112,35846,-54,32,127,0,0,3755,0,0,23114,11459,93,15765,-4,0,71,0,283054,0
283063,42,-2020,340,-72,-18,-62,13928,5,6,346,64,35849,-63,31,127,0,0,3755,0,0,23114,11459,93,15775,-4,0,71,0,283069,0
283073,33,-2032,356,-91,-23,-82,13943,41,23,274,72,35847,-81,31,127,0,0,3755,0,0,23114,11459,93,15785,-4,0,71,0,283069,0
283083,39,-2034,354,-96,-31,-90,13957,22,23,109,40,35846,-81,32,127,0,0,3752,0,0,23114,11459,93,15795,-4,0,71,0,283069,0
283093,41,-2034,357,-90,-7,-153,13957,-3,-32,110,8,35855,-86,32,127,0,0,3750,-43,0,23114,11459,93,15805,-4,0,71,0,283069,0
283103,-5,-2032,340,-92,12,-183,13954,-13,-41,-28,-24,35862,-95,32,127,0,0,3746,-32,0,23114,11459,93,15815,-4,0,71,0,283116,0
283113,56,-2028,360,-94,18,-186,13948,-14,-6,-128,-56,35870,-103,32,127,0,0,3739,-109,0,23114,11459,93,15825,-4,0,71,0,283116,0
283123,123,-2023,351,-105,1,-183,13925,-74,-43,-249,-96,35854,-86,32,127,0,0,3737,-32,0,23114,11459,93,15835,-4,0,71,0,283116,0
283133,80,-2023,326,-103,-4,-194,13884,-66,-69,-24,-24,35845,-65,31,127,0,0,3730,-76,0,23114,11459,93,15845,-4,0,71,0,283116,0
283143,155,-1990,340,-111,-4,-190,13870,-33,40,-208,-80,35852,-56,31,127,0,0,3726,-43,0,23114,11459,93,15855,-4,0,71,0,283132,0
283153,433,-2011,318,-153,-21,-378,13840,-92,8,-144,-64,35867,-57,32,127,0,0,3724,-43,0,23114,11459,93,15865,-4,0,71,0,283225,0
283163,652,-2004,149,-207,58,-870,13824,0,-11,-178,-128,35865,-59,32,127,0,0,3704,-241,0,23114,11459,93,15875,-4,0,71,0,283225,0
283173,167,-1932,337,-259,54,-621,13791,-130,3,-649,-440,35853,-48,32,127,0,0,3671,-307,0,23114,11459,93,15885,-4,0,71,0,283225,0
283183,192,-2118,517,-150,-47,-281,13675,-291,-214,-405,-336,35833,-38,32,127,0,0,3662,-109,0,23114,11459,93,15895,-4,0,71,0,283225,0
283193,408,-2080,251,-190,-77,-351,13554,-233,-148,-201,-176,35837,-19,32,127,0,0,3660,-54,0,23114,11459,93,15905,-4,0,71,0,283241,0
283203,466,-2009,96,-214,-12,-747,13481,-132,111,-127,-136,35834,-12,32,127,0,0,3640,-230,0,23114,11459,93,15915,-4,0,71,0,283241,0
283213,231,-1908,205,-235,73,-878,13425,-128,120,-371,-296,35834,-10,32,127,0,0,3614,-329,0,23114,11459,93,15925,-4,0,71,0,283241,0
283223,386,-2024,384,-214,35,-617,13340,-221,-39,-478,-392,35828,-39,32,127,0,0,3594,-197,0,23114,11459,93,15935,-4,0,71,0,283241,0
283233,540,-2057,273,-222,-83,-528,13226,-240,-117,-352,-328,35834,-77,31,127,0,0,3583,-120,0,23114,11459,93,15945,-4,0,71,0,283241,0
283243,446,-2025,104,-256,-71,-670,13124,-212,-10,-301,-296,35837,-81,31,127,0,0,3568,-164,0,23114,11459,93,15955,-4,0,71,0,283241,0
283253,275,-2018,91,-141,62,-739,13037,-177,54,-302,-256,35843,-68,32,127,0,0,3548,-175,0,23114,11459,93,15965,-4,0,71,0,283241,0
283263,406,-2035,320,-72,41,-569,12961,-160,45,-387,-256,35858,-51,32,127,0,0,3535,-153,0,23114,11459,93,15975,-4,0,71,0,283241,0
283273,769,-1993,572,-118,-61,-281,12872,-209,-3,-251,-176,35880,-37,32,127,0,0,3533,-32,0,23114,11459,93,15985,-4,0,71,0,283272,0
283283,673,-2019,325,-202,-148,-219,12824,-62,56,-103,-48,35884,-36,32,127,0,0,3533,-10,0,23114,11459,93,15995,-4,0,71,0,283272,0
283293,383,-2036,-83,-133,-77,-277,12833,31,196,-166,-72,35872,-16,32,127,0,0,3535,-10,0,23114,11459,93,16005,-4,0,71,0,283272,0
283303,352,-2032,-22,-51,-44,-292,12830,-13,67,-155,-96,35860,-5,32,127,0,0,3535,10,0,23114,11459,93,16015,-4,0,71,0,283288,0
283313,410,-2087,285,32,-63,-184,12832,22,-15,-127,-96,35865,-17,32,127,0,0,3531,-65,0,23114,11459,93,16025,-4,0,71,0,283319,0
283323,298,-2127,368,10,-102,-179,12827,-7,4,-195,-8,35876,-26,32,127,0,0,3535,21,0,23114,11459,93,16035,-4,0,71,0,283319,0
283333,161,-2087,340,-12,-74,-291,12833,6,7,-162,-72,35856,-29,32,127,0,0,3533,-21,0,23114,11459,93,16045,-4,0,71,0,283319,0
283343,170,-2058,300,-31,-35,-344,12827,-11,-2,-188,-48,35847,-22,32,127,0,0,3533,10,0,23114,11459,93,16055,-4,0,71,0,283319,0
283353,313,-2022,329,-17,-60,-344,12829,-2,-7,-190,-48,35849,-25,32,127,0,0,3535,10,0,23114,11459,93,16065,-4,0,71,0,283350,0
283363,225,-2053,350,-28,-88,-335,12828,5,3,-188,-80,35855,-19,32,127,0,0,3533,10,0,23114,11459,93,16075,-4,0,71,0,283350,0
283373,86,-2125,418,-5,-84,-413,12828,-3,-1,-184,-48,35853,-9,32,127,0,0,3533,10,0,23114,11459,93,16085,-4,0,71,0,283366,0
283383,90,-2117,424,-38,-68,-484,12830,2,-1,-192,-88,35837,2,31,127,0,0,3531,-10,0,23114,11459,93,16095,-4,0,71,0,283366,0
283393,144,-2012,473,-146,-135,-549,12830,3,1,-144,-32,35842,-2,32,127,0,0,3533,-21,0,23114,11459,93,16105,-4,0,71,0,283397,0
283403,232,-2102,388,-237,-154,-569,12826,-28,-14,-218,-64,35852,-22,32,127,0,0,3531,10,0,23114,11459,93,16115,-4,0,71,0,283397,0
283413,163,-2084,367,-310,-172,-616,12829,25,-4,-182,-48,35849,-30,32,127,0,0,3533,-10,0,23114,11459,93,16125,-4,0,71,0,283413,0
283423,135,-2044,371,-329,-204,-667,12830,-7,7,-135,-64,35852,-26,32,127,0,0,3535,-10,0,23114,11459,93,16135,-4,0,71,0,283413,0
283433,178,-2079,321,-341,-197,-715,12830,0,-13,-151,-16,35834,-11,31,127,0,0,3533,0,0,23114,11459,93,16145,-4,0,71,0,283413,0
283443,242,-2064,283,-361,-175,-726,12829,-3,11,-105,-40,35840,-11,31,127,0,0,3537,10,0,23114,11459,93,16155,-4,0,71,0,283444,0
283453,311,-2037,218,-359,-137,-722,12829,-17,-1,-116,-64,35844,-17,31,127,0,0,3537,21,0,23114,11459,93,16165,-4,0,71,0,283444,0
283463,369,-2072,230,-353,-121,-710,12833,21,8,-66,-48,35844,-10,31,127,0,0,3535,-43,0,23114,11459,93,16175,-4,0,71,0,283444,0
283473,422,-1994,222,-338,-97,-658,12827,-6,-3,-111,-24,35840,3,32,127,0,0,3537,32,0,23114,11459,93,16185,-4,0,71,0,283507,0
283483,460,-2001,183,-341,-92,-575,12833,8,6,-50,24,35832,9,31,127,0,0,3541,32,0,23114,11459,93,16195,-4,0,71,0,283522,0
283493,487,-1966,168,-301,-90,-450,12838,18,8,109,80,35834,-1,31,127,0,0,3548,76,0,23114,11459,93,16205,-4,0,71,0,283522,0
283503,499,-1942,180,-261,-104,-367,12868,89,50,194,72,35833,-4,32,127,0,0,3559,98,0,23114,11459,93,16215,-4,0,71,0,283522,0
283513,534,-1939,181,-232,-95,-240,12913,71,88,203,96,35835,16,32,127,0,0,3568,98,0,23114,11459,93,16225,-4,0,71,0,283616,0
283523,500,-1908,197,-206,-80,-202,12947,93,-7,322,152,35829,11,32,127,0,0,3581,109,0,23114,11459,93,16235,-4,0,71,0,283616,0
283533,548,-1893,193,-186,-82,-129,12992,109,2,360,208,35830,-17,32,127,0,0,3590,98,0,23114,11459,93,16245,-4,0,71,0,283616,0
283543,456,-1862,218,-169,-107,-63,13061,156,73,268,136,35833,-49,32,127,0,0,3605,153,0,23114,11459,93,16255,-4,0,71,0,283616,0
283553,419,-1905,236,-144,-140,-12,13129,135,44,259,160,35839,-55,32,127,0,0,3614,131,0,23114,11459,93,16265,-4,0,71,0,283616,0
283563,373,-1931,254,-135,-176,-2,13188,129,-32,278,144,35842,-64,32,127,0,0,3623,87,0,23114,11459,93,16275,-4,0,71,0,283616,0
283573,297,-1975,259,-130,-175,-48,13251,127,-12,225,112,35840,-79,32,127,0,0,3634,76,0,23114,11459,93,16285,-4,0,71,0,283616,0
283583,232,-1993,266,-139,-159,-72,13301,81,-18,211,80,35837,-102,32,127,0,0,3640,65,0,23114,11459,93,16295,-4,0,71,0,283616,0
283593,153,-1992,261,-145,-129,-141,13337,83,-58,281,120,35832,-104,32,127,0,0,3645,21,0,23114,11459,93,16305,-4,0,71,0,283616,0
283603,213,-2027,254,-157,-111,-191,13357,31,-53,358,112,35836,-96,32,127,0,0,3651,32,0,23114,11459,93,16315,-4,0,71,0,283616,0
283613,195,-2018,272,-173,-98,-277,13376,61,-35,350,96,35841,-77,32,127,0,0,3651,21,0,23114,11459,93,16325,-4,0,71,0,283616,0
283623,244,-2030,281,-198,-95,-316,13404,50,20,157,40,35841,-54,32,127,0,0,3651,-21,0,23114,11459,93,16335,-4,0,71,0,283616,0
283633,256,-2012,287,-233,-95,-355,13400,-21,-44,191,48,35832,-40,31,127,0,0,3651,0,0,23114,11459,93,16345,-4,0,71,0,283616,0
283643,288,-2030,270,-255,-102,-382,13404,13,-51,207,64,35837,-15,32,127,0,0,3651,-21,0,23114,11459,93,16355,-4,0,71,0,283632,0
283653,299,-2043,271,-256,-112,-391,13402,-6,8,194,48,35848,-23,32,127,0,0,3651,-21,0,23114,11459,93,16365,-4,0,71,0,283647,0
283663,336,-2036,268,-236,-115,-387,13404,5,-5,187,40,35850,-37,32,127,0,0,3651,-21,0,23114,11459,93,16375,-4,0,71,0,283663,0
283673,395,-2001,248,-214,-118,-367,13402,3,10,178,-24,35844,-45,32,127,0,0,3651,0,0,23114,11459,93,16385,-4,0,71,0,283663,0
283683,405,-1973,213,-215,-121,-356,13403,16,-1,200,40,35833,-37,32,127,0,0,3649,-43,0,23114,11459,93,16395,-4,0,71,0,283663,0
283693,435,-1948,175,-215,-108,-305,13398,-21,-2,122,32,35836,-26,32,127,0,0,3649,0,0,23114,11459,93,16405,-4,0,71,0,283678,0
283703,412,-1953,164,-197,-110,-263,13398,-11,-4,87,32,35843,-34,32,127,0,0,3647,10,0,23114,11459,93,16415,-4,0,71,0,283694,0
283713,392,-2002,170,-180,-99,-239,13400,-2,7,95,64,35843,-45,32,127,0,0,3649,0,0,23114,11459,93,16425,-4,0,71,0,283694,0
283723,391,-2013,177,-178,-89,-235,13400,0,-6,115,24,35851,-50,32,127,0,0,3651,-10,0,23114,11459,93,16435,-4,0,71,0,283725,0
283733,341,-2023,192,-183,-58,-223,13401,15,-1,156,16,35843,-44,32,127,0,0,3649,-32,0,23114,11459,93,16445,-4,0,71,0,283725,0
283743,334,-2035,196,-184,-39,-217,13399,-4,-2,129,32,35841,-63,32,127,0,0,3651,10,0,23114,11459,93,16455,-4,0,71,0,283725,0
283753,309,-2026,215,-182,-15,-212,13402,11,2,116,-16,35836,-69,32,127,0,0,3649,-21,0,23114,11459,93,16465,-4,0,71,0,283741,0
283763,298,-2031,237,-175,-30,-217,13401,13,3,145,16,35849,-64,32,127,0,0,3651,21,0,23114,11459,93,16475,-4,0,71,0,283757,0
283773,328,-2035,255,-173,-23,-227,13401,1,5,151,-8,35849,-50,32,127,0,0,3649,-21,0,23114,11459,93,16485,-4,0,71,0,283772,0
283783,303,-2025,262,-185,-27,-237,13401,8,-5,122,24,35845,-51,32,127,0,0,3647,-21,0,23114,11459,93,16495,-4,0,71,0,283772,0
283793,328,-2032,257,-194,-38,-259,13397,-16,-5,47,80,35844,-47,32,127,0,0,3649,32,0,23114,11459,93,16505,-4,0,71,0,283772,0
283803,374,-2026,238,-192,-38,-267,13401,8,6,93,24,35852,-51,32,127,0,0,3651,0,0,23114,11459,93,16515,-4,0,71,0,283803,0
283813,376,-2020,240,-195,-57,-266,13399,-2,4,130,24,35855,-34,32,127,0,0,3647,-10,0,23114,11459,93,16525,-4,0,71,0,283803,0
283823,398,-2033,230,-210,-62,-274,13397,-11,-10,75,32,35854,-26,32,127,0,0,3649,21,0,23114,11459,93,16535,-4,0,71,0,283819,0
283833,306,-1967,234,-225,-81,-295,13399,2,6,76,72,35842,-36,32,127,0,0,3651,43,0,23114,11459,93,16545,-4,0,71,0,283819,0
283843,345,-2033,217,-245,-92,-305,13402,11,3,153,48,35841,-32,32,127,0,0,3651,21,0,23114,11459,93,16555,-4,0,71,0,283819,0
283853,309,-2085,249,-233,-61,-317,13401,1,-5,183,8,35843,-35,32,127,0,0,3651,0,0,23114,11459,93,16565,-4,0,71,0,283866,0
283863,298,-2046,249,-222,-72,-336,13401,-2,-10,143,64,35838,-40,32,127,0,0,3647,-21,0,23114,11459,93,16575,-4,0,71,0,283882,0
283873,294,-2057,242,-241,-70,-368,13400,1,-2,98,32,35834,-47,31,127,0,0,3649,-21,0,23114,11459,93,16585,-4,0,71,0,283944,0
283883,326,-2059,223,-253,-74,-382,13400,6,4,127,64,35836,-39,31,127,0,0,3649,-10,0,23114,11459,93,16595,-4,0,71,0,283944,0
283893,347,-2038,194,-254,-60,-393,13398,-11,0,133,64,35836,-26,32,127,0,0,3649,-10,0,23114,11459,93,16605,-4,0,71,0,283944,0
283903,363,-2050,176,-260,-61,-408,13399,-9,-2,132,16,35848,-43,32,127,0,0,3649,-21,0,23114,11459,93,16615,-4,0,71,0,283960,0
283913,324,-2070,198,-268,-34,-418,13401,12,-6,138,16,35861,-62,32,127,0,0,3649,-21,0,23114,11459,93,16625,-4,0,71,0,283960,0
283923,386,-2064,215,-274,-31,-424,13399,-8,1,148,48,35868,-70,32,127,0,0,3654,43,0,23114,11459,93,16635,-4,0,71,0,283960,0
283933,381,-2063,188,-305,-68,-352,13402,7,3,185,80,35857,-59,32,127,0,0,3656,65,0,23114,11459,93,16645,-4,0,71,0,283960,0
283943,466,-2079,181,-322,-79,-329,13410,28,13,383,152,35842,-42,32,127,0,0,3662,21,0,23114,11459,93,16655,-4,0,71,0,283960,0
283953,435,-2072,163,-291,-100,-326,13441,91,52,393,224,35848,-49,32,127,0,0,3673,87,0,23114,11459,93,16665,-4,0,71,0,283960,0
283963,422,-2052,170,-285,-114,-314,13501,124,105,329,200,35857,-55,32,127,0,0,3689,109,0,23114,11459,93,16675,-4,0,71,0,283960,0
283973,426,-2026,212,-281,-110,-313,13557,115,40,364,216,35866,-60,31,127,0,0,3695,98,0,23114,11459,93,16685,-4,0,71,0,283960,0
283983,433,-2004,182,-298,-122,-293,13628,162,13,287,184,35881,-39,32,127,0,0,3706,76,0,23114,11459,93,16695,-4,0,71,0,284053,0
283993,472,-2054,207,-298,-116,-271,13692,120,14,293,208,35879,-26,32,127,0,0,3722,131,0,23114,11459,93,16705,-4,0,71,0,284053,0
284003,417,-2000,196,-278,-120,-261,13748,124,-42,392,256,35870,-26,32,127,0,0,3737,142,0,23114,11459,93,16715,-4,0,71,0,284053,0
284013,430,-1972,177,-281,-136,-288,13818,162,13,366,224,35850,-38,32,127,0,0,3748,120,0,23114,11459,93,16725,-4,0,71,0,284053,0
284023,449,-1988,181,-297,-146,-285,13893,158,34,376,240,35839,-36,32,127,0,0,3763,109,0,23114,11459,93,16735,-4,0,71,0,284053,0
284033,508,-1981,117,-322,-136,-330,13966,170,-2,351,200,35842,-42,32,127,0,0,3777,131,0,23114,11459,93,16745,-4,0,71,0,284069,0
284043,479,-1966,108,-338,-113,-330,14044,182,3,309,176,35846,-70,32,127,0,0,3788,120,0,23114,11459,93,16755,-4,0,71,0,284069,0
284053,467,-1952,123,-347,-107,-300,14107,133,-12,339,224,35846,-101,32,127,0,0,3801,120,0,23114,11459,93,16765,-4,0,71,0,284069,0
284063,457,-1967,129,-351,-120,-304,14164,147,-42,372,216,35841,-81,32,127,0,0,3812,142,0,23114,11459,93,16775,-4,0,71,0,284069,0
284073,416,-1991,150,-353,-114,-341,14232,155,13,307,192,35843,-59,32,127,0,0,3825,131,0,23114,11459,93,16785,-4,0,71,0,284069,0
284083,397,-1975,165,-357,-108,-400,14285,117,-6,406,160,35845,-42,32,127,0,0,3832,76,0,23114,11459,93,16795,-4,0,71,0,284069,0
284093,379,-1958,165,-378,-102,-456,14335,114,-34,410,224,35851,-43,31,127,0,0,3840,54,0,23114,11459,93,16805,-4,0,71,0,284178,0
284103,370,-1998,161,-392,-114,-462,14404,153,38,274,120,35850,-23,31,127,0,0,3849,76,0,23114,11459,93,16815,-4,0,71,0,284178,0
284113,434,-2040,148,-403,-107,-517,14449,84,1,317,144,35847,-3,32,127,0,0,3858,65,0,23114,11459,93,16825,-4,0,71,0,284178,0
284123,399,-2015,139,-410,-107,-561,14490,93,-55,305,120,35839,-14,32,127,0,0,3864,43,0,23114,11459,93,16835,-4,0,71,0,284194,0
284133,424,-1992,142,-438,-100,-650,14519,59,-37,346,144,35846,-45,32,127,0,0,3871,54,0,23114,11459,93,16845,-4,0,71,0,284194,0
284143,382,-1998,156,-462,-117,-665,14560,90,-5,251,112,35842,-47,32,127,0,0,3875,43,0,23114,11459,93,16855,-4,0,71,0,284194,0
284153,391,-2019,178,-509,-116,-754,14584,54,-6,290,56,35842,-42,32,127,0,0,3882,54,0,23114,11459,93,16865,-4,0,71,0,284194,0
284163,358,-2015,164,-537,-135,-799,14615,47,-21,189,64,35837,-38,32,127,0,0,3884,76,0,23114,11459,93,16875,-4,0,71,0,284194,0
284173,305,-2057,161,-588,-176,-908,14618,3,-53,363,112,35840,-67,32,127,0,0,3884,10,0,23114,11459,93,16885,-4,0,71,0,284194,0
284183,267,-2105,158,-610,-203,-974,14620,7,-46,381,96,35840,-61,32,127,0,0,3886,32,0,23114,11459,93,16895,-4,0,71,0,284194,0
284193,201,-2133,174,-645,-248,-1071,14622,4,2,399,120,35839,-56,32,127,0,0,3889,32,0,23114,11459,93,16905,-4,0,71,0,284210,0
284203,179,-2168,155,-682,-273,-1168,14632,37,8,444,192,35847,-52,32,127,0,0,3895,76,0,23114,11459,93,16915,-4,0,71,0,284210,0
284213,83,-2238,196,-734,-294,-1374,14667,101,72,407,128,35866,-62,32,127,0,0,3902,65,0,23114,11459,93,16925,-4,0,0,0,284210,0
284223,35,-2307,214,-773,-308,-1536,14704,63,50,334,184,35883,-81,32,127,0,0,3904,54,0,23114,11459,93,16935,-4,0,0,0,284225,0
284233,-73,-2389,198,-795,-309,-1846,14744,85,-7,240,104,35898,-79,32,127,0,0,3906,0,0,23114,11459,93,16945,-4,0,0,0,284225,0
284243,-59,-2439,204,-804,-292,-2070,14768,37,-26,211,96,35898,-89,32,127,0,0,3911,21,0,23114,11459,93,16955,-4,0,0,0,284225,0
284253,-75,-2493,213,-785,-361,-2406,14786,47,-45,151,96,35882,-105,32,127,0,0,3913,32,0,23114,11459,93,16965,-4,0,1,0,284319,0
284263,-23,-2530,224,-749,-441,-2635,14800,25,-10,131,8,35867,-123,32,127,0,0,3913,0,0,23114,11459,93,16975,-4,0,1,0,284319,0
284273,41,-2532,256,-685,-531,-2921,14794,-6,-50,129,16,35852,-110,31,127,0,0,3911,0,0,23114,11459,93,16985,-4,0,2,0,284335,0
284283,117,-2504,280,-699,-595,-3097,14797,0,-12,115,24,35844,-97,32,127,0,0,3908,-54,0,23114,11459,93,16995,-4,0,2,0,284335,0
284293,415,-2278,333,-705,-851,-3343,14794,-1,0,105,-16,35837,-95,31,127,0,0,3913,10,0,23114,11459,93,17005,-4,0,3,0,284335,0
284303,582,-2265,324,-688,-992,-3417,14797,3,6,184,48,35837,-117,31,127,0,0,3913,0,0,23114,11459,93,17015,-4,0,3,0,284335,0
284313,855,-2336,252,-630,-965,-3297,14798,3,4,124,0,35834,-114,32,127,0,0,3913,21,0,23114,11459,93,17025,-4,0,4,0,284335,0
284323,882,-2142,229,-562,-931,-3169,14796,5,-2,103,0,35833,-109,32,127,0,0,3904,-65,0,23114,11459,93,17035,-4,0,5,0,284335,0
284333,339,-1524,424,-304,-797,-2767,14783,-40,-23,-208,-160,35832,-102,32,127,0,0,3878,-296,0,23114,11459,93,17045,-4,0,6,0,284335,0
284343,-83,-1228,368,-44,-721,-2056,14714,-224,-147,-487,-464,35837,-111,32,127,0,0,3838,-395,0,23114,11459,93,17055,-4,0,6,0,284335,0
284353,-35,-1104,371,126,-844,-1247,14572,-354,-271,-358,-600,35842,-92,32,127,0,0,3792,-505,0,23114,11459,93,17065,-4,0,8,0,284335,0
284363,-167,-1073,395,414,-963,-497,14395,-413,-199,-411,-808,35861,-65,32,127,0,0,3741,-483,0,23114,11459,93,17075,-4,0,9,0,284350,0
284373,-263,-1117,286,801,-1031,640,14195,-460,-100,-385,-928,35864,-44,32,127,0,0,3695,-450,0,23114,11459,93,17085,-4,0,11,0,284366,0
284383,-337,-1117,314,1065,-1036,1389,13978,-489,-75,-390,-1000,35858,-66,32,127,0,0,3654,-395,0,23114,11459,93,17095,-4,0,13,0,284366,0
284393,-365,-1139,385,1357,-994,2439,13753,-495,-44,-307,-880,35850,-76,32,127,0,0,3618,-340,0,23114,11459,93,17105,-4,0,16,0,284381,0
284403,-347,-1274,435,1517,-898,3088,13537,-463,7,-296,-768,35841,-56,31,127,0,0,3588,-307,0,23114,11459,93,17115,-4,0,18,0,284397,0
284413,-316,-1476,407,1724,-732,3946,13334,-436,45,-272,-680,35844,-45,31,127,0,0,3563,-285,0,23114,11459,93,17125,-4,0,22,0,284397,0
284423,-291,-1566,377,1866,-600,4456,13146,-391,76,-276,-528,35843,-56,32,127,0,0,3541,-219,0,23114,11459,93,17135,-4,0,24,0,284397,0
284433,-242,-1738,377,2042,-407,5133,12981,-344,57,-265,-400,35841,-70,32,127,0,0,3520,-197,0,23114,11459,93,17145,-4,0,29,0,284428,0
284443,-197,-1877,410,2139,-261,5510,12837,-302,40,-243,-296,35850,-55,31,127,0,0,3506,-131,0,23114,11459,93,17155,-4,0,32,0,284428,0
284453,-176,-2077,441,2258,-33,5961,12728,-227,107,-252,-192,35851,-19,32,127,0,0,3500,-32,0,23114,11459,93,17165,-4,0,36,0,284444,0
284463,-166,-2202,492,2317,130,6129,12654,-107,132,-61,-40,35846,-14,32,127,0,0,3500,-21,0,23114,11459,93,17175,-4,0,40,0,284459,0
284473,-202,-2303,533,2388,311,6268,12651,16,208,-130,-24,35841,-33,32,127,0,0,3502,21,0,23114,11459,93,17185,-4,0,45,0,284459,0
284483,-75,-2397,578,2408,429,6411,12657,13,154,-20,32,35839,-22,32,127,0,0,3513,131,0,23114,11459,93,17195,-4,0,48,0,284459,0
284493,-104,-2441,554,2510,581,6575,12698,134,80,220,192,35846,-15,32,127,0,0,3541,263,0,23114,11459,93,17205,-4,0,53,0,284491,0
284503,-70,-2434,525,2549,661,6658,12781,204,150,354,344,35841,-27,32,127,0,0,3577,395,0,23114,11459,93,17215,-4,0,57,0,284506,0
284513,-163,-2442,597,2584,718,6652,12907,311,163,377,528,35838,-42,31,127,0,0,3621,450,0,23114,11459,93,17225,-4,0,62,0,284506,0
284523,-167,-2438,589,2620,741,6588,13065,373,153,436,768,35831,-59,31,127,0,0,3678,560,0,23114,11459,93,17235,-4,0,65,0,284506,0
284533,-126,-2402,496,2662,693,6496,13260,453,127,426,952,35839,-50,32,127,0,0,3737,626,0,23114,11459,93,17245,-4,0,70,-19,284522,0
284543,-99,-2407,443,2666,621,6466,13486,518,127,495,1320,35843,-44,32,127,0,0,3803,659,0,23114,11459,93,17255,-4,0,73,-19,284522,0
284553,9,-2390,418,2618,511,6327,13751,614,133,509,1520,35850,-40,32,127,0,0,3875,703,0,23114,11459,93,17265,-4,0,78,-18,284538,0
284563,19,-2372,433,2584,443,6118,14055,692,155,473,1624,35851,-57,32,127,0,0,3937,582,0,23114,11459,93,17275,-4,0,81,-18,284569,0
284573,79,-2382,435,2525,312,5728,14376,699,110,357,1496,35845,-49,32,127,0,0,3979,406,0,23114,11459,93,17285,-4,0,85,-17,284569,0
284583,134,-2337,416,2512,216,5369,14689,666,11,239,1136,35841,-46,31,127,0,0,3992,87,0,23114,11459,93,17295,-4,0,88,-17,284569,0
284593,164,-2241,395,2442,-64,5084,14952,526,-113,146,576,35833,-45,32,127,0,0,3990,-21,0,23114,11459,93,17305,-4,0,91,-16,284584,0
284603,118,-2093,394,2404,-305,4874,15143,363,-232,81,168,35839,-44,32,127,0,0,3990,-21,0,23114,11459,93,17315,-4,0,93,-16,284584,0
284613,56,-1890,300,2307,-742,4386,15235,108,-329,-122,-24,35844,-42,32,127,0,0,3990,-10,0,23114,11459,93,17325,-4,0,96,-16,284616,0
284623,21,-1861,249,2217,-1012,3957,15225,-44,-406,63,24,35843,-10,32,127,0,0,3990,-10,0,23114,11459,93,17335,-4,0,98,-15,284616,0
284633,31,-1877,258,2046,-1224,3231,15206,-41,-201,62,0,35840,11,32,127,0,0,3981,-87,0,23114,11459,93,17345,-4,0,100,-15,284616,0
284643,44,-1905,248,1847,-1224,2653,15188,-33,-12,-112,-64,35841,9,32,127,0,0,3970,-131,0,23114,11459,93,17355,-4,0,102,-15,284647,0
284653,-34,-1925,245,1416,-1006,1748,15168,-69,0,-460,-272,35845,14,32,127,0,0,3941,-274,0,23114,11459,93,17365,-4,0,103,-15,284647,0
284663,23,-1912,161,1071,-703,1089,15086,-227,-120,-542,-552,35839,2,31,127,0,0,3900,-428,0,23114,11459,93,17375,-4,0,104,-15,284647,0
284673,76,-1835,-1,547,-178,141,14935,-364,-255,-483,-752,35834,-5,32,127,0,0,3849,-516,0,23114,11459,93,17385,-4,0,105,-15,284663,0
284683,130,-1778,-92,314,189,-457,14752,-416,-188,-485,-936,35844,-45,32,127,0,0,3796,-527,0,23114,11459,93,17395,-4,0,105,-15,284678,0
284693,-1032,-5714,-1037,-277,503,-942,14539,-482,-116,-442,-1096,35851,-54,31,127,0,0,3770,-252,0,23114,11459,93,17405,-4,0,105,-16,284678,0
284703,633,-8214,432,-966,1862,-1069,14327,-408,-71,249,768,35850,-43,31,127,0,0,3972,2340,0,23114,11459,93,17415,-4,0,105,-16,284678,0
284713,-369,569,1605,947,1464,-4286,14557,830,824,1628,2624,35842,-1,31,127,0,0,4161,1713,0,23114,11459,93,17425,-4,0,105,-16,284725,0
284723,522,-1106,-681,-725,323,-4989,15068,1186,1441,638,2808,35830,6,31,127,0,0,4253,867,0,23114,11459,93,17435,-4,0,104,-16,284741,0
284733,-823,-2145,883,-864,294,-3747,15603,1144,549,350,2504,35833,-10,32,127,0,0,4341,900,0,23114,11459,93,17445,-4,0,103,-17,284741,0
284743,-1547,-1780,-165,-1334,-591,-3258,16103,1103,-40,588,2800,35820,-18,32,127,0,0,4484,1483,0,23114,11459,93,17455,-4,0,102,-17,284741,0
284753,-251,-2705,-1047,-1408,-221,-4227,16658,1277,28,905,3272,35824,0,32,127,0,0,4614,1263,0,23114,11459,93,17465,-4,0,101,-17,284741,0
284763,626,-3094,-1224,-1640,-339,-5412,17272,1351,246,474,2920,35821,10,32,127,0,0,4664,373,0,23114,11459,93,17475,-4,0,100,-17,284772,0
284773,590,-2679,-141,-1348,-716,-6140,17816,1114,-23,78,1632,35835,2,32,127,0,0,4627,-439,0,23114,11459,93,17485,-4,0,98,-18,284772,0
284783,131,-1952,34,-1479,-921,-5951,18203,727,-426,-198,88,35836,-25,31,127,0,0,4550,-791,0,23114,11459,93,17495,-4,0,97,-18,284772,0
284793,493,-2022,-134,-1085,341,-7337,18244,-212,-956,-1513,-1088,35838,-30,32,127,0,0,4398,-1757,0,23114,11459,93,17505,-4,0,95,-18,284772,0
284803,-478,-1228,-179,-979,62,-7167,17948,-861,-1359,-1360,-2904,35844,-28,32,127,0,0,4187,-2076,0,23114,11459,93,17515,-4,0,93,-19,284788,0
284813,737,-934,782,-880,51,-6657,17369,-1411,-1190,-997,-3816,35847,-5,32,127,0,0,3990,-1933,0,23114,11459,93,17525,-4,0,91,-19,284834,0
284823,1096,-1498,782,-989,-155,-5770,16627,-1711,-858,-676,-4256,35840,8,32,127,0,0,3823,-1636,0,23114,11459,93,17535,-4,0,89,-19,284834,0
284833,1419,-1911,695,-858,-407,-4920,15805,-1823,-468,-395,-4184,35831,15,31,127,0,0,3678,-1450,0,23114,11459,93,17545,-4,0,87,-20,284834,0
284843,1165,-1920,563,-732,-515,-4572,14991,-1764,-136,-300,-4000,35818,16,32,127,0,0,3548,-1285,0,23114,11459,93,17555,-4,0,85,-20,284834,0
284853,506,-1724,344,-605,-472,-4271,14235,-1621,128,-272,-3760,35826,-8,32,127,0,0,3418,-1318,0,23114,11459,93,17565,-4,0,83,-21,284834,0
284863,351,-1800,175,-566,-351,-4007,13534,-1524,219,-359,-3616,35835,-29,31,127,0,0,3298,-1197,0,23114,11459,93,17575,-4,0,82,-21,284881,0
284873,489,-1923,152,-420,-174,-3652,12859,-1472,160,-362,-3488,35844,-32,31,127,0,0,3183,-1142,0,23114,11459,93,17585,-4,0,79,-22,284881,0
284883,678,-1995,276,-349,-148,-3440,12201,-1431,84,-337,-3264,35856,-28,32,127,0,0,3082,-1043,0,23114,11459,93,17595,-4,0,79,-22,284881,0
284893,915,-1909,503,-318,-200,-3089,11578,-1358,98,-318,-2984,35857,-17,32,127,0,0,2981,-933,0,23114,11459,93,17605,-4,0,79,-22,284881,0
284903,888,-1926,535,-298,-229,-2754,11000,-1243,145,-279,-2592,35851,-19,32,127,0,0,2904,-758,0,23114,11459,93,17615,-4,0,79,-22,284881,0
284913,983,-2008,548,-267,-307,-2298,10484,-1078,204,-230,-2224,35846,-28,32,127,0,0,2845,-604,0,23114,11459,93,17625,-4,0,79,-22,284913,0
284923,938,-2051,549,-288,-303,-2114,10048,-912,277,-275,-1840,35843,-39,32,127,0,0,2790,-516,0,23114,11459,93,17635,-4,0,79,-22,284913,0
284933,816,-1968,529,-328,-274,-1913,9680,-775,287,-320,-1560,35844,-24,32,127,0,0,2739,-472,0,23114,11459,93,17645,-4,0,79,-22,284913,0
284943,733,-1977,573,-338,-256,-1804,9359,-671,220,-331,-1344,35861,-28,32,127,0,0,2696,-450,0,23114,11459,93,17655,-4,0,79,-22,284944,0
284953,910,-1967,622,-363,-275,-1596,9077,-611,168,-389,-1160,35858,-39,32,127,0,0,2652,-406,0,23114,11459,93,17665,-4,0,79,-22,284944,0
284963,1040,-1999,592,-402,-287,-1429,8821,-547,123,-348,-1024,35861,-27,32,127,0,0,2614,-384,0,23114,11459,93,17675,-4,0,79,-22,284959,0
284973,1050,-1871,580,-487,-365,-1058,8595,-482,109,-348,-816,35849,-36,32,127,0,0,2592,-252,0,23114,11459,93,17685,-4,0,79,-22,284959,0
284983,943,-1847,527,-502,-425,-859,8404,-388,124,-379,-584,35862,-41,32,127,0,0,2577,-153,0,23114,11459,93,17695,-4,0,79,-22,284959,0
284993,744,-1969,476,-472,-475,-750,8243,-323,126,-316,-344,35864,-54,32,127,0,0,2570,-43,0,23114,11459,93,17705,-4,0,79,-22,284991,0
285003,751,-2014,484,-481,-448,-761,8121,-233,135,-230,-152,35862,-42,32,127,0,0,2564,-65,0,23114,11459,93,17715,-4,0,79,-22,284991,0
285013,906,-2130,369,-548,-460,-743,8071,-68,208,-248,-112,35847,-25,32,127,0,0,2557,-54,0,23114,11459,93,17725,-4,0,79,-22,285006,0
285023,854,-2132,293,-588,-446,-627,8074,8,241,-474,-176,35844,-21,32,127,0,0,2555,-32,0,23114,11459,93,17735,-4,0,79,-22,285006,0
285033,665,-1946,181,-552,-471,-655,8069,4,82,-492,-120,35855,-39,32,127,0,0,2557,32,0,23114,11459,93,17745,-4,0,79,-22,285022,0
285043,569,-1999,175,-497,-467,-720,8070,-2,-3,-446,-144,35860,-36,32,127,0,0,2557,21,0,23114,11459,93,17755,-4,0,79,-22,285037,0
285053,495,-2073,272,-470,-465,-823,8071,13,18,-392,-152,35857,-42,31,127,0,0,2557,-10,0,23114,11459,93,17765,-4,0,79,-22,285053,0
285063,411,-2181,323,-514,-485,-788,8071,5,-3,-360,-80,35851,-39,31,127,0,0,2568,98,0,23114,11459,93,17775,-4,0,79,-22,285053,0
285073,481,-2152,330,-555,-507,-777,8086,36,22,-151,48,35848,-43,32,127,0,0,2583,186,0,23114,11459,93,17785,-4,0,79,-22,285053,0
285083,539,-2047,289,-552,-552,-882,8121,96,71,236,160,35860,-43,32,127,0,0,2601,164,0,23114,11459,93,17795,-4,0,79,-22,285084,0
285093,554,-2010,341,-560,-619,-1102,8199,184,133,245,192,35864,-27,32,127,0,0,2621,186,0,23114,11459,93,17805,-4,0,79,-22,285100,0
285103,564,-2024,423,-596,-634,-1230,8283,192,95,245,168,35860,-19,32,127,0,0,2636,142,0,23114,11459,93,17815,-4,0,79,-22,285100,0
285113,614,-1986,378,-726,-616,-1329,8359,179,16,169,112,35854,-41,32,127,0,0,2647,109,0,23114,11459,93,17825,-4,0,79,-22,285100,0
285123,650,-1938,370,-794,-610,-1398,8418,119,-56,198,120,35856,-57,32,127,0,0,2660,109,0,23114,11459,93,17835,-4,0,79,-22,285100,0
285133,695,-1873,315,-811,-597,-1541,8465,95,-74,282,136,35865,-68,31,127,0,0,2674,98,0,23114,11459,93,17845,-4,0,79,-22,285147,0
285143,731,-1813,269,-817,-617,-1573,8525,127,5,212,128,35860,-67,32,127,0,0,2685,120,0,23114,11459,93,17855,-4,0,79,-22,285147,0
285153,831,-1790,288,-856,-678,-1550,8585,111,20,206,144,35854,-84,32,127,0,0,2698,120,0,23114,11459,93,17865,-4,0,79,-22,285147,0
285163,839,-1817,279,-875,-714,-1535,8634,105,-31,276,160,35846,-86,32,127,0,0,2713,153,0,23114,11459,93,17875,-4,0,79,-22,285147,0
285173,849,-1805,202,-880,-740,-1587,8689,147,-1,309,144,35852,-70,32,127,0,0,2726,164,0,23114,11459,93,17885,-4,0,79,-22,285147,0
285183,849,-1801,164,-894,-724,-1618,8761,155,54,235,136,35854,-29,32,127,0,0,2739,153,0,23114,11459,93,17895,-4,0,79,-22,285178,0
285193,862,-1829,185,-944,-692,-1640,8816,118,-9,320,184,35850,-17,32,127,0,0,2755,120,0,23114,11459,93,17905,-4,0,79,-22,285178,0
285203,971,-1805,130,-996,-649,-1628,8874,148,-26,329,200,35839,-36,32,127,0,0,2766,131,0,23114,11459,93,17915,-4,0,79,-22,285194,0
285213,938,-1911,123,-1058,-770,-1481,8950,173,49,252,192,35845,-33,32,127,0,0,2783,197,0,23114,11459,93,17925,-4,0,79,-22,285225,0
285223,873,-1930,183,-1059,-803,-1451,9020,161,23,336,264,35856,-25,32,127,0,0,2810,252,0,23114,11459,93,17935,-4,0,79,-22,285225,0
285233,734,-1897,207,-1006,-830,-1485,9113,236,45,408,360,35855,-24,32,127,0,0,2836,252,0,23114,11459,93,17945,-4,0,79,-22,285225,0
285243,698,-1885,234,-1015,-867,-1514,9232,267,110,354,408,35851,-41,32,127,0,0,2869,318,0,23114,11459,93,17955,-4,0,-9,0,285225,0
285253,595,-1938,298,-1096,-887,-1620,9363,306,66,352,416,35844,-70,31,127,0,0,2902,329,0,23114,11459,93,17965,-4,0,-9,0,285256,0
285263,634,-2030,309,-1185,-898,-1737,9507,324,44,336,520,35849,-74,32,127,0,0,2937,362,0,23114,11459,93,17975,-4,0,-9,0,285256,0
285273,568,-2114,363,-1299,-960,-1916,9659,334,35,353,536,35849,-66,32,127,0,0,2975,384,0,23114,11459,93,17985,-4,0,-9,0,285256,0
285283,476,-2151,381,-1336,-1019,-2041,9826,371,48,340,640,35844,-44,32,127,0,0,3016,450,0,23114,11459,93,17995,-4,0,-9,0,285272,0
285293,313,-2248,382,-1399,-1156,-2253,10005,414,56,356,704,35842,-17,31,127,0,0,3069,527,0,23114,11459,93,18005,-4,0,-9,0,285287,0
285303,188,-2357,379,-1447,-1253,-2421,10205,452,67,333,872,35842,-26,31,127,0,0,3126,549,0,23114,11459,93,18015,-4,0,-9,0,285287,0
285313,-552,-2197,556,-1404,-1552,-2481,10422,478,69,336,976,35837,-43,32,127,0,0,3183,593,0,23114,11459,93,18025,-4,0,-8,0,285303,0
285323,-128,-2658,243,-1580,-1481,-2578,10660,542,77,445,1352,35849,-45,32,127,0,0,3282,1010,0,23114,11459,93,18035,-4,0,-7,0,285319,0
285333,-201,-2522,397,-1723,-1390,-3652,10959,717,169,649,1832,35852,-48,32,127,0,0,3368,823,0,23114,11459,93,18045,-4,0,-6,0,285319,0
285343,-1336,-2820,499,-1864,-1489,-3190,11320,799,238,427,1768,35847,-26,32,127,0,0,3454,911,0,23114,11459,93,18055,-4,0,-5,0,285334,0
285353,22,-4021,409,-2281,-1221,-3810,11705,884,147,605,2296,35846,-33,32,127,0,0,3577,1219,0,23114,11459,93,18065,-4,0,-3,0,285350,0
285363,-579,-4136,932,-2130,-1461,-4329,12157,1030,190,590,2592,35842,-22,32,127,0,0,3695,1175,0,23114,11459,93,18075,-4,0,-1,0,285366,0
285373,-104,-3752,735,-1955,-2129,-4741,12663,1159,232,702,3144,35844,-23,32,127,0,0,3849,1538,0,23114,11459,93,18085,-4,0,1,0,285366,0
285383,-184,-3876,833,-2010,-2274,-5270,13251,1360,266,765,3584,35836,-4,32,127,0,0,3996,1406,0,23114,11459,93,18095,-4,0,4,0,285412,0
285393,-357,-4358,1240,-2032,-2377,-5796,13907,1462,291,554,3736,35829,20,31,127,0,0,4141,1461,0,23114,11459,93,18105,-4,0,8,0,285428,0
285403,103,-4437,1304,-2158,-2387,-6347,14601,1553,181,558,3808,35826,23,31,127,0,0,4282,1395,0,23114,11459,93,18115,-4,0,11,0,285428,0
285413,163,-4232,1477,-2314,-2721,-6532,15326,1598,135,494,3760,35825,1,32,127,0,0,4409,1241,0,23114,11459,93,18125,-4,0,16,0,285444,0
285423,102,-3998,1556,-2374,-2964,-5971,16042,1554,-124,483,3728,35820,4,31,127,0,0,4552,1483,0,23114,11459,93,18135,-4,0,20,0,285444,0
285433,100,-3280,1367,-2309,-3547,-4778,16748,1559,-124,789,4016,35811,16,32,127,0,0,4724,1724,0,23114,11459,93,18145,-4,0,26,0,285444,0
285443,-41,-2531,1135,-1930,-3833,-3801,17501,1698,230,971,4512,35808,50,32,127,0,0,4919,1988,0,23114,11459,93,18155,-4,0,31,0,285444,0
285453,-211,-1218,681,-1285,-4054,-2089,18341,1916,254,1073,5128,35796,73,32,127,0,0,5139,2263,0,23114,11459,93,18165,-4,0,39,0,285444,0
285463,1030,-1022,-248,-884,-2652,-1680,19294,2175,384,1081,5680,35791,109,32,127,0,0,5345,1966,0,23114,11459,93,18175,-4,0,44,0,285444,0
285473,417,-179,-698,-666,-342,-2370,20314,2189,376,285,4360,35803,77,32,127,0,0,5361,-65,0,23114,11459,93,18185,-4,0,52,0,285491,0
285483,647,-279,-452,-212,876,-2322,21162,1698,-211,-385,1800,35831,25,32,127,0,0,5240,-1296,0,23114,11459,93,18195,-4,0,58,0,285506,0
285493,302,-400,-71,516,1555,-1122,21611,579,-1069,-2352,-904,35847,-47,31,127,0,0,5062,-1768,0,23114,11459,93,18205,-4,0,65,0,285522,0
285503,393,-630,125,853,1861,-290,21393,-690,-2084,-1094,-2304,35842,-60,31,127,0,0,4899,-1647,0,23114,11459,93,18215,-4,0,70,0,285522,0
285513,325,-665,178,1185,1889,1168,20944,-1091,-1710,-802,-3008,35826,-16,32,127,0,0,4757,-1406,0,23114,11459,93,18225,-4,0,78,0,285522,0
285523,459,-747,206,1371,1987,1997,20374,-1297,-654,-538,-3176,35817,10,32,127,0,0,4631,-1230,0,23114,11459,93,18235,-4,0,83,55,285522,0
285533,776,-773,149,1661,2278,3056,19748,-1403,-340,-373,-3320,35833,-10,32,127,0,0,4504,-1296,0,23114,11459,93,18245,-4,0,91,47,285522,0
285543,885,-713,110,1821,2499,3657,19092,-1459,-163,-419,-3592,35848,-34,32,127,0,0,4341,-1636,0,23114,11459,93,18255,-4,0,96,42,285522,0
285553,954,-591,20,1969,2676,4622,18394,-1580,-143,-596,-4024,35859,-42,31,127,0,0,4157,-1867,0,23114,11459,93,18265,-4,0,104,36,285537,0
285563,1015,-525,-54,2073,2684,5310,17619,-1753,-236,-626,-4384,35851,-15,32,127,0,0,3970,-1889,0,23114,11459,93,18275,-4,0,109,32,285569,0
285573,1028,-460,-230,2117,2576,6368,16774,-1905,-276,-568,-4752,35824,10,32,127,0,0,3783,-1834,0,23114,11459,93,18285,-4,0,117,26,285569,0
285583,975,-599,-183,2112,2332,7127,15866,-2029,-257,-455,-4728,35821,2,32,127,0,0,3618,-1636,0,23114,11459,93,18295,-4,0,122,22,285584,0
285593,831,-906,82,2256,1746,8136,14957,-1975,-140,-339,-4464,35810,20,31,127,0,0,3480,-1329,0,23114,11459,93,18305,-4,0,129,17,285584,0
285603,843,-1132,338,2360,1154,8645,14117,-1776,129,-177,-3872,35825,6,32,127,0,0,3388,-900,0,23114,11459,93,18315,-4,0,134,15,285584,0
285613,988,-1498,286,2445,336,9280,13382,-1543,346,-67,-3056,35842,-6,32,127,0,0,3344,-395,0,23114,11459,93,18325,-4,0,141,11,285615,0
285623,1075,-1664,41,2609,66,9498,12761,-1288,420,57,-1992,35845,-35,32,127,0,0,3324,-164,0,23114,11459,93,18335,-4,0,146,8,285615,0
285633,1087,-1694,-146,2887,3,9654,12275,-977,473,102,-1192,35847,-52,32,127,0,0,3313,-109,0,23114,11459,93,18345,-4,0,153,5,285615,0
285643,1112,-1785,-71,3010,58,9748,11930,-675,533,45,-576,35841,-51,31,127,0,0,3300,-109,0,23114,11459,93,18355,-4,0,158,3,285662,0
285653,1077,-1983,11,3176,229,9798,11704,-422,500,-13,-168,35847,-66,32,127,0,0,3302,-10,0,23114,11459,93,18365,-4,0,165,1,285662,0
285663,777,-2150,-90,3365,396,9723,11610,-95,472,116,32,35847,-72,32,127,0,0,3306,76,0,23114,11459,93,18375,-4,0,169,0,285662,0
285673,1031,-2377,-287,3536,744,9730,11640,128,496,221,224,35846,-96,32,127,0,0,3337,329,0,23114,11459,93,18385,-4,0,175,-2,285662,0
285683,924,-2436,-231,3678,1078,9590,11747,269,386,320,416,35840,-93,32,127,0,0,3377,417,0,23114,11459,93,18395,-4,0,180,-3,285678,0
285693,881,-2461,-66,3715,1464,9173,11890,343,222,346,528,35850,-91,32,127,0,0,3418,417,0,23114,11459,93,18405,-4,0,186,-4,285678,0
285703,952,-2498,75,3617,1591,8906,12058,375,123,338,592,35858,-98,32,127,0,0,3454,384,0,23114,11459,93,18415,-4,0,190,-5,285709,0
285713,1111,-2603,116,3381,1730,8506,12239,395,68,313,640,35867,-80,32,127,0,0,3493,351,0,23114,11459,93,18425,-4,0,195,-6,285709,0
285723,1162,-2645,83,3246,1803,8216,12425,401,33,290,592,35859,-60,31,127,0,0,3522,274,0,23114,11459,93,18435,-4,0,199,-6,285725,0
285733,1071,-2644,27,3074,1775,7799,12604,370,-12,248,376,35855,-51,32,127,0,0,3537,142,0,23114,11459,93,18445,-4,0,203,-7,285725,0
285743,1046,-2615,68,2923,1666,7585,12752,299,-72,171,248,35855,-61,32,127,0,0,3548,65,0,23114,11459,93,18455,-4,0,206,-7,285756,0
285753,1024,-2588,99,2611,1509,7340,12861,211,-133,104,152,35861,-66,32,127,0,0,3563,142,0,23114,11459,93,18465,-4,0,211,-7,285756,0
285763,962,-2603,82,2375,1446,7190,12933,122,-151,238,144,35862,-29,32,127,0,0,3577,109,0,23114,11459,93,18475,-4,0,213,-7,285756,0
285773,924,-2630,17,2102,1466,6850,12982,99,-117,352,176,35862,-7,32,127,0,0,3594,164,0,23114,11459,93,18485,-4,0,216,-7,285772,0
285783,852,-2596,-89,1962,1502,6471,13054,182,-2,358,216,35853,5,32,127,0,0,3610,175,0,23114,11459,93,18495,-4,0,218,-7,285772,0
285793,786,-2507,-232,1814,1592,5709,13143,184,84,257,176,35856,-18,32,127,0,0,3616,76,0,23114,11459,93,18505,-4,0,221,-7,285772,0
285803,725,-2505,-266,1750,1628,5070,13217,158,3,133,96,35856,-40,32,127,0,0,3621,43,0,23114,11459,93,18515,-4,0,222,-7,285787,0
285813,646,-2587,-208,1617,1675,3974,13270,115,-74,76,40,35857,-53,31,127,0,0,3627,32,0,23114,11459,93,18525,-4,0,224,-7,285834,0
285823,659,-2579,-140,1416,1737,3202,13285,12,-107,209,104,35859,-91,32,127,0,0,3638,87,0,23114,11459,93,18535,-4,0,225,-7,285834,0
285833,684,-2562,9,1000,1875,1880,13300,61,-81,469,184,35852,-105,32,127,0,0,3647,65,0,23114,11459,93,18545,-4,0,225,-7,285834,0
285843,799,-2605,62,711,1935,1006,13357,142,88,344,136,35845,-116,32,127,0,0,3660,120,0,23114,11459,93,18555,-4,0,225,-7,285834,0
285853,957,-2531,126,343,1869,-218,13423,158,97,264,152,35837,-79,32,127,0,0,3665,65,0,23114,11459,93,18565,-4,0,225,-7,285834,0
285863,1066,-2340,121,117,1695,-977,13482,107,9,151,120,35845,-57,32,127,0,0,3673,87,0,23114,11459,93,18575,-4,0,225,-7,285850,0
285873,1117,-2148,156,-145,1391,-2073,13516,72,-64,247,112,35843,-29,32,127,0,0,3678,43,0,23114,11459,93,18585,-4,0,225,-7,285865,0
285883,1133,-2089,153,-287,1159,-2712,13540,31,-70,267,80,35851,-31,32,127,0,0,3678,-32,0,23114,11459,93,18595,-4,0,225,-7,285881,0
285893,1095,-1945,135,-461,943,-3526,13539,-12,-71,221,88,35848,-42,31,127,0,0,3676,-32,0,23114,11459,93,18605,-4,0,225,-7,285881,0
285903,-473,-6346,-915,-991,948,-3463,13532,-15,-58,212,136,35861,-23,32,127,0,0,3726,582,0,23114,11459,93,18615,-4,0,225,-7,285912,0
285913,148,-3753,2815,-256,2887,-3090,13626,423,154,1529,2256,35849,5,32,127,0,0,3955,2362,0,11950,2725,94,9,1,1,225,-7,285912,0
285923,-1055,-754,1499,748,1201,-4782,14110,1313,971,1655,3744,35834,50,32,127,0,0,4029,615,0,11950,2725,94,19,1,1,225,-7,285912,0
285933,-545,-1538,95,-254,128,-4553,14809,1591,1199,677,3992,35814,51,32,127,0,0,4080,516,0,11950,2725,94,29,1,1,225,-7,285912,0
285943,-482,-955,-10,-685,-79,-4246,15573,1731,512,672,4336,35818,54,31,127,0,0,4161,823,0,11950,2725,94,39,1,1,225,-7,285959,0
285953,-997,-2025,-636,-1636,111,-4601,16416,1890,272,780,4792,35823,47,32,127,0,0,4242,812,0,11950,2725,94,49,1,1,225,-7,285959,0
285963,-713,-2545,-690,-1562,490,-5105,17309,1992,259,743,5016,35823,57,32,127,0,0,4317,703,0,11950,2725,94,59,1,1,225,-7,285959,0
285973,-225,-2540,-293,-1270,67,-6095,18231,2017,154,496,4736,35817,42,32,127,0,0,4337,131,0,11950,2725,94,69,1,1,225,-7,285959,0
285983,379,-2359,-11,-1214,-362,-6408,19099,1848,-43,181,3936,35820,9,32,127,0,0,4302,-406,0,11950,2725,94,79,1,1,225,-7,285959,0
285993,702,-2122,162,-1045,-851,-6802,19848,1537,-330,-46,2096,35841,-31,32,127,0,0,4227,-791,0,11950,2725,94,89,1,1,225,-7,285990,0
286003,554,-1236,-471,-1218,-987,-7155,20356,898,-684,-652,-104,35859,-72,32,127,0,0,4111,-1230,0,11950,2725,94,99,1,1,225,-7,285990,0
286013,-2857,-2063,-74,-1102,-1530,-5476,20395,-105,-1372,-231,-40,35861,-87,32,127,0,0,4012,-955,700,11950,2725,94,109,1,1,225,-7,286069,0
286023,2358,-1530,123,-943,-1666,-5787,20043,-1158,-1612,505,-2416,35859,-93,32,127,0,0,3946,-747,900,11950,2725,94,119,1,1,225,-7,286069,0
286033,689,-1474,318,-1106,-962,-7186,18999,-2767,-2061,517,-6168,35859,-96,31,127,0,0,3759,-2010,1100,11950,2725,94,129,1,1,225,-7,286069,0
286043,-1502,-1132,-9,-1039,309,-8466,17416,-3701,-2415,497,-7920,35864,-115,31,127,0,0,3469,-2966,1300,11950,2725,94,139,1,1,225,-7,286069,0
286053,-771,-1058,373,-666,1569,-8973,15651,-3904,-1379,510,-7632,35866,-124,32,127,0,0,3133,-3350,1500,11950,2725,94,149,1,1,225,-7,286069,0
286063,-291,-2089,709,-487,351,-8179,14044,-3293,-50,651,-5600,35871,-129,32,127,0,0,2849,-2647,1500,11950,2725,94,159,1,1,225,-7,286069,0
286073,2641,-1357,344,-520,-156,-6907,12823,-2438,1078,950,-3792,35876,-134,32,127,0,0,2654,-1911,1740,11950,2725,94,169,1,1,225,-7,286069,0
286083,2288,-1806,394,-664,-436,-6026,11966,-1644,1437,1025,-1640,35878,-138,32,127,0,0,2480,-1669,1880,11950,2725,94,179,1,1,225,-7,286069,0
286093,1278,-1715,385,-689,-803,-4624,11502,-720,1437,1411,16,35885,-148,32,127,0,0,2342,-1362,1990,11950,2725,94,189,1,1,225,-7,286084,0
286103,2309,-2007,1325,-712,-1338,-2747,11456,37,1580,1702,336,35884,-111,32,127,0,0,2320,-98,2070,11950,2725,94,199,1,1,225,-7,286147,0
286113,1697,-1960,683,-823,-2201,-2345,11373,-313,756,1409,24,35883,-84,32,127,0,0,2309,-98,2160,11950,2725,94,209,1,1,225,-7,286162,0
286123,434,-1538,490,-816,-1257,-3115,11051,-988,-665,998,-912,35874,-74,32,127,0,0,2236,-747,2270,11950,2725,94,219,1,1,225,-7,286162,0
286133,-98,-1751,-322,-638,342,-4210,10423,-1512,-1122,1237,-1760,35868,-101,31,127,0,0,2107,-1362,2330,11950,2725,94,229,1,1,225,-7,286162,0
286143,623,-1672,-316,-562,548,-4196,9704,-1565,-657,1373,-1648,35870,-135,31,127,0,0,1957,-1483,2350,11950,2725,94,239,1,1,225,-7,286162,0
286153,1689,-2258,181,-408,342,-3492,9057,-1334,33,1448,-928,35881,-156,32,127,0,0,1830,-1252,2360,11950,2725,94,249,1,1,225,-7,286162,0
286163,1986,-2204,338,-289,-128,-2823,8589,-852,524,1684,-144,35884,-148,32,127,0,0,1738,-867,2370,11950,2725,94,259,1,1,225,-7,286162,0
286173,2473,-2714,589,-169,-822,-1285,8469,-16,1064,1949,536,35873,-120,32,127,0,0,1718,-142,2390,11950,2725,94,269,1,1,225,-7,286162,0
286183,2190,-1644,782,-91,-1130,-771,8498,44,935,1585,480,35861,-94,32,127,0,0,1724,87,2440,11950,2725,94,279,1,1,225,-7,286162,0
286193,949,-1881,429,-132,-1179,-642,8510,25,150,1575,520,35849,-77,32,127,0,0,1731,98,2500,11950,2725,94,289,1,1,225,-7,286178,0
286203,970,-2050,309,-183,-773,-626,8563,152,60,1560,696,35848,-55,31,127,0,0,1740,76,2550,11950,2725,94,299,1,1,225,-7,286193,0
286213,1347,-2404,166,-361,-355,-443,8641,180,135,1571,880,35843,-49,31,127,0,0,1757,153,2600,11950,2725,94,309,1,1,225,-7,286193,0
286223,1143,-2524,183,-415,-281,-190,8781,374,165,1510,1488,35844,-38,32,127,0,0,1786,340,2660,11950,2725,94,319,1,1,225,-7,286209,0
286233,1207,-2865,258,-442,-392,212,9057,727,402,1677,2496,35840,-5,32,127,0,0,1845,604,2740,11950,2725,94,329,1,1,225,-7,286240,0
286243,1272,-2943,461,-431,-571,595,9533,1194,668,1840,3704,35826,33,32,127,0,0,1940,988,2840,11950,2725,94,339,1,1,225,-7,286240,0
286253,1130,-2789,496,-427,-1013,1232,10215,1629,784,1896,4728,35804,96,32,127,0,0,2080,1472,3000,11950,2725,94,349,1,1,225,-7,286240,0
286263,1058,-2707,362,-427,-1375,1493,11082,2015,744,1987,5592,35773,153,32,127,0,0,2258,1834,3230,11950,2725,94,359,1,1,225,-7,286240,0
286273,571,-2512,366,-379,-1642,1645,12084,2277,602,2073,6248,35758,231,32,127,0,0,2449,1933,3270,11950,2725,94,369,1,1,225,-7,286272,0
286283,533,-2318,227,-379,-1497,1532,13152,2358,356,1913,6344,35742,266,31,127,0,0,2649,1999,2840,11950,2725,94,379,1,1,225,-7,286272,0
286293,189,-2083,191,-505,-1263,1228,14200,2281,53,1683,5936,35729,276,32,127,0,0,2849,1966,2290,11950,2725,94,389,1,1,225,-7,286272,0
286303,205,-1942,158,-612,-950,829,15185,2102,-172,1389,5112,35738,242,32,127,0,0,3038,1878,1570,11950,2725,94,399,1,1,225,-7,286303,0
286313,276,-1677,168,-750,-573,-5,16045,1780,-380,895,3944,35773,160,32,127,0,0,3205,1582,660,11950,2725,94,409,1,1,225,-7,286303,0
286323,363,-1611,181,-779,-478,-580,16679,1177,-712,-2056,-1544,35802,99,32,127,0,0,3333,1186,0,11950,2725,94,419,1,1,225,-7,286318,0
286333,-660,-1819,371,-770,-995,-863,16382,-899,-2293,-821,-1984,35818,44,31,127,0,0,3447,1120,0,11950,2725,94,429,1,1,225,-7,286318,0
286343,375,-2486,84,-980,-1146,-588,15963,-935,-1883,-281,-1960,35811,32,31,127,0,0,3610,1647,0,11950,2725,94,439,1,1,225,-7,286334,0
286353,72,-2405,583,-874,-1465,-682,15541,-933,-112,-392,-2160,35813,15,32,127,0,0,3777,1669,0,11950,2725,94,449,1,1,225,-7,286365,0
286363,-80,-1839,400,-976,-1603,-958,15111,-935,-18,-238,-696,35826,-22,31,127,0,0,3955,1757,0,11950,2725,94,459,1,1,225,-7,286365,0
286373,-614,-1377,388,-1257,-1131,-1927,14947,144,563,2295,1256,35830,-27,32,127,0,0,4097,1406,0,11950,2725,94,469,1,1,225,-7,286365,0
286383,-540,-1759,206,-1541,-1389,-2185,15227,727,1511,834,2112,35828,-19,32,127,0,0,4242,1472,0,11950,2725,94,479,1,1,225,-7,286365,0
286393,-620,-2106,295,-1677,-1163,-3278,15659,1046,1038,773,2664,35835,-25,32,127,0,0,4368,1219,0,11950,2725,94,489,1,1,225,-7,286381,0
286403,-617,-2334,261,-1714,-1029,-3895,16178,1162,439,531,2712,35840,-12,32,127,0,0,4469,1032,0,11950,2725,94,499,1,1,225,-7,286397,0
286413,-512,-2371,606,-1909,-954,-4825,16700,1147,136,493,2672,35840,-12,32,127,0,0,4550,769,0,11950,2725,94,509,1,2,225,-7,286412,0
286423,-571,-2455,813,-2041,-985,-5284,17203,1072,-150,342,2336,35841,-27,32,127,0,0,4609,582,0,11950,2725,94,519,1,2,225,-7,286412,0
286433,-537,-2405,725,-2290,-1092,-5942,17647,938,-91,346,2016,35834,-24,32,127,0,0,4669,560,0,11950,2725,94,529,1,2,225,-7,286412,0
286443,-671,-2229,595,-2377,-1183,-6461,18048,844,-78,330,1744,35843,-20,32,127,0,0,4704,318,0,11950,2725,94,539,1,2,225,-7,286443,0
286453,-1549,-2323,599,-2438,-816,-6413,18391,708,-197,285,1368,35840,-19,31,127,0,0,4754,549,0,11950,2725,94,549,1,2,225,-7,286443,0
286463,150,-2769,332,-2586,-1704,-7451,18695,689,-192,566,1864,35833,-25,32,127,0,0,4836,758,0,11950,2725,94,559,1,2,225,-7,286443,0
286473,-980,-3464,968,-3101,-1460,-7514,19034,724,4,371,1256,35838,-38,32,127,0,0,4849,120,0,11950,2725,94,569,1,2,225,-7,286537,0
286483,-696,-4089,1216,-3132,-1258,-6879,19312,572,-56,398,1424,35846,-49,32,127,0,0,4935,900,0,11950,2725,94,579,1,2,225,-7,286537,0
286493,-369,-3936,1212,-3437,-1263,-6891,19599,689,-104,899,2032,35841,-35,32,127,0,0,5047,1098,0,11950,2725,94,589,1,2,225,-7,286537,0
286503,-351,-3531,1147,-3531,-1022,-6589,19979,883,205,878,2384,35827,-10,32,127,0,0,5159,1098,0,11950,2725,94,599,1,2,225,-7,286537,0
286513,-680,-2603,962,-3220,-524,-5777,20422,1004,306,834,2736,35817,-2,32,127,0,0,5275,1197,0,11950,2725,94,609,1,2,225,-7,286553,0
286523,937,-2634,544,-2944,176,-5626,20923,1134,223,799,2976,35815,7,32,127,0,0,5374,933,0,11950,2725,94,619,1,2,225,-7,286553,0
286533,630,-2604,99,-2785,1596,-6586,21445,1108,162,261,1816,35818,-9,31,127,0,0,5315,-747,0,11950,2725,94,629,1,2,225,-7,286553,0
286543,507,-2534,309,-2263,2183,-6429,21828,698,-216,-564,-488,35821,-20,32,127,0,0,5145,-1757,0,11950,2725,94,639,0,2,225,-7,286553,0
286553,448,-2332,259,-1461,2390,-5443,21692,-598,-1257,-1388,-2160,35823,-40,32,127,0,0,4952,-1955,0,11950,2725,94,649,0,2,225,-7,286553,0
286563,340,-2029,268,-983,2239,-4478,21247,-1135,-1615,-1104,-3392,35824,-28,32,127,0,0,4772,-1746,0,11950,2725,94,659,0,2,225,-7,286553,0
286573,624,-1649,212,-349,2165,-3008,20616,-1462,-922,-679,-3712,35828,-8,32,127,0,0,4623,-1450,0,11950,2725,94,669,0,2,225,-7,286553,0
286583,858,-1394,145,34,2216,-1958,19900,-1605,-513,-366,-3696,35840,10,32,127,0,0,4497,-1252,0,11950,2725,94,679,0,2,225,-7,286584,0
286593,1295,-1104,19,519,2451,-491,19171,-1591,-186,-203,-3600,35843,-5,32,127,0,0,4368,-1285,0,11950,2725,94,689,0,2,225,-7,286584,0
286603,1592,-923,-53,760,2704,438,18463,-1539,19,-261,-3536,35833,-15,32,127,0,0,4225,-1483,0,11950,2725,94,699,0,2,225,-7,286584,0
286613,1918,-546,-7,1111,3029,1873,17760,-1559,49,-442,-3920,35821,-29,32,127,0,0,4047,-1823,0,11950,2725,94,709,0,2,225,-7,286600,0
286623,1962,-288,23,1311,3037,2985,17003,-1718,-90,-620,-4392,35813,1,32,127,0,0,3851,-1977,0,11950,2725,94,719,0,2,225,-7,286615,0
286633,1993,-65,30,1365,2561,4978,16150,-1942,-298,-620,-4744,35809,24,32,127,0,0,3662,-1845,0,11950,2725,94,729,0,2,225,-7,286615,0
286643,2008,-102,223,1374,2036,6377,15234,-2022,-324,-423,-4712,35813,40,32,127,0,0,3509,-1505,0,11950,2725,94,739,0,2,225,-7,286646,0
286653,2130,-315,221,1504,1351,8195,14348,-1889,-60,-237,-4264,35818,28,32,127,0,0,3370,-1340,0,11950,2725,94,749,0,2,225,-7,286646,0
286663,1983,-336,209,1628,846,9300,13540,-1731,221,-234,-4112,35820,25,32,127,0,0,3243,-1285,0,11950,2725,94,759,0,2,225,-7,286646,0
286673,1701,-395,186,1911,13,10898,12782,-1648,248,-241,-3784,35817,3,31,127,0,0,3139,-1021,0,11950,2725,94,769,0,2,225,-7,286662,0
286683,1517,-490,235,2098,-590,11800,12072,-1525,174,-153,-3128,35823,-5,31,127,0,0,3060,-747,0,11950,2725,94,779,0,2,225,-7,286709,0
286693,1236,-725,401,2435,-1549,12803,11437,-1334,237,-82,-2480,35829,-27,31,127,0,0,3010,-483,0,11950,2725,94,789,0,2,225,-7,286709,0
286703,1131,-917,399,2695,-2049,13257,10910,-1091,352,-35,-1744,35836,-41,31,127,0,0,2979,-307,0,11950,2725,94,799,0,2,225,-7,286709,0
286713,1086,-1103,226,3206,-2534,13772,10505,-798,437,-35,-1128,35831,-36,32,127,0,0,2964,-186,0,11950,2725,94,809,0,2,225,-7,286709,0
286723,1120,-1179,141,3558,-2763,14150,10213,-570,451,-109,-656,35831,-39,32,127,0,0,2955,-32,0,11950,2725,94,819,0,2,225,-7,286725,0
286733,1072,-1328,92,4133,-2804,14505,10019,-359,398,-165,-256,35836,-52,32,127,0,0,2957,21,0,11950,2725,94,829,0,2,225,-7,286725,0
286743,962,-1489,-56,4570,-2650,14645,9915,-170,351,-44,-96,35844,-50,32,127,0,0,2955,-10,0,11950,2725,94,839,0,2,225,-7,286725,0
286753,728,-1660,-353,5216,-1938,14776,9923,63,392,-188,-16,35856,-51,32,127,0,0,2961,76,0,11950,2725,94,849,0,2,225,-7,286740,0
286763,662,-1645,-464,5539,-1239,14677,9937,7,226,-57,72,35850,-46,32,127,0,0,2975,153,0,11950,2725,94,859,0,2,225,-7,286740,0
286773,214,-1783,-426,5722,-305,13824,9964,91,25,272,136,35852,-51,32,127,0,0,2994,219,0,11950,2725,94,869,0,2,225,-7,286787,0
286783,273,-2138,-423,5666,216,12811,10043,199,124,217,120,35843,-56,32,127,0,0,3005,120,0,11950,2725,94,879,0,2,225,-7,286787,0
286793,717,-2681,-422,5339,783,11058,10139,201,136,-98,-8,35842,-70,32,127,0,0,3005,0,0,11950,2725,94,889,0,2,225,-7,286787,0
286803,1009,-2999,-276,4820,1027,9828,10147,-38,-136,-82,-16,35837,-87,32,127,0,0,3012,65,0,11950,2725,94,899,0,2,225,-7,286787,0
286813,1168,-3432,-61,3628,1428,7761,10149,35,-187,230,112,35841,-133,32,127,0,0,3027,186,0,11950,2725,94,909,0,2,225,-7,286803,0
286823,1273,-3650,-57,2681,1938,5961,10212,192,110,379,304,35859,-145,32,127,0,0,3054,208,0,11950,2725,94,919,0,2,225,-7,286818,0
286833,1543,-3472,-441,1515,2955,2915,10334,293,243,153,160,35867,-119,32,127,0,0,3065,76,0,11950,2725,94,929,0,2,225,-7,286818,0
286843,1861,-2519,-855,798,3519,1055,10440,191,92,-196,-80,35866,-73,32,127,0,0,3060,-21,0,11950,2725,94,939,0,2,225,-7,286850,0
286853,2412,-1336,-1272,-166,4136,-1453,10449,-48,-233,-347,-104,35847,-29,32,127,0,0,3058,-54,0,11950,2725,94,949,0,2,225,-7,286850,0
286863,2471,-790,-1356,-534,4388,-3076,10431,-26,-243,-349,-200,35847,-16,32,127,0,0,3041,-197,0,11950,2725,94,959,0,2,225,-7,286850,0
286873,2460,-557,-1151,-853,4478,-5029,10395,-137,-73,-630,-400,35847,-30,31,127,0,0,3012,-329,0,11950,2725,94,969,0,2,225,-7,286865,0
286883,-615,-10903,-3165,-1769,2834,-5162,10284,-288,-193,-480,-344,35853,-30,32,127,0,0,3091,1032,0,11950,2725,94,979,0,2,225,-7,286881,0
286893,1399,-1345,4987,2132,3941,-5375,10350,600,136,2290,2984,35845,-15,32,127,0,0,3401,2977,0,5873,1006,95,5,1,2,297,-7,286881,0
286903,1547,0,954,650,-155,-6237,10947,1494,1459,1148,3832,35833,19,32,127,0,0,3572,1658,0,5873,1006,95,15,1,2,297,-7,286881,0
286913,-331,-2959,1609,-997,-2883,-6500,11677,1617,1286,486,3752,35826,37,32,127,0,0,3700,1307,0,5873,1006,95,25,1,2,297,-7,286928,0
286923,-598,-3459,572,-1420,-3415,-7825,12404,1572,220,225,3232,35824,32,32,127,0,0,3746,340,0,5873,1006,95,35,1,2,297,-7,286928,0
286933,-407,-1848,-990,-2026,-1581,-9489,13044,1325,-165,-117,1640,35831,-10,32,127,0,0,3704,-505,0,5873,1006,95,45,1,2,297,-7,286943,0
286943,1265,-2934,-876,-2437,-567,-10644,13502,833,-505,-851,-256,35842,-51,31,127,0,0,3570,-1461,0,5873,1006,95,55,1,2,297,-7,286943,0
286953,321,-562,-818,-1601,230,-13598,13370,-731,-1466,-2445,-3464,35843,-31,31,127,0,0,3181,-4075,0,5873,1006,95,65,1,2,297,-7,286943,0
286963,1574,-1421,-393,-2164,-256,-13117,12625,-2036,-2345,-2517,-6208,35818,72,32,127,0,0,2792,-3757,0,5873,1006,95,75,1,2,297,-7,286943,0
286973,1587,281,-786,-1732,-663,-11996,11432,-2811,-2037,-1276,-7256,35793,168,31,127,0,0,2436,-3548,0,5873,1006,95,85,1,2,297,-7,286959,0
286983,2030,339,-792,-1462,-504,-10182,10046,-3094,-1216,-746,-7440,35786,213,31,127,0,0,2124,-3098,0,5873,1006,95,95,1,2,297,-7,286990,0
286993,3366,-300,-620,-590,-523,-8077,8646,-3069,-385,-453,-7160,35800,160,32,127,0,0,1878,-2384,0,5873,1006,95,105,1,2,297,-7,286990,0
287003,3841,-854,151,-459,-370,-7093,7291,-2929,55,-291,-6528,35815,82,32,127,0,0,1667,-2076,0,5873,1006,95,115,1,2,297,-7,286990,0
287013,3495,-1606,975,-361,-670,-5248,6039,-2669,281,-222,-5912,35817,28,32,127,0,0,1494,-1680,0,5873,1006,95,125,1,2,297,-7,286990,0
287023,2861,-2242,1159,-391,-1049,-4032,4926,-2354,462,-76,-5128,35833,2,32,127,0,0,1373,-1208,0,5873,1006,95,135,1,2,297,-7,287021,0
287033,1634,-2463,805,-585,-1210,-3281,3946,-2079,520,-8,-4208,35846,-20,32,127,0,0,1283,-911,0,5873,1006,95,145,1,2,297,-7,287037,0
287043,940,-2522,140,-743,-1162,-3537,3097,-1776,502,-12,-3504,35853,-45,31,127,0,0,1190,-933,0,5873,1006,95,155,1,2,297,-7,287084,0
287053,887,-2548,-217,-572,-293,-3800,2382,-1497,509,-148,-3400,35851,-51,32,127,0,0,1085,-1076,0,5873,1006,95,165,1,2,297,-7,287084,0
287063,1412,-2339,64,-375,-474,-3227,1731,-1417,386,-404,-3304,35852,-35,31,127,0,0,1001,-780,0,5873,1006,95,175,1,2,297,-7,287084,0
287073,2178,-1838,549,-317,-609,-2095,1120,-1298,187,-180,-2352,35851,-30,31,127,0,0,953,-384,0,5873,1006,95,185,1,2,297,-7,287099,0
287083,2734,-1633,465,-273,-725,-1451,616,-1023,277,47,-1320,35851,-30,32,127,0,0,936,-142,0,5873,1006,95,195,1,2,297,-7,287099,0
287093,3078,-1270,165,-127,-497,-498,252,-694,476,88,-552,35850,-44,31,127,0,0,936,10,0,5873,1006,95,205,1,2,297,-7,287099,0
287103,2460,-1631,23,-134,-664,309,27,-393,540,100,-72,35853,-57,32,127,0,0,953,219,0,5873,1006,95,215,1,2,297,-7,287115,0
287113,2714,-2653,708,-218,-762,1697,-29,23,593,356,152,35857,-61,32,127,0,0,1021,714,0,5873,1006,95,225,1,2,297,-7,287115,0
287123,2762,-3262,739,-380,-898,2247,55,275,642,667,1152,35871,-74,32,127,0,0,1133,1164,0,5873,1006,95,235,1,2,297,-7,287131,0
287133,1558,-3557,900,-778,-1353,2872,308,696,618,1099,2400,35876,-43,31,127,0,0,1287,1614,0,5873,1006,95,245,1,2,297,-7,287131,0
287143,860,-3448,968,-799,-1535,2876,783,1174,766,1172,3592,35870,-4,32,127,0,0,1480,1988,0,5873,1006,95,255,1,2,297,-7,287131,0
287153,-126,-3431,495,-570,-1761,2769,1458,1596,799,995,4408,35854,33,32,127,0,0,1698,2219,0,5873,1006,95,265,1,2,297,-7,287131,0
287163,-355,-3315,427,-460,-1904,2475,2289,1936,668,954,5112,35840,48,32,127,0,0,1946,2515,0,5873,1006,95,275,1,2,297,-7,287334,0
287173,-735,-3145,427,-576,-2233,2141,3249,2183,538,874,5704,35834,54,32,127,0,0,2223,2845,0,5873,1006,95,285,1,2,297,-7,287334,0
287183,-886,-2896,393,-837,-2314,1746,4307,2383,423,894,6160,35818,81,32,127,0,0,2509,2768,0,5873,1006,95,295,1,2,297,-7,287334,0
287193,-1102,-2510,248,-1100,-2391,1088,5421,2482,283,850,6616,35801,101,31,127,0,0,2799,2900,0,5873,1006,95,305,1,2,297,-7,287334,0
287203,-1267,-2282,283,-1213,-2311,313,6625,2723,277,897,6984,35787,112,31,127,0,0,3095,2977,0,5873,1006,95,315,1,2,297,-7,287349,0
287213,-1269,-2204,372,-1305,-2099,-1107,7941,2979,404,846,7328,35788,121,32,127,0,0,3372,2702,0,5873,1006,95,325,1,2,297,-7,287349,0
287223,-1213,-2304,370,-1318,-1935,-1869,9309,2999,312,436,7128,35791,112,32,127,0,0,3610,2384,0,5873,1006,95,335,1,2,297,-7,287349,0
287233,-664,-2160,443,-1397,-2226,-2956,10652,2940,21,306,6816,35797,89,31,127,0,0,3836,2230,0,5873,1006,95,345,1,2,297,-7,287349,0
287243,-349,-2122,465,-1447,-2491,-3606,11957,2818,-132,258,6384,35806,54,32,127,0,0,4029,1922,0,5873,1006,95,355,1,2,297,-7,287349,0
287253,-443,-2402,477,-1657,-2698,-4442,13150,2541,-308,187,5768,35814,25,32,127,0,0,4201,1636,0,5873,1006,95,365,1,2,297,-7,287349,0
287263,-399,-2373,574,-1752,-2855,-4907,14233,2326,-432,155,5336,35822,15,32,127,0,0,4361,1582,0,5873,1006,95,375,1,2,297,-7,287365,0
287273,-682,-2330,781,-1914,-2920,-5649,15251,2190,-319,156,4832,35826,0,32,127,0,0,4500,1384,0,5873,1006,95,385,1,2,297,-7,287365,0
287283,-819,-2377,850,-2005,-2955,-6098,16193,2001,-274,156,4224,35831,-7,31,127,0,0,4616,1109,0,5873,1006,95,395,1,2,297,-7,287365,0
287293,-1041,-2253,927,-2310,-3132,-6492,17008,1701,-408,167,3688,35832,-24,31,127,0,0,4717,1054,0,5873,1006,95,405,1,2,297,-7,287365,0
287303,-1024,-2069,859,-2594,-3174,-6607,17708,1472,-469,333,3464,35830,-24,32,127,0,0,4827,1120,0,5873,1006,95,415,1,2,297,-7,287365,0
287313,-1121,-1757,716,-2793,-3427,-6497,18352,1399,-312,453,3344,35825,-26,31,127,0,0,4932,1087,0,5873,1006,95,425,1,2,297,-7,287365,0
287323,-2223,-1787,592,-2879,-3034,-5970,18967,1359,-141,552,3376,35822,-23,31,127,0,0,5080,1516,0,5873,1006,95,435,1,2,297,-7,287365,0
287333,-290,-2182,762,-3247,-2836,-5786,19617,1485,33,959,4072,35816,15,32,127,0,0,5271,1922,0,5873,1006,95,445,1,2,297,-7,287365,0
287343,9,-2737,686,-3541,-1839,-6097,20368,1703,281,866,4168,35810,39,31,127,0,0,5389,1076,0,5873,1006,95,455,1,2,297,-7,287365,0
287353,144,-3402,725,-3456,611,-5913,21108,1563,148,241,3248,35810,53,32,127,0,0,5407,65,0,5873,1006,95,465,1,2,297,-7,287365,0
287363,213,-3456,706,-3107,2267,-5669,21713,1217,-337,-57,1424,35828,25,32,127,0,0,5330,-856,0,5873,1006,95,475,0,2,297,-7,287365,0
287373,-477,-2455,876,-2677,3557,-5237,22091,624,-727,-1343,-648,35843,-4,32,127,0,0,5187,-1494,0,5873,1006,95,485,0,2,297,-7,287365,0
287383,-313,-2065,818,-2518,4138,-5248,21917,-585,-1538,-1017,-2136,35859,-11,32,127,0,0,5007,-1856,0,5873,1006,95,495,0,2,297,-7,287365,0
287393,-30,-1777,704,-2385,4379,-4789,21494,-1090,-1485,-1141,-3360,35860,1,32,127,0,0,4807,-2021,0,5873,1006,95,505,0,2,297,-7,287381,0
287403,475,-1884,511,-2268,4636,-4156,20862,-1507,-837,-915,-4080,35856,33,32,127,0,0,4623,-1867,0,5873,1006,95,515,0,2,297,-7,287631,0
287413,941,-1937,292,-1835,5099,-3042,20085,-1785,-655,-697,-4600,35847,46,32,127,0,0,4431,-1922,0,5873,1006,95,525,0,2,297,-7,287631,0
287423,1098,-1687,184,-1437,5200,-2374,19212,-1967,-236,-536,-4808,35829,33,32,127,0,0,4238,-1922,0,5873,1006,95,535,0,2,297,-7,287631,0
287433,1349,-1124,147,-942,4977,-1405,18293,-2046,-152,-522,-5072,35823,23,32,127,0,0,4034,-2054,0,5873,1006,95,545,0,2,297,-7,287631,0
287443,1558,-846,212,-730,4600,-651,17333,-2133,-347,-488,-5224,35818,31,32,127,0,0,3827,-2054,0,5873,1006,95,555,0,2,297,-7,287631,0
287453,1984,-666,305,-530,3836,722,16329,-2246,-159,-527,-5504,35825,36,32,127,0,0,3623,-2032,0,5873,1006,95,565,0,2,297,-7,287631,0
287463,2494,-642,381,-424,3356,1754,15276,-2318,-192,-416,-5400,35822,32,32,127,0,0,3418,-2065,0,5873,1006,95,575,0,2,297,-7,287631,0
287473,2763,-541,366,-176,2594,3489,14243,-2258,-55,-535,-5672,35822,33,32,127,0,0,3192,-2263,0,5873,1006,95,585,0,2,297,-7,287631,0
287483,2698,-588,327,-60,1858,4961,13198,-2327,22,-579,-5832,35807,36,31,127,0,0,2979,-2098,0,5873,1006,95,595,0,2,297,-7,287631,0
287493,2584,-680,464,194,508,7384,12126,-2358,-84,-283,-5208,35807,36,31,127,0,0,2849,-1197,0,5873,1006,95,605,0,2,297,-7,287631,0
287503,2423,-736,633,427,-148,8691,11101,-2175,35,26,-3936,35811,8,32,127,0,0,2775,-725,0,5873,1006,95,615,0,2,297,-7,287646,0
287513,2153,-715,557,930,-745,9978,10229,-1793,390,181,-2808,35823,-38,31,127,0,0,2722,-549,0,5873,1006,95,625,0,2,297,-7,287646,0
287523,1795,-553,200,1249,-967,10582,9557,-1354,687,172,-1984,35834,-58,32,127,0,0,2656,-659,0,5873,1006,95,635,0,2,297,-7,287646,0
287533,1421,-741,-105,1870,-1241,11574,9057,-1013,717,29,-1560,35837,-69,31,127,0,0,2608,-450,0,5873,1006,95,645,0,2,297,-7,287646,0
287623,1392,-1964,-159,4686,-400,13157,9156,490,20,280,752,35832,-60,32,127,0,0,2895,384,0,5873,1006,95,735,0,2,297,-7,287646,0
287553,1410,-760,87,2959,-1137,12621,8409,-513,448,-95,-448,35829,-57,32,127,0,0,2594,-21,0,5873,1006,95,665,0,2,297,-7,287646,0
287563,1204,-922,184,3331,-1185,12986,8239,-313,400,-46,-16,35830,-50,31,127,0,0,2610,186,0,5873,1006,95,675,0,2,297,-7,287646,0
287573,1554,-1144,-17,3813,-1138,13519,8220,103,465,493,328,35831,-50,32,127,0,0,2652,428,0,5873,1006,95,685,0,2,297,-7,287646,0
287583,1842,-1219,-252,4199,-740,13857,8338,309,575,465,656,35835,-34,31,127,0,0,2713,615,0,5873,1006,95,695,0,2,297,-7,287646,0
287593,1712,-1130,-621,4699,102,14145,8517,422,375,377,832,35835,-42,32,127,0,0,2768,527,0,5873,1006,95,705,0,2,297,-7,287646,0
287603,1573,-1087,-590,4845,331,14143,8726,471,170,335,824,35834,-61,32,127,0,0,2812,450,0,5873,1006,95,715,0,2,297,-7,287646,0
287613,1295,-1427,-217,4789,-1,13721,8937,470,60,311,840,35832,-63,32,127,0,0,2856,472,0,5873,1006,95,725,0,2,297,-7,287646,0
287623,1392,-1964,-159,4686,-400,13157,9156,490,20,280,752,35832,-60,32,127,0,0,2895,384,0,5873,1006,95,735,0,2,297,-7,287646,0
287663,1282,-3113,60,3250,-504,8448,9905,300,-133,96,184,35859,-66,32,127,0,0,2990,274,0,5873,1006,95,775,0,2,297,-7,287646,0
287673,1415,-2619,-207,2542,-446,6414,10025,264,-120,187,240,35875,-64,32,127,0,0,3016,263,0,5873,1006,95,785,0,2,297,-7,287662,0
287683,1499,-2197,-563,2225,-319,4857,10155,303,-16,145,248,35878,-77,31,127,0,0,3041,241,0,5873,1006,95,795,0,2,297,-7,287677,0
287693,1630,-1601,-1034,1613,211,2496,10277,268,6,135,120,35873,-70,32,127,0,0,3049,54,0,5873,1006,95,805,0,2,297,-7,287693,0
287703,1684,-1343,-1105,1121,759,1084,10363,115,-75,-134,-8,35856,-56,31,127,0,0,3054,10,0,5873,1006,95,815,0,2,297,-7,287693,0
287713,1840,-1103,-1017,395,1613,-902,10378,12,-223,-142,-32,35841,-44,31,127,0,0,3049,-43,0,5873,1006,95,825,0,2,297,-7,287693,0
287723,2095,-948,-1047,-50,2191,-2197,10367,5,-188,-119,-80,35846,-33,32,127,0,0,3043,-120,0,5873,1006,95,835,0,2,297,-7,287709,0
287733,72,-14718,-2828,-2219,1115,-2928,10346,-97,-48,-360,80,35845,-35,32,127,0,0,3164,1560,0,5873,1006,95,845,0,2,297,-7,287709,0
287743,1983,-1987,6384,1155,3909,-4902,10514,808,282,2528,3624,35847,0,32,127,0,0,3504,3186,0,1239,645,96,7,1,2,400,-5,287740,0
287753,1943,635,-130,-237,197,-8200,11213,1683,1475,854,3768,35823,35,31,127,0,0,3590,670,0,1239,645,96,17,1,2,400,-5,287740,0
287763,5,-3493,1275,-1088,-694,-7815,11932,1499,1063,-4,2304,35819,30,32,127,0,0,3588,-10,0,1239,645,96,27,1,2,400,-5,287756,0
287773,-1265,-2491,-195,-1638,-2596,-7624,12488,1106,-307,-190,1216,35822,6,32,127,0,0,3594,65,0,1239,645,96,37,1,2,400,-5,287756,0
287783,-829,-2570,-456,-1673,-2020,-8360,12879,759,-630,-188,488,35850,-40,31,127,0,0,3594,-32,0,1239,645,96,47,1,2,400,-5,287787,0
287793,-74,-1679,-1268,-2198,-1016,-9716,13111,369,-607,-726,-376,35859,-52,31,127,0,0,3524,-791,0,1239,645,96,57,1,2,400,-5,287787,0
287803,2381,-2223,-269,-1959,1065,-12443,13004,-390,-948,-1124,-2016,35851,-54,32,127,0,0,3245,-3186,0,1239,645,96,67,1,2,400,-5,287787,0
287813,1709,-1736,-766,-1800,-37,-12847,12500,-1519,-1381,-2649,-5296,35820,36,32,127,0,0,2858,-3856,0,1239,645,96,77,1,2,400,-5,287787,0
287823,2274,222,-136,-1584,-133,-12363,11470,-2499,-1816,-1539,-6656,35792,124,32,127,0,0,2504,-3515,0,1239,645,96,87,1,2,400,-5,287818,0
287833,2269,-177,-535,-1494,-508,-9874,10183,-2922,-1500,-919,-7176,35774,195,32,127,0,0,2192,-3065,0,1239,645,96,97,1,2,400,-5,287818,0
287843,2997,-366,-99,-955,-507,-8090,8836,-2948,-596,-456,-6928,35785,146,32,127,0,0,1940,-2427,0,1239,645,96,107,1,2,400,-5,287896,0
287853,3561,-821,-157,-497,-626,-6478,7519,-2845,-56,-231,-6224,35802,77,32,127,0,0,1749,-1900,0,1239,645,96,117,1,2,400,-5,287912,0
287863,3085,-1491,591,-347,-675,-5728,6312,-2563,267,-152,-5592,35820,14,32,127,0,0,1579,-1680,0,1239,645,96,127,1,2,400,-5,287912,0
287873,2132,-2138,1179,-271,-779,-4524,5246,-2251,482,-124,-4976,35827,-21,32,127,0,0,1437,-1384,0,1239,645,96,137,1,2,400,-5,287912,0
287883,1713,-2457,1183,-423,-854,-3987,4304,-2010,517,-117,-4432,35831,-16,32,127,0,0,1318,-1131,0,1239,645,96,147,1,2,400,-5,287912,0
287893,1182,-2509,485,-722,-906,-3803,3453,-1818,405,-151,-3992,35836,-16,32,127,0,0,1212,-1065,0,1239,645,96,157,1,2,400,-5,287912,0
287903,1358,-2402,137,-694,-591,-3765,2686,-1630,335,-199,-3664,35836,-17,32,127,0,0,1111,-1010,0,1239,645,96,167,1,2,400,-5,287912,0
287913,2130,-1961,135,-560,-541,-3051,1981,-1519,280,-319,-3504,35833,-19,32,127,0,0,1023,-889,0,1239,645,96,177,1,2,400,-5,287912,0
287923,2472,-1887,440,-560,-640,-2182,1322,-1416,198,-240,-2760,35829,-22,32,127,0,0,966,-527,0,1239,645,96,187,1,2,400,-5,287912,0
287933,2691,-1962,701,-648,-919,-998,755,-1169,251,48,-1600,35834,-30,32,127,0,0,955,-54,0,1239,645,96,197,1,2,400,-5,287912,0
287943,2557,-1932,904,-581,-1002,-598,327,-840,449,136,-720,35849,-28,32,127,0,0,960,54,0,1239,645,96,207,1,2,400,-5,287927,0
287953,2266,-3493,954,-546,-1305,502,51,-512,562,135,-136,35860,-32,31,127,0,0,999,483,0,1239,645,96,217,1,2,400,-5,287974,0
287963,2059,-3420,913,-642,-1521,1026,-15,104,676,1004,856,35862,-54,31,127,0,0,1098,1021,0,1239,645,96,227,1,2,400,-5,287994,0
287973,1516,-3732,930,-1201,-1843,1655,217,654,1000,1092,2248,35853,-54,32,127,0,0,1256,1614,0,1239,645,96,237,1,2,400,-5,287994,0
287983,847,-3674,621,-1225,-1873,1701,690,1193,1033,1229,3488,35833,-34,31,127,0,0,1452,1999,0,1239,645,96,247,1,2,400,-5,287994,0
287993,95,-3507,57,-1039,-1861,1577,1373,1624,878,1087,4368,35822,25,32,127,0,0,1667,2175,0,1239,645,96,257,1,2,400,-5,288010,0
288003,-121,-3392,131,-920,-1870,1319,2216,1950,711,970,5096,35816,62,31,127,0,0,1911,2471,0,1239,645,96,267,1,2,400,-5,288010,0
288013,-269,-3071,217,-1000,-1957,1067,3190,2203,546,827,5624,35814,67,32,127,0,0,2184,2790,0,1239,645,96,277,1,2,400,-5,288010,0
288023,-604,-2893,173,-1227,-1869,991,4245,2373,408,877,6104,35808,79,32,127,0,0,2467,2823,0,1239,645,96,287,1,2,400,-5,288010,0
288033,-598,-2454,11,-1454,-1723,718,5360,2491,276,878,6632,35809,104,32,127,0,0,2768,3010,0,1239,645,96,297,1,2,400,-5,288010,0
288043,-717,-2263,-95,-1550,-1696,204,6570,2752,292,972,7176,35812,115,31,127,0,0,3082,3208,0,1239,645,96,307,1,2,400,-5,288057,0
288053,-755,-2028,122,-1524,-1816,-747,7919,3066,452,1033,7792,35808,130,32,127,0,0,3399,3164,0,1239,645,96,317,1,2,400,-5,288057,0
288063,-1041,-2145,289,-1401,-1686,-1394,9379,3237,486,714,7856,35798,130,32,127,0,0,3684,2757,0,1239,645,96,327,1,2,400,-5,288057,0
288073,-907,-2406,412,-1559,-1517,-2376,10866,3291,250,465,7824,35792,128,32,127,0,0,3955,2691,0,1239,645,96,337,1,2,400,-5,288057,0
288083,-599,-2333,542,-1871,-1572,-3223,12338,3188,32,365,7464,35803,96,32,127,0,0,4198,2427,0,1239,645,96,347,1,2,400,-5,288057,0
288093,-498,-3052,814,-2174,-1409,-4385,13705,2931,-236,254,6992,35826,75,32,127,0,0,4407,2065,0,1239,645,96,357,1,2,400,-5,288088,0
288103,-761,-3009,843,-2257,-1470,-4953,15005,2834,-339,169,6352,35832,39,32,127,0,0,4587,1790,0,1239,645,96,367,1,2,400,-5,288088,0
288113,-1035,-2461,904,-2509,-1464,-5670,16233,2621,-247,82,5488,35840,26,32,127,0,0,4728,1395,0,1239,645,96,377,1,2,400,-5,288119,0
288123,-1252,-2294,947,-2648,-1468,-5994,17204,2275,-449,59,4728,35839,-7,31,127,0,0,4855,1263,0,1239,645,96,387,1,2,400,-5,288119,0
288133,-1515,-2092,952,-2818,-1588,-6300,18130,1948,-612,116,4216,35843,-24,32,127,0,0,4985,1296,0,1239,645,96,397,1,2,400,-5,288135,0
288143,-1729,-1649,960,-2831,-1775,-6345,18939,1731,-511,299,3976,35838,-21,32,127,0,0,5119,1340,0,1239,645,96,407,1,2,400,-5,288135,0
288153,-1956,-1453,798,-2920,-2197,-6011,19693,1633,-304,496,3984,35838,-20,32,127,0,0,5269,1516,0,1239,645,96,417,1,2,400,-5,288135,0
288163,-973,-1474,844,-3127,-3281,-5733,20429,1644,-117,926,4592,35838,18,32,127,0,0,5488,2230,0,1239,645,96,427,1,2,400,-5,288166,0
288173,-4,-2426,566,-3640,-3044,-5907,21230,1753,114,391,3120,35832,46,31,127,0,0,5671,1768,0,1239,645,96,437,1,2,400,-5,288166,0
288183,570,-3455,499,-3738,-2252,-6021,21879,1250,-216,-565,448,35836,18,31,127,0,0,5765,823,0,1239,645,96,447,1,2,400,-5,288166,0
288193,512,-4189,747,-3234,-374,-5752,22002,-364,-1443,-2914,-2240,35837,14,32,127,0,0,5748,-263,0,1239,645,96,457,1,2,400,-5,288197,0
288203,-435,-3478,1022,-2798,818,-5768,21522,-1347,-2299,-2035,-5080,35835,28,31,127,0,0,5614,-1450,0,1239,645,96,467,0,2,400,-5,288213,0
288213,-456,-2626,1137,-2535,1603,-5586,20551,-2478,-2019,-2258,-7600,35799,156,32,127,0,0,5422,-1977,0,1239,645,96,477,0,2,400,-5,288213,0
288223,-314,-2283,1014,-2352,1929,-5800,19346,-2299,-1321,3041,744,35801,103,32,127,0,0,5194,-2307,0,1239,645,96,487,0,2,400,-5,288213,0
288233,19,-2125,661,-2280,2054,-4954,19494,1266,2590,3807,2256,35789,141,32,127,0,0,4957,-2329,0,1239,645,96,497,0,2,400,-5,288213,0
288243,1215,-2601,454,-2099,2732,-3900,19993,865,3290,-1538,-752,35827,31,32,127,0,0,4776,-1801,0,1239,645,96,507,0,2,400,-5,288244,0
288253,888,-2220,615,-1262,3257,-2649,19824,-659,-1109,-1178,-2168,35827,55,32,127,0,0,4607,-1680,0,1239,645,96,517,0,2,400,-5,288244,0
288263,933,-1698,430,-776,3304,-2013,19378,-1111,-1757,-916,-3160,35839,-13,32,127,0,0,4425,-1889,0,1239,645,96,527,0,2,400,-5,288244,0
288273,1147,-1028,195,-279,3282,-1167,18757,-1487,-769,-1007,-4112,35837,5,32,127,0,0,4218,-2065,0,1239,645,96,537,0,2,400,-5,288275,0
288283,1464,-775,110,-23,3333,-356,17975,-1810,-639,-806,-4704,35829,19,32,127,0,0,3999,-2175,0,1239,645,96,547,0,2,400,-5,288275,0
288293,1931,-642,58,336,3366,1205,17084,-2024,-503,-667,-5160,35823,37,32,127,0,0,3794,-2065,0,1239,645,96,557,0,2,400,-5,288275,0
288303,2306,-565,108,582,3372,2308,16100,-2202,-376,-542,-5360,35811,58,32,127,0,0,3583,-2142,0,1239,645,96,567,0,2,400,-5,288291,0
288313,2528,-358,195,1009,3194,4046,15062,-2296,-264,-528,-5528,35817,67,32,127,0,0,3361,-2274,0,1239,645,96,577,0,2,400,-5,288369,0
288323,2384,-388,380,1224,2800,5514,14020,-2306,-98,-674,-5848,35821,64,32,127,0,0,3137,-2197,0,1239,645,96,587,0,2,400,-5,288369,0
288333,2087,-524,638,1382,1760,7957,12952,-2354,-59,-375,-5560,35820,54,32,127,0,0,2972,-1593,0,1239,645,96,597,0,2,400,-5,288369,0
288343,2098,-533,886,1448,1052,9409,11902,-2277,-2,-61,-4448,35819,19,31,127,0,0,2893,-747,0,1239,645,96,607,0,2,400,-5,288385,0
288353,2066,-604,860,1740,266,10888,10959,-1969,263,183,-3048,35825,-23,31,127,0,0,2847,-450,0,1239,645,96,617,0,2,400,-5,288385,0
288363,1815,-585,546,2020,-103,11604,10206,-1515,599,244,-2072,35838,-47,32,127,0,0,2792,-527,0,1239,645,96,627,0,2,400,-5,288385,0
288373,1501,-536,150,2429,-636,12737,9656,-1097,760,145,-1432,35846,-55,32,127,0,0,2748,-450,0,1239,645,96,637,0,2,400,-5,288385,0
