state_time,accelx,accely,accelz,gyrox,gyroy,gyroz,mot_ang,mot_vel,mot_acc,mot_cur,mot_volt,batt_volt,batt_curr,temperature,status_mn,status_ex,status_re,ank_ang,ank_vel,ank_torque,peak_ank_torque,step_energy,step_count,step_time,gait_state,movement,speed,incline,sys_time,eventFlags
317454,1,-2060,330,-86,30,110,14004,-6,-4,-8,8,35707,12,33,127,0,0,3761,43,0,2328,445,120,4582,-4,0,78,16,317429,0
317464,-1,-2067,328,-84,36,111,14004,-14,-3,-15,-16,35708,11,32,127,0,0,3762,16,0,2328,445,120,4592,-4,0,78,16,317460,0
317474,-6,-2070,328,-85,32,115,14006,0,-1,22,8,35709,5,33,127,0,0,3761,0,0,2328,445,120,4602,-4,0,78,16,317460,0
317484,-21,-2073,321,-87,34,110,14004,-4,-3,-35,-8,35706,9,33,127,0,0,3762,43,0,2328,445,120,4612,-4,0,78,16,317476,0
317494,-1,-2067,328,-86,39,113,14006,-3,3,4,8,35714,5,32,127,0,0,3761,5,0,2328,445,120,4622,-4,0,78,16,317476,0
317504,-18,-2059,328,-85,34,114,14005,-4,1,-26,-40,35702,6,33,127,0,0,3763,10,0,2328,445,120,4632,-4,0,78,16,317492,0
317514,-14,-2065,322,-81,36,122,14006,15,-2,0,-16,35709,-7,33,127,0,0,3762,27,0,2328,445,120,4642,-4,0,78,16,317507,0
317524,-40,-2062,330,-83,30,119,14006,5,0,26,8,35706,-7,33,127,0,0,3758,-16,0,2328,445,120,4652,-4,0,78,16,317507,0
317534,-8,-2064,326,-84,35,117,14004,1,-2,-45,-8,35710,-6,32,127,0,0,3759,0,0,2328,445,120,4662,-4,0,78,16,317523,0
317544,-7,-2063,325,-84,37,121,14005,0,4,-13,8,35715,-17,32,127,0,0,3761,21,0,2328,445,120,4672,-4,0,78,16,317539,0
317554,2,-2062,332,-84,36,120,14005,-3,3,-2,-16,35714,-21,33,127,0,0,3759,-5,0,2328,445,120,4682,-4,0,78,16,317539,0
317564,-20,-2067,321,-80,37,123,14005,11,-1,-29,8,35714,-13,32,127,0,0,3758,5,0,2328,445,120,4692,-4,0,78,16,317570,0
317574,-13,-2058,331,-82,43,119,14003,-7,-1,-50,-32,35714,-8,33,127,0,0,3757,-38,0,2328,445,120,4702,-4,0,78,16,317585,0
317584,-15,-2069,328,-80,40,116,14004,4,-3,-55,-16,35705,-7,33,127,0,0,3759,-10,0,2328,445,120,4712,-4,0,78,16,317601,0
317594,-22,-2062,327,-80,31,132,14004,4,4,-16,-16,35699,-17,33,127,0,0,3762,5,0,2328,445,120,4722,-4,0,78,16,317601,0
317604,-30,-2066,327,-84,35,135,14004,0,-4,-32,-16,35691,1,32,127,0,0,3759,10,0,2328,445,120,4732,-4,0,78,16,317617,0
317614,-9,-2068,327,-82,30,125,14006,7,3,7,8,35696,-2,33,127,0,0,3758,-16,0,2328,445,120,4742,-4,0,78,16,317617,0
317624,7,-2066,329,-83,40,123,14005,0,2,0,-8,35702,-9,32,127,0,0,3759,-43,0,2328,445,120,4752,-4,0,78,16,317617,0
317635,-27,-2065,330,-81,33,128,14006,14,3,6,8,35709,-7,32,127,0,0,3759,-21,0,2328,445,120,4763,-4,0,78,16,317617,0
317645,-41,-2070,325,-80,31,124,14005,0,6,20,16,35718,-12,33,127,0,0,3763,10,0,2328,445,120,4773,-4,0,78,16,317632,0
317655,-61,-2070,330,-78,35,131,14006,-1,0,66,8,35719,12,33,127,0,0,3761,0,0,2328,445,120,4783,-4,0,78,16,317632,0
317665,9,-2070,328,-85,41,114,14004,1,0,9,8,35706,25,32,127,0,0,3759,0,0,2328,445,120,4793,-4,0,78,16,317664,0
317675,-5,-2070,331,-87,30,114,14005,6,-1,15,8,35705,24,33,127,0,0,3761,-10,0,2328,445,120,4803,-4,0,78,16,317664,0
317685,-28,-2060,327,-88,38,128,14006,0,4,35,8,35700,10,32,127,0,0,3759,-21,0,2328,445,120,4813,-4,0,78,16,317664,0
317695,-11,-2067,329,-87,32,120,14005,3,-1,18,-32,35708,10,32,127,0,0,3759,-10,0,2328,445,120,4823,-4,0,78,16,317679,0
317705,-47,-2066,328,-86,39,122,14003,-9,-3,-18,24,35709,0,32,127,0,0,3761,21,0,2328,445,120,4833,-4,0,78,16,317679,0
317715,0,-2066,328,-89,32,118,14005,-4,1,0,-24,35705,-6,33,127,0,0,3761,10,0,2328,445,120,4843,-4,0,78,16,317726,0
317725,-8,-2058,330,-91,32,123,14006,11,5,21,8,35706,-3,33,127,0,0,3761,0,0,2328,445,120,4853,-4,0,78,16,317726,0
317735,-27,-2061,327,-92,28,124,14005,3,-1,17,-24,35704,14,32,127,0,0,3759,-21,0,2328,445,120,4863,-4,0,78,16,317726,0
317745,-18,-2072,323,-87,34,122,14005,3,-3,-15,-16,35700,27,32,127,0,0,3759,-21,0,2328,445,120,4873,-4,0,78,16,317726,0
317755,-19,-2064,325,-91,36,116,14006,6,11,-4,-24,35699,25,32,127,0,0,3759,-21,0,2328,445,120,4883,-4,0,78,16,317757,0
317765,-7,-2061,329,-88,39,113,14003,-2,-3,-21,24,35703,14,32,127,0,0,3759,0,0,2328,445,120,4893,-4,0,78,16,317757,0
317775,9,-2070,325,-87,31,115,14004,-1,-4,-34,-8,35706,-1,33,127,0,0,3759,0,0,2328,445,120,4903,-4,0,78,16,317757,0
317785,-33,-2061,329,-90,30,120,14006,-2,7,-27,-8,35703,20,32,127,0,0,3759,-21,0,2328,445,120,4913,-4,0,78,16,317773,0
317795,-18,-2058,327,-93,29,123,14007,9,5,-4,-24,35702,27,32,127,0,0,3761,-10,0,2328,445,120,4923,-4,0,78,16,317789,0
317805,-4,-2064,324,-89,33,125,14005,4,2,4,-16,35704,40,32,127,0,0,3761,10,0,2328,445,120,4933,-4,0,78,16,317789,0
317815,-3,-2064,329,-83,23,126,14004,-12,0,-6,24,35713,37,33,127,0,0,3761,21,0,2328,445,120,4943,-4,0,78,16,317789,0
317825,-22,-2063,326,-87,33,124,14004,-3,-2,11,16,35712,17,33,127,0,0,3761,10,0,2328,445,120,4953,-4,0,78,16,317804,0
317835,4,-2070,330,-87,29,123,14006,4,6,28,8,35715,-5,33,127,0,0,3761,0,0,2328,445,120,4963,-4,0,78,16,317820,0
317845,-14,-2061,321,-88,39,122,14007,9,0,64,-8,35720,-36,33,127,0,0,3761,-10,0,2328,445,120,4973,-4,0,78,16,317835,0
317855,-39,-2062,321,-88,34,124,14004,-4,-11,26,8,35726,-44,33,127,0,0,3761,21,0,2328,445,120,4983,-4,0,78,16,317835,0
317866,-54,-2067,320,-83,30,131,14007,7,4,118,0,35724,-33,33,127,0,0,3761,-60,0,2328,445,120,4994,-4,0,78,16,317851,0
317876,-34,-2053,321,-86,30,124,14006,3,4,62,8,35723,-20,33,127,0,0,3761,-27,0,2328,445,120,5004,-4,0,78,16,317867,0
317886,-9,-2060,331,-84,34,116,14006,3,-1,29,8,35718,-9,33,127,0,0,3761,0,0,2328,445,120,5014,-4,0,78,16,317882,0
317896,-23,-2065,328,-89,35,113,14006,0,4,87,24,35720,8,33,127,0,0,3760,-49,0,2328,445,120,5024,-4,0,78,16,317898,0
317906,6,-2062,321,-85,44,115,14005,0,-3,29,8,35716,21,32,127,0,0,3761,0,0,2328,445,120,5034,-4,0,78,16,317898,0
317916,-3,-2069,332,-82,38,115,14006,1,-1,33,32,35712,17,32,127,0,0,3760,5,0,2328,445,120,5044,-4,0,78,16,317898,0
317926,-14,-2060,325,-83,38,117,14005,-9,1,42,56,35718,22,33,127,0,0,3762,43,0,2328,445,120,5054,-4,0,78,16,317913,0
317936,28,-2060,321,-88,29,126,14004,-29,-11,69,8,35720,17,32,127,0,0,3761,5,0,2328,445,120,5064,-4,0,78,16,317913,0
317946,-33,-2053,321,-88,37,116,14005,-4,-7,22,8,35715,5,33,127,0,0,3761,0,0,2328,445,120,5074,-4,0,78,16,317929,0
317956,-25,-2064,325,-87,38,122,14007,8,1,67,32,35709,17,32,127,0,0,3763,32,0,2328,445,120,5084,-4,0,78,16,317929,0
317966,0,-2065,324,-82,31,115,14004,-11,-10,51,8,35712,9,32,127,0,0,3765,43,0,2328,445,120,5094,-4,0,78,16,317945,0
317976,-23,-2071,328,-82,31,117,14005,-9,-5,17,8,35718,5,33,127,0,0,3765,49,0,2328,445,120,5104,-4,0,78,16,317960,0
317986,24,-2069,329,-85,37,124,14006,-2,3,43,0,35720,-8,32,127,0,0,3761,10,0,2328,445,120,5114,-4,0,78,16,317976,0
317996,-4,-2071,333,-86,38,117,14006,10,0,22,8,35721,10,32,127,0,0,3758,-32,0,2328,445,120,5124,-4,0,78,16,317976,0
318006,-37,-2068,331,-84,34,116,14005,3,-3,7,-16,35725,28,33,127,0,0,3762,-16,0,2328,445,120,5134,-4,0,78,16,317992,0
318016,-33,-2068,324,-85,37,120,14006,0,-1,40,32,35726,16,33,127,0,0,3760,5,0,2328,445,120,5144,-4,0,78,16,317992,0
318026,4,-2066,329,-81,39,121,14006,-1,1,34,32,35729,5,33,127,0,0,3760,5,0,2328,445,120,5154,-4,0,78,16,318023,0
318036,18,-2066,322,-83,37,114,14003,-20,-4,19,8,35729,8,32,127,0,0,3761,16,0,2328,445,120,5164,-4,0,78,16,318023,0
318046,-10,-2064,320,-89,40,117,14006,1,-1,25,8,35726,22,32,127,0,0,3761,0,0,2328,445,120,5174,-4,0,78,16,318023,0
318056,-17,-2064,315,-85,37,125,14004,-8,-2,26,8,35729,20,33,127,0,0,3761,0,0,2328,445,120,5184,-4,0,78,16,318054,0
318066,-12,-2068,324,-79,27,126,14006,-5,0,29,8,35730,-2,33,127,0,0,3761,0,0,2328,445,120,5194,-4,0,78,16,318054,0
318076,-20,-2073,331,-79,38,126,14007,8,-2,65,8,35728,-27,32,127,0,0,3761,-16,0,2328,445,120,5204,-4,0,78,16,318054,0
318086,-37,-2059,329,-85,35,130,14008,11,0,61,8,35726,-17,32,127,0,0,3761,-16,0,2328,445,120,5214,-4,0,78,16,318085,0
318096,-33,-2065,331,-81,38,129,14005,-3,-12,20,8,35723,-7,32,127,0,0,3761,16,0,2328,445,120,5224,-4,0,78,16,318085,0
318106,-12,-2070,319,-84,33,122,14005,-7,4,36,56,35725,-8,32,127,0,0,3759,10,0,2328,445,120,5234,-4,0,78,16,318085,0
318117,-59,-2068,319,-82,33,120,14006,-9,5,101,80,35725,-12,33,127,0,0,3761,-21,0,2328,445,120,5245,-4,0,78,16,318101,0
318127,0,-2065,325,-76,38,108,14006,-5,-6,81,8,35725,-5,32,127,0,0,3761,-32,0,2328,445,120,5255,-4,0,78,16,318101,0
318137,-13,-2062,328,-80,45,117,14007,3,-2,153,56,35732,2,32,127,0,0,3759,-54,0,2328,445,120,5265,-4,0,78,16,318132,0
318147,0,-2074,326,-77,39,109,14004,-16,-12,32,8,35728,3,32,127,0,0,3763,43,0,2328,445,120,5275,-4,0,78,16,318132,0
318157,11,-2064,327,-76,34,117,14011,14,8,92,0,35723,-3,32,127,0,0,3763,-21,0,2328,445,120,5285,-4,0,78,16,318148,0
318167,-27,-2060,331,-81,36,125,14006,8,3,60,8,35713,0,33,127,0,0,3761,10,0,2328,445,120,5295,-4,0,78,16,318148,0
318177,6,-2061,329,-79,32,112,14006,-8,-5,58,40,35723,16,32,127,0,0,3761,10,0,2328,445,120,5305,-4,0,78,16,318179,0
318187,31,-2068,331,-79,32,119,14006,-11,-3,96,64,35723,22,32,127,0,0,3761,0,0,2328,445,120,5315,-4,0,78,16,318179,0
318197,-36,-2065,320,-81,34,122,14006,-14,-3,73,-8,35723,25,33,127,0,0,3766,10,0,2328,445,120,5325,-4,0,78,16,318179,0
318207,-60,-2058,325,-76,30,132,14008,6,-1,92,40,35715,10,32,127,0,0,3761,10,0,2328,445,120,5335,-4,0,78,16,318195,0
318217,6,-2072,321,-83,37,123,14007,0,1,107,-16,35717,4,32,127,0,0,3761,-43,0,2328,445,120,5345,-4,0,78,16,318210,0
318227,-33,-2074,318,-78,31,123,14007,3,-5,157,56,35718,-4,33,127,0,0,3766,21,0,2328,445,120,5355,-4,0,78,16,318210,0
318237,4,-2065,334,-74,36,136,14008,-22,-2,152,24,35723,-8,33,127,0,0,3763,0,0,2328,445,120,5365,-4,0,78,16,318210,0
318247,1,-2066,334,-77,32,147,14009,2,-1,146,48,35723,-9,32,127,0,0,3761,0,0,2328,445,120,5375,-4,0,78,16,318242,0
318257,-17,-2066,325,-75,32,146,14009,-1,6,176,48,35726,1,32,127,0,0,3763,-21,0,2328,445,120,5385,-4,0,78,16,318242,0
318267,26,-2070,330,-70,29,157,14009,-11,-7,197,48,35717,7,32,127,0,0,3766,10,0,2328,445,120,5395,-4,0,78,16,318242,0
318277,3,-2073,325,-71,35,169,14011,0,3,271,24,35717,-14,32,127,0,0,3768,-21,0,2328,445,120,5405,-4,0,78,16,318273,0
318287,-32,-2071,331,-77,32,169,14013,17,3,338,88,35722,-25,32,127,0,0,3770,0,0,2328,445,120,5415,-4,0,78,16,318320,0
318297,-23,-2064,330,-80,24,171,14014,1,4,365,120,35722,-6,32,127,0,0,3772,32,0,2328,445,120,5425,-4,0,78,16,318335,0
318307,-21,-2062,320,-80,25,171,14015,1,-1,400,104,35715,6,32,127,0,0,3772,0,0,2328,445,120,5435,-4,0,78,16,318335,0
318317,-26,-2063,320,-83,34,160,14016,-2,5,438,128,35714,14,33,127,0,0,3774,21,0,2328,445,120,5445,-4,0,78,16,318335,0
318327,-22,-2059,322,-79,32,160,14021,6,3,454,120,35716,9,33,127,0,0,3774,10,0,2328,445,120,5455,-4,0,78,16,318335,0
318337,-18,-2058,321,-76,26,158,14023,14,2,467,152,35715,14,33,127,0,0,3777,21,0,2328,445,120,5465,-4,0,78,16,318335,0
318347,-31,-2059,325,-76,29,154,14026,8,1,523,168,35715,9,32,127,0,0,3777,0,0,2328,445,120,5475,-4,0,78,16,318335,0
318357,-34,-2059,324,-76,27,143,14031,9,2,508,144,35719,8,32,127,0,0,3781,21,0,2328,445,120,5485,-4,0,78,16,318366,0
318368,-42,-2061,330,-82,31,146,14042,30,13,503,144,35724,11,33,127,0,0,3778,-16,0,2328,445,120,5496,-4,0,78,16,318366,0
318378,-49,-2072,327,-78,26,140,14059,33,23,383,112,35728,10,32,127,0,0,3781,-10,0,2328,445,120,5506,-4,0,78,16,318366,0
318388,-46,-2058,328,-81,22,126,14067,6,-8,368,120,35719,31,32,127,0,0,3780,5,0,2328,445,120,5516,-4,0,78,16,318366,0
318398,-45,-2065,322,-77,32,103,14068,3,-34,383,120,35711,42,33,127,0,0,3780,-10,0,2328,445,120,5526,-4,0,78,16,318429,0
318408,-22,-2068,323,-82,36,100,14068,0,-13,391,120,35723,34,32,127,0,0,3780,0,0,2328,445,120,5536,-4,0,78,16,318429,0
318418,-11,-2063,326,-75,38,98,14068,-9,-3,364,96,35723,25,33,127,0,0,3784,32,0,2328,445,120,5546,-4,0,78,16,318429,0
318428,-22,-2064,323,-78,31,106,14067,-11,-3,360,120,35721,38,33,127,0,0,3783,49,0,2328,445,120,5556,-4,0,78,16,318445,0
318438,17,-2070,328,-74,34,93,14067,-9,-3,333,96,35712,39,32,127,0,0,3781,38,0,2328,445,120,5566,-4,0,78,16,318445,0
318448,-9,-2079,328,-78,36,97,14068,-4,-2,356,88,35722,45,32,127,0,0,3781,0,0,2328,445,120,5576,-4,0,78,16,318445,0
318458,-26,-2073,328,-74,36,103,14067,-2,-6,340,120,35727,29,33,127,0,0,3780,21,0,2328,445,120,5586,-4,0,78,16,318445,0
318468,17,-2064,328,-79,31,104,14068,-5,-3,341,120,35732,15,33,127,0,0,3783,38,0,2328,445,120,5596,-4,0,78,16,318445,0
318478,16,-2076,324,-78,28,98,14069,-6,-1,349,64,35733,30,32,127,0,0,3782,5,0,2328,445,120,5606,-4,0,78,16,318476,0
318488,-24,-2070,333,-77,33,103,14067,9,-4,313,96,35727,50,32,127,0,0,3781,43,0,2328,445,120,5616,-4,0,78,16,318476,0
318498,-3,-2059,336,-76,31,111,14067,-8,-4,337,88,35716,63,32,127,0,0,3778,-32,0,2328,445,120,5626,-4,0,78,16,318476,0
318508,8,-2064,339,-85,37,115,14068,2,-4,314,96,35706,58,32,127,0,0,3781,16,0,2328,445,120,5636,-4,0,78,16,318491,0
318518,-15,-2058,336,-86,29,115,14066,-15,-3,318,120,35706,18,32,127,0,0,3783,82,0,2328,445,120,5646,-4,0,78,16,318523,0
318528,9,-2070,334,-90,33,120,14070,-12,1,324,88,35709,8,32,127,0,0,3781,27,0,2328,445,120,5656,-4,0,78,16,318523,0
318538,-12,-2062,324,-87,38,120,14071,12,-1,333,88,35711,18,32,127,0,0,3784,32,0,2328,445,120,5666,-4,0,78,16,318523,0
318548,-39,-2065,327,-89,30,126,14070,-7,-4,371,72,35705,28,32,127,0,0,3782,0,0,2328,445,120,5676,-4,0,78,16,318554,0
318558,-20,-2055,316,-89,30,125,14070,13,-8,359,88,35711,26,32,127,0,0,3781,-16,0,2328,445,120,5686,-4,0,78,16,318554,0
318568,-27,-2051,316,-91,36,125,14069,3,2,343,96,35714,19,32,127,0,0,3781,0,0,2328,445,120,5696,-4,0,78,16,318554,0
318578,-18,-2064,324,-85,36,130,14069,-5,-1,333,88,35717,20,32,127,0,0,3784,32,0,2328,445,120,5706,-4,0,78,16,318554,0
318588,-19,-2061,332,-85,37,135,14070,-5,7,377,112,35713,33,32,127,0,0,3780,10,0,2328,445,120,5716,-4,0,78,16,318585,0
318598,-22,-2062,332,-92,39,122,14071,3,-2,406,112,35714,41,32,127,0,0,3780,-32,0,2328,445,120,5726,-4,0,78,16,318585,0
318608,-20,-2070,328,-101,37,126,14070,1,-6,336,112,35714,43,32,127,0,0,3780,5,0,2328,445,120,5736,-4,0,78,16,318585,0
318619,-8,-2066,321,-94,36,130,14071,-6,-3,354,96,35714,39,33,127,0,0,3781,0,0,2328,445,120,5747,-4,0,78,16,318616,0
318629,-11,-2067,331,-90,35,131,14071,6,6,325,88,35718,35,32,127,0,0,3781,0,0,2328,445,120,5757,-4,0,78,16,318616,0
318639,-23,-2069,331,-89,38,132,14071,2,5,342,80,35714,37,33,127,0,0,3781,-10,0,2328,445,120,5767,-4,0,78,16,318616,0
318649,-32,-2070,332,-90,40,135,14070,1,-3,363,112,35711,48,33,127,0,0,3781,-10,0,2328,445,120,5777,-4,0,78,16,318632,0
318659,-14,-2077,330,-98,32,130,14069,-10,0,353,128,35706,63,32,127,0,0,3783,32,0,2328,445,120,5787,-4,0,78,16,318710,0
318669,-3,-2076,336,-98,35,119,14071,-8,0,360,80,35708,59,32,127,0,0,3785,43,0,2328,445,120,5797,-4,0,78,16,318710,0
318679,-32,-2073,327,-96,42,128,14073,0,-1,396,120,35708,50,33,127,0,0,3781,-10,0,2328,445,120,5807,-4,0,78,16,318710,0
318689,-21,-2067,335,-98,44,124,14072,6,-4,353,80,35702,44,32,127,0,0,3783,10,0,2328,445,120,5817,-4,0,78,16,318710,0
318699,-9,-2065,333,-97,36,134,14071,-14,-6,358,88,35708,46,32,127,0,0,3781,-10,0,2328,445,120,5827,-4,0,78,16,318726,0
318709,-9,-2057,325,-104,33,128,14073,10,-1,375,112,35705,37,32,127,0,0,3781,-21,0,2328,445,120,5837,-4,0,78,16,318726,0
318719,-28,-2054,324,-104,35,131,14072,12,0,390,80,35701,16,32,127,0,0,3781,-32,0,2328,445,120,5847,-4,0,78,16,318726,0
318729,-43,-2051,328,-102,38,133,14072,8,-1,343,56,35701,9,32,127,0,0,3781,-21,0,2328,445,120,5857,-4,0,78,16,318726,0
318739,-50,-2062,327,-95,37,132,14072,4,13,319,88,35704,10,33,127,0,0,3783,21,0,2328,445,120,5867,-4,0,78,16,318726,0
318749,-24,-2066,324,-102,37,125,14072,8,4,374,120,35711,9,32,127,0,0,3783,0,0,2328,445,120,5877,-4,0,78,16,318726,0
318759,-40,-2068,332,-102,35,121,14072,5,2,390,112,35723,8,32,127,0,0,3781,-21,0,2328,445,120,5887,-4,0,78,16,318757,0
318769,-32,-2056,330,-103,43,111,14070,-6,-6,322,88,35723,10,32,127,0,0,3781,0,0,2328,445,120,5897,-4,0,78,16,318757,0
318779,-18,-2060,329,-103,45,107,14071,-4,-2,362,80,35726,15,32,127,0,0,3781,-32,0,2328,445,120,5907,-4,0,78,16,318757,0
318789,-39,-2066,332,-103,32,121,14071,0,-2,346,88,35717,23,33,127,0,0,3781,-21,0,2328,445,120,5917,-4,0,78,16,318773,0
318799,-35,-2061,336,-109,34,115,14070,0,-3,314,56,35706,24,32,127,0,0,3781,-10,0,2328,445,120,5927,-4,0,78,16,318788,0
318809,-16,-2072,334,-108,38,110,14072,9,5,325,88,35694,27,32,127,0,0,3781,0,0,2328,445,120,5937,-4,0,78,16,318788,0
318819,-27,-2077,332,-111,37,110,14070,0,0,326,88,35699,42,32,127,0,0,3781,-10,0,2328,445,120,5947,-4,0,78,16,318835,0
318829,-19,-2079,334,-121,32,112,14071,0,-5,313,56,35708,26,32,127,0,0,3779,-32,0,2328,445,120,5957,-4,0,78,16,318835,0
318839,-26,-2086,328,-119,36,115,14070,9,-2,275,104,35718,23,33,127,0,0,3781,32,0,2328,445,120,5967,-4,0,78,16,318835,0
318849,-3,-2077,333,-125,37,122,14071,-2,3,304,104,35717,20,33,127,0,0,3781,0,0,2328,445,120,5977,-4,0,78,16,318835,0
318859,-12,-2066,327,-128,34,121,14072,10,5,289,64,35710,30,33,127,0,0,3779,-21,0,2328,445,120,5987,-4,0,78,16,318835,0
318870,-14,-2067,331,-128,44,131,14071,3,6,275,64,35714,35,33,127,0,0,3779,-27,0,2328,445,120,5998,-4,0,78,16,318851,0
318880,-24,-2059,327,-132,38,131,14069,4,-5,259,72,35723,27,33,127,0,0,3779,0,0,2328,445,120,6008,-4,0,78,16,318866,0
318890,-13,-2052,323,-135,31,131,14069,-4,-3,262,64,35731,23,33,127,0,0,3779,0,0,2328,445,120,6018,-4,0,78,16,318866,0
318900,-11,-2049,321,-134,41,126,14070,0,1,287,96,35726,30,33,127,0,0,3778,0,0,2328,445,120,6028,-4,0,78,16,318898,0
318910,-29,-2041,318,-141,35,135,14069,-4,1,312,72,35722,33,32,127,0,0,3779,-49,0,2328,445,120,6038,-4,0,78,16,318898,0
318920,-31,-2049,315,-135,35,132,14071,13,3,324,88,35714,43,32,127,0,0,3778,-43,0,2328,445,120,6048,-4,0,78,16,318898,0
318930,-30,-2060,311,-136,39,138,14070,5,8,290,88,35714,40,33,127,0,0,3778,-38,0,2328,445,120,6058,-4,0,78,16,318929,0
318940,-14,-2055,312,-130,38,137,14071,5,3,308,88,35716,40,32,127,0,0,3778,-43,0,2328,445,120,6068,-4,0,78,16,318929,0
318950,-26,-2073,309,-127,38,147,14071,-1,5,298,72,35715,24,32,127,0,0,3782,10,0,2328,445,120,6078,-4,0,78,16,318929,0
318960,-27,-2079,300,-119,42,144,14070,0,-6,337,112,35713,26,32,127,0,0,3777,-27,0,2328,445,120,6088,-4,0,78,16,318964,0
318970,4,-2081,299,-111,42,140,14072,9,1,361,112,35720,5,32,127,0,0,3780,0,0,2328,445,120,6098,-4,0,78,16,318964,0
318980,28,-2083,306,-108,38,151,14068,-19,-7,315,120,35725,4,32,127,0,0,3783,54,0,2328,445,120,6108,-4,0,78,16,318964,0
318990,22,-2080,309,-98,37,176,14074,-3,4,346,112,35729,7,32,127,0,0,3783,32,0,2328,445,120,6118,-4,0,78,16,319074,0
319000,-2,-2080,320,-103,30,188,14074,6,6,410,104,35723,49,32,127,0,0,3786,27,0,2328,445,120,6128,-4,0,78,16,319074,0
319010,-5,-2074,321,-98,19,205,14074,-8,-7,479,152,35718,49,32,127,0,0,3784,5,0,2328,445,120,6138,-4,0,78,16,319074,0
319020,-19,-2063,319,-97,22,214,14075,0,-3,498,176,35717,57,32,127,0,0,3786,21,0,2328,445,120,6148,-4,0,78,16,319074,0
319030,-6,-2061,303,-100,29,211,14079,-1,7,530,168,35712,50,32,127,0,0,3793,49,0,2328,445,120,6158,-4,0,78,16,319089,0
319040,-31,-2059,309,-90,30,217,14089,28,14,596,192,35714,51,32,127,0,0,3797,54,0,2328,445,120,6168,-4,0,78,16,319089,0
319050,-25,-2058,306,-87,23,226,14102,39,26,570,216,35712,32,32,127,0,0,3799,54,0,2328,445,120,6178,-4,0,78,16,319089,0
319060,-43,-2066,312,-85,26,219,14135,93,42,430,184,35712,21,32,127,0,0,3797,5,0,2328,445,120,6188,-4,0,78,16,319089,0
319070,0,-2066,314,-81,23,222,14172,57,50,315,152,35712,9,32,127,0,0,3802,16,0,2328,445,120,6198,-4,0,78,16,319089,0
319080,-46,-2059,318,-84,27,225,14199,72,-24,324,96,35717,-2,33,127,0,0,3808,0,0,2328,445,120,6208,-4,0,78,16,319089,0
319090,-18,-2063,317,-77,28,218,14212,12,-35,360,112,35722,-9,32,127,0,0,3810,16,0,2328,445,120,6218,-4,0,78,16,319089,0
319100,-59,-2070,320,-79,33,215,14209,4,-58,394,144,35723,-19,32,127,0,0,3812,65,0,2328,445,120,6228,-4,0,78,16,319089,0
319110,-23,-2068,320,-76,29,204,14214,11,-14,489,152,35720,-8,32,127,0,0,3814,16,0,2328,445,120,6238,-4,0,78,16,319089,0
319121,-32,-2066,327,-80,26,209,14216,15,2,566,208,35737,-14,32,127,0,0,3818,54,0,2328,445,120,6249,-4,0,78,16,319105,0
319131,-41,-2069,323,-87,34,214,14226,14,14,596,232,35751,-18,32,127,0,0,3818,32,0,2328,445,120,6259,-4,0,78,16,319136,0
319141,-33,-2071,316,-86,28,208,14237,23,12,556,200,35743,-30,32,127,0,0,3823,43,0,2328,445,120,6269,-4,0,78,16,319136,0
319151,-61,-2072,319,-86,33,201,14263,70,29,461,184,35726,-27,32,127,0,0,3825,32,0,2328,445,120,6279,-4,0,78,16,319152,0
319161,-28,-2074,319,-89,30,193,14289,36,24,395,160,35711,-31,32,127,0,0,3829,54,0,2328,445,120,6289,-4,0,78,16,319152,0
319171,-72,-2074,312,-84,23,197,14301,22,-39,483,144,35709,-38,32,127,0,0,3829,21,0,2328,445,120,6299,-4,0,78,16,319152,0
319181,-64,-2062,316,-83,36,181,14320,62,-7,429,168,35719,-18,32,127,0,0,3834,0,0,2328,445,120,6309,-4,0,78,16,319183,0
319191,-41,-2062,316,-82,33,185,14353,66,49,284,88,35721,-13,33,127,0,0,3836,32,0,2328,445,120,6319,-4,0,78,16,319183,0
319201,-68,-2065,312,-80,31,173,14354,-8,-44,387,112,35718,-1,32,127,0,0,3838,32,0,2328,445,120,6329,-4,0,78,16,319183,0
319211,-66,-2069,311,-85,36,178,14356,12,-55,407,96,35709,-5,32,127,0,0,3838,-10,0,2328,445,120,6339,-4,0,78,16,319199,0
319221,-62,-2063,311,-78,36,156,14355,6,2,429,128,35710,0,32,127,0,0,3840,21,0,2328,445,120,6349,-4,0,78,16,319214,0
319231,-63,-2065,314,-76,39,152,14356,-1,-1,463,120,35709,18,32,127,0,0,3840,10,0,2328,445,120,6359,-4,0,78,16,319214,0
319241,-56,-2063,310,-75,42,152,14359,1,1,445,120,35711,26,32,127,0,0,3838,-10,0,2328,445,120,6369,-4,0,78,16,319246,0
319251,-48,-2060,315,-76,41,148,14359,8,-2,440,160,35712,13,33,127,0,0,3840,0,0,2328,445,120,6379,-4,0,78,16,319246,0
319261,-51,-2050,316,-67,33,142,14359,0,-1,451,192,35716,7,32,127,0,0,3843,65,0,2328,445,120,6389,-4,0,78,16,319261,0
319271,-42,-2058,312,-67,37,140,14370,25,15,454,112,35713,10,32,127,0,0,3840,-21,0,2328,445,120,6399,-4,0,78,16,319261,0
319281,-52,-2058,316,-67,42,142,14380,21,19,382,88,35718,5,33,127,0,0,3840,0,0,2328,445,120,6409,-4,0,78,16,319261,0
319291,-43,-2058,321,-76,34,142,14397,29,12,268,56,35729,-2,33,127,0,0,3843,21,0,2328,445,120,6419,-4,0,78,16,319292,0
319301,-35,-2058,311,-73,29,135,14403,-5,-13,291,80,35732,-23,33,127,0,0,3845,43,0,2328,445,120,6429,-4,0,78,16,319292,0
319311,-60,-2066,318,-70,30,141,14403,-2,-33,283,48,35729,-21,33,127,0,0,3843,21,0,2328,445,120,6439,-4,0,78,16,319292,0
319321,-38,-2071,317,-64,38,134,14404,10,-4,311,80,35726,-20,33,127,0,0,3845,10,0,2328,445,120,6449,-4,0,78,16,319308,0
319331,-61,-2079,318,-63,35,135,14402,0,0,255,56,35730,0,32,127,0,0,3843,43,0,2328,445,120,6459,-4,0,78,16,319339,0
319341,-37,-2074,322,-70,32,135,14406,7,3,329,96,35723,-8,32,127,0,0,3845,-10,0,2328,445,120,6469,-4,0,78,16,319339,0
319351,-58,-2079,323,-60,30,132,14405,-4,0,315,64,35712,12,33,127,0,0,3843,21,0,2328,445,120,6479,-4,0,78,16,319339,0
319361,-52,-2074,319,-62,33,131,14406,-9,-10,316,112,35702,8,33,127,0,0,3845,10,0,2328,445,120,6489,-4,0,78,16,319339,0
319372,-42,-2065,316,-62,34,126,14408,-1,3,350,96,35719,22,32,127,0,0,3848,32,0,2328,445,120,6500,-4,0,78,16,319355,0
319382,-35,-2067,321,-68,39,126,14407,-5,-6,343,96,35724,11,32,127,0,0,3845,10,0,2328,445,120,6510,-4,0,78,16,319386,0
319392,-50,-2063,320,-66,32,126,14407,-5,-8,327,96,35722,12,32,127,0,0,3845,5,0,2328,445,120,6520,-4,0,78,16,319402,0
319402,-33,-2069,325,-70,40,118,14409,9,0,368,88,35717,13,32,127,0,0,3845,-5,0,2328,445,120,6530,-4,0,78,16,319417,0
319412,-39,-2058,321,-74,41,115,14408,0,-1,370,96,35709,-1,32,127,0,0,3845,-21,0,2328,445,120,6540,-4,0,78,16,319417,0
319422,-57,-2064,320,-66,42,115,14407,-4,-4,357,120,35716,1,33,127,0,0,3844,-10,0,2328,445,120,6550,-4,0,78,16,319433,0
319432,-35,-2061,323,-65,41,122,14407,-10,0,324,96,35713,-7,32,127,0,0,3841,-32,0,2328,445,120,6560,-4,0,78,16,319433,0
319442,-47,-2072,334,-65,45,120,14409,2,3,309,88,35714,-3,32,127,0,0,3845,-10,0,2328,445,120,6570,-4,0,78,16,319433,0
319452,-51,-2069,326,-67,38,123,14410,4,5,351,96,35711,-3,32,127,0,0,3841,-38,0,2328,445,120,6580,-4,0,78,16,319449,0
319462,-66,-2066,325,-77,35,120,14408,0,-5,326,120,35714,-13,32,127,0,0,3844,-5,0,2328,445,120,6590,-4,0,78,16,319449,0
319472,-36,-2071,319,-73,40,123,14407,-18,-4,358,120,35724,-25,32,127,0,0,3844,0,0,2328,445,120,6600,-4,0,78,16,319449,0
319482,-47,-2082,317,-71,36,119,14409,-1,-1,348,88,35729,-16,33,127,0,0,3845,-5,0,2328,445,120,6610,-4,0,78,16,319480,0
319492,-35,-2076,327,-72,37,120,14409,-5,1,307,96,35722,-9,32,127,0,0,3841,-16,0,2328,445,120,6620,-4,0,78,16,319496,0
319502,-53,-2065,322,-76,43,125,14409,-1,-1,306,96,35711,4,32,127,0,0,3848,49,0,2328,445,120,6630,-4,0,78,16,319496,0
319512,-54,-2074,325,-77,41,124,14408,-8,-1,320,88,35710,-3,33,127,0,0,3841,-16,0,2328,445,120,6640,-4,0,78,16,319496,0
319522,-37,-2059,320,-76,37,121,14409,13,2,286,72,35709,-8,33,127,0,0,3846,10,0,2328,445,120,6650,-4,0,78,16,319527,0
319532,-53,-2066,317,-81,38,117,14409,2,7,307,120,35708,-8,33,127,0,0,3844,10,0,2328,445,120,6660,-4,0,78,16,319527,0
319542,-45,-2050,320,-77,35,118,14408,-9,-2,309,96,35706,-3,33,127,0,0,3841,-16,0,2328,445,120,6670,-4,0,78,16,319542,0
319552,-48,-2054,323,-75,36,106,14408,-1,1,299,88,35702,-6,32,127,0,0,3845,5,0,2328,445,120,6680,-4,0,78,16,319542,0
319562,-59,-2067,324,-77,39,98,14409,3,1,334,88,35715,-27,32,127,0,0,3845,0,0,2328,445,120,6690,-4,0,78,16,319542,0
319572,-56,-2072,323,-82,36,90,14408,-6,-4,300,72,35722,-18,32,127,0,0,3846,10,0,2328,445,120,6700,-4,0,78,16,319574,0
319582,-55,-2067,322,-79,31,86,14410,11,-3,325,64,35718,-14,32,127,0,0,3839,-71,0,2328,445,120,6710,-4,0,78,16,319574,0
319592,-52,-2072,329,-79,39,76,14407,0,-2,237,48,35705,3,33,127,0,0,3844,27,0,2328,445,120,6720,-4,0,78,16,319574,0
319602,-43,-2082,333,-81,39,64,14405,-12,-7,189,24,35702,-3,32,127,0,0,3841,10,0,2328,445,120,6730,-4,0,78,16,319589,0
319612,-82,-2060,327,-88,43,59,14406,10,5,138,8,35714,-2,32,127,0,0,3839,-10,0,2328,445,120,6740,-4,0,78,16,319621,0
319623,-63,-2061,315,-79,42,45,14405,11,6,111,-8,35722,10,32,127,0,0,3836,-32,0,2328,445,120,6751,-4,0,78,16,319652,0
319633,-47,-2056,315,-74,35,51,14402,-5,-3,19,-16,35718,-1,32,127,0,0,3829,-76,0,2328,445,120,6761,-4,0,78,16,319652,0
319643,-9,-2057,312,-70,47,46,14396,-5,-11,-73,-24,35709,-4,33,127,0,0,3832,-43,0,2328,445,120,6771,-4,0,78,16,319652,0
319653,-55,-2063,328,-74,34,73,14395,8,5,-129,-72,35702,-19,32,127,0,0,3829,-32,0,2328,445,120,6781,-4,0,78,16,319652,0
319663,-39,-2059,330,-75,41,73,14389,-5,3,-172,-56,35702,-19,32,127,0,0,3825,-54,0,2328,445,120,6791,-4,0,78,16,319652,0
319673,-35,-2062,327,-77,34,76,14379,-32,-14,-230,-64,35700,-6,32,127,0,0,3823,-21,0,2328,445,120,6801,-4,0,78,16,319667,0
319683,-16,-2056,316,-71,33,78,14362,-38,-26,-129,-64,35701,10,32,127,0,0,3823,-21,0,2328,445,120,6811,-4,0,78,16,319667,0
319693,-32,-2069,318,-78,41,90,14348,-21,-2,-67,-24,35701,20,33,127,0,0,3823,0,0,2328,445,120,6821,-4,0,78,16,319699,0
319703,-13,-2071,322,-71,33,97,14347,-5,34,-89,-8,35700,26,33,127,0,0,3821,-10,0,2328,445,120,6831,-4,0,78,16,319699,0
319713,-25,-2076,329,-69,26,103,14344,-14,6,-157,8,35704,25,33,127,0,0,3823,43,0,2328,445,120,6841,-4,0,78,16,319699,0
319723,-26,-2070,334,-72,28,113,14346,-9,-1,-105,-48,35707,10,33,127,0,0,3818,-32,0,2328,445,120,6851,-4,0,78,16,319699,0
319733,-59,-2089,326,-76,37,105,14343,3,-7,-156,-64,35708,7,33,127,0,0,3823,21,0,2328,445,120,6861,-4,0,78,16,319730,0
319743,-44,-2075,334,-76,31,104,14344,-5,4,-128,-16,35702,-3,32,127,0,0,3818,-10,0,2328,445,120,6871,-4,0,78,16,319730,0
319753,-18,-2073,323,-74,33,102,14343,9,5,-167,-32,35702,-3,32,127,0,0,3818,0,0,2328,445,120,6881,-4,0,78,16,319745,0
319763,-17,-2077,325,-76,27,104,14341,-7,0,-140,8,35696,9,32,127,0,0,3821,10,0,2328,445,120,6891,-4,0,78,16,319745,0
319773,-36,-2066,324,-81,28,109,14340,-14,-3,-178,-56,35703,3,32,127,0,0,3818,0,0,2328,445,120,6901,-4,0,78,16,319761,0
319783,-51,-2060,316,-78,30,101,14340,7,1,-178,-8,35705,5,32,127,0,0,3816,-21,0,2328,445,120,6911,-4,0,78,16,319792,0
319793,-43,-2061,320,-72,34,98,14336,-17,0,-243,-72,35708,-4,32,127,0,0,3816,-10,0,2328,445,120,6921,-4,0,78,16,319792,0
319803,-35,-2060,321,-77,30,99,14337,-4,-2,-240,-64,35708,-15,32,127,0,0,3816,0,0,2328,445,120,6931,-4,0,78,16,319808,0
319813,-31,-2061,319,-73,36,100,14337,10,11,-221,-64,35709,-8,32,127,0,0,3816,0,0,2328,445,120,6941,-4,0,78,16,319808,0
319823,-30,-2059,328,-76,26,99,14337,6,3,-237,-72,35705,5,33,127,0,0,3816,0,0,2328,445,120,6951,-4,0,78,16,319808,0
319833,-17,-2062,329,-74,34,104,14334,-7,-4,-273,-104,35713,11,32,127,0,0,3814,-10,0,2328,445,120,6961,-4,0,78,16,319808,0
319843,-37,-2058,329,-75,29,108,14330,-9,-12,-305,-64,35720,-1,32,127,0,0,3814,10,0,2328,445,120,6971,-4,0,78,16,319855,0
319853,-37,-2069,329,-74,28,112,14332,6,4,-269,-80,35720,-6,32,127,0,0,3812,-43,0,2328,445,120,6981,-4,0,78,16,319855,0
319863,-37,-2059,319,-68,32,104,14329,1,4,-300,-112,35718,-10,32,127,0,0,3816,32,0,2328,445,120,6991,-4,0,78,16,319855,0
319873,-22,-2055,323,-71,34,109,14329,-6,1,-282,-112,35709,-9,33,127,0,0,3814,0,0,2328,445,120,7001,-4,0,78,16,319855,0
319884,-54,-2055,315,-66,32,107,14328,0,-3,-293,-72,35713,-14,32,127,0,0,3814,27,0,2328,445,120,7012,-4,0,78,16,319870,0
319894,-34,-2063,310,-61,33,100,14329,-1,0,-289,-96,35715,-10,32,127,0,0,3812,-38,0,2328,445,120,7022,-4,0,78,16,319886,0
319904,-42,-2064,312,-57,29,103,14325,-3,-8,-355,-96,35724,-18,33,127,0,0,3812,32,0,2328,445,120,7032,-4,0,78,16,319886,0
319914,-40,-2061,320,-55,23,96,14324,3,-1,-333,-88,35723,-14,33,127,0,0,3808,-32,0,2328,445,120,7042,-4,0,78,16,319902,0
319924,-33,-2062,327,-48,32,97,14322,-7,2,-341,-80,35728,-6,32,127,0,0,3812,16,0,2328,445,120,7052,-4,0,78,16,319933,0
319934,-45,-2070,332,-46,29,88,14325,11,7,-282,-112,35722,11,32,127,0,0,3806,-115,0,2328,445,120,7062,-4,0,78,16,319933,0
319944,-40,-2066,330,-49,34,82,14316,-20,-8,-350,-96,35719,0,32,127,0,0,3806,-43,0,2328,445,120,7072,-4,0,78,16,319933,0
319954,-49,-2074,327,-50,30,74,14307,-14,-19,-291,-104,35714,-2,33,127,0,0,3811,-16,0,2328,445,120,7082,-4,0,78,16,319933,0
319964,-26,-2067,327,-44,34,73,14287,-51,-24,-192,-72,35719,-11,32,127,0,0,3811,27,0,2328,445,120,7092,-4,0,78,16,319949,0
319974,-52,-2068,323,-47,37,75,14269,-23,-17,-56,-24,35732,5,32,127,0,0,3807,10,0,2328,445,120,7102,-4,0,78,16,319980,0
319984,-24,-2063,328,-46,30,79,14270,-1,44,-159,-80,35730,7,32,127,0,0,3806,-32,0,2328,445,120,7112,-4,0,78,16,319980,0
319994,-28,-2067,332,-41,28,78,14263,-12,14,-177,-64,35725,1,32,127,0,0,3803,10,0,2328,445,120,7122,-4,0,78,16,319995,0
320004,-19,-2067,323,-47,23,84,14262,-3,0,-203,-56,35717,-8,32,127,0,0,3803,0,0,2328,445,120,7132,-4,0,78,16,319995,0
320014,-23,-2068,333,-43,31,92,14261,-4,10,-208,-80,35721,-38,33,127,0,0,3801,-38,0,2328,445,120,7142,-4,0,78,16,319995,0
320024,-14,-2060,330,-40,29,98,14254,-28,-14,-268,-48,35727,-47,33,127,0,0,3796,21,0,2328,445,120,7152,-4,0,78,16,320011,0
320034,-13,-2058,334,-39,29,103,14239,-36,-22,-218,-64,35718,-36,33,127,0,0,3802,32,0,2328,445,120,7162,-4,0,78,16,320042,0
320044,-37,-2058,327,-37,26,105,14221,-42,-11,-41,-32,35719,-18,32,127,0,0,3802,16,0,2328,445,120,7172,-4,0,78,16,320042,0
320054,-22,-2051,329,-36,32,114,14214,2,15,12,-8,35708,-5,32,127,0,0,3799,10,0,2328,445,120,7182,-4,0,78,16,320042,0
320064,-12,-2054,325,-33,31,113,14216,3,40,-3,8,35713,-4,33,127,0,0,3797,-10,0,2328,445,120,7192,-4,0,78,16,320042,0
320074,-20,-2058,326,-29,21,119,14215,3,10,-24,-8,35721,-19,33,127,0,0,3799,0,0,2328,445,120,7202,-4,0,78,16,320058,0
320084,-18,-2058,317,-31,28,119,14216,1,-1,-25,-8,35727,-23,32,127,0,0,3799,0,0,2328,445,120,7212,-4,0,78,16,320089,0
320094,-9,-2057,321,-25,28,126,14214,0,-2,-27,-8,35729,-31,32,127,0,0,3799,0,0,2328,445,120,7222,-4,0,78,16,320089,0
320104,-14,-2062,324,-13,27,132,14216,4,-1,-28,-8,35724,-21,32,127,0,0,3799,0,0,2328,445,120,7232,-4,0,78,16,320089,0
320114,-23,-2062,341,-14,25,136,14214,-6,-4,-29,-8,35712,0,32,127,0,0,3799,0,0,2328,445,120,7242,-4,0,78,16,320105,0
320125,-33,-2058,343,-23,28,141,14215,1,1,-43,-48,35718,-8,32,127,0,0,3799,0,0,2328,445,120,7253,-4,0,78,16,320105,0
320135,-38,-2058,346,-18,39,147,14214,-1,3,-17,-8,35720,16,32,127,0,0,3799,0,0,2328,445,120,7263,-4,0,78,16,320183,0
320145,-37,-2073,347,-18,41,149,14215,13,1,-8,-8,35723,2,32,127,0,0,3799,-21,0,2328,445,120,7273,-4,0,78,16,320183,0
320155,-45,-2062,350,-28,37,142,14214,-2,6,-2,-8,35720,-1,33,127,0,0,3799,-21,0,2328,445,120,7283,-4,0,78,16,320199,0
320165,-29,-2069,350,-32,39,157,14215,8,1,-1,-8,35713,-33,33,127,0,0,3799,-10,0,2328,445,120,7293,-4,0,78,16,320199,0
320175,-29,-2068,350,-32,33,150,14215,2,4,15,24,35710,-36,33,127,0,0,3799,-21,0,2328,445,120,7303,-4,0,78,16,320199,0
320185,-56,-2067,342,-39,30,141,14216,13,0,-8,-16,35711,-41,33,127,0,0,3801,32,0,2328,445,120,7313,-4,0,78,16,320199,0
320195,-46,-2068,346,-38,35,144,14215,-3,0,33,8,35710,-29,32,127,0,0,3801,21,0,2328,445,120,7323,-4,0,78,16,320199,0
320205,-38,-2072,348,-35,34,137,14216,1,2,24,-24,35707,-16,33,127,0,0,3801,-10,0,2328,445,120,7333,-4,0,78,16,320199,0
320215,-65,-2070,357,-47,38,132,14215,6,-2,55,48,35706,-11,33,127,0,0,3803,54,0,2328,445,120,7343,-4,0,78,16,320199,0
320225,-25,-2066,367,-56,39,121,14218,-4,6,132,32,35713,-23,32,127,0,0,3801,-21,0,2328,445,120,7353,-4,0,78,16,320214,0
320235,-28,-2056,358,-63,41,128,14215,-6,-13,66,48,35729,-39,33,127,0,0,3801,10,0,2328,445,120,7363,-4,0,78,16,320214,0
320245,-37,-2063,362,-70,44,119,14214,-16,-8,46,16,35732,-23,32,127,0,0,3803,21,0,2328,445,120,7373,-4,0,78,16,320308,0
320255,-47,-2069,363,-71,38,121,14217,6,0,66,8,35724,-22,32,127,0,0,3801,-10,0,2328,445,120,7383,-4,0,78,16,320308,0
320265,-41,-2056,367,-83,40,119,14215,7,0,45,8,35711,2,32,127,0,0,3799,-21,0,2328,445,120,7393,-4,0,78,16,320308,0
320275,-30,-2061,363,-90,34,115,14213,-17,-4,-22,-8,35708,-8,32,127,0,0,3799,0,0,2328,445,120,7403,-4,0,78,16,320308,0
320285,-49,-2061,352,-97,37,113,14214,-4,-2,29,16,35716,-18,33,127,0,0,3801,0,0,2328,445,120,7413,-4,0,78,16,320323,0
320295,-50,-2062,353,-93,33,111,14215,0,8,44,56,35714,-22,33,127,0,0,3801,10,0,2328,445,120,7423,-4,0,78,16,320323,0
320305,-29,-2066,345,-97,26,102,14216,-2,-4,42,8,35708,-22,33,127,0,0,3799,-21,0,2328,445,120,7433,-4,0,78,16,320323,0
320315,-14,-2057,353,-101,32,100,14215,5,0,64,0,35705,-32,33,127,0,0,3801,-21,0,2328,445,120,7443,-4,0,78,16,320323,0
320325,-58,-2050,350,-102,35,118,14214,5,1,29,24,35708,-37,33,127,0,0,3799,10,0,2328,445,120,7453,-4,0,78,16,320323,0
320335,-6,-2056,341,-100,39,105,14214,-2,-3,4,-8,35712,-36,33,127,0,0,3799,-10,0,2328,445,120,7463,-4,0,78,16,320323,0
320345,-26,-2052,339,-101,37,105,14215,-5,7,6,-8,35720,-22,33,127,0,0,3799,-10,0,2328,445,120,7473,-4,0,78,16,320323,0
320355,-19,-2057,340,-103,40,113,14214,0,-2,-11,-8,35732,-19,33,127,0,0,3799,0,0,2328,445,120,7483,-4,0,78,16,320370,0
320365,-15,-2059,341,-103,37,114,14214,-1,-3,-7,-8,35734,-23,32,127,0,0,3799,0,0,2328,445,120,7493,-4,0,78,16,320370,0
320375,-10,-2062,340,-107,40,121,14214,-3,-2,-4,-8,35728,-20,32,127,0,0,3799,0,0,2328,445,120,7503,-4,0,78,16,320370,0
320385,-14,-2062,340,-103,36,126,14214,6,-2,-1,-8,35717,-19,32,127,0,0,3799,0,0,2328,445,120,7513,-4,0,78,16,320370,0
320396,-22,-2060,342,-108,37,130,14215,10,3,0,-8,35711,-28,32,127,0,0,3799,0,0,2328,445,120,7524,-4,0,78,16,320386,0
320406,-19,-2072,347,-102,35,135,14214,0,2,1,-8,35713,-9,32,127,0,0,3799,0,0,2328,445,120,7534,-4,0,78,16,320386,0
320416,-29,-2068,345,-99,46,139,14214,-1,-1,-7,-8,35724,-12,32,127,0,0,3799,0,0,2328,445,120,7544,-4,0,78,16,320433,0
320426,-26,-2060,342,-98,41,137,14214,0,2,-5,-8,35729,-12,33,127,0,0,3799,0,0,2328,445,120,7554,-4,0,78,16,320433,0
320436,-31,-2063,335,-101,35,132,14214,4,-1,-7,-8,35727,-34,32,127,0,0,3802,32,0,2328,445,120,7564,-4,0,78,16,320433,0
320446,-17,-2066,340,-98,45,138,14214,-7,2,8,-8,35717,-35,32,127,0,0,3799,10,0,2328,445,120,7574,-4,0,78,16,320448,0
320456,-24,-2066,340,-97,38,140,14214,6,-2,1,-16,35709,-23,32,127,0,0,3799,-27,0,2328,445,120,7584,-4,0,78,16,320448,0
320466,-31,-2061,335,-98,42,135,14213,-4,-2,12,8,35708,-29,32,127,0,0,3801,21,0,2328,445,120,7594,-4,0,78,16,320448,0
320476,-43,-2060,338,-97,35,142,14215,3,-6,20,8,35716,-31,32,127,0,0,3801,32,0,2328,445,120,7604,-4,0,78,16,320464,0
320486,-26,-2062,337,-94,40,137,14215,-5,1,36,-8,35722,-28,33,127,0,0,3799,-38,0,2328,445,120,7614,-4,0,78,16,320558,0
320496,-43,-2070,334,-93,38,133,14215,5,-1,19,-8,35723,-27,33,127,0,0,3802,-10,0,2328,445,120,7624,-4,0,78,16,320558,0
320506,-29,-2066,344,-86,36,134,14216,15,6,69,32,35717,-30,33,127,0,0,3800,16,0,2328,445,120,7634,-4,0,78,16,320558,0
320516,-27,-2058,348,-88,38,134,14215,-7,-1,76,8,35715,-30,33,127,0,0,3801,-16,0,2328,445,120,7644,-4,0,78,16,320558,0
320526,-43,-2063,337,-87,40,136,14215,3,-3,83,32,35713,-22,33,127,0,0,3800,0,0,2328,445,120,7654,-4,0,78,16,320558,0
320536,-5,-2057,346,-85,39,134,14215,-3,2,52,8,35710,-23,33,127,0,0,3801,0,0,2328,445,120,7664,-4,0,78,16,320573,0
320546,-28,-2063,341,-86,35,139,14215,3,0,49,8,35710,-29,32,127,0,0,3801,10,0,2328,445,120,7674,-4,0,78,16,320573,0
320556,-13,-2060,334,-91,40,139,14217,7,8,77,32,35706,-19,33,127,0,0,3803,10,0,2328,445,120,7684,-4,0,78,16,320573,0
320566,-23,-2062,334,-79,36,145,14218,7,1,134,8,35708,-18,32,127,0,0,3804,-5,0,2328,445,120,7694,-4,0,78,16,320573,0
320576,-58,-2066,335,-82,35,143,14215,0,-4,104,32,35704,-11,32,127,0,0,3803,43,0,2328,445,120,7704,-4,0,78,16,320573,0
320586,-42,-2068,341,-77,41,143,14217,-1,-1,157,56,35706,-20,32,127,0,0,3808,43,0,2328,445,120,7714,-4,0,78,16,320573,0
320596,-52,-2059,338,-77,38,148,14217,-12,-2,200,48,35714,-36,32,127,0,0,3808,60,0,2328,445,120,7724,-4,0,78,16,320573,0
320606,-24,-2061,345,-79,36,133,14220,2,-2,246,72,35728,-28,32,127,0,0,3807,43,0,2328,445,120,7734,-4,0,78,16,320589,0
320617,-33,-2057,341,-80,34,129,14219,-3,-8,235,48,35729,-43,32,127,0,0,3805,10,0,2328,445,120,7745,-4,0,78,16,320589,0
320627,-29,-2060,342,-76,35,129,14221,0,-2,230,40,35725,-29,33,127,0,0,3807,10,0,2328,445,120,7755,-4,0,78,16,320620,0
320637,-30,-2065,343,-83,31,120,14221,4,-1,249,40,35715,-27,33,127,0,0,3807,10,0,2328,445,120,7765,-4,0,78,16,320636,0
320647,-55,-2072,346,-75,33,124,14220,0,0,250,48,35716,-19,33,127,0,0,3805,-10,0,2328,445,120,7775,-4,0,78,16,320636,0
320657,-11,-2067,342,-82,38,107,14220,-3,3,225,80,35710,-29,33,127,0,0,3805,10,0,2328,445,120,7785,-4,0,78,16,320636,0
320667,-13,-2071,346,-80,32,100,14219,-12,-2,220,96,35717,-55,32,127,0,0,3807,10,0,2328,445,120,7795,-4,0,78,16,320667,0
320677,-39,-2060,351,-83,29,108,14221,6,3,243,48,35709,-40,33,127,0,0,3805,-10,0,2328,445,120,7805,-4,0,78,16,320667,0
320687,-37,-2058,348,-79,29,107,14221,5,3,246,32,35711,-34,33,127,0,0,3805,-21,0,2328,445,120,7815,-4,0,78,16,320667,0
320697,-33,-2060,353,-87,29,95,14217,-18,-10,205,88,35705,-25,33,127,0,0,3807,54,0,2328,445,120,7825,-4,0,78,16,320714,0
320707,-15,-2063,345,-92,30,92,14222,-3,-2,219,40,35712,-16,33,127,0,0,3805,0,0,2328,445,120,7835,-4,0,78,16,320714,0
320717,-46,-2062,339,-85,28,93,14221,15,2,201,8,35714,-21,33,127,0,0,3805,-21,0,2328,445,120,7845,-4,0,78,16,320714,0
320727,-69,-2055,337,-87,28,86,14219,5,-6,183,56,35710,-32,33,127,0,0,3807,21,0,2328,445,120,7855,-4,0,78,16,320714,0
320737,-16,-2058,342,-81,28,80,14220,5,-1,182,16,35704,-42,33,127,0,0,3803,-10,0,2328,445,120,7865,-4,0,78,16,320714,0
320747,-51,-2066,331,-84,33,69,14220,12,4,163,64,35717,-34,32,127,0,0,3803,-21,0,2328,445,120,7875,-4,0,78,16,320745,0
320757,-34,-2067,345,-85,34,61,14217,-12,-3,125,32,35729,-24,32,127,0,0,3801,-21,0,2328,445,120,7885,-4,0,78,16,320745,0
320767,-15,-2069,346,-87,38,60,14216,-12,-7,78,40,35730,-19,33,127,0,0,3801,-21,0,2328,445,120,7895,-4,0,78,16,320745,0
320777,-26,-2066,344,-86,42,59,14216,-6,0,2,-16,35726,-10,33,127,0,0,3801,0,0,2328,445,120,7905,-4,0,78,16,320776,0
320787,-39,-2069,345,-89,41,59,14215,1,2,3,-8,35720,-34,33,127,0,0,3799,0,0,2328,445,120,7915,-4,0,78,16,320776,0
320797,-27,-2056,338,-89,32,71,14214,1,4,-24,-48,35721,-24,33,127,0,0,3794,-54,0,2328,445,120,7925,-4,0,78,16,320776,0
320807,-12,-2067,340,-80,29,79,14206,-27,-15,-129,32,35715,-24,33,127,0,0,3796,32,0,2328,445,120,7935,-4,0,78,16,320792,0
320817,-9,-2066,338,-82,34,81,14207,-7,0,-111,-48,35708,-13,32,127,0,0,3794,-21,0,2328,445,120,7945,-4,0,78,16,320808,0
320827,-46,-2057,336,-81,35,73,14203,3,6,-155,-32,35709,-11,32,127,0,0,3794,0,0,2328,445,120,7955,-4,0,78,16,320808,0
320837,-18,-2063,342,-79,35,64,14200,-23,-4,-199,-64,35713,-15,32,127,0,0,3792,10,0,2328,445,120,7965,-4,0,78,16,320839,0
320847,-18,-2067,334,-81,27,74,14201,-7,-1,-248,-80,35713,-25,33,127,0,0,3790,-10,0,2328,445,120,7975,-4,0,78,16,320839,0
320857,-32,-2057,336,-78,35,82,14201,4,4,-250,-80,35716,-30,32,127,0,0,3790,-21,0,2328,445,120,7985,-4,0,78,16,320839,0
320868,-30,-2054,340,-77,38,77,14199,-9,1,-263,-72,35713,-25,32,127,0,0,3786,-16,0,2328,445,120,7996,-4,0,78,16,320855,0
320878,-20,-2058,337,-70,34,86,14196,-17,-10,-327,-112,35720,-24,33,127,0,0,3789,10,0,2328,445,120,8006,-4,0,78,16,320855,0
320888,-25,-2063,340,-73,37,81,14191,1,-7,-315,-104,35720,-19,33,127,0,0,3785,-32,0,2328,445,120,8016,-4,0,78,16,320870,0
320898,-11,-2062,343,-76,37,78,14188,-3,7,-331,-104,35712,-10,32,127,0,0,3789,16,0,2328,445,120,8026,-4,0,78,16,320901,0
320908,-25,-2069,351,-70,31,90,14188,-12,3,-373,-144,35707,-1,33,127,0,0,3784,-10,0,2328,445,120,8036,-4,0,78,16,320933,0
320918,-22,-2055,344,-79,37,94,14177,-21,-21,-338,-128,35710,-21,33,127,0,0,3778,-87,0,2328,445,120,8046,-4,0,78,16,320933,0
320928,-12,-2074,343,-79,26,90,14155,-64,-43,-269,-80,35717,-27,33,127,0,0,3778,-38,0,2328,445,120,8056,-4,0,78,16,320933,0
320938,-31,-2060,341,-75,39,85,14133,-38,-27,-220,-64,35718,-28,33,127,0,0,3782,32,0,2328,445,120,8066,-4,0,78,16,320948,0
320948,-30,-2065,340,-73,37,97,14137,3,60,-222,-64,35715,-3,32,127,0,0,3782,43,0,2328,445,120,8076,-4,0,78,16,320948,0
320958,-5,-2057,337,-74,32,98,14136,0,30,-238,-64,35714,1,32,127,0,0,3779,38,0,2328,445,120,8086,-4,0,78,16,320948,0
320968,-24,-2061,343,-80,26,97,14136,0,-7,-228,-64,35719,15,32,127,0,0,3779,0,0,2328,445,120,8096,-4,0,78,16,320948,0
320978,-24,-2065,345,-68,35,97,14134,-4,1,-229,-64,35722,13,32,127,0,0,3776,-32,0,2328,445,120,8106,-4,0,78,16,320995,0
320988,-16,-2063,353,-80,40,86,14132,-9,-8,-300,-56,35719,25,32,127,0,0,3776,5,0,2328,445,120,8116,-4,0,78,16,320995,0
320998,-22,-2070,352,-84,26,92,14131,-9,-2,-294,-64,35722,40,32,127,0,0,3779,10,0,2328,445,120,8126,-4,0,78,16,320995,0
321008,-40,-2052,351,-85,30,89,14133,-5,7,-287,-80,35731,22,32,127,0,0,3777,-16,0,2328,445,120,8136,-4,0,78,16,320995,0
321018,-34,-2058,352,-87,35,85,14132,1,-5,-293,-104,35732,20,33,127,0,0,3774,-38,0,2328,445,120,8146,-4,0,78,16,320995,0
321028,-22,-2056,354,-87,29,75,14126,-18,-12,-339,-96,35728,-3,32,127,0,0,3771,-32,0,2328,445,120,8156,-4,0,78,16,321011,0
321038,-35,-2068,357,-92,39,67,14123,-11,-11,-336,-88,35729,2,32,127,0,0,3774,-10,0,2328,445,120,8166,-4,0,78,16,321026,0
321048,-31,-2064,346,-97,35,63,14123,0,10,-336,-112,35734,15,32,127,0,0,3772,-38,0,2328,445,120,8176,-4,0,78,16,321042,0
321058,-20,-2063,344,-98,30,56,14112,-39,-6,-397,-112,35732,27,32,127,0,0,3770,10,0,2328,445,120,8186,-4,0,78,16,321042,0
321068,-21,-2062,344,-95,38,58,14078,-99,-61,-187,-80,35728,29,33,127,0,0,3768,-38,0,2328,445,120,8196,-4,0,78,16,321058,0
321078,-60,-2059,340,-101,41,42,14056,-15,-35,-34,-48,35730,32,32,127,0,0,3766,-54,0,2328,445,120,8206,-4,0,78,16,321058,0
321088,15,-2062,345,-104,41,48,14057,-11,81,-183,-48,35732,36,32,127,0,0,3762,-32,0,2328,445,120,8216,-4,0,78,16,321089,0
321098,-1,-2061,358,-107,31,56,14056,0,32,-214,-72,35734,64,32,127,0,0,3763,-32,0,2328,445,120,8226,-4,0,78,16,321089,0
321108,-4,-2060,354,-105,26,60,14054,-9,-7,-240,-88,35720,45,32,127,0,0,3761,-38,0,2328,445,120,8236,-4,0,78,16,321089,0
321119,0,-2063,349,-113,46,53,14043,-36,-21,-269,-104,35720,47,33,127,0,0,3759,-32,0,2328,445,120,8247,-4,0,78,16,321105,0
321129,6,-2063,352,-118,43,51,14018,-67,-50,-130,-40,35717,29,33,127,0,0,3757,-10,0,2328,445,120,8257,-4,0,78,16,321120,0
321139,-9,-2071,349,-121,41,61,14010,6,13,-177,-32,35727,39,33,127,0,0,3755,-21,0,2328,445,120,8267,-4,0,78,16,321136,0
321149,-1,-2061,340,-120,33,75,14008,-2,52,-221,-64,35724,21,32,127,0,0,3755,-21,0,2328,445,120,8277,-4,0,78,16,321136,0
321159,8,-2067,334,-118,29,81,14009,-5,10,-274,-104,35719,20,32,127,0,0,3752,-21,0,2328,445,120,8287,-4,0,78,16,321136,0
321169,5,-2063,339,-118,31,85,14006,-7,-2,-279,-64,35719,3,33,127,0,0,3755,32,0,2328,445,120,8297,-4,0,78,16,321151,0
321179,-3,-2068,342,-113,37,92,14006,-2,4,-260,-88,35727,8,32,127,0,0,3750,-54,0,2328,445,120,8307,-4,0,78,16,321167,0
321189,-1,-2060,339,-119,39,88,14001,-11,-5,-339,-64,35732,18,32,127,0,0,3750,21,0,2328,445,120,8317,-4,0,78,16,321167,0
321199,2,-2057,341,-114,35,102,14001,-8,-2,-353,-96,35729,16,32,127,0,0,3750,-21,0,2328,445,120,8327,-4,0,78,16,321183,0
321209,-19,-2057,339,-119,34,97,14001,9,7,-346,-88,35725,8,32,127,0,0,3746,-32,0,2328,445,120,8337,-4,0,78,16,321214,0
321219,6,-2061,336,-114,35,97,13997,-19,-4,-422,-160,35727,-6,32,127,0,0,3746,-21,0,2328,445,120,8347,-4,0,78,16,321214,0
321229,-19,-2062,343,-114,34,96,13996,4,-1,-438,-136,35727,-12,32,127,0,0,3746,10,0,2328,445,120,8357,-4,0,78,16,321214,0
321239,5,-2066,339,-116,40,93,13996,3,11,-465,-128,35728,-4,33,127,0,0,3746,10,0,2328,445,120,8367,-4,0,78,16,321230,0
321249,-6,-2068,342,-118,39,94,13995,2,0,-452,-168,35722,-1,32,127,0,0,3746,-10,0,2328,445,120,8377,-4,0,78,16,321230,0
321259,-21,-2072,339,-118,37,97,13992,5,1,-468,-152,35722,-5,32,127,0,0,3746,0,0,2328,445,120,8387,-4,0,78,16,321261,0
321269,-8,-2068,335,-116,32,99,13990,2,2,-472,-152,35720,7,33,127,0,0,3744,0,0,2328,445,120,8397,-4,0,78,16,321261,0
321279,-6,-2067,337,-114,37,98,13988,-3,3,-493,-144,35719,10,32,127,0,0,3744,0,0,2328,445,120,8407,-4,0,78,16,321276,0
321289,-3,-2061,335,-109,39,95,13984,-4,-6,-468,-136,35718,2,32,127,0,0,3741,0,0,2328,445,120,8417,-4,0,78,16,321276,0
321299,-5,-2067,336,-114,31,104,13983,-2,11,-469,-168,35720,-1,32,127,0,0,3741,-32,0,2328,445,120,8427,-4,0,78,16,321276,0
321309,-18,-2064,332,-110,38,96,13979,-8,0,-460,-152,35720,6,33,127,0,0,3741,-21,0,2328,445,120,8437,-4,0,78,16,321308,0
321319,-6,-2051,331,-107,39,98,13967,-30,-19,-412,-128,35717,17,33,127,0,0,3739,-21,0,2328,445,120,8447,-4,0,78,16,321308,0
321329,-4,-2056,335,-106,33,93,13940,-63,-43,-258,-104,35715,13,33,127,0,0,3741,0,0,2328,445,120,8457,-4,0,78,16,321308,0
321339,-24,-2063,337,-108,43,95,13930,-5,7,-201,-48,35717,8,33,127,0,0,3739,-32,0,2328,445,120,8467,-4,0,78,16,321323,0
321349,4,-2060,334,-109,33,96,13930,-8,54,-267,-72,35723,9,32,127,0,0,3739,0,0,2328,445,120,8477,-4,0,78,16,321339,0
321359,2,-2054,333,-108,41,112,13929,-4,5,-312,-112,35722,20,32,127,0,0,3737,-10,0,2328,445,120,8487,-4,0,78,16,321339,0
321370,-5,-2063,327,-107,35,101,13930,15,7,-272,-96,35715,21,33,127,0,0,3740,-5,0,2328,445,120,8498,-4,0,78,16,321354,0
321380,-17,-2068,334,-105,40,98,13929,0,6,-250,-96,35720,18,32,127,0,0,3737,-49,0,2328,445,120,8508,-4,0,78,16,321386,0
321390,-1,-2063,340,-103,33,106,13927,-2,-3,-297,-96,35728,17,32,127,0,0,3737,-5,0,2328,445,120,8518,-4,0,78,16,321386,0
321400,13,-2068,335,-102,41,107,13926,-4,1,-319,-96,35731,18,32,127,0,0,3737,0,0,2328,445,120,8528,-4,0,78,16,321386,0
321410,0,-2063,333,-105,31,117,13926,2,0,-306,-88,35722,19,33,127,0,0,3740,5,0,2328,445,120,8538,-4,0,78,16,321401,0
321420,1,-2060,330,-100,35,118,13925,-1,1,-322,-88,35712,-2,32,127,0,0,3737,38,0,2328,445,120,8548,-4,0,78,16,321417,0
321430,5,-2066,325,-102,32,116,13920,-13,-5,-335,-80,35717,2,32,127,0,0,3737,27,0,2328,445,120,8558,-4,0,78,16,321417,0
321440,-5,-2073,337,-95,28,113,13917,-2,-2,-285,-72,35717,4,32,127,0,0,3734,-32,0,2328,445,120,8568,-4,0,78,16,321417,0
321450,-11,-2070,331,-100,29,115,13911,-15,-2,-300,-64,35706,22,32,127,0,0,3734,-21,0,2328,445,120,8578,-4,0,78,16,321433,0
321460,4,-2067,334,-103,35,116,13900,-28,-15,-164,-40,35701,20,32,127,0,0,3734,-43,0,2328,445,120,8588,-4,0,78,16,321464,0
321470,7,-2068,332,-98,22,109,13886,-33,-15,-75,-64,35713,25,32,127,0,0,3739,5,0,2328,445,120,8598,-4,0,78,16,321464,0
321480,-31,-2063,328,-96,26,110,13882,4,15,-81,-8,35715,14,32,127,0,0,3737,38,0,2328,445,120,8608,-4,0,78,16,321464,0
321490,22,-2063,336,-95,29,117,13885,3,35,-18,-32,35724,26,32,127,0,0,3732,-71,0,2328,445,120,8618,-4,0,78,16,321464,0
321500,6,-2063,335,-101,32,108,13878,-11,-8,-77,-16,35718,27,32,127,0,0,3732,-32,0,2328,445,120,8628,-4,0,78,16,321495,0
321510,-41,-2056,328,-99,42,111,13880,5,1,-53,0,35721,36,32,127,0,0,3730,-54,0,2328,445,120,8638,-4,0,78,16,321495,0
321520,-12,-2065,339,-96,30,107,13879,-4,11,-127,-40,35714,41,32,127,0,0,3736,5,0,2328,445,120,8648,-4,0,78,16,321526,0
321530,2,-2061,342,-96,35,111,13879,9,0,-26,0,35719,39,32,127,0,0,3734,0,0,2328,445,120,8658,-4,0,78,16,321526,0
321540,22,-2061,345,-100,32,107,13878,-5,-1,-83,-16,35711,36,33,127,0,0,3735,5,0,2328,445,120,8668,-4,0,78,16,321526,0
321550,8,-2063,339,-102,31,114,13880,5,-3,-79,-16,35711,41,32,127,0,0,3732,-27,0,2328,445,120,8678,-4,0,78,16,321542,0
321560,3,-2066,338,-103,30,117,13877,13,4,-107,-40,35703,36,32,127,0,0,3739,21,0,2328,445,120,8688,-4,0,78,16,321558,0
321570,20,-2059,328,-101,38,122,13875,-12,0,-126,-16,35711,26,32,127,0,0,3732,27,0,2328,445,120,8698,-4,0,78,16,321558,0
321580,24,-2055,328,-97,40,120,13877,-2,-3,-130,-40,35716,22,33,127,0,0,3733,-16,0,2328,445,120,8708,-4,0,78,16,321573,0
321590,-7,-2061,322,-99,35,125,13875,6,-3,-97,-40,35714,17,33,127,0,0,3733,-21,0,2328,445,120,8718,-4,0,78,16,321573,0
321600,-1,-2062,330,-94,34,123,13874,-11,-7,-108,-32,35715,23,32,127,0,0,3733,-5,0,2328,445,120,8728,-4,0,78,16,321651,0
321610,-14,-2061,335,-94,34,126,13874,-10,-3,-119,-32,35721,40,32,127,0,0,3733,-5,0,2328,445,120,8738,-4,0,78,16,321651,0
321620,7,-2059,331,-93,40,118,13875,3,1,-97,-16,35720,25,32,127,0,0,3732,10,0,2328,445,120,8748,-4,0,78,16,321651,0
321630,-45,-2063,328,-103,39,124,13875,-8,1,-79,-16,35715,20,33,127,0,0,3735,-5,0,2328,445,120,8758,-4,0,78,16,321667,0
321640,-29,-2062,341,-97,31,130,13875,-11,-2,-65,8,35704,3,33,127,0,0,3730,-10,0,2328,445,120,8768,-4,0,78,16,321667,0
321650,23,-2071,330,-101,40,114,13876,0,-3,-28,-16,35703,13,33,127,0,0,3732,-49,0,2328,445,120,8778,-4,0,78,16,321667,0
321660,32,-2066,334,-102,38,107,13877,7,-4,-11,8,35701,21,33,127,0,0,3730,-82,0,2328,445,120,8788,-4,0,78,16,321667,0
321670,2,-2049,329,-102,46,128,13873,-18,-7,-120,-32,35707,30,33,127,0,0,3733,0,0,2328,445,120,8798,-4,0,78,16,321667,0
321681,12,-2061,330,-97,39,131,13875,-3,6,-115,-40,35715,23,32,127,0,0,3733,10,0,2328,445,120,8809,-4,0,78,16,321683,0
321691,17,-2058,325,-100,31,129,13875,3,8,-132,-40,35717,26,32,127,0,0,3735,32,0,2328,445,120,8819,-4,0,78,16,321683,0
321701,13,-2062,321,-97,39,128,13875,-2,3,-92,-40,35726,36,33,127,0,0,3733,-10,0,2328,445,120,8829,-4,0,78,16,321683,0
321711,16,-2070,328,-96,37,125,13875,8,-6,-109,-48,35728,47,33,127,0,0,3733,-10,0,2328,445,120,8839,-4,0,78,16,321698,0
321721,-19,-2061,327,-95,33,132,13875,0,-2,-119,-32,35726,53,33,127,0,0,3733,0,0,2328,445,120,8849,-4,0,78,16,321729,0
321731,3,-2066,340,-93,36,128,13873,-5,-2,-112,-32,35723,32,33,127,0,0,3733,10,0,2328,445,120,8859,-4,0,78,16,321729,0
321741,-5,-2065,328,-96,31,131,13874,-5,5,-128,-32,35712,37,33,127,0,0,3733,0,0,2328,445,120,8869,-4,0,78,16,321745,0
321751,-1,-2066,325,-90,33,128,13874,-3,1,-120,-32,35709,33,33,127,0,0,3733,0,0,2328,445,120,8879,-4,0,78,16,321745,0
321761,7,-2066,318,-95,34,133,13875,4,4,-103,-32,35713,25,33,127,0,0,3733,-10,0,2328,445,120,8889,-4,0,78,16,321745,0
321771,-18,-2061,324,-86,34,133,13875,13,1,-109,-32,35714,16,32,127,0,0,3733,0,0,2328,445,120,8899,-4,0,78,16,321745,0
321781,-13,-2065,327,-85,38,135,13874,-3,3,-97,8,35719,22,32,127,0,0,3735,21,0,2328,445,120,8909,-4,0,78,16,321776,0
321791,-1,-2059,327,-86,31,132,13873,-8,-4,-87,0,35716,42,32,127,0,0,3733,10,0,2328,445,120,8919,-4,0,78,16,321776,0
321801,19,-2059,330,-91,37,125,13873,-20,0,-141,-32,35715,41,33,127,0,0,3735,32,0,2328,445,120,8929,-4,0,78,16,321776,0
321811,10,-2063,330,-84,33,144,13876,0,3,-59,-16,35713,44,33,127,0,0,3733,0,0,2328,445,120,8939,-4,0,78,16,321808,0
321821,-26,-2062,330,-86,39,133,13875,12,-5,-80,-48,35717,7,33,127,0,0,3737,21,0,2328,445,120,8949,-4,0,78,16,321808,0
321831,-28,-2059,329,-88,37,144,13873,-18,-8,-94,-40,35715,20,32,127,0,0,3735,21,0,2328,445,120,8959,-4,0,78,16,321808,0
321841,-8,-2063,336,-87,30,137,13879,28,11,3,8,35719,14,32,127,0,0,3735,-43,0,2328,445,120,8969,-4,0,78,16,321839,0
321851,-36,-2064,325,-87,36,122,13875,-1,-3,-8,-56,35717,28,33,127,0,0,3737,0,0,2328,445,120,8979,-4,0,78,16,321839,0
321861,-7,-2066,324,-86,29,134,13878,11,-2,27,-32,35716,23,33,127,0,0,3737,-21,0,2328,445,120,8989,-4,0,78,16,321839,0
321872,-49,-2073,327,-84,31,128,13877,18,13,30,8,35712,38,33,127,0,0,3737,27,0,2328,445,120,9000,-4,0,78,16,321854,0
321882,4,-2069,325,-87,33,121,13877,-11,0,19,8,35720,40,32,127,0,0,3730,-60,0,2328,445,120,9010,-4,0,78,16,321886,0
321892,20,-2064,327,-84,29,118,13877,14,-3,-6,8,35726,44,32,127,0,0,3737,5,0,2328,445,120,9020,-4,0,78,16,321886,0
321902,-9,-2060,334,-88,31,124,13877,-2,4,45,8,35725,27,33,127,0,0,3734,-32,0,2328,445,120,9030,-4,0,78,16,321886,0
321912,13,-2060,333,-88,32,123,13877,0,-5,27,8,35713,41,33,127,0,0,3737,-10,0,2328,445,120,9040,-4,0,78,16,321886,0
321922,-10,-2062,335,-85,23,128,13877,-5,1,29,8,35717,38,32,127,0,0,3737,16,0,2328,445,120,9050,-4,0,78,16,321917,0
321932,9,-2062,339,-87,26,129,13877,-4,-2,39,8,35719,40,32,127,0,0,3737,0,0,2328,445,120,9060,-4,0,78,16,321917,0
321942,1,-2073,332,-90,30,125,13878,-1,5,41,8,35723,36,32,127,0,0,3737,0,0,2328,445,120,9070,-4,0,78,16,321941,0
321952,-13,-2066,330,-87,26,130,13878,0,0,46,8,35718,32,32,127,0,0,3737,0,0,2328,445,120,9080,-4,0,78,16,321941,0
321962,-24,-2065,327,-91,28,128,13881,14,7,165,48,35718,17,33,127,0,0,3738,-54,0,2328,445,120,9090,-4,0,78,16,321945,0
321972,0,-2067,322,-83,31,126,13880,-9,-4,99,0,35725,22,32,127,0,0,3740,-27,0,2328,445,120,9100,-4,0,78,16,322039,0
321982,-13,-2053,323,-91,35,130,13881,11,-4,120,48,35724,18,33,127,0,0,3735,-32,0,2328,445,120,9110,-4,0,78,16,322039,0
321992,22,-2068,328,-84,32,125,13878,-12,0,100,24,35720,20,33,127,0,0,3739,0,0,2328,445,120,9120,-4,0,78,16,322039,0
322002,22,-2063,326,-84,32,125,13879,-9,-11,76,24,35711,24,32,127,0,0,3743,60,0,2328,445,120,9130,-4,0,78,16,322054,0
322012,0,-2066,332,-80,32,126,13883,5,4,147,16,35714,25,32,127,0,0,3743,10,0,2328,445,120,9140,-4,0,78,16,322054,0
322022,-6,-2060,330,-82,28,136,13881,-5,-8,120,48,35715,27,32,127,0,0,3738,27,0,2328,445,120,9150,-4,0,78,16,322054,0
322032,16,-2059,330,-80,31,143,13881,-1,0,137,48,35714,18,33,127,0,0,3741,5,0,2328,445,120,9160,-4,0,78,16,322054,0
322042,0,-2068,326,-82,30,140,13882,-5,6,161,40,35714,29,33,127,0,0,3741,0,0,2328,445,120,9170,-4,0,78,16,322054,0
322052,-13,-2072,322,-81,33,137,13884,5,0,189,40,35717,35,32,127,0,0,3741,-27,0,2328,445,120,9180,-4,0,78,16,322054,0
322062,-8,-2059,327,-81,31,132,13884,15,-3,175,40,35715,31,32,127,0,0,3741,0,0,2328,445,120,9190,-4,0,78,16,322054,0
322072,-11,-2073,318,-78,27,130,13885,10,1,235,40,35719,26,32,127,0,0,3741,-49,0,2328,445,120,9200,-4,0,78,16,322054,0
322082,-19,-2055,320,-76,30,133,13882,-10,-2,203,64,35723,34,32,127,0,0,3744,32,0,2328,445,120,9210,-4,0,78,16,322070,0
322092,19,-2065,329,-76,30,143,13883,-13,2,178,40,35736,35,32,127,0,0,3745,38,0,2328,445,120,9220,-4,0,78,16,322085,0
322102,-4,-2066,335,-71,32,141,13887,6,8,220,56,35736,44,32,127,0,0,3740,-32,0,2328,445,120,9230,-4,0,78,16,322085,0
322112,-2,-2059,330,-74,35,136,13886,9,-3,257,56,35733,21,32,127,0,0,3744,-32,0,2328,445,120,9240,-4,0,78,16,322101,0
322123,-23,-2065,333,-76,26,139,13886,-8,-5,284,80,35731,37,33,127,0,0,3746,21,0,2328,445,120,9251,-4,0,78,16,322101,0
322133,-1,-2066,332,-80,29,142,13889,2,1,286,80,35728,30,32,127,0,0,3744,-32,0,2328,445,120,9261,-4,0,78,16,322132,0
322143,-3,-2060,332,-78,38,137,13889,9,4,276,80,35726,36,33,127,0,0,3746,0,0,2328,445,120,9271,-4,0,78,16,322132,0
322153,2,-2063,332,-78,32,152,13890,0,-1,294,64,35717,20,32,127,0,0,3746,0,0,2328,445,120,9281,-4,0,78,16,322132,0
322163,11,-2060,334,-88,28,157,13890,-7,-2,285,64,35723,-4,33,127,0,0,3746,-10,0,2328,445,120,9291,-4,0,78,16,322163,0
322173,-11,-2066,326,-79,28,155,13891,4,1,344,128,35718,-1,33,127,0,0,3750,21,0,2328,445,120,9301,-4,0,78,16,322163,0
322183,-4,-2063,324,-82,31,161,13896,2,12,333,120,35717,-1,33,127,0,0,3752,65,0,2328,445,120,9311,-4,0,78,16,322163,0
322193,13,-2061,328,-76,28,159,13901,12,4,346,56,35720,10,33,127,0,0,3752,32,0,2328,445,120,9321,-4,0,78,16,322226,0
322203,-19,-2062,332,-78,36,159,13909,28,10,367,72,35730,20,32,127,0,0,3750,-32,0,2328,445,120,9331,-4,0,78,16,322226,0
322213,-17,-2062,329,-79,41,161,13928,46,31,255,72,35727,26,32,127,0,0,3755,32,0,2328,445,120,9341,-4,0,78,16,322226,0
322223,0,-2069,330,-75,24,169,13947,24,20,170,16,35720,36,32,127,0,0,3757,43,0,2328,445,120,9351,-4,0,78,16,322226,0
322233,-20,-2058,330,-78,26,168,13947,-2,-43,251,56,35711,10,32,127,0,0,3755,0,0,2328,445,120,9361,-4,0,78,16,322226,0
322243,-21,-2063,326,-77,33,167,13946,-5,-33,230,96,35712,0,33,127,0,0,3755,32,0,2328,445,120,9371,-4,0,78,16,322226,0
322253,-7,-2065,326,-73,31,165,13948,-4,2,266,120,35713,-4,32,127,0,0,3757,21,0,2328,445,120,9381,-4,0,78,16,322242,0
322263,-8,-2056,332,-72,34,171,13954,7,11,313,88,35720,6,32,127,0,0,3759,21,0,2328,445,120,9391,-4,0,78,16,322257,0
322273,-9,-2063,326,-72,32,170,13956,7,-4,328,88,35728,6,33,127,0,0,3761,32,0,2328,445,120,9401,-4,0,78,16,322273,0
322283,-18,-2064,331,-73,35,173,13963,16,5,351,96,35727,-10,33,127,0,0,3761,10,0,2328,445,120,9411,-4,0,78,16,322273,0
322293,-19,-2062,331,-69,43,167,13976,40,20,310,136,35728,-8,32,127,0,0,3766,43,0,2328,445,120,9421,-4,0,78,16,322273,0
322303,-6,-2056,334,-72,38,188,14014,75,60,103,40,35724,4,32,127,0,0,3766,0,0,2328,445,120,9431,-4,0,78,16,322288,0
322313,-63,-2058,322,-74,28,184,14010,-5,-49,244,32,35717,12,32,127,0,0,3768,32,0,2328,445,120,9441,-4,0,78,16,322288,0
322323,4,-2064,325,-71,35,193,14014,-12,-59,268,96,35717,-1,32,127,0,0,3770,21,0,2328,445,120,9451,-4,0,78,16,322382,0
322333,-1,-2066,330,-69,38,192,14017,11,13,325,80,35719,-6,32,127,0,0,3770,21,0,2328,445,120,9461,-4,0,78,16,322398,0
322343,-10,-2063,334,-64,33,188,14016,3,-6,382,104,35718,-2,33,127,0,0,3772,21,0,2328,445,120,9471,-4,0,78,16,322398,0
322353,-3,-2066,335,-64,30,200,14021,11,3,421,120,35715,-1,33,127,0,0,3774,32,0,2328,445,120,9481,-4,0,78,16,322398,0
322363,-22,-2055,333,-60,28,203,14025,5,5,452,168,35707,-9,33,127,0,0,3774,0,0,2328,445,120,9491,-4,0,78,16,322398,0
322373,-24,-2074,329,-58,31,198,14032,9,3,452,152,35709,8,33,127,0,0,3779,10,0,2328,445,120,9501,-4,0,78,16,322413,0
322383,-39,-2067,323,-60,35,190,14042,29,3,475,144,35711,20,33,127,0,0,3779,0,0,2328,445,120,9511,-4,0,78,16,322413,0
322393,-31,-2064,329,-58,41,189,14062,51,31,357,104,35711,25,32,127,0,0,3783,0,0,2328,445,120,9521,-4,0,78,16,322413,0
322403,-21,-2073,331,-52,27,189,14075,14,4,416,128,35708,23,32,127,0,0,3785,21,0,2328,445,120,9531,-4,0,78,16,322413,0
322413,-35,-2060,338,-47,44,183,14077,-3,-41,446,128,35705,21,33,127,0,0,3785,0,0,2328,445,120,9541,-4,0,78,16,322413,0
322424,-23,-2065,339,-54,37,181,14077,-1,-21,462,144,35714,13,32,127,0,0,3791,38,0,2328,445,120,9552,-4,0,78,16,322413,0
322434,-15,-2058,340,-54,45,172,14082,19,6,547,160,35726,18,32,127,0,0,3790,10,0,2328,445,120,9562,-4,0,78,16,322413,0
322444,-14,-2060,344,-55,36,176,14088,2,10,531,176,35741,21,33,127,0,0,3792,32,0,2328,445,120,9572,-4,0,78,16,322460,0
322454,-21,-2048,329,-57,32,166,14090,3,-7,526,168,35736,37,32,127,0,0,3792,32,0,2328,445,120,9582,-4,0,78,16,322460,0
322464,-34,-2053,325,-51,39,159,14098,36,6,577,176,35719,33,33,127,0,0,3797,0,0,2328,445,120,9592,-4,0,78,16,322476,0
322474,-29,-2059,328,-49,48,159,14113,44,30,455,152,35705,37,32,127,0,0,3794,16,0,2328,445,120,9602,-4,0,78,16,322476,0
322484,-28,-2070,327,-42,45,166,14148,85,53,280,128,35703,21,32,127,0,0,3792,-21,0,2328,445,120,9612,-4,0,78,16,322492,0
322494,-10,-2080,340,-43,37,167,14161,1,-12,274,96,35710,17,32,127,0,0,3799,21,0,2328,445,120,9622,-4,0,78,16,322492,0
322504,-48,-2078,335,-44,35,167,14162,6,-67,378,96,35712,-7,32,127,0,0,3799,-5,0,2328,445,120,9632,-4,0,78,16,322492,0
322514,-26,-2074,340,-40,42,165,14162,-3,-12,378,112,35721,-13,33,127,0,0,3801,27,0,2328,445,120,9642,-4,0,78,16,322492,0
322524,-20,-2079,346,-45,41,160,14170,14,5,342,96,35728,-12,32,127,0,0,3804,32,0,2328,445,120,9652,-4,0,78,16,322554,0
322534,-45,-2065,347,-44,36,172,14188,48,29,333,96,35736,-4,32,127,0,0,3803,0,0,2328,445,120,9662,-4,0,78,16,322554,0
322544,-29,-2061,351,-48,38,172,14205,18,20,251,80,35725,-5,32,127,0,0,3808,49,0,2328,445,120,9672,-4,0,78,16,322554,0
322554,-30,-2054,350,-51,32,155,14203,-11,-48,311,104,35715,-10,33,127,0,0,3804,38,0,2328,445,120,9682,-4,0,78,16,322570,0
322564,-40,-2057,355,-55,44,156,14205,-10,-29,317,104,35705,-25,32,127,0,0,3807,16,0,2328,445,120,9692,-4,0,78,16,322570,0
322574,-46,-2057,335,-61,46,138,14205,-9,-2,362,96,35705,-16,32,127,0,0,3804,-32,0,2328,445,120,9702,-4,0,78,16,322570,0
322584,-39,-2053,322,-60,46,123,14208,10,-4,364,96,35706,-20,32,127,0,0,3807,-38,0,2328,445,120,9712,-4,0,78,16,322570,0
322594,-48,-2059,337,-55,43,121,14208,3,-2,366,96,35711,-24,32,127,0,0,3807,0,0,2328,445,120,9722,-4,0,78,16,322570,0
322604,-46,-2056,359,-58,40,113,14208,-4,-1,367,96,35718,-22,32,127,0,0,3811,32,0,2328,445,120,9732,-4,0,78,16,322585,0
322615,-35,-2066,374,-67,37,105,14207,-4,0,361,96,35724,-14,32,127,0,0,3807,0,0,2328,445,120,9743,-4,0,78,16,322616,0
322625,-57,-2052,373,-83,36,103,14208,3,-2,376,96,35728,-9,32,127,0,0,3807,-21,0,2328,445,120,9753,-4,0,78,16,322616,0
322635,-49,-2065,371,-89,31,99,14208,-3,-1,367,96,35723,-16,32,127,0,0,3807,0,0,2328,445,120,9763,-4,0,78,16,322616,0
322645,-40,-2063,359,-98,32,82,14209,7,-1,334,104,35721,-33,32,127,0,0,3807,0,0,2328,445,120,9773,-4,0,78,16,322616,0
322655,-51,-2061,354,-105,28,76,14208,4,3,324,104,35720,-35,32,127,0,0,3805,-32,0,2328,445,120,9783,-4,0,78,16,322648,0
322665,-57,-2060,333,-108,35,66,14207,9,-1,299,72,35729,-32,32,127,0,0,3801,-65,0,2328,445,120,9793,-4,0,78,16,322648,0
322675,-9,-2058,329,-104,40,45,14205,0,-1,217,56,35726,-24,32,127,0,0,3801,-54,0,2328,445,120,9803,-4,0,78,16,322648,0
322685,-29,-2069,332,-111,42,44,14203,-11,-2,137,48,35723,-6,33,127,0,0,3799,-10,0,2328,445,120,9813,-4,0,78,16,322679,0
322695,-12,-2053,338,-100,34,47,14204,0,4,76,16,35711,-9,32,127,0,0,3796,-43,0,2328,445,120,9823,-4,0,78,16,322679,0
322705,-30,-2062,340,-98,35,63,14200,-1,-2,-10,8,35707,-7,32,127,0,0,3794,-32,0,2328,445,120,9833,-4,0,78,16,322695,0
322715,-11,-2065,352,-104,36,63,14197,1,-3,-68,-24,35708,-1,32,127,0,0,3794,10,0,2328,445,120,9843,-4,0,78,16,322695,0
322725,9,-2069,360,-106,34,64,14196,-8,7,-95,-56,35717,-1,32,127,0,0,3790,-43,0,2328,445,120,9853,-4,0,78,16,322741,0
322735,-2,-2062,362,-110,32,77,14191,-14,-10,-182,-72,35720,-7,32,127,0,0,3790,-10,0,2328,445,120,9863,-4,0,78,16,322741,0
322745,-26,-2063,364,-123,33,81,14187,-1,-3,-162,-48,35720,-6,32,127,0,0,3788,-43,0,2328,445,120,9873,-4,0,78,16,322741,0
322755,-4,-2075,362,-127,19,84,14180,-25,-2,-222,-64,35713,-16,32,127,0,0,3788,0,0,2328,445,120,9883,-4,0,78,16,322741,0
322765,-7,-2052,343,-128,27,95,14175,-7,-6,-220,-88,35708,-12,32,127,0,0,3788,-10,0,2328,445,120,9893,-4,0,78,16,322757,0
322775,-16,-2060,333,-130,17,97,14161,-32,-8,-152,-48,35710,-11,33,127,0,0,3785,10,0,2328,445,120,9903,-4,0,78,16,322757,0
322785,-13,-2054,326,-124,33,117,14154,-7,-1,-129,-56,35721,-5,33,127,0,0,3785,-10,0,2328,445,120,9913,-4,0,78,16,322804,0
322795,-2,-2062,316,-121,25,131,14151,2,23,-70,-56,35727,6,33,127,0,0,3783,-21,0,2328,445,120,9923,-4,0,78,16,322804,0
322805,6,-2067,313,-113,33,152,14149,0,10,-111,-8,35727,2,33,127,0,0,3785,21,0,2328,445,120,9933,-4,0,78,16,322804,0
322815,29,-2062,306,-101,32,160,14152,0,8,-59,-24,35714,0,33,127,0,0,3785,-21,0,2328,445,120,9943,-4,0,78,16,322804,0
322825,12,-2065,299,-82,34,179,14151,11,0,-19,0,35710,-3,33,127,0,0,3788,10,0,2328,445,120,9953,-4,0,78,16,322820,0
322835,-2,-2075,303,-70,37,194,14152,8,-1,2,0,35718,1,33,127,0,0,3788,0,0,2328,445,120,9963,-4,0,78,16,322820,0
322845,8,-2067,311,-49,25,239,14151,-1,-4,5,0,35728,-6,32,127,0,0,3792,54,0,2328,445,120,9973,-4,0,78,16,322851,0
322855,4,-2064,313,-47,20,252,14159,24,17,153,64,35733,-2,32,127,0,0,3794,21,0,2328,445,120,9983,-4,0,78,16,322851,0
322865,-8,-2059,343,-45,12,272,14163,11,12,266,96,35728,-10,32,127,0,0,3799,43,0,2328,445,120,9993,-4,0,78,16,322851,0
322875,-11,-2067,342,-45,16,277,14183,53,22,269,80,35719,-6,32,127,0,0,3805,54,0,2328,445,120,10003,-4,0,78,16,322851,0
322886,-30,-2060,354,-50,8,292,14213,51,44,264,88,35726,-17,32,127,0,0,3811,65,0,2328,445,120,10014,-4,0,78,16,322898,0
322896,-37,-2053,345,-52,20,279,14213,0,-45,409,136,35732,-17,32,127,0,0,3815,93,0,2328,445,120,10024,-4,0,78,16,322898,0
322906,-29,-2059,343,-48,14,270,14221,21,-31,533,192,35726,-29,32,127,0,0,3822,82,0,2328,445,120,10034,-4,0,78,16,322913,0
322916,-81,-2056,340,-47,17,263,14235,29,35,575,232,35720,-25,32,127,0,0,3825,98,0,2328,445,120,10044,-4,0,78,16,322913,0
322926,-72,-2058,340,-44,16,242,14270,102,51,487,192,35717,-23,32,127,0,0,3827,16,0,2328,445,120,10054,-4,0,78,16,322913,0
322936,-36,-2065,346,-54,11,237,14310,74,51,416,184,35714,-3,32,127,0,0,3834,71,0,2328,445,120,10064,-4,0,78,16,322913,0
322946,-91,-2063,339,-57,20,224,14354,93,3,283,88,35717,10,33,127,0,0,3837,16,0,2328,445,120,10074,-4,0,78,16,322945,0
322956,-69,-2057,344,-50,22,194,14360,-16,-69,361,120,35725,7,33,127,0,0,3835,5,0,2328,445,120,10084,-4,0,78,16,322945,0
322966,-97,-2067,352,-54,27,172,14361,7,-92,387,96,35729,23,32,127,0,0,3839,0,0,2328,445,120,10094,-4,0,78,16,322960,0
322976,-70,-2069,355,-54,29,147,14361,0,-3,417,120,35723,12,32,127,0,0,3845,60,0,2328,445,120,10104,-4,0,78,16,322960,0
322986,-82,-2068,351,-58,28,128,14372,38,20,469,96,35720,14,33,127,0,0,3838,-93,0,2328,445,120,10114,-4,0,78,16,322991,0
322996,-63,-2071,347,-60,28,125,14377,8,12,322,88,35725,10,33,127,0,0,3838,0,0,2328,445,120,10124,-4,0,78,16,322991,0
323006,-74,-2071,335,-63,30,106,14377,1,-23,337,112,35723,3,32,127,0,0,3837,-10,0,2328,445,120,10134,-4,0,78,16,322991,0
323016,-62,-2072,336,-55,27,96,14386,29,7,317,96,35719,8,32,127,0,0,3840,-32,0,2328,445,120,10144,-4,0,78,16,322991,0
323026,-57,-2064,342,-55,23,95,14399,30,29,289,48,35717,16,33,127,0,0,3838,-71,0,2328,445,120,10154,-4,0,78,16,323023,0
323036,-27,-2066,344,-55,32,87,14399,-1,-12,258,40,35726,10,32,127,0,0,3838,-54,0,2328,445,120,10164,-4,0,78,16,323023,0
323046,-65,-2069,344,-52,26,80,14399,2,-32,246,88,35728,6,32,127,0,0,3839,16,0,2328,445,120,10174,-4,0,78,16,323023,0
323056,-19,-2064,346,-50,25,80,14400,1,5,224,64,35726,5,32,127,0,0,3840,10,0,2328,445,120,10184,-4,0,78,16,323054,0
323066,-43,-2065,348,-49,33,78,14401,-5,-1,200,40,35726,-13,32,127,0,0,3835,-54,0,2328,445,120,10194,-4,0,78,16,323054,0
323076,-49,-2060,345,-52,21,60,14398,-6,-2,117,24,35725,-19,33,127,0,0,3836,-5,0,2328,445,120,10204,-4,0,78,16,323132,0
323086,-67,-2062,339,-58,39,45,14397,-7,4,88,16,35733,-18,33,127,0,0,3836,-21,0,2328,445,120,10214,-4,0,78,16,323148,0
323096,-67,-2065,341,-54,45,44,14398,0,5,36,-24,35728,-9,32,127,0,0,3832,-54,0,2328,445,120,10224,-4,0,78,16,323148,0
323106,-53,-2054,337,-47,44,23,14391,-4,-4,-26,-40,35725,0,33,127,0,0,3829,-38,0,2328,445,120,10234,-4,0,78,16,323148,0
323116,-33,-2065,342,-50,30,26,14386,-19,-12,-162,-72,35715,0,33,127,0,0,3828,-21,0,2328,445,120,10244,-4,0,78,16,323148,0
323126,-61,-2062,345,-46,51,7,14374,-22,-14,-107,-48,35718,-6,33,127,0,0,3822,-65,0,2328,445,120,10254,-4,0,78,16,323163,0
323136,-34,-2054,349,-48,39,5,14353,-56,-26,-143,-56,35721,-6,33,127,0,0,3824,0,0,2328,445,120,10264,-4,0,78,16,323163,0
323146,-78,-2056,353,-49,51,-6,14335,-19,-4,-167,-64,35719,-7,32,127,0,0,3816,5,0,2328,445,120,10274,-4,0,78,16,323163,0
323156,-43,-2062,351,-50,43,-23,14336,11,55,-258,-88,35718,-4,32,127,0,0,3811,-65,0,2328,445,120,10284,-4,0,78,16,323163,0
323167,-30,-2061,353,-55,43,-28,14322,-35,-4,-380,-96,35714,-4,32,127,0,0,3807,-21,0,2328,445,120,10295,-4,0,78,16,323163,0
323177,-29,-2065,351,-62,35,-23,14299,-69,-50,-361,-136,35722,-10,33,127,0,0,3803,-10,0,2328,445,120,10305,-4,0,78,16,323163,0
323187,-47,-2062,359,-57,50,-44,14250,-104,-77,-116,-104,35724,-11,33,127,0,0,3799,-32,0,2328,445,120,10315,-4,0,78,16,323163,0
323197,7,-2072,369,-64,56,-45,14213,-83,-20,-96,-16,35743,-11,33,127,0,0,3794,-21,0,2328,445,120,10325,-4,0,78,16,323194,0
323207,-61,-2067,365,-76,54,-42,14200,12,75,-133,-96,35743,-10,33,127,0,0,3788,-87,0,2328,445,120,10335,-4,0,78,16,323194,0
323217,-9,-2063,366,-81,39,-42,14194,-29,65,-315,-72,35738,-11,32,127,0,0,3785,-21,0,2328,445,120,10345,-4,0,78,16,323210,0
323227,-9,-2063,359,-82,43,-26,14186,-20,-7,-381,-184,35718,-10,32,127,0,0,3779,-54,0,2328,445,120,10355,-4,0,78,16,323210,0
323237,-14,-2060,365,-85,47,-26,14160,-77,-34,-379,-136,35715,-19,32,127,0,0,3777,-32,0,2328,445,120,10365,-4,0,78,16,323241,0
323247,-44,-2062,361,-90,52,-35,14117,-86,-65,-256,-144,35719,-2,32,127,0,0,3770,-43,0,2328,445,120,10375,-4,0,78,16,323241,0
323257,30,-2053,361,-96,55,-29,14079,-100,-17,-182,-32,35719,1,33,127,0,0,3766,-21,0,2328,445,120,10385,-4,0,78,16,323241,0
323267,-28,-2050,354,-101,56,-22,14049,-41,20,-172,-40,35716,6,32,127,0,0,3761,-43,0,2328,445,120,10395,-4,0,78,16,323257,0
323277,-3,-2048,358,-104,34,-5,14032,-41,50,-197,-64,35719,18,33,127,0,0,3757,-54,0,2328,445,120,10405,-4,0,78,16,323257,0
323287,3,-2055,350,-106,34,-10,14008,-51,2,-160,-64,35719,17,32,127,0,0,3752,-32,0,2328,445,120,10415,-4,0,78,16,323273,0
323297,26,-2057,349,-112,48,4,14005,-2,33,-331,-120,35724,8,32,127,0,0,3750,-21,0,2328,445,120,10425,-4,0,78,16,323288,0
323307,-2,-2055,344,-114,35,6,14003,0,41,-392,-160,35723,-3,32,127,0,0,3746,-54,0,2328,445,120,10435,-4,0,78,16,323288,0
323317,-5,-2053,339,-107,36,16,13993,-10,-16,-417,-176,35721,-11,32,127,0,0,3741,-65,0,2328,445,120,10445,-4,0,78,16,323335,0
323327,27,-2064,349,-105,39,27,13989,-15,-3,-527,-168,35716,5,33,127,0,0,3741,-10,0,2328,445,120,10455,-4,0,78,16,323335,0
323337,12,-2056,353,-106,36,41,13981,-7,0,-489,-192,35710,-12,32,127,0,0,3737,-43,0,2328,445,120,10465,-4,0,78,16,323335,0
323347,30,-2063,359,-108,42,56,13961,-62,-27,-469,-160,35712,-17,32,127,0,0,3737,0,0,2328,445,120,10475,-4,0,78,16,323335,0
323357,-3,-2069,343,-106,36,57,13918,-85,-73,-277,-120,35711,-23,32,127,0,0,3733,-43,0,2328,445,120,10485,-4,0,78,16,323335,0
323368,39,-2064,339,-104,53,67,13878,-71,-14,-56,-40,35714,-13,33,127,0,0,3733,-32,0,2328,445,120,10496,-4,0,78,16,323366,0
323378,32,-2065,334,-98,39,98,13874,8,73,-162,-32,35720,1,33,127,0,0,3733,21,0,2328,445,120,10506,-4,0,78,16,323366,0
323388,26,-2059,334,-94,31,110,13873,-4,71,-140,-56,35730,11,33,127,0,0,3734,-5,0,2328,445,120,10516,-4,0,78,16,323366,0
323398,19,-2068,337,-83,36,125,13872,2,-3,-144,-32,35735,33,32,127,0,0,3729,10,0,2328,445,120,10526,-4,0,78,16,323413,0
323408,36,-2067,341,-82,36,123,13872,-3,-3,-117,-32,35729,51,32,127,0,0,3733,-10,0,2328,445,120,10536,-4,0,78,16,323413,0
323418,-11,-2063,343,-78,36,123,13875,1,3,-99,-32,35719,52,32,127,0,0,3733,0,0,2328,445,120,10546,-4,0,78,16,323413,0
323428,8,-2062,336,-79,37,130,13874,3,1,-121,-32,35712,47,33,127,0,0,3726,-38,0,2328,445,120,10556,-4,0,78,16,323413,0
323438,-35,-2063,337,-66,33,126,13872,-1,0,-145,-32,35705,18,32,127,0,0,3733,-5,0,2328,445,120,10566,-4,0,78,16,323429,0
323448,-3,-2053,334,-63,30,126,13871,-21,-2,-163,-32,35711,-1,32,127,0,0,3733,21,0,2328,445,120,10576,-4,0,78,16,323429,0
323458,40,-2065,342,-58,37,116,13874,8,6,-129,-32,35718,3,32,127,0,0,3733,27,0,2328,445,120,10586,-4,0,78,16,323444,0
323468,14,-2064,348,-58,39,124,13872,-10,-2,-130,-48,35717,2,33,127,0,0,3734,21,0,2328,445,120,10596,-4,0,78,16,323444,0
323478,-35,-2058,345,-51,29,130,13873,0,-7,-123,-32,35725,18,32,127,0,0,3733,5,0,2328,445,120,10606,-4,0,78,16,323491,0
323488,-35,-2061,339,-40,35,128,13873,-3,4,-121,-32,35722,17,32,127,0,0,3733,16,0,2328,445,120,10616,-4,0,78,16,323491,0
323498,-4,-2060,338,-42,31,105,13872,-11,-6,-155,-32,35728,22,32,127,0,0,3733,21,0,2328,445,120,10626,-4,0,78,16,323507,0
323508,6,-2062,342,-34,34,107,13874,4,2,-131,-56,35717,33,32,127,0,0,3734,-5,0,2328,445,120,10636,-4,0,78,16,323507,0
323518,-24,-2061,344,-33,32,107,13871,0,-3,-125,-56,35712,24,32,127,0,0,3734,10,0,2328,445,120,10646,-4,0,78,16,323507,0
323528,-23,-2063,346,-30,41,90,13870,-10,-7,-161,-72,35703,27,33,127,0,0,3728,-16,0,2328,445,120,10656,-4,0,78,16,323507,0
323538,-11,-2065,349,-28,46,80,13868,-2,-6,-208,-48,35717,21,32,127,0,0,3727,-27,0,2328,445,120,10666,-4,0,78,16,323554,0
323548,14,-2066,353,-24,38,79,13866,-16,-1,-264,-72,35713,32,32,127,0,0,3728,0,0,2328,445,120,10676,-4,0,78,16,323554,0
323558,-2,-2069,366,-27,44,89,13865,-4,-2,-286,-88,35720,22,32,127,0,0,3723,-49,0,2328,445,120,10686,-4,0,78,16,323569,0
323568,0,-2064,364,-26,48,85,13856,-30,-16,-337,-96,35722,23,33,127,0,0,3724,0,0,2328,445,120,10696,-4,0,78,16,323569,0
323578,2,-2061,360,-29,48,82,13848,-12,-14,-280,-80,35720,11,33,127,0,0,3724,0,0,2328,445,120,10706,-4,0,78,16,323569,0
323588,9,-2054,368,-35,48,90,13841,-18,7,-270,-88,35714,21,33,127,0,0,3725,10,0,2328,445,120,10716,-4,0,78,16,323569,0
323598,5,-2056,364,-38,40,98,13823,-37,-17,-153,-56,35716,17,32,127,0,0,3722,-16,0,2328,445,120,10726,-4,0,78,16,323585,0
323608,-4,-2056,361,-44,43,94,13810,-11,-6,-52,-24,35721,14,32,127,0,0,3718,-38,0,2328,445,120,10736,-4,0,78,16,323585,0
323619,18,-2059,361,-42,29,98,13810,-8,40,-148,-48,35734,2,32,127,0,0,3722,21,0,2328,445,120,10747,-4,0,78,16,323632,0
323629,34,-2051,361,-49,41,118,13809,0,10,-142,-48,35732,12,32,127,0,0,3719,0,0,2328,445,120,10757,-4,0,78,16,323632,0
323639,9,-2047,365,-58,38,121,13808,-1,7,-158,-8,35725,20,32,127,0,0,3722,21,0,2328,445,120,10767,-4,0,78,16,323632,0
323649,20,-2057,365,-60,33,128,13808,-10,-3,-163,-72,35713,20,32,127,0,0,3717,-21,0,2328,445,120,10777,-4,0,78,16,323632,0
323659,4,-2050,363,-63,42,126,13808,13,3,-180,-40,35703,13,32,127,0,0,3719,-10,0,2328,445,120,10787,-4,0,78,16,323632,0
323669,8,-2064,367,-64,31,133,13806,0,4,-164,-72,35706,7,33,127,0,0,3719,10,0,2328,445,120,10797,-4,0,78,16,323663,0
323679,28,-2065,363,-62,41,140,13807,-2,2,-173,-40,35713,11,32,127,0,0,3719,10,0,2328,445,120,10807,-4,0,78,16,323663,0
323689,36,-2062,368,-65,42,137,13807,7,3,-145,-56,35715,10,32,127,0,0,3719,-21,0,2328,445,120,10817,-4,0,78,16,323694,0
323699,-4,-2066,362,-72,41,152,13805,-1,-4,-171,-32,35711,20,32,127,0,0,3722,21,0,2328,445,120,10827,-4,0,78,16,323710,0
323709,43,-2053,366,-70,46,157,13807,1,1,-117,-56,35714,10,32,127,0,0,3719,10,0,2328,445,120,10837,-4,0,78,16,323710,0
323719,11,-2052,361,-75,40,160,13807,6,4,-160,0,35714,7,32,127,0,0,3722,21,0,2328,445,120,10847,-4,0,78,16,323710,0
323729,1,-2056,361,-74,45,161,13808,5,5,-47,-24,35714,10,32,127,0,0,3722,0,0,2328,445,120,10857,-4,0,78,16,323710,0
323739,-6,-2056,361,-77,45,170,13807,0,-3,-43,-16,35710,13,32,127,0,0,3722,0,0,2328,445,120,10867,-4,0,78,16,323726,0
323749,-6,-2054,367,-78,44,179,13809,9,2,-25,16,35717,11,32,127,0,0,3722,-21,0,2328,445,120,10877,-4,0,78,16,323757,0
323759,16,-2061,360,-80,37,180,13809,5,3,12,40,35718,31,32,127,0,0,3724,10,0,2328,445,120,10887,-4,0,78,16,323757,0
323769,12,-2063,364,-80,33,181,13811,-5,3,20,0,35720,26,32,127,0,0,3726,0,0,2328,445,120,10897,-4,0,78,16,323757,0
323779,-23,-2050,348,-81,32,187,13814,16,2,91,16,35709,32,33,127,0,0,3728,32,0,2328,445,120,10907,-4,0,78,16,323772,0
323789,-5,-2050,348,-82,38,186,13815,5,7,153,40,35708,12,33,127,0,0,3730,21,0,2328,445,120,10917,-4,0,78,16,323772,0
323799,-8,-2059,355,-73,47,186,13817,11,-1,218,104,35712,37,33,127,0,0,3735,54,0,2328,445,120,10927,-4,0,78,16,323866,0
323809,14,-2062,365,-80,37,196,13821,2,10,269,72,35724,46,33,127,0,0,3735,43,0,2328,445,120,10937,-4,0,78,16,323866,0
323819,1,-2047,362,-73,33,200,13823,8,-3,297,72,35732,37,32,127,0,0,3735,10,0,2328,445,120,10947,-4,0,78,16,323866,0
323829,17,-2055,356,-78,38,211,13826,13,-1,345,112,35723,25,33,127,0,0,3737,21,0,2328,445,120,10957,-4,0,78,16,323866,0
323839,21,-2064,359,-80,35,222,13832,18,13,371,128,35712,13,33,127,0,0,3737,0,0,2328,445,120,10967,-4,0,78,16,323866,0
323849,8,-2061,359,-72,42,229,13848,50,26,342,80,35710,13,32,127,0,0,3741,-10,0,2328,445,120,10977,-4,0,78,16,323882,0
323859,21,-2057,363,-72,27,249,13881,75,53,245,64,35712,1,32,127,0,0,3746,32,0,2328,445,120,10987,-4,0,78,16,323882,0
323869,14,-2060,351,-67,23,261,13888,-10,-29,314,104,35712,11,33,127,0,0,3750,54,0,2328,445,120,10997,-4,0,78,16,323882,0
323879,-13,-2056,348,-65,39,269,13891,9,-61,455,184,35708,10,33,127,0,0,3752,21,0,2328,445,120,11007,-4,0,78,16,323882,0
323890,5,-2063,350,-62,38,268,13909,52,34,513,184,35709,24,33,127,0,0,3756,-38,0,2328,445,120,11018,-4,0,78,16,323882,0
323900,1,-2060,351,-61,34,283,13953,114,80,323,128,35716,26,33,127,0,0,3765,38,0,2328,445,120,11028,-4,0,78,16,323882,0
323910,-8,-2064,339,-58,35,281,13996,101,58,241,112,35726,9,32,127,0,0,3765,38,0,2328,445,120,11038,-4,0,78,16,323913,0
323920,25,-2069,354,-49,25,309,14025,20,-36,239,88,35736,-1,32,127,0,0,3776,43,0,2328,445,120,11048,-4,0,78,16,323913,0
323930,-31,-2054,361,-43,34,296,14024,-9,-100,402,144,35732,2,32,127,0,0,3773,49,0,2328,445,120,11058,-4,0,78,16,323913,0
323940,-16,-2056,378,-44,34,296,14033,23,-21,506,192,35726,12,32,127,0,0,3783,38,0,2328,445,120,11068,-4,0,78,16,323929,0
323950,-12,-2060,372,-47,32,305,14062,83,62,419,160,35719,22,33,127,0,0,3785,38,0,2328,445,120,11078,-4,0,78,16,323944,0
323960,-8,-2058,363,-55,21,320,14089,39,32,454,176,35726,12,32,127,0,0,3792,54,0,2328,445,120,11088,-4,0,78,16,323944,0
323970,-36,-2064,356,-54,31,308,14100,31,-45,573,200,35726,13,33,127,0,0,3796,5,0,2328,445,120,11098,-4,0,78,16,323976,0
323980,-57,-2051,360,-44,29,306,14131,86,22,423,184,35731,30,33,127,0,0,3797,21,0,2328,445,120,11108,-4,0,78,16,323976,0
323990,-10,-2059,377,-48,26,298,14179,93,65,338,160,35723,28,33,127,0,0,3807,32,0,2328,445,120,11118,-4,0,78,16,323976,0
324000,-57,-2053,376,-54,29,305,14219,66,0,286,96,35726,21,33,127,0,0,3813,49,0,2328,445,120,11128,-4,0,78,16,323976,0
324010,-69,-2051,370,-55,28,283,14219,-4,-98,484,168,35718,3,32,127,0,0,3816,49,0,2328,445,120,11138,-4,0,78,16,324007,0
324020,-55,-2062,368,-57,35,285,14227,18,-54,552,176,35717,8,32,127,0,0,3822,38,0,2328,445,120,11148,-4,0,78,16,324007,0
324030,-56,-2051,368,-60,37,262,14238,37,26,630,200,35715,-2,33,127,0,0,3826,27,0,2328,445,120,11158,-4,0,78,16,324007,0
324040,-60,-2053,371,-60,34,259,14277,107,61,463,176,35715,-7,33,127,0,0,3827,16,0,2328,445,120,11168,-4,0,78,16,324054,0
324050,-46,-2055,375,-67,26,249,14313,70,51,393,152,35722,-13,32,127,0,0,3832,38,0,2328,445,120,11178,-4,0,78,16,324054,0
324060,-92,-2054,368,-66,26,244,14352,93,-1,310,120,35729,-1,32,127,0,0,3836,49,0,2328,445,120,11188,-4,0,78,16,324054,0
324070,-68,-2066,375,-66,33,218,14362,-2,-41,338,88,35726,12,33,127,0,0,3839,32,0,2328,445,120,11198,-4,0,78,16,324054,0
324080,-95,-2059,369,-66,44,199,14363,11,-89,429,136,35719,5,33,127,0,0,3844,38,0,2328,445,120,11208,-4,0,78,16,324054,0
324090,-65,-2067,375,-73,32,187,14372,26,3,446,144,35721,-6,32,127,0,0,3846,49,0,2328,445,120,11218,-4,0,78,16,324085,0
324100,-68,-2060,373,-71,33,179,14397,60,35,351,120,35732,-8,32,127,0,0,3845,27,0,2328,445,120,11228,-4,0,78,16,324085,0
324111,-44,-2060,368,-73,30,181,14410,0,1,318,128,35730,-8,33,127,0,0,3845,10,0,2328,445,120,11239,-4,0,78,16,324085,0
324121,-75,-2067,365,-69,37,165,14410,9,-55,361,112,35729,-7,33,127,0,0,3845,-10,0,2328,445,120,11249,-4,0,78,16,324132,0
324131,-56,-2067,366,-72,40,154,14411,-1,-11,366,112,35729,-4,32,127,0,0,3849,32,0,2328,445,120,11259,-4,0,78,16,324147,0
324141,-46,-2063,371,-71,36,161,14413,4,4,425,144,35726,1,32,127,0,0,3851,32,0,2328,445,120,11269,-4,0,78,16,324147,0
324151,-57,-2060,368,-69,31,155,14415,3,5,482,112,35717,2,32,127,0,0,3851,21,0,2328,445,120,11279,-4,0,78,16,324147,0
324161,-43,-2054,367,-68,36,156,14417,6,0,484,112,35712,-10,33,127,0,0,3851,-10,0,2328,445,120,11289,-4,0,78,16,324147,0
324171,-59,-2051,366,-67,38,149,14419,15,5,512,104,35716,-11,33,127,0,0,3851,-32,0,2328,445,120,11299,-4,0,78,16,324163,0
324181,-67,-2054,369,-66,42,158,14420,9,2,526,176,35725,-7,32,127,0,0,3851,-10,0,2328,445,120,11309,-4,0,78,16,324163,0
324191,-46,-2044,369,-63,40,153,14423,0,3,519,120,35732,10,32,127,0,0,3854,0,0,2328,445,120,11319,-4,0,78,16,324179,0
324201,-51,-2051,374,-69,38,158,14423,0,-3,520,160,35734,13,33,127,0,0,3854,0,0,2328,445,120,11329,-4,0,78,16,324179,0
324211,-57,-2050,376,-67,38,159,14423,0,-6,513,160,35731,7,33,127,0,0,3854,0,0,2328,445,120,11339,-4,0,78,16,324194,0
324221,-56,-2047,367,-69,31,152,14424,-1,2,555,144,35725,-13,33,127,0,0,3858,32,0,2328,445,120,11349,-4,0,78,16,324194,0
324231,-78,-2055,368,-66,40,146,14432,28,17,580,160,35725,-28,33,127,0,0,3856,21,0,2328,445,120,11359,-4,0,78,16,324225,0
324241,-68,-2055,363,-66,44,134,14446,31,33,460,136,35720,-29,33,127,0,0,3860,21,0,2328,445,120,11369,-4,0,78,16,324225,0
324251,-90,-2055,367,-63,43,133,14472,67,33,310,80,35726,-25,32,127,0,0,3854,-32,0,2328,445,120,11379,-4,0,78,16,324225,0
324261,-98,-2055,365,-60,45,116,14472,-17,-31,337,144,35730,-17,32,127,0,0,3858,32,0,2328,445,120,11389,-4,0,78,16,324272,0
324271,-59,-2061,373,-68,42,114,14479,0,-42,346,96,35731,-14,33,127,0,0,3858,-32,0,2328,445,120,11399,-4,0,78,16,324272,0
324281,-62,-2059,387,-70,37,110,14479,8,-4,320,56,35720,-26,33,127,0,0,3856,-10,0,2328,445,120,11409,-4,0,78,16,324272,0
324291,-84,-2058,378,-72,36,97,14477,0,-7,308,112,35712,-33,32,127,0,0,3856,-21,0,2328,445,120,11419,-4,0,78,16,324288,0
324301,-81,-2057,367,-74,23,100,14477,-3,3,287,72,35714,-31,33,127,0,0,3856,-21,0,2328,445,120,11429,-4,0,78,16,324288,0
324311,-79,-2053,372,-76,25,96,14478,12,3,313,56,35725,-8,32,127,0,0,3856,-32,0,2328,445,120,11439,-4,0,78,16,324304,0
324321,-65,-2052,375,-72,30,96,14476,-2,-3,314,112,35729,-12,32,127,0,0,3856,-21,0,2328,445,120,11449,-4,0,78,16,324319,0
324331,-46,-2058,375,-80,30,90,14475,-10,-8,257,88,35726,-16,33,127,0,0,3854,-21,0,2328,445,120,11459,-4,0,78,16,324319,0
324341,-62,-2061,375,-80,25,90,14476,0,5,258,120,35725,-21,32,127,0,0,3856,21,0,2328,445,120,11469,-4,0,78,16,324319,0
324351,-39,-2056,371,-78,19,86,14477,-10,5,276,24,35726,-33,32,127,0,0,3854,-21,0,2328,445,120,11479,-4,0,78,16,324335,0
324361,-69,-2060,358,-79,41,84,14477,3,-6,190,64,35733,-36,33,127,0,0,3854,-10,0,2328,445,120,11489,-4,0,78,16,324350,0
324372,-59,-2061,366,-72,31,80,14476,1,1,196,32,35728,-25,32,127,0,0,3851,-38,0,2328,445,120,11500,-4,0,78,16,324350,0
324382,-67,-2062,369,-69,34,79,14476,12,1,183,8,35728,-21,32,127,0,0,3852,-5,0,2328,445,120,11510,-4,0,78,16,324382,0
324392,-56,-2067,371,-72,34,76,14472,-12,-4,81,16,35725,-8,33,127,0,0,3849,10,0,2328,445,120,11520,-4,0,78,16,324382,0
324402,-43,-2054,379,-74,37,78,14472,1,4,34,-8,35723,-12,33,127,0,0,3844,-65,0,2328,445,120,11530,-4,0,78,16,324382,0
324412,-33,-2055,382,-73,34,84,14464,-19,-6,-69,-16,35711,-12,32,127,0,0,3845,0,0,2328,445,120,11540,-4,0,78,16,324397,0
324422,-42,-2056,379,-74,38,93,14466,5,6,-55,-24,35713,-32,32,127,0,0,3845,-10,0,2328,445,120,11550,-4,0,78,16,324413,0
324432,-45,-2061,373,-73,37,89,14463,0,11,-141,-40,35717,-26,32,127,0,0,3846,43,0,2328,445,120,11560,-4,0,78,16,324413,0
324442,-39,-2058,372,-70,39,95,14461,-2,-6,-151,-40,35720,-18,33,127,0,0,3843,16,0,2328,445,120,11570,-4,0,78,16,324429,0
324452,-40,-2066,373,-74,41,99,14461,9,4,-159,-56,35720,-21,32,127,0,0,3840,-32,0,2328,445,120,11580,-4,0,78,16,324444,0
324462,-22,-2056,368,-72,31,114,14452,-23,-10,-177,-64,35718,-23,32,127,0,0,3845,27,0,2328,445,120,11590,-4,0,78,16,324460,0
324472,-42,-2062,372,-69,35,120,14447,-12,-7,-116,-8,35714,-17,32,127,0,0,3839,32,0,2328,445,120,11600,-4,0,78,16,324460,0
324482,-7,-2061,373,-71,29,132,14446,-8,15,-135,-8,35710,-17,32,127,0,0,3836,-10,0,2328,445,120,11610,-4,0,78,16,324460,0
324492,16,-2058,378,-66,39,139,14445,-2,1,-120,-24,35717,-13,32,127,0,0,3844,21,0,2328,445,120,11620,-4,0,78,16,324491,0
324502,-42,-2054,376,-73,35,151,14445,-6,4,-82,0,35722,-12,32,127,0,0,3836,-16,0,2328,445,120,11630,-4,0,78,16,324491,0
324512,-11,-2054,369,-64,39,147,14443,-2,-2,-74,0,35723,-14,33,127,0,0,3839,-21,0,2328,445,120,11640,-4,0,78,16,324507,0
324522,-57,-2044,361,-66,38,140,14442,-9,-4,-87,0,35717,-28,33,127,0,0,3846,71,0,2328,445,120,11650,-4,0,78,16,324507,0
324532,-60,-2052,364,-61,36,153,14443,-9,1,-49,0,35711,-23,32,127,0,0,3846,104,0,2328,445,120,11660,-4,0,78,16,324507,0
324542,-17,-2054,367,-49,37,145,14443,-12,-2,-53,0,35717,-14,32,127,0,0,3846,93,0,2328,445,120,11670,-4,0,78,16,324600,0
324552,-43,-2049,375,-53,41,157,14444,4,-5,-16,0,35711,-6,33,127,0,0,3839,21,0,2328,445,120,11680,-4,0,78,16,324600,0
324562,-54,-2057,377,-49,37,149,14442,-3,-5,-34,-24,35712,-5,33,127,0,0,3847,32,0,2328,445,120,11690,-4,0,78,16,324600,0
324572,-77,-2066,376,-56,35,142,14446,-5,4,8,0,35707,-21,33,127,0,0,3846,43,0,2328,445,120,11700,-4,0,78,16,324600,0
324582,-51,-2055,366,-54,38,141,14445,-4,1,-17,0,35701,-29,33,127,0,0,3843,16,0,2328,445,120,11710,-4,0,78,16,324616,0
324592,-75,-2049,362,-53,34,135,14446,15,2,3,0,35704,-37,32,127,0,0,3843,10,0,2328,445,120,11720,-4,0,78,16,324616,0
324602,-84,-2055,368,-45,30,131,14446,2,7,60,-8,35703,-23,32,127,0,0,3846,-16,0,2328,445,120,11730,-4,0,78,16,324616,0
324612,-79,-2047,376,-43,29,124,14445,-5,-4,-11,16,35701,-20,33,127,0,0,3845,54,0,2328,445,120,11740,-4,0,78,16,324616,0
324622,-40,-2048,382,-51,33,119,14448,8,6,36,16,35700,-25,33,127,0,0,3841,-27,0,2328,445,120,11750,-4,0,78,16,324616,0
324633,-58,-2057,380,-48,24,110,14447,-1,-2,32,24,35710,-28,32,127,0,0,3843,10,0,2328,445,120,11761,-4,0,78,16,324616,0
324643,-27,-2049,387,-58,28,111,14448,-5,-10,-3,-56,35723,-26,32,127,0,0,3843,-10,0,2328,445,120,11771,-4,0,78,16,324616,0
324653,-34,-2049,382,-55,31,117,14447,11,5,29,-16,35732,-20,33,127,0,0,3840,-32,0,2328,445,120,11781,-4,0,78,16,324647,0
324663,-30,-2057,374,-50,29,122,14443,-17,-2,-80,-24,35730,-28,33,127,0,0,3840,10,0,2328,445,120,11791,-4,0,78,16,324663,0
324673,-60,-2063,370,-52,40,124,14444,19,0,5,-32,35721,-25,33,127,0,0,3840,-43,0,2328,445,120,11801,-4,0,78,16,324663,0
324683,-58,-2052,373,-52,31,130,14440,-9,11,4,8,35717,-20,33,127,0,0,3840,-10,0,2328,445,120,11811,-4,0,78,16,324663,0
324693,-69,-2058,381,-44,44,128,14442,5,-2,17,0,35711,-15,33,127,0,0,3843,0,0,2328,445,120,11821,-4,0,78,16,324679,0
324703,-48,-2051,387,-40,42,129,14442,-9,5,-2,8,35721,-10,33,127,0,0,3843,21,0,2328,445,120,11831,-4,0,78,16,324679,0
324713,-34,-2059,388,-53,40,128,14442,-5,-2,2,0,35727,-19,33,127,0,0,3840,-32,0,2328,445,120,11841,-4,0,78,16,324725,0
324723,-54,-2065,396,-50,46,133,14438,-10,-7,-15,16,35732,-21,32,127,0,0,3843,32,0,2328,445,120,11851,-4,0,78,16,324725,0
324733,-35,-2055,402,-65,51,133,14443,0,2,-21,-24,35722,-27,32,127,0,0,3840,0,0,2328,445,120,11861,-4,0,78,16,324725,0
324743,-16,-2048,398,-68,46,137,14440,-9,-2,-41,8,35711,-37,32,127,0,0,3840,21,0,2328,445,120,11871,-4,0,78,16,324741,0
324753,-84,-2054,391,-74,44,134,14441,4,-2,13,-8,35707,-25,32,127,0,0,3840,-10,0,2328,445,120,11881,-4,0,78,16,324741,0
324763,-74,-2058,387,-75,49,131,14440,-5,-1,7,-32,35718,-22,32,127,0,0,3840,-32,0,2328,445,120,11891,-4,0,78,16,324757,0
324773,-54,-2056,382,-75,37,131,14441,9,-1,-5,16,35724,-21,33,127,0,0,3840,0,0,2328,445,120,11901,-4,0,78,16,324772,0
324783,-30,-2048,388,-71,44,124,14439,-13,4,-26,16,35721,-18,32,127,0,0,3843,43,0,2328,445,120,11911,-4,0,78,16,324772,0
324793,-43,-2057,391,-78,37,118,14444,8,5,27,-8,35715,-37,32,127,0,0,3840,-32,0,2328,445,120,11921,-4,0,78,16,324772,0
324803,-58,-2052,386,-75,38,118,14442,-1,-3,14,8,35713,-36,33,127,0,0,3843,10,0,2328,445,120,11931,-4,0,78,16,324819,0
324813,-32,-2044,386,-86,45,113,14443,-4,-1,33,-8,35721,-28,32,127,0,0,3840,0,0,2328,445,120,11941,-4,0,78,16,324819,0
324823,-29,-2051,387,-84,39,111,14439,-11,-6,14,40,35718,-18,32,127,0,0,3843,0,0,2328,445,120,11951,-4,0,78,16,324819,0
324833,-76,-2049,389,-86,36,116,14442,0,-4,9,48,35722,-12,32,127,0,0,3840,-10,0,2328,445,120,11961,-4,0,78,16,324819,0
324843,-42,-2051,387,-91,38,100,14441,-7,-3,-13,56,35720,-21,32,127,0,0,3840,0,0,2328,445,120,11971,-4,0,78,16,324835,0
324853,-82,-2049,382,-91,39,90,14439,-13,-6,-33,-16,35725,-15,32,127,0,0,3838,-21,0,2328,445,120,11981,-4,0,78,16,324835,0
324864,-57,-2056,380,-99,42,77,14435,-21,-13,-32,-32,35720,-16,32,127,0,0,3841,-32,0,2328,445,120,11992,-4,0,78,16,324866,0
324874,-95,-2048,378,-99,55,44,14428,-34,-17,-110,-24,35722,-16,33,127,0,0,3835,0,0,2328,445,120,12002,-4,0,78,16,324866,0
324884,-84,-2057,386,-98,59,15,14412,-22,-23,6,-32,35717,-24,32,127,0,0,3834,-38,0,2328,445,120,12012,-4,0,78,16,324866,0
324894,-46,-2048,391,-92,60,0,14402,-29,4,-239,-112,35719,-13,33,127,0,0,3828,-16,0,2328,445,120,12022,-4,0,78,16,324897,0
324904,-66,-2058,402,-97,50,-6,14384,-35,-5,-290,-96,35719,-12,32,127,0,0,3819,-38,0,2328,445,120,12032,-4,0,78,16,324897,0
324914,-31,-2057,399,-104,49,14,14358,-77,-27,-320,-120,35719,-4,32,127,0,0,3816,-54,0,2328,445,120,12042,-4,0,78,16,324913,0
324924,-45,-2060,387,-101,46,9,14324,-47,-35,-193,-72,35720,-3,32,127,0,0,3814,-16,0,2328,445,120,12052,-4,0,78,16,324913,0
324934,-17,-2052,394,-101,47,27,14326,7,69,-328,-112,35715,-10,32,127,0,0,3810,-27,0,2328,445,120,12062,-4,0,78,16,324928,0
324944,-12,-2060,392,-103,38,35,14321,-13,46,-363,-128,35721,0,33,127,0,0,3807,-38,0,2328,445,120,12072,-4,0,78,16,324944,0
324954,-24,-2050,378,-109,41,53,14315,-20,-16,-396,-144,35718,2,32,127,0,0,3802,-54,0,2328,445,120,12082,-4,0,78,16,324960,0
324964,-16,-2058,376,-108,45,68,14287,-93,-52,-354,-120,35720,-5,32,127,0,0,3796,-60,0,2328,445,120,12092,-4,0,78,16,324960,0
324974,-73,-2054,378,-104,50,60,14245,-75,-70,-178,-80,35722,-4,33,127,0,0,3799,-54,0,2328,445,120,12102,-4,0,78,16,324960,0
324984,-27,-2056,379,-101,51,69,14217,-49,13,-33,-40,35728,-4,32,127,0,0,3800,-5,0,2328,445,120,12112,-4,0,78,16,324991,0
324994,-39,-2049,370,-101,42,75,14213,24,80,-34,-32,35727,2,32,127,0,0,3793,-65,0,2328,445,120,12122,-4,0,78,16,325007,0
325004,-1,-2051,369,-97,40,71,14208,-7,49,-146,-40,35725,-5,33,127,0,0,3797,5,0,2328,445,120,12132,-4,0,78,16,325007,0
325014,-54,-2046,374,-97,38,76,14206,-12,4,-165,-64,35716,-21,33,127,0,0,3795,21,0,2328,445,120,12142,-4,0,78,16,325007,0
325024,-79,-2059,377,-94,42,60,14202,-15,3,-262,-80,35710,-31,33,127,0,0,3790,21,0,2328,445,120,12152,-4,0,78,16,325007,0
325034,-77,-2055,388,-95,42,35,14198,-10,-11,-322,-120,35720,-25,33,127,0,0,3782,-54,0,2328,445,120,12162,-4,0,78,16,325038,0
325044,-52,-2051,388,-98,40,23,14188,-19,-5,-357,-128,35731,-11,32,127,0,0,3780,-54,0,2328,445,120,12172,-4,0,78,16,325038,0
325054,-34,-2049,377,-104,48,0,14177,-38,-16,-434,-176,35731,-9,33,127,0,0,3777,-54,0,2328,445,120,12182,-4,0,78,16,325038,0
325064,-68,-2059,385,-102,42,-12,14140,-106,-57,-352,-152,35729,-12,33,127,0,0,3769,-60,0,2328,445,120,12192,-4,0,78,16,325038,0
325074,-76,-2047,380,-95,45,-25,14095,-97,-64,-305,-112,35731,-4,32,127,0,0,3765,-49,0,2328,445,120,12202,-4,0,78,16,325069,0
325084,-29,-2057,375,-97,50,-43,14045,-98,-29,-107,-96,35741,40,33,127,0,0,3759,-71,0,2328,445,120,12212,-4,0,78,16,325069,0
325094,22,-2063,385,-103,48,-35,14013,-78,21,-161,-56,35742,38,33,127,0,0,3754,-21,0,2328,445,120,12222,-4,0,78,16,325069,0
325104,-44,-2051,390,-97,41,-27,14006,12,73,-265,-80,35738,37,33,127,0,0,3749,-49,0,2328,445,120,12232,-4,0,78,16,325085,0
325115,7,-2056,393,-104,32,-8,14003,-5,68,-381,-176,35736,4,33,127,0,0,3746,-65,0,2328,445,120,12243,-4,0,78,16,325100,0
325125,-13,-2056,378,-101,40,9,13994,-15,-8,-457,-200,35740,4,33,127,0,0,3741,-65,0,2328,445,120,12253,-4,0,78,16,325132,0
325135,8,-2057,368,-99,41,25,13986,-14,-5,-511,-200,35735,6,33,127,0,0,3741,-10,0,2328,445,120,12263,-4,0,78,16,325132,0
325145,33,-2059,365,-91,38,64,13970,-40,-15,-503,-176,35727,6,33,127,0,0,3737,0,0,2328,445,120,12273,-4,0,78,16,325132,0
325155,25,-2055,361,-82,33,70,13928,-94,-62,-281,-128,35725,-4,32,127,0,0,3735,-32,0,2328,445,120,12283,-4,0,78,16,325132,0
325165,17,-2056,357,-75,29,96,13896,-69,-23,-223,-88,35728,23,32,127,0,0,3737,32,0,2328,445,120,12293,-4,0,78,16,325163,0
325175,-34,-2059,350,-69,32,95,13877,-2,51,24,-16,35732,31,33,127,0,0,3733,-54,0,2328,445,120,12303,-4,0,78,16,325163,0
325185,-20,-2054,368,-68,32,111,13879,4,72,-64,-64,35733,34,32,127,0,0,3733,-43,0,2328,445,120,12313,-4,0,78,16,325163,0
325195,-38,-2057,368,-64,34,115,13879,14,29,-85,-88,35725,18,33,127,0,0,3735,-32,0,2328,445,120,12323,-4,0,78,16,325178,0
325205,3,-2039,379,-51,36,126,13879,7,11,-60,-56,35727,28,33,127,0,0,3733,-32,0,2328,445,120,12333,-4,0,78,16,325194,0
325215,-17,-2051,386,-57,34,123,13874,-12,-4,-119,0,35723,32,33,127,0,0,3735,21,0,2328,445,120,12343,-4,0,78,16,325194,0
325225,-14,-2065,385,-64,39,130,13876,-2,0,-99,-40,35719,29,33,127,0,0,3733,-21,0,2328,445,120,12353,-4,0,78,16,325210,0
325235,-27,-2053,394,-67,33,134,13874,2,4,-137,-32,35721,25,32,127,0,0,3733,0,0,2328,445,120,12363,-4,0,78,16,325241,0
325245,-47,-2062,379,-64,29,128,13878,9,5,-88,-56,35722,23,32,127,0,0,3735,-10,0,2328,445,120,12373,-4,0,78,16,325241,0
325255,-65,-2075,382,-60,35,128,13875,-5,-1,-109,-40,35722,22,33,127,0,0,3735,21,0,2328,445,120,12383,-4,0,78,16,325241,0
325265,-5,-2061,390,-59,38,119,13876,0,4,-115,-40,35723,13,33,127,0,0,3733,0,0,2328,445,120,12393,-4,0,78,16,325335,0
325275,-35,-2064,397,-67,26,121,13875,4,2,-138,-40,35728,17,33,127,0,0,3733,0,0,2328,445,120,12403,-4,0,78,16,325335,0
325285,-33,-2056,393,-77,36,120,13873,-5,-2,-137,-32,35725,27,33,127,0,0,3733,-10,0,2328,445,120,12413,-4,0,78,16,325335,0
325295,-48,-2056,389,-70,33,116,13874,11,-1,-122,-32,35722,32,32,127,0,0,3733,0,0,2328,445,120,12423,-4,0,78,16,325335,0
325305,-39,-2058,387,-79,44,111,13876,11,6,-121,-40,35705,13,32,127,0,0,3733,-21,0,2328,445,120,12433,-4,0,78,16,325335,0
325315,-24,-2054,390,-80,31,112,13875,4,6,-140,-40,35713,14,32,127,0,0,3733,10,0,2328,445,120,12443,-4,0,78,16,325350,0
325325,-29,-2053,390,-81,34,105,13871,-10,-5,-145,-32,35719,10,32,127,0,0,3733,32,0,2328,445,120,12453,-4,0,78,16,325350,0
325335,-39,-2061,389,-80,28,103,13874,4,2,-112,-32,35714,33,32,127,0,0,3733,0,0,2328,445,120,12463,-4,0,78,16,325350,0
325345,-7,-2054,382,-88,34,97,13875,5,4,-123,-40,35709,26,33,127,0,0,3733,-10,0,2328,445,120,12473,-4,0,78,16,325350,0
325355,-39,-2061,386,-92,36,90,13873,7,-5,-129,-24,35709,24,32,127,0,0,3730,-21,0,2328,445,120,12483,-4,0,78,16,325350,0
325366,-30,-2059,375,-87,36,77,13869,-17,-12,-243,-48,35718,20,33,127,0,0,3727,16,0,2328,445,120,12494,-4,0,78,16,325350,0
325376,-22,-2053,382,-83,41,78,13868,0,0,-263,-72,35732,26,33,127,0,0,3728,0,0,2328,445,120,12504,-4,0,78,16,325350,0
325386,8,-2062,378,-82,35,96,13866,-7,7,-292,-88,35740,39,32,127,0,0,3729,16,0,2328,445,120,12514,-4,0,78,16,325413,0
325396,-8,-2049,380,-85,36,95,13862,-3,-11,-305,-88,35741,36,32,127,0,0,3723,-16,0,2328,445,120,12524,-4,0,78,16,325413,0
325406,15,-2067,370,-90,20,93,13858,-3,-1,-292,-96,35727,25,33,127,0,0,3724,-32,0,2328,445,120,12534,-4,0,78,16,325413,0
325416,35,-2084,377,-84,16,89,13858,6,7,-301,-96,35715,9,33,127,0,0,3724,-43,0,2328,445,120,12544,-4,0,78,16,325413,0
325426,638,-2134,283,-163,96,-353,13858,8,12,-303,-96,35709,14,32,127,0,0,3724,-43,0,2328,445,120,12554,-4,0,78,16,325413,0
325436,-43,-1923,246,-195,137,-593,13848,-49,-21,-532,-336,35708,17,32,127,0,0,3696,-302,0,2328,445,120,12564,-4,0,78,16,325413,0
325446,-4,-1972,440,-100,14,-22,13756,-242,-192,-396,-336,35715,28,32,127,0,0,3684,-38,0,2328,445,120,12574,-4,0,78,16,325428,0
325456,133,-2117,395,-97,-20,95,13646,-221,-178,-185,-120,35724,24,32,127,0,0,3684,-16,0,2328,445,120,12584,-4,0,78,16,325428,0
325466,339,-2148,200,-165,6,-301,13599,-34,115,30,0,35732,25,33,127,0,0,3681,-32,0,2328,445,120,12594,-4,0,78,16,325475,0
325476,229,-2026,226,-169,85,-582,13605,-30,224,-331,-232,35730,9,32,127,0,0,3661,-263,0,2328,445,120,12604,-4,0,78,16,325475,0
325486,113,-1997,422,-150,71,-311,13555,-144,-45,-562,-328,35715,15,32,127,0,0,3637,-214,0,2328,445,120,12614,-4,0,78,16,325475,0
325496,314,-2111,415,-141,5,-133,13468,-206,-178,-390,-248,35703,-14,32,127,0,0,3635,-49,0,2328,445,120,12624,-4,0,78,16,325475,0
325506,392,-2135,197,-179,-6,-356,13381,-168,-57,-289,-168,35700,-20,33,127,0,0,3629,-38,0,2328,445,120,12634,-4,0,78,16,325506,0
325516,274,-2057,177,-193,64,-561,13324,-108,71,-327,-216,35706,-22,33,127,0,0,3607,-186,0,2328,445,120,12644,-4,0,78,16,325506,0
325526,249,-1993,338,-181,97,-513,13249,-193,15,-423,-280,35707,-17,32,127,0,0,3584,-170,0,2328,445,120,12654,-4,0,78,16,325506,0
325536,291,-2066,404,-158,56,-336,13166,-171,-58,-422,-344,35708,0,32,127,0,0,3576,-137,0,2328,445,120,12664,-4,0,78,16,325522,0
325546,362,-2067,299,-163,-10,-263,13076,-193,-16,-307,-208,35710,10,32,127,0,0,3568,-43,0,2328,445,120,12674,-4,0,78,16,325538,0
325556,240,-2052,274,-188,-22,-326,13003,-144,21,-225,-152,35717,9,32,127,0,0,3559,-87,0,2328,445,120,12684,-4,0,78,16,325538,0
325566,142,-2031,300,-190,33,-439,12952,-97,79,-227,-104,35720,5,32,127,0,0,3549,-71,0,2328,445,120,12694,-4,0,78,16,325569,0
325576,165,-2080,311,-180,48,-410,12929,-50,99,-397,-176,35726,-2,33,127,0,0,3541,-54,0,2328,445,120,12704,-4,0,78,16,325569,0
325586,337,-2104,312,-148,24,-386,12878,-126,-5,-365,-184,35720,-14,33,127,0,0,3527,-49,0,2328,445,120,12714,-4,0,78,16,325585,0
325596,379,-2098,345,-144,-5,-414,12817,-115,-72,-300,-192,35714,-20,32,127,0,0,3514,-153,0,2328,445,120,12724,-4,0,78,16,325585,0
325606,286,-2087,441,-178,-8,-421,12776,-100,31,-497,-248,35708,-18,32,127,0,0,3504,-60,0,2328,445,120,12734,-4,0,78,16,325585,0
325617,197,-2090,462,-207,-11,-378,12720,-133,2,-506,-272,35716,-1,32,127,0,0,3489,-87,0,2328,445,120,12745,-4,0,78,16,325600,0
325627,163,-2095,443,-218,-23,-386,12639,-191,-80,-349,-272,35721,15,32,127,0,0,3476,-109,0,2328,445,120,12755,-4,0,78,16,325631,0
325637,232,-2055,418,-263,-50,-452,12568,-163,-39,-325,-168,35721,28,33,127,0,0,3465,-109,0,2328,445,120,12765,-4,0,78,16,325647,0
325647,95,-2077,400,-283,-63,-493,12498,-159,16,-330,-232,35712,16,33,127,0,0,3449,-109,0,2328,445,120,12775,-4,0,78,16,325647,0
325657,-20,-2081,367,-301,-34,-578,12437,-123,18,-353,-264,35709,13,33,127,0,0,3434,-175,0,2328,445,120,12785,-4,0,78,16,325678,0
325667,41,-2044,343,-304,-14,-631,12378,-139,22,-480,-320,35706,4,33,127,0,0,3412,-219,0,2328,445,120,12795,-4,0,78,16,325678,0
325677,139,-2007,284,-292,2,-707,12299,-187,-43,-458,-368,35708,10,33,127,0,0,3390,-219,0,2328,445,120,12805,-4,0,78,16,325678,0
325687,156,-2030,244,-278,22,-755,12199,-216,-78,-410,-392,35709,8,33,127,0,0,3368,-219,0,2328,445,120,12815,-4,0,78,16,325694,0
325697,225,-2038,279,-241,7,-719,12088,-254,-50,-443,-384,35704,4,33,127,0,0,3346,-197,0,2328,445,120,12825,-4,0,78,16,325694,0
325707,201,-2067,327,-231,-16,-681,11979,-229,-13,-488,-480,35705,-1,33,127,0,0,3324,-208,0,2328,445,120,12835,-4,0,78,16,325694,0
325717,285,-2041,379,-237,7,-606,11867,-246,-1,-424,-440,35707,-10,32,127,0,0,3309,-142,0,2328,445,120,12845,-4,0,78,16,325694,0
325727,208,-2099,366,-254,-7,-599,11755,-247,-14,-358,-344,35721,-2,32,127,0,0,3291,-197,0,2328,445,120,12855,-4,0,78,16,325741,0
325737,206,-2330,385,-212,-18,-597,11655,-210,21,-361,-288,35729,-2,32,127,0,0,3278,-131,0,2328,445,120,12865,-4,0,78,16,325741,0
325747,196,-2170,381,-163,-42,-542,11571,-186,58,-395,-296,35721,6,32,127,0,0,3267,-109,0,2328,445,120,12875,-4,0,78,16,325741,0
325757,143,-2098,387,-179,-37,-497,11491,-169,36,-310,-232,35708,20,33,127,0,0,3256,-120,0,2328,445,120,12885,-4,0,78,16,325741,0
325767,217,-2178,299,-257,24,-432,11437,-104,60,-364,-176,35700,15,32,127,0,0,3251,-21,0,2328,445,120,12895,-4,0,78,16,325741,0
325777,238,-2097,266,-264,42,-411,11406,-77,98,-321,-80,35708,3,32,127,0,0,3251,10,0,2328,445,120,12905,-4,0,78,16,325772,0
325787,238,-1992,244,-210,-31,-434,11376,-38,39,-223,-80,35718,-7,32,127,0,0,3251,21,0,2328,445,120,12915,-4,0,78,16,325772,0
325797,392,-2091,205,-163,-55,-402,11381,9,75,-273,-88,35719,-26,32,127,0,0,3249,-10,0,2328,445,120,12925,-4,0,78,16,325772,0
325807,300,-2056,257,-143,-74,-360,11378,0,35,-284,-40,35722,-26,32,127,0,0,3254,65,0,2328,445,120,12935,-4,0,78,16,325803,0
325817,231,-2134,320,-152,-85,-283,11383,-1,2,-171,-40,35728,-29,32,127,0,0,3258,54,0,2328,445,120,12945,-4,0,78,16,325803,0
325827,202,-2142,330,-172,-42,-283,11393,50,24,103,40,35732,-29,32,127,0,0,3267,65,0,2328,445,120,12955,-4,0,78,16,325834,0
325837,278,-2059,310,-167,-53,-298,11407,36,27,301,64,35730,-17,33,127,0,0,3271,21,0,2328,445,120,12965,-4,0,78,16,325834,0
325847,279,-2019,286,-146,-67,-300,11426,51,10,345,112,35717,-18,33,127,0,0,3280,87,0,2328,445,120,12975,-4,0,78,16,325834,0
325857,286,-1983,255,-133,-101,-286,11481,139,90,178,120,35714,-16,33,127,0,0,3287,76,0,2328,445,120,12985,-4,0,78,16,325834,0
325868,331,-1969,290,-130,-125,-299,11534,79,42,104,56,35712,-16,33,127,0,0,3298,76,0,2328,445,120,12996,-4,0,78,16,325866,0
325878,288,-1986,334,-130,-156,-308,11535,-9,-126,375,144,35719,1,33,127,0,0,3300,93,0,2328,445,120,13006,-4,0,78,16,325866,0
325888,280,-2041,335,-146,-154,-301,11546,28,-60,461,168,35719,19,33,127,0,0,3304,5,0,2328,445,120,13016,-4,0,78,16,325881,0
325898,315,-2060,321,-158,-119,-305,11584,108,76,356,144,35714,18,32,127,0,0,3312,16,0,2328,445,120,13026,-4,0,78,16,325881,0
325908,365,-2050,286,-168,-106,-285,11628,100,67,278,104,35717,16,32,127,0,0,3316,49,0,2328,445,120,13036,-4,0,78,16,325897,0
325918,338,-2005,237,-152,-106,-270,11674,82,13,189,56,35728,10,32,127,0,0,3324,49,0,2328,445,120,13046,-4,0,78,16,325897,0
325928,297,-1981,218,-122,-83,-304,11709,76,-26,150,80,35725,-1,33,127,0,0,3326,49,0,2328,445,120,13056,-4,0,78,16,325913,0
325938,317,-1991,208,-109,-49,-305,11721,3,-64,263,72,35723,4,32,127,0,0,3325,-27,0,2328,445,120,13066,-4,0,78,16,325928,0
325948,303,-1972,246,-104,-16,-345,11723,24,-64,382,112,35718,-12,32,127,0,0,3333,-27,0,2328,445,120,13076,-4,0,78,16,325928,0
325958,303,-2016,301,-125,21,-355,11729,4,-4,356,104,35733,-4,32,127,0,0,3333,43,0,2328,445,120,13086,-4,0,78,16,325959,0
325968,315,-2040,322,-125,40,-353,11730,6,-5,418,120,35731,-8,32,127,0,0,3335,32,0,2328,445,120,13096,-4,0,78,16,325959,0
325978,367,-2031,360,-136,40,-332,11744,25,20,330,96,35723,-2,32,127,0,0,3335,43,0,2328,445,120,13106,-4,0,78,16,325959,0
325988,374,-2026,380,-154,23,-340,11770,68,42,222,48,35715,-1,33,127,0,0,3338,27,0,2328,445,120,13116,-4,0,78,16,325975,0
325998,377,-2033,382,-171,13,-350,11780,2,-5,214,48,35724,18,33,127,0,0,3337,-27,0,2328,445,120,13126,-4,0,78,16,325991,0
326008,346,-2017,360,-172,1,-369,11778,13,-56,222,48,35732,34,32,127,0,0,3340,27,0,2328,445,120,13136,-4,0,78,16,325991,0
326018,368,-2049,347,-171,-14,-370,11779,-5,-8,238,48,35727,33,32,127,0,0,3337,-16,0,2328,445,120,13146,-4,0,78,16,326069,0
326028,363,-2049,344,-171,-38,-368,11777,0,-3,190,48,35722,16,32,127,0,0,3337,0,0,2328,445,120,13156,-4,0,78,16,326069,0
326038,304,-2059,356,-170,-51,-389,11776,-10,3,151,32,35714,10,33,127,0,0,3335,-16,0,2328,445,120,13166,-4,0,78,16,326069,0
326048,269,-2054,354,-180,-53,-415,11776,-4,0,130,32,35723,-3,32,127,0,0,3335,0,0,2328,445,120,13176,-4,0,78,16,326069,0
326058,256,-2052,326,-193,-29,-469,11776,-9,3,140,56,35719,20,32,127,0,0,3334,5,0,2328,445,120,13186,-4,0,78,16,326069,0
326068,268,-2076,289,-199,-4,-484,11777,-1,-7,143,32,35717,31,32,127,0,0,3335,0,0,2328,445,120,13196,-4,0,78,16,326084,0
326078,304,-2096,242,-211,40,-513,11774,-16,-6,67,8,35717,25,32,127,0,0,3329,-32,0,2328,445,120,13206,-4,0,78,16,326084,0
326088,315,-2084,226,-211,55,-539,11774,7,4,20,-8,35716,14,33,127,0,0,3334,10,0,2328,445,120,13216,-4,0,78,16,326084,0
326098,303,-2088,213,-212,93,-592,11773,-1,5,16,-8,35716,15,33,127,0,0,3331,10,0,2328,445,120,13226,-4,0,78,16,326084,0
326108,319,-2100,210,-206,114,-605,11773,-4,-2,-10,-8,35720,26,33,127,0,0,3331,0,0,2328,445,120,13236,-4,0,78,16,326147,0
326119,359,-2067,191,-181,144,-617,11773,6,3,-7,-8,35734,30,33,127,0,0,3328,-21,0,2328,445,120,13247,-4,0,78,16,326147,0
326129,422,-2006,143,-161,181,-614,11771,-5,-4,-86,16,35748,34,33,127,0,0,3331,21,0,2328,445,120,13257,-4,0,78,16,326163,0
326139,456,-2020,125,-171,228,-613,11772,0,4,-22,-16,35748,27,33,127,0,0,3333,32,0,2328,445,120,13267,-4,0,78,16,326163,0
326149,493,-2013,165,-169,283,-616,11770,-10,0,43,16,35738,34,33,127,0,0,3333,32,0,2328,445,120,13277,-4,0,78,16,326163,0
326159,519,-1979,197,-154,279,-609,11771,-9,-6,24,-16,35724,39,32,127,0,0,3333,21,0,2328,445,120,13287,-4,0,78,16,326163,0
326169,510,-1938,186,-160,278,-601,11774,4,4,58,0,35720,24,32,127,0,0,3335,32,0,2328,445,120,13297,-4,0,78,16,326163,0
326179,492,-1918,190,-198,256,-593,11774,0,3,119,0,35721,28,32,127,0,0,3335,21,0,2328,445,120,13307,-4,0,78,16,326163,0
326189,515,-1925,235,-192,284,-615,11776,8,1,180,32,35728,24,33,127,0,0,3335,0,0,2328,445,120,13317,-4,0,78,16,326163,0
326199,516,-1912,236,-177,290,-645,11776,-3,1,192,32,35743,27,33,127,0,0,3337,21,0,2328,445,120,13327,-4,0,78,16,326194,0
326209,570,-1890,289,-170,250,-636,11775,0,-4,196,32,35748,22,33,127,0,0,3335,-10,0,2328,445,120,13337,-4,0,78,16,326209,0
326219,551,-1898,376,-188,211,-612,11774,-2,-3,142,32,35744,23,33,127,0,0,3335,10,0,2328,445,120,13347,-4,0,78,16,326209,0
326229,502,-1959,482,-206,107,-633,11774,-4,3,87,8,35729,28,33,127,0,0,3333,0,0,2328,445,120,13357,-4,0,78,16,326209,0
326239,507,-1989,505,-214,83,-688,11776,11,6,72,-8,35725,35,32,127,0,0,3328,-65,0,2328,445,120,13367,-4,0,78,16,326225,0
326249,512,-1936,516,-219,53,-828,11770,-7,-3,-74,-24,35733,34,32,127,0,0,3322,-109,0,2328,445,120,13377,-4,0,78,16,326241,0
326259,583,-1922,482,-222,19,-874,11758,-42,-25,-327,-128,35744,36,32,127,0,0,3311,-120,0,2328,445,120,13387,-4,0,78,16,326256,0
326269,616,-1920,409,-238,-30,-892,11727,-94,-55,-413,-240,35741,30,33,127,0,0,3298,-142,0,2328,445,120,13397,-4,0,78,16,326256,0
326279,610,-1915,350,-240,-70,-898,11660,-145,-110,-397,-256,35724,22,33,127,0,0,3280,-153,0,2328,445,120,13407,-4,0,78,16,326256,0
326289,670,-1974,286,-210,-114,-904,11589,-157,-63,-426,-280,35718,5,32,127,0,0,3265,-164,0,2328,445,120,13417,-4,0,78,16,326287,0
326299,655,-1934,262,-180,-141,-918,11499,-212,-50,-367,-328,35729,6,32,127,0,0,3247,-164,0,2328,445,120,13427,-4,0,78,16,326287,0
326309,654,-1958,224,-171,-152,-946,11421,-162,-16,-450,-344,35727,12,32,127,0,0,3227,-186,0,2328,445,120,13437,-4,0,78,16,326287,0
326319,638,-2024,251,-215,-130,-988,11328,-218,-6,-432,-400,35717,2,33,127,0,0,3203,-241,0,2328,445,120,13447,-4,0,78,16,326303,0
326329,547,-1934,291,-288,-72,-985,11234,-209,-33,-498,-424,35708,-10,33,127,0,0,3183,-252,0,2328,445,120,13457,-4,0,78,16,326319,0
326339,629,-2002,275,-331,-38,-883,11130,-232,-22,-406,-400,35716,-31,33,127,0,0,3166,-197,0,2328,445,120,13467,-4,0,78,16,326319,0
326349,889,-2088,272,-311,-18,-836,11018,-234,-34,-370,-280,35714,-27,32,127,0,0,3155,-87,0,2328,445,120,13477,-4,0,78,16,326334,0
326359,946,-2041,256,-299,-15,-745,10924,-195,31,-294,-240,35721,-8,33,127,0,0,3144,-98,0,2328,445,120,13487,-4,0,78,16,326366,0
326370,1012,-1936,284,-318,-76,-511,10862,-95,113,-360,-184,35717,10,32,127,0,0,3140,-27,0,2328,445,120,13498,-4,0,78,16,326366,0
326380,1010,-1965,307,-314,-114,-378,10849,-16,154,-475,-136,35725,10,32,127,0,0,3139,21,0,2328,445,120,13508,-4,0,78,16,326366,0
326390,855,-2010,278,-314,-109,-326,10850,8,97,-447,-120,35722,4,32,127,0,0,3145,65,0,2328,445,120,13518,-4,0,78,16,326381,0
326400,794,-1997,277,-367,-71,-306,10854,11,24,-346,-80,35715,4,32,127,0,0,3146,32,0,2328,445,120,13528,-4,0,78,16,326381,0
326410,681,-1985,292,-463,-52,-227,10857,12,6,-180,24,35707,14,32,127,0,0,3157,126,0,2328,445,120,13538,-4,0,78,16,326412,0
326420,625,-2058,266,-490,-66,-141,10888,75,52,10,72,35711,3,32,127,0,0,3171,148,0,2328,445,120,13548,-4,0,78,16,326428,0
326430,584,-2134,259,-468,-44,-203,10928,123,74,282,160,35716,7,32,127,0,0,3189,126,0,2328,445,120,13558,-4,0,78,16,326428,0
326440,629,-2121,241,-463,-23,-244,10998,151,81,286,208,35722,10,32,127,0,0,3203,142,0,2328,445,120,13568,-4,0,78,16,326444,0
326450,566,-2046,293,-507,0,-322,11079,182,62,281,216,35717,32,32,127,0,0,3222,148,0,2328,445,120,13578,-4,0,78,16,326444,0
326460,578,-2048,287,-552,1,-358,11158,180,14,303,240,35712,17,32,127,0,0,3239,142,0,2328,445,120,13588,-4,0,78,16,326444,0
326470,511,-2050,242,-580,8,-395,11241,187,13,342,264,35731,6,32,127,0,0,3264,192,0,2328,445,120,13598,-4,0,78,16,326475,0
326480,530,-2049,200,-587,35,-457,11342,244,48,311,272,35742,1,32,127,0,0,3280,175,0,2328,445,120,13608,-4,0,78,16,326491,0
326490,559,-1976,171,-582,63,-550,11439,202,24,354,280,35736,-2,32,127,0,0,3300,186,0,2328,445,120,13618,-4,0,78,16,326491,0
326500,543,-1889,125,-564,57,-624,11539,229,-6,321,288,35716,5,32,127,0,0,3313,142,0,2328,445,120,13628,-4,0,78,16,326491,0
326510,616,-1887,69,-575,67,-717,11627,181,-9,325,232,35701,-3,32,127,0,0,3337,148,0,2328,445,120,13638,-4,0,78,16,326491,0
326520,614,-1896,100,-556,74,-754,11722,213,-11,308,232,35712,-2,33,127,0,0,3345,148,0,2328,445,120,13648,-4,0,78,16,326506,0
326530,665,-1889,147,-549,81,-818,11808,188,1,320,240,35725,0,33,127,0,0,3359,76,0,2328,445,120,13658,-4,0,78,16,326506,0
326540,844,-1695,131,-594,162,-843,11877,131,-52,311,192,35726,9,33,127,0,0,3371,93,0,2328,445,120,13668,-4,0,78,16,326537,0
326550,877,-1939,272,-699,-22,-711,11942,138,-40,314,200,35729,10,32,127,0,0,3384,120,0,2328,445,120,13678,-4,0,78,16,326537,0
326560,706,-2052,316,-699,-173,-692,12001,117,-21,390,256,35725,2,32,127,0,0,3405,219,0,2328,445,120,13688,-4,0,78,16,326537,0
326570,447,-2043,245,-559,-97,-859,12075,186,16,417,296,35721,1,32,127,0,0,3423,170,0,2328,445,120,13698,-4,0,-29,0,326553,0
326580,503,-1996,190,-506,2,-1005,12163,186,60,453,296,35723,6,32,127,0,0,3437,137,0,2328,445,120,13708,-4,0,-29,0,326553,0
326590,666,-1895,229,-509,36,-1142,12242,179,-3,330,224,35718,12,32,127,0,0,3443,120,0,2328,445,120,13718,-4,0,-29,0,326569,0
326600,801,-1914,201,-554,-3,-1154,12301,106,-50,327,160,35726,13,32,127,0,0,3453,76,0,2328,445,120,13728,-4,0,-29,0,326584,0
326611,785,-1940,144,-568,-93,-1150,12342,90,-87,324,192,35721,9,32,127,0,0,3460,109,0,2328,445,120,13739,-4,0,-29,0,326616,0
326621,781,-1956,113,-513,-101,-1186,12383,97,-15,412,256,35717,10,33,127,0,0,3473,120,0,2328,445,120,13749,-4,0,-29,0,326616,0
326631,745,-1934,133,-473,-94,-1186,12444,133,45,359,168,35716,38,32,127,0,0,3487,131,0,2328,445,120,13759,-4,0,-28,0,326616,0
326641,872,-1898,173,-475,-89,-1186,12510,142,46,397,232,35716,28,32,127,0,0,3500,109,0,2328,445,120,13769,-4,0,-28,0,326616,0
326651,860,-1867,154,-508,-99,-1173,12567,113,-13,438,288,35717,34,32,127,0,0,3515,175,0,2328,445,120,13779,-4,0,-28,0,326631,0
326661,832,-1857,140,-544,-115,-1199,12631,145,-5,447,280,35722,23,33,127,0,0,3531,175,0,2328,445,120,13789,-4,0,-28,0,326678,0
326671,862,-1885,128,-557,-106,-1208,12712,169,44,396,264,35718,14,32,127,0,0,3546,153,0,2328,445,120,13799,-4,0,-28,0,326694,0
326681,857,-1979,215,-549,-149,-1247,12791,187,20,414,312,35712,-1,32,127,0,0,3563,175,0,2328,445,120,13809,-4,0,-28,0,326694,0
326691,827,-1993,233,-523,-205,-1260,12880,182,17,378,304,35706,-11,32,127,0,0,3585,219,0,2328,445,120,13819,-4,0,-27,0,326694,0
326701,832,-1957,188,-493,-230,-1358,12956,170,-9,518,320,35703,-5,32,127,0,0,3601,197,0,2328,445,120,13829,-4,0,-27,0,326694,0
326711,824,-1914,158,-509,-241,-1387,13049,209,6,468,320,35699,2,33,127,0,0,3618,153,0,2328,445,120,13839,-4,0,-27,0,326694,0
326721,835,-1954,198,-517,-293,-1407,13142,209,31,472,416,35710,-4,32,127,0,0,3643,230,0,2328,445,120,13849,-4,0,-27,0,326694,0
326731,820,-1954,214,-532,-326,-1426,13256,269,45,453,496,35720,-8,32,127,0,0,3667,252,0,2328,445,120,13859,-4,0,-27,0,326725,0
326741,874,-1985,214,-512,-388,-1501,13375,253,44,453,472,35718,8,32,127,0,0,3695,296,0,2328,445,120,13869,-4,0,-27,0,326725,0
326751,826,-1973,183,-489,-431,-1576,13499,271,13,506,528,35709,15,32,127,0,0,3719,241,0,2328,445,120,13879,-4,0,-26,0,326741,0
326761,785,-1941,179,-514,-479,-1655,13635,312,42,461,552,35703,-3,33,127,0,0,3746,252,0,2328,445,120,13889,-4,0,-26,0,326741,0
326771,780,-1909,162,-530,-476,-1733,13773,313,29,493,552,35718,-10,33,127,0,0,3774,252,0,2328,445,120,13899,-4,0,-26,0,326756,0
326781,757,-1852,91,-571,-519,-1882,13910,295,1,488,624,35716,-23,33,127,0,0,3803,285,0,2328,445,120,13909,-4,0,-26,0,326787,0
326791,731,-1881,49,-570,-535,-2015,14064,353,32,434,568,35716,4,33,127,0,0,3829,263,0,2328,445,120,13919,-4,0,-26,0,326787,0
326801,731,-1906,-13,-549,-578,-2161,14213,325,22,418,560,35708,9,32,127,0,0,3860,296,0,2328,445,120,13929,-4,0,-25,0,326787,0
326811,676,-1932,-33,-526,-597,-2270,14358,329,-19,483,560,35708,10,33,127,0,0,3889,296,0,2328,445,120,13939,-4,0,-25,0,326787,0
326821,413,-1905,13,-480,-569,-2386,14508,334,10,488,584,35712,9,33,127,0,0,3913,252,0,2328,445,120,13949,-4,0,-25,0,326819,0
326831,417,-1955,122,-436,-695,-2266,14655,326,6,466,632,35715,12,32,127,0,0,3955,439,0,2328,445,120,13959,-4,0,-25,0,326819,0
326841,1044,-2319,13,-548,-700,-2705,14820,398,32,596,928,35717,12,32,127,0,0,4012,549,0,2328,445,120,13969,-4,0,-24,0,326834,0
326851,511,-2735,294,-556,-754,-2882,15021,446,109,471,824,35716,21,33,127,0,0,4036,241,0,2328,445,120,13979,-4,0,-24,0,326834,0
326861,638,-2762,453,-572,-1013,-2558,15208,417,35,482,912,35722,29,32,127,0,0,4093,626,0,2328,445,120,13989,-4,0,-24,0,326834,0
326872,859,-2933,431,-662,-1181,-2846,15434,496,21,713,1280,35728,17,33,127,0,0,4172,714,0,2328,445,120,14000,-4,0,-23,0,326865,0
326882,581,-3019,358,-706,-1288,-3304,15698,618,164,620,1392,35729,9,32,127,0,0,4234,626,0,2328,445,120,14010,-4,0,-23,0,326865,0
326892,286,-3027,312,-712,-1367,-3351,15978,617,134,592,1496,35716,16,32,127,0,0,4297,664,0,2328,445,120,14020,-4,0,-22,0,326881,0
326902,391,-3288,361,-793,-1496,-3476,16274,669,53,663,1736,35726,33,32,127,0,0,4376,840,0,2328,445,120,14030,-4,0,-22,0,326881,0
326912,356,-3480,436,-902,-1353,-3775,16611,763,116,649,1920,35725,36,32,127,0,0,4461,785,0,2328,445,120,14040,-4,0,-21,0,326912,0
326922,152,-3348,468,-1032,-1070,-3978,16975,821,129,629,1960,35725,52,32,127,0,0,4534,703,0,2328,445,120,14050,-4,0,-20,0,326912,0
326932,177,-3196,431,-1120,-906,-4049,17352,831,73,539,1968,35717,60,32,127,0,0,4609,763,0,2328,445,120,14060,-4,0,-19,0,326912,0
326942,342,-3229,512,-1191,-986,-3865,17737,863,36,638,2104,35719,54,32,127,0,0,4693,780,0,2328,445,120,14070,-4,0,-18,0,326944,0
326952,458,-3068,536,-1239,-971,-3497,18147,933,69,722,2376,35717,55,32,127,0,0,4804,1082,0,2328,445,120,14080,-4,0,-17,0,326944,0
326962,402,-2277,444,-1370,-842,-2699,18606,1055,154,878,2728,35706,60,33,127,0,0,4932,1329,0,2328,445,120,14090,-4,0,-15,0,326944,0
326972,373,-1755,418,-1446,-854,-2079,19136,1214,238,902,3192,35706,52,32,127,0,0,5078,1538,0,2328,445,120,14100,-4,0,-14,0,326975,0
326982,354,-966,166,-1379,-497,-1106,19743,1392,284,1050,3872,35697,67,33,127,0,0,5270,2005,0,2328,445,120,14110,-4,0,-12,0,326975,0
326992,1530,-1140,-550,-1292,926,-1259,20467,1680,380,1037,4552,35696,92,32,127,0,0,5443,1746,0,2328,445,120,14120,-4,0,-11,0,326975,0
327002,869,-931,-520,-892,2716,-2555,21258,1705,347,217,3472,35684,84,32,127,0,0,5439,-197,0,2328,445,120,14130,-4,0,-9,0,326990,0
327012,1225,-1185,-424,-496,3318,-2993,21930,1346,-296,-313,1216,35692,60,32,127,0,0,5316,-1439,0,2328,445,120,14140,-4,0,-7,0,326990,0
327022,1326,-1200,-33,-108,3561,-2843,22184,-5,-1057,-2697,-1280,35717,17,32,127,0,0,5147,-1801,0,2328,445,120,14150,-4,0,-5,0,327022,0
327032,1368,-1180,148,78,3580,-2778,21874,-863,-1817,-1198,-2776,35722,17,32,127,0,0,4935,-2120,0,2328,445,120,14160,-4,0,-4,0,327022,0
327042,1343,-1108,228,214,3060,-2081,21315,-1367,-1544,-1191,-3920,35704,58,32,127,0,0,4729,-2092,0,2328,445,120,14170,-4,0,-2,0,327022,0
327052,1351,-1088,206,280,2657,-1508,20585,-1692,-800,-898,-4568,35689,98,32,127,0,0,4552,-1829,0,2328,445,120,14180,-4,0,-1,0,327037,0
327062,1283,-1045,130,366,1980,-461,19758,-1868,-519,-541,-4664,35694,99,32,127,0,0,4387,-1571,0,2328,445,120,14190,-4,0,0,0,327037,0
327072,1314,-1030,96,458,1504,238,18883,-1935,-278,-320,-4384,35716,94,32,127,0,0,4253,-1296,0,2328,445,120,14200,-4,0,2,0,327069,0
327082,1386,-957,66,619,900,1253,18036,-1821,-42,-119,-3824,35723,67,32,127,0,0,4157,-1010,0,2328,445,120,14210,-4,0,4,0,327069,0
327092,1430,-908,31,704,635,1843,17273,-1607,224,-55,-3216,35717,55,32,127,0,0,4058,-933,0,2328,445,120,14220,-4,0,5,0,327069,0
327102,1461,-806,-21,794,435,2565,16612,-1391,356,-79,-2896,35727,25,32,127,0,0,3950,-1131,0,2328,445,120,14230,-4,0,7,0,327084,0
327113,1386,-665,10,841,401,3229,16016,-1287,313,-289,-3008,35734,22,32,127,0,0,3814,-1318,0,2328,445,120,14241,-4,0,9,0,327100,0
327123,1318,-614,9,853,367,3694,15418,-1351,101,-558,-3296,35732,33,32,127,0,0,3671,-1461,0,2328,445,120,14251,-4,0,10,0,327162,0
327133,1197,-587,7,841,243,4451,14759,-1496,-149,-611,-3552,35717,51,32,127,0,0,3515,-1538,0,2328,445,120,14261,-4,0,12,0,327178,0
327143,1119,-644,52,804,88,5005,14049,-1574,-218,-477,-3672,35704,69,32,127,0,0,3370,-1461,0,2328,445,120,14271,-4,0,14,0,327178,0
327153,1054,-814,109,773,-141,5837,13339,-1552,-78,-388,-3592,35699,64,33,127,0,0,3247,-1197,0,2328,445,120,14281,-4,0,16,0,327178,0
327163,1022,-921,138,799,-215,6357,12659,-1477,72,-340,-3488,35697,62,33,127,0,0,3137,-1076,0,2328,445,120,14291,-4,0,17,0,327178,0
327173,918,-1156,151,877,-330,6989,12024,-1364,145,-266,-3104,35697,58,33,127,0,0,3049,-878,0,2328,445,120,14301,-4,0,19,0,327178,0
327183,876,-1268,217,916,-387,7313,11445,-1239,195,-233,-2648,35706,47,33,127,0,0,2988,-593,0,2328,445,120,14311,-4,0,21,0,327178,0
327193,897,-1407,230,947,-401,7687,10935,-1066,238,-172,-2120,35713,42,32,127,0,0,2942,-439,0,2328,445,120,14321,-4,0,23,35,327178,0
327203,940,-1532,191,977,-336,7890,10509,-877,301,-184,-1648,35713,25,33,127,0,0,2906,-351,0,2328,445,120,14331,-4,0,24,31,327178,0
327213,969,-1709,204,1028,-125,8146,10163,-721,313,-200,-1184,35722,21,33,127,0,0,2880,-241,0,2328,445,120,14341,-4,0,27,24,327225,0
327223,951,-1817,271,1071,23,8262,9894,-548,295,-238,-848,35727,13,32,127,0,0,2865,-164,0,2328,445,120,14351,-4,0,28,21,327225,0
327233,921,-1975,390,1165,223,8332,9685,-422,258,-291,-528,35726,7,32,127,0,0,2856,-43,0,2328,445,120,14361,-4,0,30,16,327225,0
327243,971,-2056,340,1267,419,8283,9531,-309,216,-218,-240,35723,7,32,127,0,0,2856,0,0,2328,445,120,14371,-4,0,32,14,327225,0
327253,954,-2134,215,1423,824,8162,9438,-144,228,-67,-64,35719,9,32,127,0,0,2856,0,0,2328,445,120,14381,-4,0,34,10,327240,0
327263,891,-2171,144,1542,1154,8125,9428,21,290,-99,-16,35739,24,32,127,0,0,2858,21,0,2328,445,120,14391,-4,0,36,8,327256,0
327273,884,-2162,69,1674,1569,8159,9435,5,169,84,80,35751,24,33,127,0,0,2874,142,0,2328,445,120,14401,-4,0,38,6,327256,0
327283,896,-2163,112,1702,1734,8149,9458,76,44,426,256,35744,34,33,127,0,0,2902,296,0,2328,445,120,14411,-4,0,40,5,327272,0
327293,868,-2216,231,1692,1853,8035,9543,240,169,402,400,35723,20,33,127,0,0,2935,318,0,2328,445,120,14421,-4,0,42,3,327287,0
327303,870,-2275,284,1641,1815,7972,9669,299,201,409,552,35714,9,33,127,0,0,2979,450,0,2328,445,120,14431,-4,0,43,2,327287,0
