state_time,accelx,accely,accelz,gyrox,gyroy,gyroz,mot_ang,mot_vel,mot_acc,mot_cur,mot_volt,batt_volt,batt_curr,temperature,status_mn,status_ex,status_re,ank_ang,ank_vel,ank_torque,peak_ank_torque,step_energy,step_count,step_time,gait_state,movement,speed,incline,sys_time,eventFlags
581171,68,-2058,352,-86,34,126,13426,-12,-3,202,40,35508,-12,34,127,0,0,3658,21,0,9588,-821,242,4739,-4,0,11,0,581237,0
581181,66,-2050,358,-96,31,128,13427,0,2,203,24,35507,-16,34,127,0,0,3656,-10,0,9588,-821,242,4749,-4,0,11,0,581237,0
581191,42,-2059,365,-96,39,124,13426,6,-1,199,24,35513,-5,34,127,0,0,3658,10,0,9588,-821,242,4759,-4,0,11,0,581237,0
581201,50,-2058,351,-99,35,126,13427,7,0,235,24,35513,-12,34,127,0,0,3656,-32,0,9588,-821,242,4769,-4,0,11,0,581237,0
581211,42,-2058,350,-92,44,126,13425,2,3,182,40,35518,-23,34,127,0,0,3656,0,0,9588,-821,242,4779,-4,0,11,0,581237,0
581221,58,-2064,351,-92,36,118,13426,-4,-1,180,40,35516,-26,34,127,0,0,3656,0,0,9588,-821,242,4789,-4,0,11,0,581237,0
581231,49,-2060,350,-96,38,125,13427,3,4,199,24,35512,-28,34,127,0,0,3656,-10,0,9588,-821,242,4799,-4,0,11,0,581237,0
581241,34,-2056,357,-95,35,125,13426,0,4,180,40,35507,-18,34,127,0,0,3656,0,0,9588,-821,242,4809,-4,0,11,0,581237,0
581251,43,-2059,359,-99,31,125,13426,-3,1,198,24,35514,-9,34,127,0,0,3656,-10,0,9588,-821,242,4819,-4,0,11,0,581237,0
581261,46,-2058,355,-98,48,126,13426,1,0,180,40,35514,-3,34,127,0,0,3656,0,0,9588,-821,242,4829,-4,0,11,0,581237,0
581271,53,-2057,352,-101,36,119,13425,-1,2,193,72,35521,4,34,127,0,0,3656,-10,0,9588,-821,242,4839,-4,0,11,0,581252,0
581281,56,-2060,346,-98,35,114,13425,-3,0,188,72,35517,-9,34,127,0,0,3656,10,0,9588,-821,242,4849,-4,0,11,0,581252,0
581291,75,-2058,352,-100,36,117,13426,-11,0,184,40,35510,-18,34,127,0,0,3656,0,0,9588,-821,242,4859,-4,0,11,0,581268,0
581301,41,-2054,356,-99,42,120,13426,1,2,186,40,35515,3,34,127,0,0,3656,-21,0,9588,-821,242,4869,-4,0,11,0,581283,0
581311,53,-2058,357,-100,42,123,13426,2,-3,179,40,35515,-6,34,127,0,0,3656,10,0,9588,-821,242,4879,-4,0,11,0,581299,0
581321,54,-2066,342,-98,30,112,13426,-3,2,188,40,35519,-2,34,127,0,0,3656,0,0,9588,-821,242,4889,-4,0,11,0,581315,0
581331,58,-2066,346,-102,41,118,13426,1,3,179,40,35514,-18,34,127,0,0,3656,0,0,9588,-821,242,4899,-4,0,11,0,581315,0
581341,55,-2060,352,-101,39,123,13426,-2,-3,180,40,35503,-15,34,127,0,0,3656,0,0,9588,-821,242,4909,-4,0,11,0,581315,0
581351,45,-2067,347,-104,37,120,13427,0,-2,182,40,35508,-7,34,127,0,0,3656,-10,0,9588,-821,242,4919,-4,0,11,0,581330,0
581361,34,-2059,352,-103,35,126,13427,12,-1,157,40,35508,-13,34,127,0,0,3654,-21,0,9588,-821,242,4929,-4,0,11,0,581330,0
581371,60,-2060,352,-101,33,125,13424,-7,-4,117,56,35509,-19,34,127,0,0,3656,10,0,9588,-821,242,4939,-4,0,11,0,581362,0
581381,57,-2064,347,-103,32,117,13425,-2,2,176,40,35502,-27,34,127,0,0,3656,0,0,9588,-821,242,4949,-4,0,11,0,581362,0
581391,51,-2058,344,-103,31,129,13425,0,5,179,40,35502,-18,34,127,0,0,3656,0,0,9588,-821,242,4959,-4,0,11,0,581362,0
581402,50,-2058,352,-99,37,122,13426,4,-4,180,40,35512,-20,34,127,0,0,3656,0,0,9588,-821,242,4970,-4,0,11,0,581408,0
581412,56,-2058,343,-100,40,121,13425,-2,-1,181,40,35510,-13,34,127,0,0,3656,0,0,9588,-821,242,4980,-4,0,11,0,581408,0
581422,52,-2062,352,-97,40,123,13425,2,-1,183,16,35509,-18,34,127,0,0,3657,-5,0,9588,-821,242,4990,-4,0,11,0,581440,0
581432,30,-2062,353,-95,35,118,13425,0,1,179,40,35507,-19,34,127,0,0,3656,0,0,9588,-821,242,5000,-4,0,11,0,581455,0
581442,53,-2069,347,-100,43,120,13425,-3,2,183,16,35507,-20,34,127,0,0,3657,-5,0,9588,-821,242,5010,-4,0,11,0,581455,0
581452,30,-2059,344,-97,35,118,13426,7,-1,179,-8,35503,-23,34,127,0,0,3655,-43,0,9588,-821,242,5020,-4,0,11,0,581455,0
581462,11,-2062,352,-104,41,123,13425,16,0,166,40,35501,-11,34,127,0,0,3656,-10,0,9588,-821,242,5030,-4,0,11,0,581455,0
581472,45,-2055,355,-93,41,119,13423,-8,-1,160,16,35497,-9,34,127,0,0,3657,10,0,9588,-821,242,5040,-4,0,11,0,581455,0
581482,59,-2065,349,-108,35,119,13424,-3,2,153,40,35495,-4,34,127,0,0,3656,5,0,9588,-821,242,5050,-4,0,11,0,581455,0
581492,29,-2055,350,-104,35,129,13425,4,3,179,16,35504,-17,34,127,0,0,3654,-38,0,9588,-821,242,5060,-4,0,11,0,581471,0
581502,27,-2065,349,-99,39,123,13424,6,-2,137,48,35518,-12,34,127,0,0,3652,-27,0,9588,-821,242,5070,-4,0,11,0,581487,0
581512,71,-2068,344,-96,40,116,13422,-9,-3,125,48,35519,-7,34,127,0,0,3656,43,0,9588,-821,242,5080,-4,0,11,0,581487,0
581522,55,-2053,349,-99,39,125,13423,-18,3,149,16,35521,-3,34,127,0,0,3654,-21,0,9588,-821,242,5090,-4,0,11,0,581502,0
581532,58,-2056,343,-103,37,119,13423,-2,0,103,16,35515,-6,34,127,0,0,3657,16,0,9588,-821,242,5100,-4,0,11,0,581502,0
581542,70,-2058,344,-105,35,120,13425,4,4,167,40,35509,-9,34,127,0,0,3656,5,0,9588,-821,242,5110,-4,0,11,0,581533,0
581552,39,-2063,346,-101,36,131,13425,4,0,165,40,35510,-13,34,127,0,0,3652,-16,0,9588,-821,242,5120,-4,0,11,0,581533,0
581562,64,-2062,347,-104,39,117,13423,-5,-3,117,48,35498,-22,34,127,0,0,3656,32,0,9588,-821,242,5130,-4,0,11,0,581533,0
581572,86,-2067,347,-100,36,116,13424,-4,4,198,40,35513,-24,34,127,0,0,3656,-5,0,9588,-821,242,5140,-4,0,11,0,581549,0
581582,43,-2060,341,-98,40,122,13424,-8,-4,185,40,35512,-13,34,127,0,0,3656,0,0,9588,-821,242,5150,-4,0,11,0,581565,0
581592,49,-2061,351,-102,37,128,13423,-9,-4,131,24,35509,-29,34,127,0,0,3657,38,0,9588,-821,242,5160,-4,0,11,0,581565,0
581602,43,-2065,344,-101,35,131,13426,6,3,200,40,35510,-31,34,127,0,0,3652,-60,0,9588,-821,242,5170,-4,0,11,0,581580,0
581612,40,-2054,342,-101,33,125,13424,5,-2,145,24,35508,-33,34,127,0,0,3654,-21,0,9588,-821,242,5180,-4,0,11,0,581580,0
581622,15,-2057,347,-97,41,124,13423,5,-6,144,48,35516,-25,34,127,0,0,3652,-16,0,9588,-821,242,5190,-4,0,11,0,581596,0
581632,71,-2056,344,-96,32,119,13423,-5,1,155,24,35516,-14,34,127,0,0,3657,-16,0,9588,-821,242,5200,-4,0,11,0,581612,0
581642,42,-2058,348,-98,36,135,13424,0,3,185,40,35507,-8,34,127,0,0,3659,32,0,9588,-821,242,5210,-4,0,11,0,581612,0
581653,58,-2060,343,-95,41,120,13425,1,4,203,40,35506,-6,34,127,0,0,3656,0,0,9588,-821,242,5221,-4,0,11,0,581627,0
581663,60,-2068,343,-97,39,125,13424,-3,-5,157,56,35504,-14,34,127,0,0,3656,10,0,9588,-821,242,5231,-4,0,11,0,581627,0
581673,62,-2061,348,-96,40,125,13424,2,-2,186,40,35501,-28,34,127,0,0,3656,0,0,9588,-821,242,5241,-4,0,11,0,581658,0
581683,56,-2059,351,-102,46,125,13425,-3,3,186,40,35503,-28,34,127,0,0,3658,21,0,9588,-821,242,5251,-4,0,11,0,581658,0
581693,57,-2060,344,-95,42,131,13426,2,-5,227,32,35495,-23,34,127,0,0,3656,-10,0,9588,-821,242,5261,-4,0,11,0,581674,0
581703,47,-2063,341,-99,36,124,13425,0,1,184,40,35501,-31,34,127,0,0,3656,0,0,9588,-821,242,5271,-4,0,11,0,581690,0
581713,42,-2061,337,-92,38,122,13424,-3,2,182,40,35494,-48,34,127,0,0,3656,0,0,9588,-821,242,5281,-4,0,11,0,581690,0
581723,41,-2058,342,-95,44,123,13423,-11,-3,160,48,35498,-58,34,127,0,0,3656,21,0,9588,-821,242,5291,-4,0,11,0,581705,0
581733,49,-2067,342,-94,36,119,13424,-10,0,191,40,35492,-38,34,127,0,0,3656,0,0,9588,-821,242,5301,-4,0,11,0,581705,0
581743,59,-2053,345,-98,35,122,13425,3,4,215,64,35492,-44,34,127,0,0,3656,-10,0,9588,-821,242,5311,-4,0,11,0,581737,0
581753,34,-2057,340,-92,33,121,13423,-13,-5,190,40,35504,-41,34,127,0,0,3658,21,0,9588,-821,242,5321,-4,0,11,0,581737,0
581763,45,-2055,348,-95,43,123,13425,-4,-1,199,40,35506,-36,34,127,0,0,3656,0,0,9588,-821,242,5331,-4,0,11,0,581737,0
581773,55,-2063,343,-89,32,118,13425,3,2,188,40,35512,-31,34,127,0,0,3656,0,0,9588,-821,242,5341,-4,0,11,0,581752,0
581783,45,-2059,343,-96,40,120,13425,-2,-1,189,40,35507,-16,34,127,0,0,3656,10,0,9588,-821,242,5351,-4,0,11,0,581752,0
581793,62,-2064,347,-94,32,118,13424,-3,-1,190,40,35498,-18,34,127,0,0,3656,10,0,9588,-821,242,5361,-4,0,11,0,581846,0
581803,63,-2067,347,-97,35,119,13424,-8,0,200,40,35504,-4,34,127,0,0,3656,0,0,9588,-821,242,5371,-4,0,11,0,581846,0
581813,54,-2056,339,-97,32,120,13423,-10,-1,178,8,35499,-4,34,127,0,0,3656,0,0,9588,-821,242,5381,-4,0,11,0,581846,0
581823,38,-2059,347,-95,33,128,13425,4,-1,181,40,35504,-9,34,127,0,0,3656,-10,0,9588,-821,242,5391,-4,0,11,0,581846,0
581833,37,-2066,346,-97,35,122,13426,15,-4,179,40,35497,-17,34,127,0,0,3656,0,0,9588,-821,242,5401,-4,0,11,0,581846,0
581843,39,-2061,346,-93,30,126,13423,-6,0,170,40,35496,-26,34,127,0,0,3656,32,0,9588,-821,242,5411,-4,0,11,0,581861,0
581853,63,-2060,338,-94,36,126,13425,-5,4,216,40,35493,-28,34,127,0,0,3656,-10,0,9588,-821,242,5421,-4,0,11,0,581861,0
581863,65,-2054,338,-97,35,131,13425,-4,2,204,40,35496,-27,34,127,0,0,3656,0,0,9588,-821,242,5431,-4,0,11,0,581861,0
581873,60,-2059,339,-94,33,128,13423,-7,-4,176,40,35497,-25,34,127,0,0,3654,-21,0,9588,-821,242,5441,-4,0,11,0,581861,0
581883,69,-2061,341,-94,32,129,13424,7,0,168,40,35498,-23,34,127,0,0,3656,0,0,9588,-821,242,5451,-4,0,11,0,581861,0
581893,40,-2067,347,-93,43,140,13425,5,-2,187,40,35506,-23,34,127,0,0,3656,0,0,9588,-821,242,5461,-4,0,11,0,581861,0
581904,48,-2056,345,-91,45,135,13424,0,3,183,64,35516,-18,34,127,0,0,3655,5,0,9588,-821,242,5472,-4,0,11,0,581893,0
581914,61,-2060,342,-89,41,136,13424,0,2,210,40,35529,-14,34,127,0,0,3659,10,0,9588,-821,242,5482,-4,0,11,0,581908,0
581924,48,-2060,344,-92,40,140,13425,-5,-2,235,64,35518,-12,34,127,0,0,3655,-5,0,9588,-821,242,5492,-4,0,11,0,581908,0
581934,54,-2060,340,-90,34,140,13426,5,1,222,88,35509,-22,34,127,0,0,3660,54,0,9588,-821,242,5502,-4,0,11,0,581908,0
581944,50,-2058,344,-91,30,141,13424,-14,-1,255,88,35505,-9,34,127,0,0,3660,49,0,9588,-821,242,5512,-4,0,11,0,581924,0
581954,65,-2062,348,-92,31,137,13425,-7,-3,257,88,35505,-8,34,127,0,0,3660,49,0,9588,-821,242,5522,-4,0,11,0,581940,0
581964,27,-2059,346,-94,30,137,13426,-4,1,292,88,35517,-3,34,127,0,0,3660,27,0,9588,-821,242,5532,-4,0,11,0,581940,0
581974,40,-2063,335,-93,27,124,13426,-4,-3,295,88,35513,2,34,127,0,0,3663,49,0,9588,-821,242,5542,-4,0,11,0,581940,0
581984,38,-2063,335,-94,37,125,13427,2,-1,327,80,35514,3,34,127,0,0,3660,10,0,9588,-821,242,5552,-4,0,11,0,581971,0
581994,43,-2065,338,-94,34,113,13427,-3,3,304,80,35512,-3,34,127,0,0,3660,5,0,9588,-821,242,5562,-4,0,11,0,581971,0
582004,36,-2063,337,-91,35,113,13427,5,-2,311,80,35506,-26,34,127,0,0,3660,0,0,9588,-821,242,5572,-4,0,11,0,581971,0
582014,49,-2066,340,-95,32,105,13426,-4,-1,283,88,35515,-26,34,127,0,0,3660,21,0,9588,-821,242,5582,-4,0,11,0,582002,0
582024,44,-2054,341,-87,31,110,13427,0,2,304,104,35509,-6,34,127,0,0,3656,-27,0,9588,-821,242,5592,-4,0,11,0,582002,0
582034,47,-2067,341,-88,33,98,13427,2,3,305,104,35515,1,34,127,0,0,3659,-10,0,9588,-821,242,5602,-4,0,11,0,582033,0
582044,64,-2062,338,-88,32,95,13426,-8,-3,317,88,35507,-2,34,127,0,0,3660,0,0,9588,-821,242,5612,-4,0,11,0,582049,0
582054,55,-2058,339,-89,29,93,13426,-5,0,265,88,35507,-19,34,127,0,0,3660,49,0,9588,-821,242,5622,-4,0,11,0,582049,0
582064,53,-2061,345,-89,33,103,13428,0,1,296,56,35503,-23,34,127,0,0,3655,-43,0,9588,-821,242,5632,-4,0,11,0,582049,0
582074,34,-2060,345,-91,28,92,13426,-3,-7,217,40,35506,-25,34,127,0,0,3659,-10,0,9588,-821,242,5642,-4,0,11,0,582049,0
582084,42,-2063,350,-92,29,100,13425,-2,1,253,88,35513,-34,34,127,0,0,3657,0,0,9588,-821,242,5652,-4,0,11,0,582049,0
582094,54,-2061,346,-98,23,96,13425,-11,-2,236,64,35520,-24,34,127,0,0,3661,43,0,9588,-821,242,5662,-4,0,11,0,582096,0
582104,55,-2061,350,-99,27,94,13426,-6,-2,252,64,35525,-11,34,127,0,0,3658,10,0,9588,-821,242,5672,-4,0,11,0,582096,0
582114,57,-2057,348,-103,36,90,13425,1,-3,206,40,35527,6,34,127,0,0,3659,16,0,9588,-821,242,5682,-4,0,11,0,582096,0
582124,28,-2062,341,-104,27,80,13426,3,-1,245,64,35527,-1,34,127,0,0,3655,-32,0,9588,-821,242,5692,-4,0,11,0,582096,0
582134,48,-2057,337,-98,34,80,13424,-3,-3,185,40,35530,-6,34,127,0,0,3656,0,0,9588,-821,242,5702,-4,0,11,0,582111,0
582144,57,-2065,346,-103,32,78,13424,-10,-3,144,40,35535,-17,34,127,0,0,3656,16,0,9588,-821,242,5712,-4,0,11,0,582111,0
582155,56,-2062,341,-106,31,81,13424,-8,3,111,32,35530,-17,34,127,0,0,3656,21,0,9588,-821,242,5723,-4,0,11,0,582205,0
582165,75,-2057,344,-103,23,83,13423,-7,3,91,-48,35530,-9,34,127,0,0,3651,-21,0,9588,-821,242,5733,-4,0,11,0,582205,0
582175,25,-2063,341,-99,33,71,13418,-4,-5,-49,32,35522,-6,34,127,0,0,3649,10,0,9588,-821,242,5743,-4,0,11,0,582205,0
582185,62,-2058,340,-99,31,67,13417,-7,4,-51,-16,35513,-24,34,127,0,0,3647,-21,0,9588,-821,242,5753,-4,0,11,0,582221,0
582195,65,-2061,341,-99,43,67,13418,0,1,-72,-88,35500,-21,34,127,0,0,3647,-32,0,9588,-821,242,5763,-4,0,11,0,582221,0
582205,55,-2062,344,-106,38,63,13411,-15,-13,-119,-24,35499,-18,34,127,0,0,3647,21,0,9588,-821,242,5773,-4,0,11,0,582221,0
582215,61,-2060,342,-102,42,69,13412,-1,4,-163,-48,35502,-21,34,127,0,0,3645,0,0,9588,-821,242,5783,-4,0,11,0,582221,0
582225,45,-2063,337,-104,38,65,13411,7,6,-130,-64,35506,-21,34,127,0,0,3647,10,0,9588,-821,242,5793,-4,0,11,0,582221,0
582235,46,-2064,342,-107,34,64,13409,-7,-2,-205,-72,35502,-22,34,127,0,0,3643,-10,0,9588,-821,242,5803,-4,0,11,0,582221,0
582245,30,-2058,342,-113,35,61,13405,5,-4,-250,-80,35500,-6,34,127,0,0,3640,-10,0,9588,-821,242,5813,-4,0,11,0,582221,0
582255,55,-2056,336,-113,40,52,13403,1,6,-273,-80,35513,-5,34,127,0,0,3640,-10,0,9588,-821,242,5823,-4,0,11,0,582236,0
582265,53,-2058,341,-110,41,54,13401,-1,5,-293,-112,35527,0,34,127,0,0,3640,-21,0,9588,-821,242,5833,-4,0,11,0,582252,0
582275,51,-2059,346,-112,35,45,13396,-14,-12,-303,-208,35540,7,34,127,0,0,3636,-32,0,9588,-821,242,5843,-4,0,11,0,582252,0
582285,55,-2059,338,-106,34,55,13378,-49,-34,-314,-104,35534,13,34,127,0,0,3634,-32,0,9588,-821,242,5853,-4,0,11,0,582252,0
582295,59,-2057,330,-105,32,42,13341,-79,-63,-150,-48,35518,13,34,127,0,0,3632,0,0,9588,-821,242,5863,-4,0,11,0,582283,0
582305,62,-2066,338,-106,49,50,13332,5,16,-153,-56,35520,20,34,127,0,0,3629,-10,0,9588,-821,242,5873,-4,0,11,0,582283,0
582315,78,-2062,342,-104,35,56,13330,-11,75,-220,-48,35515,13,34,127,0,0,3627,-10,0,9588,-821,242,5883,-4,0,11,0,582299,0
582325,66,-2069,341,-106,31,62,13322,-18,-11,-205,-56,35513,24,34,127,0,0,3627,-32,0,9588,-821,242,5893,-4,0,11,0,582299,0
582335,79,-2060,328,-106,23,65,13300,-58,-34,-130,-40,35514,33,34,127,0,0,3623,-43,0,9588,-821,242,5903,-4,0,11,0,582315,0
582345,48,-2065,326,-104,41,69,13285,-10,-16,-66,-64,35514,31,34,127,0,0,3621,-43,0,9588,-821,242,5913,-4,0,11,0,582315,0
582355,96,-2068,338,-97,44,77,13283,-23,43,-208,-88,35517,38,34,127,0,0,3618,-10,0,9588,-821,242,5923,-4,0,11,0,582330,0
582365,81,-2067,334,-101,33,83,13279,-9,16,-240,-64,35522,30,34,127,0,0,3618,0,0,9588,-821,242,5933,-4,0,11,0,582330,0
582375,86,-2061,330,-101,35,90,13279,1,6,-248,-64,35516,47,34,127,0,0,3618,-10,0,9588,-821,242,5943,-4,0,11,0,582361,0
582385,66,-2056,333,-90,33,99,13279,2,3,-268,-56,35521,44,34,127,0,0,3616,-21,0,9588,-821,242,5953,-4,0,11,0,582361,0
582396,81,-2067,326,-92,32,109,13274,-4,-8,-295,-80,35515,61,34,127,0,0,3619,27,0,9588,-821,242,5964,-4,0,11,0,582361,0
582406,82,-2059,329,-88,27,114,13276,2,1,-227,-88,35518,42,34,127,0,0,3616,-38,0,9588,-821,242,5974,-4,0,11,0,582393,0
582416,75,-2059,329,-85,35,111,13272,4,3,-256,-80,35512,48,34,127,0,0,3616,-21,0,9588,-821,242,5984,-4,0,11,0,582408,0
582426,43,-2056,334,-83,29,121,13271,-5,-3,-283,-72,35514,41,34,127,0,0,3616,0,0,9588,-821,242,5994,-4,0,11,0,582408,0
582436,55,-2060,336,-83,41,119,13271,2,2,-298,-72,35511,46,34,127,0,0,3616,27,0,9588,-821,242,6004,-4,0,11,0,582408,0
582446,53,-2062,342,-86,37,111,13271,-5,5,-290,-72,35512,48,34,127,0,0,3616,0,0,9588,-821,242,6014,-4,0,11,0,582424,0
582456,53,-2065,342,-84,33,106,13272,6,3,-256,-72,35512,51,34,127,0,0,3619,10,0,9588,-821,242,6024,-4,0,11,0,582439,0
582466,55,-2059,345,-89,42,94,13269,-12,-1,-269,-72,35511,45,34,127,0,0,3616,10,0,9588,-821,242,6034,-4,0,11,0,582439,0
582476,51,-2057,343,-89,46,89,13270,1,0,-286,-72,35512,41,34,127,0,0,3613,-32,0,9588,-821,242,6044,-4,0,11,0,582455,0
582486,59,-2054,338,-94,48,74,13269,-5,-1,-311,-96,35512,41,34,127,0,0,3614,-32,0,9588,-821,242,6054,-4,0,11,0,582455,0
582496,78,-2067,338,-92,35,81,13267,-4,-10,-334,-112,35510,31,34,127,0,0,3609,-71,0,9588,-821,242,6064,-4,0,11,0,582502,0
582506,81,-2064,343,-91,43,78,13253,-36,-25,-342,-88,35519,42,34,127,0,0,3612,-5,0,9588,-821,242,6074,-4,0,11,0,582549,0
582516,74,-2062,341,-98,37,83,13230,-57,-39,-204,-48,35510,34,34,127,0,0,3605,-32,0,9588,-821,242,6084,-4,0,11,0,582564,0
582526,78,-2061,338,-93,43,83,13225,-3,13,-289,-80,35506,18,34,127,0,0,3607,0,0,9588,-821,242,6094,-4,0,11,0,582564,0
582536,84,-2059,343,-104,42,90,13226,2,43,-264,-80,35502,8,34,127,0,0,3604,-32,0,9588,-821,242,6104,-4,0,11,0,582564,0
582546,75,-2067,344,-106,39,85,13224,1,4,-323,-96,35501,2,34,127,0,0,3605,-16,0,9588,-821,242,6114,-4,0,11,0,582564,0
582556,66,-2063,333,-104,36,91,13224,5,-11,-312,-96,35505,6,34,127,0,0,3605,-16,0,9588,-821,242,6124,-4,0,11,0,582564,0
582566,55,-2067,324,-109,42,80,13222,0,3,-357,-120,35500,5,34,127,0,0,3606,5,0,9588,-821,242,6134,-4,0,11,0,582564,0
582576,52,-2063,328,-104,42,72,13220,0,-1,-359,-136,35498,-3,34,127,0,0,3601,-27,0,9588,-821,242,6144,-4,0,11,0,582564,0
582586,64,-2067,334,-101,44,68,13217,-6,3,-418,-136,35496,-8,34,127,0,0,3601,0,0,9588,-821,242,6154,-4,0,11,0,582564,0
582596,64,-2064,325,-101,39,67,13217,-4,2,-434,-152,35501,-23,34,127,0,0,3602,-5,0,9588,-821,242,6164,-4,0,11,0,582564,0
582606,66,-2064,328,-100,44,59,13213,-12,-5,-479,-144,35520,-3,34,127,0,0,3599,16,0,9588,-821,242,6174,-4,0,11,0,582580,0
582616,60,-2064,332,-94,44,59,13208,-8,-11,-497,-160,35531,9,34,127,0,0,3596,-5,0,9588,-821,242,6184,-4,0,11,0,582611,0
582626,84,-2064,337,-92,37,58,13201,-24,-6,-557,-176,35534,26,34,127,0,0,3594,27,0,9588,-821,242,6194,-4,0,11,0,582627,0
582636,76,-2061,342,-101,39,60,13180,-65,-32,-451,-136,35518,7,34,127,0,0,3591,0,0,9588,-821,242,6204,-4,0,11,0,582627,0
582646,75,-2067,335,-99,35,58,13141,-86,-71,-289,-104,35502,-2,34,127,0,0,3590,5,0,9588,-821,242,6214,-4,0,11,0,582627,0
582657,100,-2061,331,-97,46,64,13115,-50,1,-212,-48,35492,-7,34,127,0,0,3588,-32,0,9588,-821,242,6225,-4,0,11,0,582627,0
582667,98,-2059,325,-99,43,67,13103,-7,51,-130,-40,35499,2,34,127,0,0,3585,-43,0,9588,-821,242,6235,-4,0,11,0,582643,0
582677,107,-2058,321,-94,33,93,13102,2,41,-204,-64,35507,22,34,127,0,0,3588,10,0,9588,-821,242,6245,-4,0,11,0,582643,0
582687,99,-2067,327,-92,39,112,13101,-4,18,-201,-64,35516,26,34,127,0,0,3585,0,0,9588,-821,242,6255,-4,0,11,0,582674,0
582697,94,-2065,330,-88,27,120,13098,-7,-6,-247,-80,35518,38,34,127,0,0,3585,10,0,9588,-821,242,6265,-4,0,11,0,582674,0
582707,83,-2064,332,-93,37,126,13098,12,2,-183,-56,35504,27,34,127,0,0,3585,-21,0,9588,-821,242,6275,-4,0,11,0,582689,0
582717,97,-2070,334,-87,35,131,13097,4,6,-213,-56,35503,25,34,127,0,0,3588,32,0,9588,-821,242,6285,-4,0,11,0,582689,0
582727,93,-2069,335,-84,37,143,13096,-13,5,-197,-8,35506,22,34,127,0,0,3588,21,0,9588,-821,242,6295,-4,0,11,0,582721,0
582737,73,-2070,329,-91,34,141,13098,11,5,-144,-32,35516,23,34,127,0,0,3588,0,0,9588,-821,242,6305,-4,0,11,0,582736,0
582747,67,-2067,330,-87,34,136,13096,0,2,-125,-32,35514,29,34,127,0,0,3588,0,0,9588,-821,242,6315,-4,0,11,0,582736,0
582757,66,-2057,325,-85,37,140,13097,-4,-5,-133,-32,35507,38,34,127,0,0,3588,-10,0,9588,-821,242,6325,-4,0,11,0,582736,0
582767,60,-2060,325,-85,28,139,13098,1,2,-141,-32,35497,38,34,127,0,0,3588,10,0,9588,-821,242,6335,-4,0,11,0,582736,0
582777,68,-2060,336,-86,29,136,13096,-14,-3,-133,-32,35503,40,34,127,0,0,3588,0,0,9588,-821,242,6345,-4,0,11,0,582752,0
582787,76,-2061,326,-82,33,137,13098,3,1,-110,-32,35517,30,34,127,0,0,3590,21,0,9588,-821,242,6355,-4,0,11,0,582783,0
582797,66,-2066,335,-82,33,132,13100,11,6,-43,-16,35517,42,34,127,0,0,3590,0,0,9588,-821,242,6365,-4,0,11,0,582783,0
582807,68,-2064,331,-86,38,128,13098,-8,-8,-88,0,35514,39,34,127,0,0,3588,10,0,9588,-821,242,6375,-4,0,11,0,582783,0
582817,88,-2066,332,-84,27,115,13100,0,-2,-65,-16,35503,36,34,127,0,0,3588,-21,0,9588,-821,242,6385,-4,0,11,0,582783,0
582827,92,-2058,328,-82,29,113,13099,0,-2,-51,24,35503,30,34,127,0,0,3590,-10,0,9588,-821,242,6395,-4,0,11,0,582830,0
582837,43,-2061,332,-80,23,126,13100,2,-6,-50,-16,35500,42,34,127,0,0,3590,0,0,9588,-821,242,6405,-4,0,11,0,582830,0
582847,67,-2058,330,-86,29,119,13101,1,1,0,-24,35499,44,34,127,0,0,3588,-32,0,9588,-821,242,6415,-4,0,11,0,582830,0
582857,49,-2063,319,-76,29,116,13100,5,-2,-32,-24,35502,40,34,127,0,0,3592,10,0,9588,-821,242,6425,-4,0,11,0,582846,0
582867,43,-2061,323,-73,36,118,13100,-8,2,-15,-48,35499,40,34,127,0,0,3590,0,0,9588,-821,242,6435,-4,0,11,0,582846,0
582877,111,-2068,319,-66,28,121,13099,1,5,-29,-16,35501,25,34,127,0,0,3590,-10,0,9588,-821,242,6445,-4,0,11,0,582861,0
582887,54,-2068,317,-62,31,111,13100,15,2,-47,24,35512,47,34,127,0,0,3590,0,0,9588,-821,242,6455,-4,0,11,0,582877,0
582897,59,-2064,330,-61,27,109,13099,-2,0,-29,-16,35512,45,34,127,0,0,3590,0,0,9588,-821,242,6465,-4,0,11,0,582908,0
582907,71,-2060,329,-56,30,112,13100,2,6,-25,-16,35513,45,34,127,0,0,3588,-21,0,9588,-821,242,6475,-4,0,11,0,582924,0
582918,57,-2061,338,-57,34,101,13099,3,0,-65,-16,35511,36,34,127,0,0,3587,-43,0,9588,-821,242,6486,-4,0,11,0,582924,0
582928,92,-2062,336,-55,28,98,13100,6,1,-61,-16,35503,40,34,127,0,0,3593,21,0,9588,-821,242,6496,-4,0,11,0,582924,0
582938,73,-2061,341,-64,27,113,13100,-7,-2,-6,-16,35501,32,34,127,0,0,3590,10,0,9588,-821,242,6506,-4,0,11,0,582924,0
582948,74,-2054,338,-65,31,102,13101,1,0,-15,-16,35496,30,34,127,0,0,3587,-60,0,9588,-821,242,6516,-4,0,11,0,582924,0
582958,90,-2070,335,-64,31,94,13098,-2,-5,-75,-8,35497,38,34,127,0,0,3590,10,0,9588,-821,242,6526,-4,0,11,0,582959,0
582968,116,-2060,333,-66,34,96,13101,-2,-2,-46,-40,35506,43,34,127,0,0,3588,-32,0,9588,-821,242,6536,-4,0,11,0,582959,0
582978,55,-2058,333,-68,35,111,13100,17,2,-76,-16,35511,45,34,127,0,0,3587,-38,0,9588,-821,242,6546,-4,0,11,0,582959,0
582988,70,-2054,343,-75,32,105,13097,-1,0,-92,-32,35509,38,34,127,0,0,3588,-21,0,9588,-821,242,6556,-4,0,11,0,582975,0
582998,62,-2060,334,-68,29,100,13096,-12,-7,-125,-32,35515,43,34,127,0,0,3588,-5,0,9588,-821,242,6566,-4,0,11,0,582975,0
583008,106,-2059,337,-60,36,107,13098,0,0,-109,-32,35507,37,34,127,0,0,3588,-16,0,9588,-821,242,6576,-4,0,11,0,583006,0
583018,74,-2059,345,-71,42,107,13099,5,4,-117,-40,35517,61,34,127,0,0,3588,0,0,9588,-821,242,6586,-4,0,11,0,583006,0
583028,83,-2058,347,-72,40,108,13097,1,-8,-141,-32,35514,51,34,127,0,0,3588,0,0,9588,-821,242,6596,-4,0,11,0,583006,0
583038,72,-2053,343,-75,34,111,13097,-6,4,-157,-32,35516,54,34,127,0,0,3588,0,0,9588,-821,242,6606,-4,0,11,0,583037,0
583048,95,-2054,341,-79,39,114,13099,0,3,-115,-40,35513,28,34,127,0,0,3591,32,0,9588,-821,242,6616,-4,0,11,0,583037,0
583058,97,-2066,343,-82,38,114,13100,3,3,-81,-16,35511,41,34,127,0,0,3587,0,0,9588,-821,242,6626,-4,0,11,0,583037,0
583068,80,-2065,342,-86,38,115,13099,7,-2,-115,-64,35514,50,34,127,0,0,3589,-21,0,9588,-821,242,6636,-4,0,11,0,583037,0
583078,64,-2062,342,-87,35,114,13097,0,-7,-147,-32,35516,53,34,127,0,0,3588,32,0,9588,-821,242,6646,-4,0,11,0,583084,0
583088,72,-2058,331,-93,39,113,13098,-5,11,-121,-56,35522,38,34,127,0,0,3589,-27,0,9588,-821,242,6656,-4,0,11,0,583084,0
583098,70,-2066,329,-95,40,125,13099,19,3,-119,-40,35519,42,34,127,0,0,3588,0,0,9588,-821,242,6666,-4,0,11,0,583084,0
583108,70,-2061,333,-86,37,111,13097,1,-2,-126,-32,35519,34,34,127,0,0,3588,0,0,9588,-821,242,6676,-4,0,11,0,583084,0
583118,72,-2064,332,-86,36,114,13096,-6,-1,-170,-56,35508,30,34,127,0,0,3589,5,0,9588,-821,242,6686,-4,0,11,0,583084,0
583128,56,-2059,336,-92,43,114,13098,11,4,-124,-32,35512,22,34,127,0,0,3588,0,0,9588,-821,242,6696,-4,0,11,0,583100,0
583139,63,-2064,340,-91,41,115,13096,-3,-4,-187,-88,35527,58,34,127,0,0,3585,10,0,9588,-821,242,6707,-4,0,11,0,583131,0
583149,117,-2063,332,-89,32,113,13095,-12,-4,-204,-56,35525,61,34,127,0,0,3583,10,0,9588,-821,242,6717,-4,0,11,0,583131,0
583159,132,-2064,331,-91,36,120,13095,-1,10,-179,-96,35518,51,34,127,0,0,3583,-43,0,9588,-821,242,6727,-4,0,11,0,583131,0
583169,52,-2055,337,-94,33,133,13095,7,-6,-232,-56,35514,37,34,127,0,0,3583,-21,0,9588,-821,242,6737,-4,0,11,0,583162,0
583179,73,-2054,335,-89,33,122,13096,4,-3,-201,-56,35514,36,34,127,0,0,3585,-32,0,9588,-821,242,6747,-4,0,11,0,583162,0
583189,83,-2066,333,-84,33,129,13094,0,1,-258,-40,35515,37,34,127,0,0,3583,10,0,9588,-821,242,6757,-4,0,11,0,583162,0
583199,107,-2057,329,-85,33,123,13094,-4,-5,-236,-48,35522,40,34,127,0,0,3585,-10,0,9588,-821,242,6767,-4,0,11,0,583178,0
583209,56,-2054,328,-84,32,132,13094,0,3,-219,-16,35525,43,34,127,0,0,3585,0,0,9588,-821,242,6777,-4,0,11,0,583194,0
583219,73,-2059,330,-82,36,126,13093,-8,-5,-217,-16,35521,47,34,127,0,0,3588,43,0,9588,-821,242,6787,-4,0,11,0,583194,0
583229,80,-2056,326,-75,34,123,13094,-12,4,-218,0,35518,43,34,127,0,0,3588,65,0,9588,-821,242,6797,-4,0,11,0,583209,0
583239,122,-2064,332,-73,42,122,13095,-7,-1,-198,-56,35524,42,34,127,0,0,3588,32,0,9588,-821,242,6807,-4,0,11,0,583209,0
583249,48,-2060,333,-77,43,132,13097,26,0,-161,-56,35531,43,34,127,0,0,3588,0,0,9588,-821,242,6817,-4,0,11,0,583225,0
583259,24,-2064,334,-72,40,131,13095,11,-1,-158,-8,35530,53,34,127,0,0,3585,0,0,9588,-821,242,6827,-4,0,11,0,583225,0
583269,105,-2072,333,-75,36,112,13095,0,2,-127,-32,35523,39,34,127,0,0,3583,-43,0,9588,-821,242,6837,-4,0,11,0,583334,0
583279,115,-2069,335,-72,33,114,13093,-8,-6,-170,-56,35519,37,34,127,0,0,3583,-21,0,9588,-821,242,6847,-4,0,11,0,583334,0
583289,33,-2055,334,-67,29,116,13096,2,-1,-147,-104,35515,36,34,127,0,0,3583,-65,0,9588,-821,242,6857,-4,0,11,0,583334,0
583299,34,-2050,335,-70,41,126,13092,0,-12,-215,-8,35510,40,34,127,0,0,3588,43,0,9588,-821,242,6867,-4,0,11,0,583350,0
583309,77,-2067,338,-72,32,118,13095,-4,2,-176,-16,35509,26,34,127,0,0,3583,-21,0,9588,-821,242,6877,-4,0,11,0,583381,0
583319,97,-2056,326,-68,31,107,13094,8,8,-199,-88,35512,15,34,127,0,0,3585,-21,0,9588,-821,242,6887,-4,0,11,0,583381,0
583329,75,-2065,330,-61,42,123,13095,13,3,-149,-56,35514,25,34,127,0,0,3583,-32,0,9588,-821,242,6897,-4,0,11,0,583381,0
583339,89,-2055,333,-59,35,118,13092,-4,-1,-182,-80,35505,33,34,127,0,0,3583,-21,0,9588,-821,242,6907,-4,0,11,0,583381,0
583349,74,-2061,341,-61,25,115,13092,-6,-2,-258,-32,35498,32,34,127,0,0,3583,10,0,9588,-821,242,6917,-4,0,11,0,583381,0
583359,105,-2061,343,-67,27,107,13093,1,13,-252,-72,35498,24,34,127,0,0,3583,-21,0,9588,-821,242,6927,-4,0,11,0,583381,0
583369,60,-2062,352,-68,33,107,13092,6,-2,-268,-72,35495,17,34,127,0,0,3585,32,0,9588,-821,242,6937,-4,0,11,0,583397,0
583379,60,-2058,346,-67,33,106,13092,-4,6,-213,-80,35510,20,34,127,0,0,3583,0,0,9588,-821,242,6947,-4,0,11,0,583397,0
583389,90,-2064,343,-75,34,89,13092,-3,-4,-246,-72,35518,32,34,127,0,0,3585,21,0,9588,-821,242,6957,-4,0,11,0,583397,0
583399,55,-2067,337,-79,38,89,13092,1,1,-245,-72,35524,36,34,127,0,0,3583,0,0,9588,-821,242,6967,-4,0,11,0,583397,0
583409,53,-2055,339,-76,39,70,13093,6,0,-264,-72,35513,32,34,127,0,0,3583,0,0,9588,-821,242,6977,-4,0,11,0,583397,0
583420,75,-2067,344,-71,43,63,13092,-4,-1,-289,-96,35513,34,34,127,0,0,3578,-65,0,9588,-821,242,6988,-4,0,11,0,583397,0
583430,77,-2057,341,-72,42,61,13087,-7,-4,-356,-104,35526,40,34,127,0,0,3579,-27,0,9588,-821,242,6998,-4,0,11,0,583397,0
583440,82,-2061,346,-74,40,61,13083,-14,-13,-397,-144,35545,43,34,127,0,0,3578,-16,0,9588,-821,242,7008,-4,0,11,0,583428,0
583450,74,-2056,345,-82,42,65,13068,-34,-21,-356,-112,35548,46,34,127,0,0,3571,-49,0,9588,-821,242,7018,-4,0,11,0,583428,0
583460,97,-2059,338,-82,35,70,13036,-92,-49,-257,-72,35534,39,34,127,0,0,3572,0,0,9588,-821,242,7028,-4,0,11,0,583444,0
583470,28,-2065,336,-86,45,58,13023,17,-8,-119,-56,35516,33,34,127,0,0,3570,-60,0,9588,-821,242,7038,-4,0,11,0,583444,0
583480,124,-2060,348,-86,40,57,13021,-12,78,-209,-88,35514,52,34,127,0,0,3568,-27,0,9588,-821,242,7048,-4,0,11,0,583475,0
583490,110,-2058,337,-82,35,62,13018,-7,15,-319,-80,35520,43,34,127,0,0,3568,32,0,9588,-821,242,7058,-4,0,11,0,583475,0
583500,80,-2058,334,-79,34,76,13018,5,-3,-303,-80,35523,32,34,127,0,0,3568,32,0,9588,-821,242,7068,-4,0,11,0,583475,0
583510,93,-2051,333,-80,46,76,13019,0,-3,-318,-96,35511,14,34,127,0,0,3566,0,0,9588,-821,242,7078,-4,0,11,0,583490,0
583520,94,-2065,338,-81,42,80,13011,-19,-11,-359,-136,35504,10,34,127,0,0,3561,-21,0,9588,-821,242,7088,-4,0,11,0,583490,0
583530,88,-2069,349,-75,40,91,13000,-34,-27,-321,-128,35510,21,34,127,0,0,3562,-43,0,9588,-821,242,7098,-4,0,11,0,583522,0
583540,104,-2060,345,-76,38,91,12974,-67,-41,-229,-64,35523,25,34,127,0,0,3561,21,0,9588,-821,242,7108,-4,0,11,0,583522,0
583550,81,-2061,332,-84,47,102,12967,13,5,-163,-40,35524,32,34,127,0,0,3558,0,0,9588,-821,242,7118,-4,0,11,0,583522,0
583560,114,-2062,332,-78,38,107,12965,-8,60,-216,-88,35514,26,34,127,0,0,3557,-38,0,9588,-821,242,7128,-4,0,11,0,583537,0
583570,92,-2060,333,-81,34,111,12965,-5,0,-305,-80,35514,12,34,127,0,0,3557,0,0,9588,-821,242,7138,-4,0,11,0,583553,0
583580,90,-2064,330,-77,38,111,12967,12,6,-219,-64,35517,7,34,127,0,0,3556,-43,0,9588,-821,242,7148,-4,0,11,0,583553,0
583590,84,-2059,339,-70,43,111,12964,-6,-5,-276,-80,35524,-2,34,127,0,0,3560,27,0,9588,-821,242,7158,-4,0,11,0,583568,0
583600,95,-2051,334,-70,41,116,12964,-11,-8,-252,-80,35515,0,34,127,0,0,3560,16,0,9588,-821,242,7168,-4,0,11,0,583568,0
583610,90,-2059,340,-68,35,116,12964,1,6,-266,-64,35515,9,34,127,0,0,3559,49,0,9588,-821,242,7178,-4,0,11,0,583600,0
583620,81,-2063,337,-69,43,119,12965,-5,-3,-225,-80,35512,4,34,127,0,0,3557,-21,0,9588,-821,242,7188,-4,0,11,0,583600,0
583630,77,-2059,344,-68,32,110,12965,8,1,-252,-80,35512,-2,34,127,0,0,3560,-10,0,9588,-821,242,7198,-4,0,11,0,583600,0
583641,101,-2055,336,-66,34,115,12966,7,3,-225,-48,35504,-1,34,127,0,0,3559,0,0,9588,-821,242,7209,-4,0,11,0,583631,0
583651,76,-2067,335,-64,27,112,12964,-1,0,-242,-80,35498,11,34,127,0,0,3557,-21,0,9588,-821,242,7219,-4,0,11,0,583647,0
583661,105,-2059,343,-63,31,112,12964,-3,-1,-291,-80,35494,7,34,127,0,0,3555,-10,0,9588,-821,242,7229,-4,0,11,0,583647,0
583671,91,-2067,338,-67,31,112,12962,1,-3,-302,-80,35501,-3,34,127,0,0,3557,0,0,9588,-821,242,7239,-4,0,11,0,583662,0
583681,76,-2064,339,-66,34,112,12962,-7,-2,-284,-112,35498,-12,34,127,0,0,3557,0,0,9588,-821,242,7249,-4,0,11,0,583662,0
583691,79,-2062,336,-62,40,114,12963,-2,3,-264,-80,35501,0,34,127,0,0,3557,0,0,9588,-821,242,7259,-4,0,11,0,583662,0
583701,85,-2060,332,-61,28,108,12963,-4,1,-292,-96,35507,0,34,127,0,0,3555,-21,0,9588,-821,242,7269,-4,0,11,0,583709,0
583711,73,-2059,339,-54,38,105,12962,5,-3,-305,-64,35508,-6,34,127,0,0,3557,10,0,9588,-821,242,7279,-4,0,11,0,583709,0
583721,98,-2062,340,-60,27,93,12960,-9,1,-275,-72,35508,-9,34,127,0,0,3555,-10,0,9588,-821,242,7289,-4,0,11,0,583709,0
583731,99,-2059,341,-59,28,96,12962,1,-2,-333,-88,35496,0,34,127,0,0,3555,-10,0,9588,-821,242,7299,-4,0,11,0,583725,0
583741,88,-2058,348,-54,40,99,12961,3,0,-314,-128,35488,5,34,127,0,0,3557,21,0,9588,-821,242,7309,-4,0,11,0,583725,0
583751,67,-2060,347,-52,32,93,12960,-5,6,-310,-96,35499,-1,34,127,0,0,3555,10,0,9588,-821,242,7319,-4,0,11,0,583725,0
583761,97,-2055,341,-54,41,92,12959,-2,3,-345,-128,35516,10,34,127,0,0,3552,0,0,9588,-821,242,7329,-4,0,11,0,583725,0
583771,105,-2061,335,-50,39,99,12958,-4,1,-349,-112,35523,7,34,127,0,0,3552,-21,0,9588,-821,242,7339,-4,0,11,0,583756,0
583781,109,-2067,346,-50,33,102,12956,-12,-4,-381,-112,35514,7,34,127,0,0,3552,32,0,9588,-821,242,7349,-4,0,11,0,583756,0
583791,108,-2064,352,-56,36,109,12955,-11,-1,-393,-96,35501,-9,34,127,0,0,3552,32,0,9588,-821,242,7359,-4,0,11,0,583756,0
583801,113,-2060,340,-52,42,104,12952,-8,2,-384,-136,35509,-8,34,127,0,0,3552,10,0,9588,-821,242,7369,-4,0,11,0,583772,0
583811,100,-2063,335,-48,38,113,12951,1,-6,-363,-128,35516,-7,34,127,0,0,3552,10,0,9588,-821,242,7379,-4,0,11,0,583803,0
583821,111,-2056,346,-52,42,119,12949,-1,4,-350,-128,35520,1,34,127,0,0,3552,21,0,9588,-821,242,7389,-4,0,11,0,583803,0
583831,95,-2060,347,-49,33,129,12949,2,8,-342,-128,35515,-16,34,127,0,0,3550,-10,0,9588,-821,242,7399,-4,0,11,0,583818,0
583841,83,-2058,346,-48,36,129,12949,6,4,-362,-120,35509,-10,34,127,0,0,3548,-43,0,9588,-821,242,7409,-4,0,11,0,583818,0
583851,93,-2060,343,-41,35,126,12944,-16,-11,-401,-104,35512,-18,34,127,0,0,3552,54,0,9588,-821,242,7419,-4,0,11,0,583818,0
583861,91,-2062,350,-41,39,120,12941,-6,-10,-294,-80,35518,-9,34,127,0,0,3550,-10,0,9588,-821,242,7429,-4,0,11,0,583850,0
583871,86,-2059,350,-42,49,114,12933,-27,0,-353,-128,35517,-12,34,127,0,0,3550,21,0,9588,-821,242,7439,-4,0,11,0,583850,0
583881,80,-2056,346,-43,20,112,12912,-67,-38,-240,-40,35512,-9,34,127,0,0,3548,0,0,9588,-821,242,7449,-4,0,11,0,583850,0
583892,72,-2057,343,-43,35,97,12901,6,-7,-108,-40,35509,1,34,127,0,0,3548,-32,0,9588,-821,242,7460,-4,0,11,0,583881,0
583902,90,-2059,348,-40,37,85,12899,-11,49,-185,-40,35506,10,34,127,0,0,3548,27,0,9588,-821,242,7470,-4,0,11,0,583881,0
583912,71,-2068,350,-35,37,79,12899,-7,12,-184,-40,35507,4,34,127,0,0,3548,27,0,9588,-821,242,7480,-4,0,11,0,583881,0
583922,70,-2057,343,-34,40,69,12900,-3,3,-198,-88,35514,-8,34,127,0,0,3544,-54,0,9588,-821,242,7490,-4,0,11,0,583897,0
583932,77,-2062,350,-31,40,60,12895,-10,-12,-272,-72,35522,-29,34,127,0,0,3544,-5,0,9588,-821,242,7500,-4,0,11,0,583912,0
583942,99,-2063,356,-36,47,52,12891,-12,-5,-301,-88,35520,-22,34,127,0,0,3541,-10,0,9588,-821,242,7510,-4,0,11,0,583912,0
583952,87,-2057,352,-36,41,52,12882,-26,-3,-335,-80,35515,-15,34,127,0,0,3535,-65,0,9588,-821,242,7520,-4,0,11,0,583928,0
583962,112,-2064,349,-38,33,51,12867,-48,-27,-266,-64,35512,-11,34,127,0,0,3536,-43,0,9588,-821,242,7530,-4,0,11,0,584022,0
583972,98,-2055,349,-32,42,52,12840,-52,-41,-154,-56,35513,-16,34,127,0,0,3535,-5,0,9588,-821,242,7540,-4,0,11,0,584022,0
583982,124,-2058,349,-32,41,63,12839,0,37,-262,-56,35514,-2,34,127,0,0,3535,5,0,9588,-821,242,7550,-4,0,11,0,584022,0
583992,98,-2055,349,-28,39,67,12839,-2,43,-263,-56,35509,8,34,127,0,0,3532,-10,0,9588,-821,242,7560,-4,0,11,0,584037,0
584002,105,-2064,351,-22,36,83,12839,0,-2,-282,-72,35503,7,34,127,0,0,3529,-60,0,9588,-821,242,7570,-4,0,11,0,584037,0
584012,107,-2062,350,-20,40,86,12838,1,0,-318,-72,35504,1,34,127,0,0,3533,16,0,9588,-821,242,7580,-4,0,11,0,584037,0
584022,106,-2057,348,-18,44,87,12838,-5,3,-309,-96,35505,0,34,127,0,0,3531,-21,0,9588,-821,242,7590,-4,0,11,0,584037,0
584032,113,-2056,350,-16,44,93,12838,3,3,-323,-96,35503,18,34,127,0,0,3527,-65,0,9588,-821,242,7600,-4,0,11,0,584037,0
584042,114,-2062,357,-13,35,97,12835,-3,-2,-375,-112,35498,16,34,127,0,0,3532,-10,0,9588,-821,242,7610,-4,0,11,0,584037,0
584052,92,-2062,355,-13,42,103,12835,4,-1,-388,-112,35498,15,34,127,0,0,3525,-43,0,9588,-821,242,7620,-4,0,11,0,584037,0
584062,90,-2057,357,-9,40,102,12829,-8,-2,-434,-96,35504,17,34,127,0,0,3525,-10,0,9588,-821,242,7630,-4,0,11,0,584037,0
584072,100,-2053,357,-11,41,96,12830,3,3,-427,-104,35520,21,34,127,0,0,3528,5,0,9588,-821,242,7640,-4,0,11,0,584037,0
584082,96,-2055,366,-13,34,86,12829,-8,7,-435,-120,35542,25,34,127,0,0,3526,10,0,9588,-821,242,7650,-4,0,11,0,584084,0
584092,66,-2058,371,-13,39,82,12828,-1,0,-433,-144,35552,27,34,127,0,0,3521,-43,0,9588,-821,242,7660,-4,0,11,0,584100,0
584102,86,-2060,363,-15,40,68,12824,-19,-7,-513,-160,35540,23,34,127,0,0,3525,5,0,9588,-821,242,7670,-4,0,11,0,584100,0
584112,70,-2061,361,-12,48,59,12816,-18,-10,-485,-160,35518,16,34,127,0,0,3520,-16,0,9588,-821,242,7680,-4,0,11,0,584100,0
584122,90,-2054,361,-9,40,47,12803,-36,-13,-474,-160,35504,24,34,127,0,0,3517,-38,0,9588,-821,242,7690,-4,0,11,0,584100,0
584132,88,-2054,357,-6,46,41,12783,-54,-32,-392,-120,35515,19,34,127,0,0,3514,-27,0,9588,-821,242,7700,-4,0,11,0,584100,0
584143,64,-2059,359,-13,46,25,12773,0,8,-409,-120,35521,18,34,127,0,0,3513,-21,0,9588,-821,242,7711,-4,0,11,0,584131,0
584153,89,-2051,367,-7,46,-2,12770,-19,42,-480,-168,35529,4,34,127,0,0,3511,-21,0,9588,-821,242,7721,-4,0,11,0,584131,0
584163,59,-2053,362,-9,36,-8,12764,-22,-5,-522,-168,35522,-8,34,127,0,0,3504,-153,0,9588,-821,242,7731,-4,0,11,0,584131,0
584173,70,-2047,378,2,47,-50,12727,-112,-68,-496,-192,35524,-2,34,127,0,0,3498,-54,0,9588,-821,242,7741,-4,0,11,0,584162,0
584183,18,-2056,364,-3,48,-73,12671,-113,-101,-245,-128,35527,-12,34,127,0,0,3493,-65,0,9588,-821,242,7751,-4,0,11,0,584162,0
584193,2,-2058,374,-2,52,-133,12638,-35,8,-273,-128,35530,-15,34,127,0,0,3487,-65,0,9588,-821,242,7761,-4,0,11,0,584162,0
584203,88,-2046,368,-7,49,-160,12636,0,112,-515,-216,35530,4,34,127,0,0,3480,-43,0,9588,-821,242,7771,-4,0,11,0,584209,0
584213,86,-2053,378,-5,22,-180,12610,-84,20,-579,-216,35526,15,34,127,0,0,3469,-65,0,9588,-821,242,7781,-4,0,11,0,584209,0
584223,6,-2052,364,1,42,-224,12543,-156,-128,-380,-224,35529,27,34,127,0,0,3458,-87,0,9588,-821,242,7791,-4,0,11,0,584209,0
584233,11,-2055,379,0,56,-280,12473,-146,-84,-300,-208,35535,40,34,127,0,0,3443,-142,0,9588,-821,242,7801,-4,0,11,0,584209,0
584243,51,-2036,378,-3,59,-323,12422,-88,34,-388,-208,35520,27,34,127,0,0,3432,-153,0,9588,-821,242,7811,-4,0,11,0,584225,0
584253,71,-2039,381,1,48,-369,12374,-101,51,-451,-280,35520,26,34,127,0,0,3416,-164,0,9588,-821,242,7821,-4,0,11,0,584256,0
584263,120,-2040,373,-5,31,-391,12316,-152,-16,-492,-304,35524,24,34,127,0,0,3401,-164,0,9588,-821,242,7831,-4,0,11,0,584256,0
584273,56,-2034,357,5,38,-457,12229,-195,-84,-379,-320,35527,13,34,127,0,0,3385,-153,0,9588,-821,242,7841,-4,0,11,0,584256,0
584283,23,-2051,353,10,56,-490,12146,-189,-40,-425,-328,35520,4,34,127,0,0,3364,-186,0,9588,-821,242,7851,-4,0,11,0,584256,0
584293,40,-2045,356,22,61,-579,12053,-207,-7,-430,-400,35517,-3,34,127,0,0,3346,-197,0,9588,-821,242,7861,-4,0,11,0,584287,0
584303,85,-2033,365,29,59,-617,11963,-210,-13,-469,-416,35524,-4,34,127,0,0,3320,-252,0,9588,-821,242,7871,-4,0,11,0,584287,0
584313,70,-2037,364,38,53,-684,11860,-233,-14,-493,-424,35526,-12,34,127,0,0,3300,-197,0,9588,-821,242,7881,-4,0,11,0,584287,0
584323,82,-2032,370,38,55,-729,11742,-271,-61,-444,-488,35528,-11,34,127,0,0,3271,-241,0,9588,-821,242,7891,-4,0,11,0,584318,0
584333,68,-2035,375,45,63,-819,11619,-263,-38,-455,-512,35513,-11,34,127,0,0,3245,-274,0,9588,-821,242,7901,-4,0,11,0,584318,0
584343,97,-2034,381,54,77,-872,11487,-315,-22,-462,-584,35510,3,34,127,0,0,3214,-274,0,9588,-821,242,7911,-4,0,11,0,584318,0
584353,113,-2033,363,56,76,-942,11346,-331,-39,-540,-640,35521,1,34,127,0,0,3181,-263,0,9588,-821,242,7921,-4,0,11,0,584412,0
584363,79,-2047,390,63,89,-983,11192,-331,-38,-500,-712,35528,-4,34,127,0,0,3144,-362,0,9588,-821,242,7931,-4,0,11,0,584428,0
584373,165,-2038,407,56,83,-1038,11027,-368,-45,-446,-696,35528,0,34,127,0,0,3106,-373,0,9588,-821,242,7941,-4,0,11,0,584428,0
584383,194,-2012,393,53,79,-1077,10857,-363,-35,-451,-704,35515,13,34,127,0,0,3067,-395,0,9588,-821,242,7951,-4,0,11,0,584428,0
584393,236,-2011,354,62,94,-1114,10694,-365,4,-452,-816,35499,21,34,127,0,0,3030,-373,0,9588,-821,242,7961,-4,0,11,0,584428,0
584403,268,-2025,307,90,112,-1115,10520,-393,-6,-516,-824,35502,13,34,127,0,0,2992,-351,0,9588,-821,242,7971,-4,0,11,0,584428,0
584413,332,-2006,293,135,132,-1102,10348,-382,-18,-482,-816,35498,-7,34,127,0,0,2959,-362,0,9588,-821,242,7981,-4,0,11,0,584428,0
584423,395,-2003,334,166,144,-1067,10165,-403,-23,-434,-768,35494,-2,34,127,0,0,2920,-340,0,9588,-821,242,7991,-4,0,11,0,584428,0
584433,488,-2014,379,185,136,-961,9992,-379,3,-510,-768,35495,7,34,127,0,0,2885,-351,0,9588,-821,242,8001,-4,0,11,0,584428,0
584443,455,-2014,424,189,109,-906,9822,-364,28,-471,-816,35497,15,34,127,0,0,2854,-340,0,9588,-821,242,8011,-4,0,11,0,584428,0
584453,366,-2011,429,170,83,-848,9650,-364,0,-466,-728,35497,15,34,127,0,0,2823,-318,0,9588,-821,242,8021,-4,0,11,0,584443,0
584464,336,-1995,380,167,73,-834,9468,-363,6,-434,-648,35503,-2,34,127,0,0,2793,-307,0,9588,-821,242,8032,-4,0,11,0,584443,0
584474,281,-1986,304,206,105,-890,9308,-335,15,-423,-584,35523,0,34,127,0,0,2764,-318,0,9588,-821,242,8042,-4,0,11,0,584443,0
584484,281,-2028,314,241,123,-918,9161,-325,40,-486,-592,35539,6,34,127,0,0,2734,-296,0,9588,-821,242,8052,-4,0,11,0,584459,0
584494,322,-2000,390,272,128,-958,9015,-323,26,-475,-584,35543,-5,34,127,0,0,2703,-307,0,9588,-821,242,8062,-4,0,11,0,584475,0
584504,337,-1997,423,260,114,-979,8870,-306,-1,-467,-600,35529,-4,34,127,0,0,2670,-373,0,9588,-821,242,8072,-4,0,11,0,584475,0
584514,331,-1983,526,226,74,-1004,8718,-334,-5,-402,-568,35512,-1,34,127,0,0,2642,-324,0,9588,-821,242,8082,-4,0,11,0,584490,0
584524,310,-2018,543,197,40,-1027,8571,-328,-4,-412,-560,35511,-2,34,127,0,0,2608,-346,0,9588,-821,242,8092,-4,0,11,0,584506,0
584534,307,-1990,538,146,45,-1112,8432,-320,23,-472,-608,35510,-10,34,127,0,0,2579,-346,0,9588,-821,242,8102,-4,0,11,0,584506,0
584544,297,-2005,558,113,45,-1186,8284,-337,2,-459,-600,35511,3,34,127,0,0,2545,-291,0,9588,-821,242,8112,-4,0,11,0,584521,0
584554,295,-1974,622,50,5,-1288,8125,-353,-44,-439,-656,35507,0,34,127,0,0,2505,-346,0,9588,-821,242,8122,-4,0,11,0,584553,0
584564,259,-1996,641,-14,-5,-1352,7958,-380,-35,-395,-672,35510,-4,34,127,0,0,2465,-395,0,9588,-821,242,8132,-4,0,11,0,584553,0
584574,299,-1954,553,-89,3,-1497,7779,-394,-37,-391,-728,35510,-16,34,127,0,0,2418,-444,0,9588,-821,242,8142,-4,0,11,0,584553,0
584584,393,-1980,502,-113,29,-1554,7607,-388,-9,-474,-808,35508,-12,34,127,0,0,2375,-472,0,9588,-821,242,8152,-4,0,11,0,584553,0
584594,561,-1959,472,-130,27,-1556,7425,-403,-2,-451,-840,35505,6,34,127,0,0,2328,-472,0,9588,-821,242,8162,-4,0,11,0,584568,0
584604,676,-1933,481,-153,0,-1501,7238,-411,-24,-505,-896,35515,8,34,127,0,0,2282,-483,0,9588,-821,242,8172,-4,0,11,0,584662,0
584614,716,-1974,486,-166,-50,-1385,7051,-410,-12,-523,-928,35524,1,34,127,0,0,2240,-439,0,9588,-821,242,8182,-4,0,11,0,584662,0
584624,668,-1944,458,-172,-75,-1321,6873,-380,18,-664,-912,35522,1,34,127,0,0,2199,-362,0,9588,-821,242,8192,-4,0,11,0,584662,0
584634,629,-1922,404,-178,-76,-1273,6699,-371,26,-635,-936,35505,4,34,127,0,0,2161,-395,0,9588,-821,242,8202,-4,0,11,0,584678,0
584644,631,-1902,391,-177,-53,-1267,6516,-396,-6,-680,-960,35493,11,34,127,0,0,2112,-401,0,9588,-821,242,8212,-4,0,11,0,584678,0
584654,609,-1931,396,-151,-54,-1226,6328,-411,-19,-627,-984,35491,3,34,127,0,0,2078,-384,0,9588,-821,242,8222,-4,0,11,0,584678,0
584664,635,-1907,387,-150,-50,-1224,6142,-401,0,-647,-928,35491,11,34,127,0,0,2036,-368,0,9588,-821,242,8232,-4,0,11,0,584678,0
584674,648,-1911,397,-148,-58,-1207,5957,-414,3,-581,-920,35496,34,34,127,0,0,1994,-417,0,9588,-821,242,8242,-4,0,11,0,584678,0
584684,647,-1960,409,-142,-53,-1201,5771,-412,-3,-586,-920,35502,42,34,127,0,0,1964,-368,0,9588,-821,242,8252,-4,0,11,0,584678,0
584695,743,-1862,382,-112,24,-1208,5569,-407,8,-513,-896,35510,34,34,127,0,0,1922,-362,0,9588,-821,242,8263,-4,0,11,0,584678,0
584705,909,-1892,355,-89,39,-1103,5396,-381,22,-583,-904,35512,26,34,127,0,0,1885,-329,0,9588,-821,242,8273,-4,0,11,0,584678,0
584715,975,-1899,399,-77,17,-993,5225,-386,24,-579,-904,35514,17,34,127,0,0,1847,-351,0,9588,-821,242,8283,-4,0,11,0,584693,0
584725,875,-1895,497,-98,-42,-852,5049,-386,-2,-514,-824,35520,13,34,127,0,0,1819,-296,0,9588,-821,242,8293,-4,0,11,0,584787,0
584735,785,-1908,517,-123,-61,-805,4889,-335,15,-520,-744,35530,19,34,127,0,0,1790,-274,0,9588,-821,242,8303,-4,0,11,0,584787,0
584745,602,-1870,467,-148,-63,-845,4738,-325,51,-553,-752,35525,20,34,127,0,0,1760,-318,0,9588,-821,242,8313,-4,0,11,0,584787,0
584755,512,-1856,442,-142,-47,-945,4596,-302,33,-637,-792,35504,23,34,127,0,0,1731,-307,0,9588,-821,242,8323,-4,0,11,0,584787,0
584765,464,-1845,403,-124,0,-1143,4442,-345,-2,-586,-880,35486,28,34,127,0,0,1689,-384,0,9588,-821,242,8333,-4,0,11,0,584787,0
584775,457,-1881,382,-120,16,-1281,4271,-384,-53,-593,-952,35489,20,34,127,0,0,1647,-439,0,9588,-821,242,8343,-4,0,11,0,584803,0
584785,453,-1924,425,-110,4,-1456,4094,-395,-47,-650,-1048,35492,4,34,127,0,0,1597,-505,0,9588,-821,242,8353,-4,0,11,0,584803,0
584795,440,-1900,437,-105,-31,-1598,3893,-468,-52,-706,-1248,35493,7,34,127,0,0,1546,-527,0,9588,-821,242,8363,-4,0,11,0,584803,0
584805,345,-1922,429,-136,-60,-1837,3663,-535,-101,-677,-1376,35485,14,34,127,0,0,1489,-549,0,9588,-821,242,8373,-4,0,11,0,584803,0
584815,388,-1873,412,-143,-13,-2030,3404,-579,-117,-632,-1456,35486,24,34,127,0,0,1428,-637,0,9588,-821,242,8383,-4,0,11,0,584803,0
584825,495,-1817,380,-114,58,-2302,3124,-634,-95,-657,-1624,35496,26,34,127,0,0,1362,-681,0,9588,-821,242,8393,-4,0,11,0,584803,0
584835,638,-1805,370,-122,73,-2423,2812,-722,-103,-691,-1824,35512,31,34,127,0,0,1285,-747,0,9588,-821,242,8403,-4,0,11,0,584834,0
584845,727,-1818,511,-128,-20,-2543,2456,-800,-151,-715,-2032,35513,33,34,127,0,0,1208,-769,0,9588,-821,242,8413,-4,0,11,0,584834,0
584855,820,-1785,536,-126,-81,-2605,2068,-883,-137,-700,-2216,35505,33,34,127,0,0,1131,-802,0,9588,-821,242,8423,-4,0,11,0,584834,0
584865,767,-1718,429,-150,-128,-2719,1643,-957,-127,-710,-2416,35497,31,34,127,0,0,1052,-791,0,9588,-821,242,8433,-4,0,11,0,584834,0
584875,770,-1716,373,-125,-142,-2808,1187,-1025,-125,-694,-2472,35497,54,34,127,0,0,968,-834,0,9588,-821,242,8443,-4,0,11,0,584865,0
584885,767,-1708,359,-58,-54,-2996,754,-883,-30,-221,-1584,35506,68,34,127,0,0,878,-889,0,9588,-821,242,8453,-4,0,11,0,584865,0
584895,858,-1724,397,-40,-1,-3092,433,-628,268,-147,-920,35503,62,34,127,0,0,777,-977,0,9588,-821,242,8463,-4,0,11,0,584865,0
584906,991,-1763,478,-11,-125,-3118,198,-395,424,-228,-472,35507,44,34,127,0,0,680,-911,0,9588,-821,242,8474,-4,0,11,0,584896,0
584916,1033,-1808,497,23,-283,-3101,67,-238,351,-290,-328,35512,28,34,127,0,0,593,-873,0,9588,-821,242,8484,-4,0,11,0,584896,0
584926,1156,-1839,592,138,-775,-3062,-25,-194,230,-501,-448,35516,36,34,127,0,0,520,-714,0,9588,-821,242,8494,-4,0,11,0,584896,0
584936,1142,-2258,671,175,-892,-3037,-125,-245,55,-611,-488,35511,32,34,127,0,0,450,-681,0,9588,-821,242,8504,-4,0,11,0,584912,0
584946,605,-2651,599,101,-876,-3019,-249,-263,-61,-413,-376,35508,18,34,127,0,0,394,-510,0,9588,-821,242,8514,-4,0,0,0,584943,0
584956,468,-2403,588,-30,-865,-3176,-340,-205,-1,-318,-160,35525,3,34,127,0,0,353,-433,0,9588,-821,242,8524,-4,0,0,0,584943,0
584966,708,-1918,332,-221,-267,-3574,-377,7,185,-199,-48,35530,-2,34,127,0,0,310,-461,0,9588,-821,242,8534,-4,0,0,0,584943,0
584976,1038,-2543,395,-77,-681,-3543,-372,-24,221,-366,-16,35517,-5,34,127,0,0,277,-269,0,9588,-821,242,8544,-4,0,1,0,584943,0
584986,1123,-1718,497,4,-896,-3636,-351,73,74,120,184,35509,2,34,127,0,0,255,-208,0,9588,-821,242,8554,-4,0,1,0,584974,0
584996,1148,-1759,527,59,-994,-3705,-290,180,124,417,312,35519,2,34,127,0,0,237,-214,0,9588,-821,242,8564,-4,0,2,0,584974,0
585006,1457,-1702,460,205,-1147,-3776,-194,235,145,410,392,35525,-6,34,127,0,0,223,-115,0,9588,-821,242,8574,-4,0,3,0,584990,0
585016,1360,-1787,443,251,-1342,-3674,-81,230,88,252,168,35523,19,34,127,0,0,210,-82,0,9588,-821,242,8584,-4,0,3,0,584990,0
585026,1213,-1325,366,117,-1231,-3599,-1,139,-52,-27,8,35506,20,34,127,0,0,202,-76,0,9588,-821,242,8594,-4,0,4,0,584990,0
585036,1239,-665,235,-65,-991,-3635,10,-6,-210,-63,-16,35518,24,34,127,0,0,197,-71,0,9588,-821,242,8604,-4,0,5,0,585021,0
585046,1535,72,-175,-171,-494,-3670,7,-3,-153,-113,-32,35532,6,34,127,0,0,168,-274,0,9588,-821,242,8614,-4,0,6,0,585021,0
585056,2010,227,-265,-218,-221,-3636,7,0,-13,-105,-96,35534,-2,34,127,0,0,120,-483,0,9588,-821,242,8624,-4,0,6,0,585037,0
585066,2112,-1642,-29,-146,-521,-2755,-28,-144,-51,-304,-144,35524,-2,34,127,0,0,79,-373,0,9588,-821,242,8634,-4,0,7,0,585053,0
585076,2671,-1345,503,-207,-757,-2395,-119,-152,-193,738,240,35526,10,34,127,0,0,59,-225,0,9588,-821,242,8644,-4,0,7,0,585053,0
585086,1679,-2400,1301,-369,-1927,-2114,-112,37,83,748,224,35530,11,34,127,0,0,67,60,0,9588,-821,242,8654,-4,0,7,0,585053,0
585096,1159,-2454,1473,-309,-2013,-2477,-112,-3,177,749,224,35526,18,34,127,0,0,81,115,0,9588,-821,242,8664,-4,0,7,0,585115,0
585106,354,-2616,922,-294,-1644,-3095,-106,18,0,691,216,35520,30,34,127,0,0,85,27,0,9588,-821,242,8674,-4,0,8,0,585115,0
585116,338,-1687,136,-91,-1448,-3681,-96,9,23,599,192,35515,39,34,127,0,0,87,16,0,9588,-821,242,8684,-4,0,8,0,585131,0
585126,1356,-1307,-353,-91,-906,-4000,-96,-3,-21,667,192,35520,34,34,127,0,0,85,-76,0,9588,-821,242,8694,-4,0,9,0,585131,0
585136,1859,-1064,-542,-120,-665,-3899,-97,5,-22,656,200,35520,26,34,127,0,0,80,-21,0,9588,-821,242,8704,-4,0,10,0,585131,0
585147,1857,-1173,-169,-226,-613,-3702,-95,5,11,641,192,35508,20,34,127,0,0,72,-87,0,9588,-821,242,8715,-4,0,11,0,585146,0
585157,1642,-1995,169,50,-634,-3785,-87,27,14,602,176,35507,27,34,127,0,0,79,54,0,9588,-821,242,8725,-4,0,12,0,585146,0
585167,1467,-2618,435,333,-775,-4071,-62,84,50,400,128,35514,19,34,127,0,0,90,109,0,9588,-821,242,8735,-4,0,13,0,585146,0
585177,1799,-4071,804,603,-1365,-3963,-6,100,103,90,112,35526,30,34,127,0,0,140,560,0,9588,-821,242,8745,-4,0,14,0,585146,0
585187,1819,-3942,1185,628,-1783,-3812,50,152,44,492,528,35540,32,34,127,0,0,237,1032,0,9588,-821,242,8755,-4,0,15,0,585177,0
585197,1785,-3386,1276,504,-2573,-3525,194,388,166,756,1304,35539,27,34,127,0,0,386,1538,0,9588,-821,242,8765,-4,0,17,0,585177,0
585207,1996,-2979,1117,391,-2756,-3525,463,677,418,831,1872,35528,19,34,127,0,0,571,1911,0,9588,-821,242,8775,-4,0,18,0,585193,0
585217,2313,-1809,453,118,-2650,-3695,823,815,421,496,1800,35514,23,34,127,0,0,769,1977,0,9588,-821,242,8785,-4,0,21,0,585193,0
585227,2667,-1978,559,181,-2615,-4091,1190,786,189,258,1336,35512,40,34,127,0,0,955,1812,0,9588,-821,242,8795,-4,0,23,0,585256,0
585237,2260,-1706,330,254,-2123,-3858,1499,615,-104,81,600,35512,34,34,127,0,0,1116,1614,0,9588,-821,242,8805,-4,0,25,0,585256,0
585247,2359,-1367,487,-7,-2164,-3426,1710,395,-305,24,192,35518,24,34,127,0,0,1285,1691,0,9588,-821,242,8815,-4,0,27,0,585256,0
585257,2233,-1195,418,-369,-2224,-2660,1823,245,-383,569,1376,35523,21,34,127,0,0,1465,1845,0,9588,-821,242,8825,-4,0,30,0,585271,0
585267,1995,-1346,293,-523,-2307,-2131,2118,847,144,1454,2744,35517,19,34,127,0,0,1661,1966,0,9588,-821,242,8835,-4,0,33,0,585271,0
585277,1821,-1400,358,-566,-2094,-1155,2669,1355,875,1212,3840,35499,47,34,127,0,0,1880,2197,0,9588,-821,242,8845,-4,0,36,0,585271,0
585287,1767,-911,363,-610,-2074,-456,3394,1691,827,1086,4528,35486,74,34,127,0,0,2120,2460,0,9588,-821,242,8855,-4,0,38,0,585271,0
585297,1738,-8,387,-765,-1830,397,4239,1935,555,1021,5152,35474,114,34,127,0,0,2368,2373,0,9588,-821,242,8865,-4,0,41,0,585271,0
585307,1888,647,-90,-661,-1400,614,5177,2109,402,687,5368,35486,142,34,127,0,0,2586,2087,0,9588,-821,242,8875,-4,0,44,0,585271,0
585317,1123,1938,-997,-562,30,779,6175,2221,296,421,5088,35504,156,34,127,0,0,2753,1614,0,9588,-821,242,8885,-4,0,47,0,585302,0
585327,4173,3366,-2341,-973,2769,-180,7164,2148,100,84,3848,35518,130,34,127,0,0,2729,-615,0,9588,-821,242,8895,-4,0,49,0,585302,0
585337,-120,1029,-1373,-1146,2075,168,7951,1422,-366,-1247,64,35522,84,34,127,0,0,2482,-2548,0,9588,-821,242,8905,-4,0,51,66,585318,0
585347,-276,11,-560,-933,1137,2092,7961,-536,-1906,-2305,-1776,35522,20,34,127,0,0,2331,-1318,0,9588,-821,242,8915,-4,0,53,64,585318,0
585357,136,-1168,543,-520,245,4195,7599,-826,-2326,-304,-1352,35519,7,34,127,0,0,2329,87,0,9588,-821,242,8925,-4,0,55,61,585365,0
585367,87,-1559,1089,-32,151,5020,7259,-683,-608,67,-264,35525,-2,34,127,0,0,2386,593,0,9588,-821,242,8935,-4,0,56,58,585365,0
585377,79,-508,874,294,466,5162,7147,71,467,1155,384,35520,12,34,127,0,0,2410,142,0,9588,-821,242,8945,-4,0,59,53,585381,0
585387,386,51,206,242,136,5739,7256,253,939,237,120,35529,3,34,127,0,0,2410,-32,0,9588,-821,242,8955,-4,0,60,49,585381,0
585397,849,441,-409,194,-468,6975,7312,49,307,91,32,35514,-17,34,127,0,0,2414,43,0,9588,-821,242,8965,-4,0,63,44,585381,0
585408,863,328,-541,348,-977,7906,7313,13,-230,386,184,35500,-4,34,127,0,0,2434,186,0,9588,-821,242,8976,-4,0,64,40,585381,0
585418,723,-28,-290,894,-1554,9045,7362,169,8,504,352,35503,-14,34,127,0,0,2469,373,0,9588,-821,242,8986,-4,0,67,35,585396,0
585428,558,-134,-42,1224,-1973,9675,7470,255,217,486,544,35518,-5,34,127,0,0,2516,521,0,9588,-821,242,8996,-4,0,68,31,585396,0
585438,348,-128,336,1575,-2572,10334,7610,341,169,621,880,35532,5,34,127,0,0,2589,714,0,9588,-821,242,9006,-4,0,71,26,585443,0
585448,319,-164,349,1725,-2795,10647,7801,467,162,752,1344,35542,20,34,127,0,0,2681,933,0,9588,-821,242,9016,-4,0,73,22,585443,0
585458,315,-388,91,1934,-2584,11091,8073,648,254,813,1840,35525,33,34,127,0,0,2804,1257,0,9588,-821,242,9026,-4,0,75,17,585443,0
585468,277,-518,-39,2107,-2186,11415,8431,861,317,954,2528,35513,34,34,127,0,0,2959,1658,0,9588,-821,242,9036,-4,0,77,13,585443,0
585478,335,-560,-201,2435,-1499,11672,8919,1174,416,1049,3392,35499,44,34,127,0,0,3162,2180,0,9588,-821,242,9046,-4,0,79,8,585490,0
585488,437,-506,-199,2690,-1160,11655,9578,1576,576,1185,4440,35497,83,34,127,0,0,3391,2323,0,9588,-821,242,9056,-4,0,81,5,585490,0
585498,737,-428,-222,3044,-867,11517,10428,1984,705,1062,5200,35484,108,34,127,0,0,3628,2395,0,9588,-821,242,9066,-4,0,84,0,585490,0
585508,993,-423,-210,3140,-702,11338,11411,2227,627,956,5800,35477,146,34,127,0,0,3874,2444,0,9588,-821,242,9076,-4,0,86,-2,585490,0
585518,1071,-543,9,3262,-399,10932,12476,2391,407,831,6184,35465,164,34,127,0,0,4108,2318,0,9588,-821,242,9086,-4,0,89,-7,585506,0
585528,1150,-646,31,3300,-291,10672,13609,2541,280,655,6272,35460,180,34,127,0,0,4334,2279,0,9588,-821,242,9096,-4,0,91,-9,585506,0
585538,1239,-797,65,3263,-311,10235,14805,2668,257,611,6280,35466,168,34,127,0,0,4552,2158,0,9588,-821,242,9106,-4,0,93,-13,585506,0
585548,1393,-994,1,3263,-249,9909,16006,2604,144,446,6072,35479,157,34,127,0,0,4759,2043,0,9588,-821,242,9116,-4,0,95,-15,585558,0
585558,1434,-1386,-92,3182,1,9224,17147,2484,-120,440,5840,35498,134,34,127,0,0,4949,1856,0,9588,-821,242,9126,-4,0,97,-19,585558,0
585568,1349,-1729,-74,3102,162,8737,18250,2408,-186,400,5536,35498,119,34,127,0,0,5122,1708,0,9588,-821,242,9136,-4,0,98,-21,585558,0
585578,1291,-2325,-100,2929,427,8049,19297,2243,-170,330,5184,35481,109,34,127,0,0,5289,1669,0,9588,-821,242,9146,-4,0,99,-22,585558,0
585588,1273,-2763,-1,2848,561,7571,20250,2044,-286,404,5008,35478,87,34,127,0,0,5460,1774,0,9588,-821,242,9156,-4,0,99,-22,585558,0
585598,1161,-3136,190,2639,618,6968,21143,1922,-291,238,3344,35489,79,34,127,0,0,5622,1636,0,9588,-821,242,9166,-4,0,99,-22,585573,0
585608,1240,-3249,268,2397,641,6589,21863,1371,-425,-762,864,35506,63,34,127,0,0,5768,1499,0,9588,-821,242,9176,-4,0,99,-22,585605,0
585618,1215,-2868,189,1947,511,6106,22124,76,-1190,-2283,-944,35524,27,34,127,0,0,5909,1351,0,9588,-821,242,9186,-4,0,99,-22,585605,0
585628,1155,-2636,19,1662,389,5433,21900,-588,-1893,-760,-1824,35519,13,34,127,0,0,6020,1076,0,9588,-821,242,9196,-4,0,99,-22,585605,0
585639,1158,-2463,-207,1305,-25,4748,21479,-970,-1090,-1021,-2896,35507,49,34,127,0,0,6114,780,0,9588,-821,242,9207,-4,0,99,-22,585620,0
585649,904,-2623,-244,1020,-219,4242,20936,-1292,-584,-1016,-3696,35498,95,34,127,0,0,6183,670,0,9588,-821,242,9217,-4,0,99,-22,585620,0
585659,743,-2696,-202,842,-305,3929,20248,-1613,-568,-1044,-4464,35493,120,34,127,0,0,6233,527,0,9588,-821,242,9227,-4,0,99,-22,585651,0
585669,504,-2651,-69,481,-366,3318,19421,-1901,-546,-829,-4968,35486,133,34,127,0,0,6279,417,0,9588,-821,242,9237,-4,0,99,-22,585651,0
585679,597,-2662,-67,208,-187,2873,18476,-2145,-498,-771,-5360,35478,121,34,127,0,0,6303,252,0,9588,-821,242,9247,-4,0,99,-22,585651,0
585689,477,-2901,76,-94,140,2338,17450,-2292,-380,-720,-5816,35483,132,34,127,0,0,6306,10,0,9588,-821,242,9257,-4,0,99,-22,585683,0
585699,270,-3110,-6,-178,310,2051,16349,-2487,-293,-832,-6304,35466,160,34,127,0,0,6306,-10,0,9588,-821,242,9267,-4,0,99,-22,585683,0
585709,-239,-3196,138,-192,477,1387,15144,-2701,-348,-670,-6432,35466,170,34,127,0,0,6310,0,0,9588,-821,242,9277,-4,0,99,-22,585683,0
585719,-278,-3205,67,-155,706,901,13897,-2739,-290,-603,-6496,35462,162,34,127,0,0,6310,10,0,9588,-821,242,9287,-4,0,99,-22,585683,0
585729,-326,-2878,-38,-222,1417,201,12687,-2618,-11,-479,-6488,35470,127,34,127,0,0,6312,21,0,9588,-821,242,9297,-4,0,99,-22,585714,0
585739,-463,-2740,-7,-289,1842,-240,11512,-2595,149,-599,-6528,35464,137,34,127,0,0,6310,0,0,9588,-821,242,9307,-4,0,99,-22,585730,0
585749,-527,-2690,137,-383,2220,-1006,10302,-2681,-13,-543,-6416,35466,142,34,127,0,0,6312,21,0,9588,-821,242,9317,-4,0,99,-22,585730,0
585759,-438,-2597,223,-413,2299,-1505,9104,-2609,-58,-469,-6224,35465,130,34,127,0,0,6310,-21,0,9588,-821,242,9327,-4,0,99,-22,585730,0
585769,-324,-2369,193,-544,2229,-1879,7939,-2570,95,-476,-6176,35477,105,34,127,0,0,6330,186,0,9588,-821,242,9337,-4,0,99,-22,585761,0
585779,-330,-2375,187,-581,2128,-2148,6782,-2534,70,-432,-5976,35478,93,34,127,0,0,6363,351,0,9588,-821,242,9347,-4,0,99,-22,585761,0
585789,-210,-2303,179,-604,1759,-2588,5665,-2432,93,-701,-5960,35472,95,34,127,0,0,6405,439,0,1644,644,243,1,1,4,99,-22,585776,0
585799,2242,-4349,2476,85,3133,-3014,4612,-2219,192,-256,-4568,35472,92,34,127,0,0,6317,-1175,0,1644,644,243,11,1,4,99,-22,585776,0
585809,-884,-4564,733,16,3477,-6512,3685,-2111,400,-1375,-7136,35463,154,34,127,0,0,5895,-4394,0,1644,644,243,21,1,4,99,-22,585792,0
585819,-1617,289,3184,812,4091,-6098,2451,-2748,-365,-437,-5144,35457,184,34,127,0,0,5403,-4921,0,1644,644,243,31,1,4,99,-22,585808,0
585829,1782,-2550,454,-620,1440,-6117,1498,-1494,-170,3438,1664,35462,139,34,127,0,0,5014,-3790,0,1644,644,243,41,1,4,99,-22,585808,0
585839,-719,-2806,959,-1045,672,-5345,1949,1512,3308,2812,4760,35461,176,34,127,0,0,4601,-4053,0,1644,644,243,51,1,4,99,-22,585808,0
585849,-867,-3510,151,-107,-102,-4283,2955,2549,3785,2251,7216,35463,200,34,127,0,0,4284,-3186,0,1644,644,243,61,1,4,99,-22,585855,0
585859,-1408,-2318,50,266,263,-3896,4350,3285,1764,1936,9352,35414,383,34,127,0,0,4001,-2801,0,1644,644,243,71,1,4,99,-22,585886,0
585869,-412,-1814,1028,361,923,-4872,6141,4254,1475,1769,11232,35376,457,34,127,0,0,3706,-3010,0,1644,644,243,81,1,4,99,-22,585886,0
585879,-808,-1122,680,-116,1342,-5467,8314,4876,1545,983,8720,35367,424,34,127,0,0,3350,-3592,0,1644,644,243,91,1,4,99,-22,585886,0
585889,-1793,-18958,-2835,-2840,-512,-5295,9895,2605,-304,-4309,1752,35466,98,34,127,0,0,3019,-3328,0,1644,644,243,101,1,4,99,-22,585886,0
585899,511,-4030,3644,1149,-406,-987,10210,-108,-3719,-3403,-432,35521,-59,34,127,0,0,2988,384,0,1644,644,243,111,1,4,99,-22,585901,0
585909,-3930,-5383,-1135,-1355,-615,-4246,10069,-332,-3403,-454,-1296,35561,-191,34,127,0,0,2830,-1658,0,1644,644,243,121,1,4,99,-22,585901,0
585919,-1436,-945,2016,-395,365,-5898,9802,-672,-1024,-874,-1984,35501,8,34,127,0,0,2680,-1614,0,1644,644,243,131,1,4,99,-22,585901,0
585930,-226,-1631,-736,-489,1354,-6649,9331,-1073,-566,-997,-2992,35502,56,34,127,0,0,2471,-1867,0,1644,644,243,142,1,4,99,-22,585901,0
585940,-539,-1225,-45,-5,342,-6815,8736,-1425,-602,-1026,-3792,35510,82,34,127,0,0,2262,-1950,0,1644,644,243,152,1,4,99,-22,585941,0
585950,1951,-2564,1036,-122,358,-5946,8011,-1652,-562,-650,-4104,35512,97,34,127,0,0,2072,-1812,0,1644,644,243,162,1,4,99,-22,585941,0
585960,1514,-3775,1488,-207,-25,-4863,7299,-1761,-378,-369,-3880,35503,97,34,127,0,0,1951,-1082,0,1644,644,243,172,1,4,99,-22,585941,0
585970,1845,-1980,1823,-533,-574,-3597,6550,-1565,-32,-120,-2920,35500,74,34,127,0,0,1913,-313,0,1644,644,243,182,1,4,99,-22,585941,0
585980,2190,-487,595,-696,-588,-3324,5951,-1208,411,-13,-1992,35504,48,34,127,0,0,1881,-340,0,1644,644,243,192,1,4,99,-22,585957,0
585990,2269,-365,-632,-838,-632,-2739,5505,-888,591,-59,-1512,35512,40,34,127,0,0,1834,-527,0,1644,644,243,202,1,4,99,-22,585988,0
586000,2528,-559,-1057,-594,-489,-2278,5177,-669,507,-234,-1328,35510,39,34,127,0,0,1784,-527,0,1644,644,243,212,1,4,99,-22,585988,0
586010,2275,-237,-1077,-181,-156,-1663,4905,-574,309,-448,-1392,35509,18,34,127,0,0,1714,-659,0,1644,644,243,222,1,4,99,-22,585988,0
586020,1983,-271,-712,26,32,-1436,4640,-598,94,-621,-1608,35502,21,34,127,0,0,1642,-807,0,1644,644,243,232,1,4,99,-22,585988,0
586030,1472,-690,-10,90,178,-1300,4343,-689,-67,-741,-1968,35510,41,34,127,0,0,1540,-972,0,1644,644,243,242,1,4,99,-22,586019,0
586040,1093,-1041,541,-52,130,-1270,3979,-851,-201,-870,-2448,35502,85,34,127,0,0,1429,-1115,0,1644,644,243,252,1,4,99,-22,586019,0
586050,693,-2530,582,-456,-55,-1351,3536,-1037,-286,-882,-2904,35498,93,34,127,0,0,1301,-1230,0,1644,644,243,262,1,4,99,-22,586019,0
586060,-121,-3926,392,-1059,-106,-1120,2998,-1239,-212,-777,-3080,35496,88,34,127,0,0,1210,-829,0,1644,644,243,272,1,4,99,-22,586035,0
586070,-213,-3085,960,-728,-200,-1287,2429,-1220,-169,-413,-2664,35497,69,34,127,0,0,1157,-477,0,1644,644,243,282,1,4,99,-22,586035,0
586080,-467,-2917,709,-390,-127,-1875,1923,-1083,-46,-366,-2384,35508,66,34,127,0,0,1094,-631,0,1644,644,243,292,1,4,99,-22,586066,0
586090,11,-2282,572,-112,206,-2646,1469,-984,227,-543,-2344,35509,46,34,127,0,0,1026,-714,0,1644,644,243,302,1,4,99,-22,586081,0
586100,396,-2049,391,-98,73,-2955,1024,-977,112,-542,-2048,35507,52,34,127,0,0,940,-867,0,1644,644,243,312,1,4,99,-22,586081,0
586110,804,-1930,356,-115,-225,-3075,635,-786,111,-207,-1264,35515,43,34,127,0,0,856,-834,0,1644,644,243,322,1,4,99,-22,586081,0
586120,731,-1871,359,-152,-423,-3073,348,-558,310,-158,-696,35514,44,34,127,0,0,784,-708,0,1644,644,243,332,1,4,99,-22,586097,0
586130,659,-1678,504,-286,-526,-3251,162,-354,390,-225,-336,35518,32,34,127,0,0,711,-692,0,1644,644,243,342,1,4,99,-22,586113,0
586140,810,-1652,372,-357,-534,-3414,59,-164,347,-257,-216,35527,35,34,127,0,0,639,-747,0,1644,644,243,352,1,4,99,-22,586128,0
586150,1061,-1880,-17,-405,-488,-3455,-3,-118,243,-497,-384,35527,46,34,127,0,0,562,-774,0,1644,644,243,362,1,4,99,-22,586128,0
586161,964,-1900,-172,-326,-552,-3334,-86,-183,34,-657,-424,35532,49,34,127,0,0,494,-604,0,1644,644,243,373,1,4,99,-22,586160,0
586171,921,-1784,-216,-363,-600,-3391,-196,-245,-92,-399,-304,35521,41,34,127,0,0,435,-560,0,1644,644,243,383,1,4,99,-22,586160,0
586181,791,-2621,37,-304,-762,-3509,-282,-184,-20,-395,-264,35524,27,34,127,0,0,380,-505,0,1644,644,243,393,1,4,99,-22,586160,0
586191,302,-2758,394,-244,-995,-3600,-361,-145,60,-316,-88,35520,19,34,127,0,0,342,-362,0,1644,644,243,403,1,4,99,-22,586160,0
586201,-100,-2309,827,-143,-898,-4292,-359,81,165,-53,48,35522,8,34,127,0,0,312,-329,0,1644,644,243,413,1,4,99,-22,586175,0
586211,238,-1739,578,-45,-767,-4801,-320,78,242,101,64,35526,9,34,127,0,0,270,-428,0,1644,644,243,423,1,4,99,-22,586206,0
586221,1296,-866,-187,153,-439,-5349,-304,-10,24,-89,-40,35533,-6,34,127,0,0,213,-604,0,1644,644,243,433,1,4,99,-22,586222,0
586231,1795,-1028,-491,165,-559,-5225,-341,-118,-154,-517,-392,35539,-6,34,127,0,0,145,-648,0,1644,644,243,443,1,4,99,-22,586222,0
586241,2151,-1435,-196,165,-627,-4673,-432,-218,-206,-625,-456,35531,2,34,127,0,0,85,-527,0,1644,644,243,453,1,4,99,-22,586238,0
586251,1779,-1868,74,108,-774,-4414,-548,-249,-154,-425,-344,35517,15,34,127,0,0,46,-384,0,1644,644,243,463,1,4,99,-22,586238,0
586261,1078,-2293,841,-76,-1286,-4384,-639,-159,-3,-121,72,35507,12,34,127,0,0,30,-131,0,1644,644,243,473,1,4,99,-22,586238,0
586271,829,-2626,734,6,-1341,-4732,-593,176,311,369,336,35524,4,34,127,0,0,19,-109,0,1644,644,243,483,1,4,99,-22,586269,0
586281,971,-2874,464,221,-1350,-5054,-489,241,390,515,616,35541,5,34,127,0,0,26,76,0,1644,644,243,493,1,4,99,-22,586269,0
586291,1430,-2482,193,370,-1307,-5281,-349,330,169,688,704,35535,30,34,127,0,0,41,186,0,1644,644,243,503,1,4,99,-22,586269,0
586301,1436,-2558,339,318,-1343,-5418,-215,265,57,563,448,35515,28,34,127,0,0,61,175,0,1644,644,243,513,1,4,99,-22,586285,0
586311,1224,-2858,442,381,-1332,-5635,-101,236,-63,340,208,35502,34,34,127,0,0,85,285,0,1644,644,243,523,1,4,99,-22,586285,0
586321,1460,-3833,674,368,-1635,-5706,-14,187,-82,196,192,35512,25,34,127,0,0,147,670,0,1644,644,243,533,1,4,99,-22,586285,0
586331,1267,-3922,991,292,-1790,-5484,82,221,-32,493,536,35527,37,34,127,0,0,241,944,0,1644,644,243,543,1,4,99,-22,586316,0
586341,1727,-3074,1242,215,-1913,-5224,233,384,117,681,1168,35521,54,34,127,0,0,375,1362,0,1644,644,243,553,1,4,99,-22,586316,0
586351,1518,-2822,1115,186,-2046,-4951,476,603,289,711,1400,35509,51,34,127,0,0,527,1538,0,1644,644,243,563,1,4,99,-22,586316,0
586361,1795,-2194,1030,161,-2505,-3916,769,655,277,514,1544,35509,35,34,127,0,0,716,1933,0,1644,644,243,573,1,4,99,-22,586347,0
586371,1799,-1700,957,162,-2796,-3121,1089,720,144,552,1792,35513,23,34,127,0,0,973,2570,0,1644,644,243,583,1,4,99,-22,586347,0
586381,1667,-844,780,118,-3134,-1736,1442,787,116,517,1832,35510,28,34,127,0,0,1259,2922,0,1644,644,243,593,1,4,99,-22,586347,0
586391,1614,-259,566,59,-3320,-764,1801,779,73,458,2128,35509,25,34,127,0,0,1584,3317,0,1644,644,243,603,1,4,99,-22,586363,0
586401,1479,401,-55,-70,-3423,454,2309,1414,259,2146,4704,35497,71,34,127,0,0,1935,3570,0,1644,644,243,613,1,4,99,-22,586410,0
586412,1543,481,-363,-232,-3586,1266,3340,2293,1195,1697,6488,35493,150,34,127,0,0,2364,3856,0,1644,644,243,624,1,4,99,-22,586425,0
586422,1224,839,-353,-275,-3591,2554,4540,2761,1249,1386,7592,35459,237,34,127,0,0,2736,3762,0,1644,644,243,634,1,4,99,-22,586425,0
586432,669,1777,-350,-265,-3161,3544,5944,3221,853,1015,8096,35435,301,34,127,0,0,3066,3229,0,1644,644,243,644,1,4,99,-22,586425,0
586442,1925,2385,-652,-888,-1278,4779,7483,3397,669,466,8024,35427,269,34,127,0,0,3299,2081,0,1644,644,243,654,1,4,99,-22,586425,0
586452,190,1743,-601,-864,330,4244,8949,3115,114,11,5568,35450,204,34,127,0,0,3275,-499,0,1644,644,243,664,0,4,99,-22,586425,0
586462,-840,815,-582,-370,588,5201,10106,2167,-714,-1625,1912,35494,73,34,127,0,0,3139,-1378,0,1644,644,243,674,0,4,99,-22,586441,0
586472,-873,297,-237,-98,347,6269,10637,796,-1813,-1704,-384,35530,-25,34,127,0,0,3038,-966,0,1644,644,243,684,0,4,99,-22,586456,0
586482,-395,-246,386,234,146,7718,10536,-413,-2445,-719,-528,35545,-64,34,127,0,0,3042,115,0,1644,644,243,694,0,4,99,-22,586456,0
586492,-417,-452,437,637,192,8314,10366,-337,-1341,43,104,35543,-37,34,127,0,0,3087,521,0,1644,644,243,704,0,4,99,-22,586456,0
586502,290,-159,-244,940,666,8886,10394,231,288,885,584,35535,-2,34,127,0,0,3134,516,0,1644,644,243,714,0,4,99,-22,586535,0
586512,670,-51,-327,1133,955,9336,10547,368,668,512,888,35523,23,34,127,0,0,3195,626,0,1644,644,243,724,0,4,99,-22,586535,0
586522,798,-71,-344,1571,982,9957,10743,456,299,622,1240,35518,17,34,127,0,0,3276,812,0,1644,644,243,734,0,4,99,-22,586550,0
586532,825,-156,-271,1881,700,10396,11003,640,192,734,1728,35509,33,34,127,0,0,3380,1071,0,1644,644,243,744,0,4,99,-22,586550,0
586542,941,-223,-78,2257,-113,11166,11352,835,294,862,2472,35493,50,34,127,0,0,3535,1614,0,1644,644,243,754,0,4,99,-22,586550,0
586552,1072,-282,6,2459,-762,11704,11831,1155,422,1122,3504,35482,82,34,127,0,0,3737,2136,0,1644,644,243,764,0,4,99,-22,586597,0
586562,1403,-417,-32,2721,-1585,12358,12496,1605,602,1350,4752,35465,113,34,127,0,0,3984,2510,0,1644,644,243,774,0,4,99,-22,586597,0
586572,1474,-492,-214,2896,-1928,12672,13388,2113,790,1311,5792,35459,150,34,127,0,0,4271,2861,0,1644,644,243,784,0,4,99,-22,586597,0
586582,1348,-675,-350,3220,-2391,12962,14509,2616,874,1236,6760,35464,185,34,127,0,0,4578,3175,0,1644,644,243,794,0,4,99,-22,586597,0
586592,1266,-858,-526,3471,-2724,12859,15829,2988,838,1074,7432,35458,238,34,127,0,0,4879,3043,0,1644,644,243,804,0,4,99,-22,586597,0
586602,1216,-1115,-736,3973,-2801,12148,17238,3138,543,881,7792,35450,263,34,127,0,0,5174,2911,0,1644,644,243,814,0,4,99,-22,586597,0
586612,1130,-1322,-807,4274,-2290,11396,18710,3250,287,560,7624,35443,237,34,127,0,0,5431,2554,0,1644,644,243,824,0,4,99,-22,586613,0
586622,784,-1644,-926,4586,-738,10344,20121,3004,16,248,5864,35447,194,34,127,0,0,5630,2026,0,1644,644,243,834,0,4,99,-22,586613,0
586632,841,-2128,-771,4712,601,9373,21264,2227,-614,-1210,2528,35481,94,34,127,0,0,5778,1367,0,1644,644,243,844,0,4,99,-22,586613,0
586642,604,-2615,-231,4595,2139,8430,21888,1013,-1520,-1533,-256,35515,0,34,127,0,0,5883,1027,0,1644,644,243,854,0,4,99,-22,586613,0
586653,631,-3209,90,4052,3185,7521,21785,-567,-2381,-1473,-1904,35527,-34,34,127,0,0,5989,977,0,1644,644,243,865,0,4,99,-22,586659,0
586663,778,-3489,287,3530,3400,7018,21395,-979,-1823,-1016,-2832,35530,-15,34,127,0,0,6086,955,0,1644,644,243,875,0,4,99,-22,586659,0
586673,1141,-4068,151,2355,3476,6412,20871,-1212,-720,-830,-3264,35503,65,34,127,0,0,6202,1175,0,1644,644,243,885,0,4,99,-22,586675,0
586683,1314,-4334,310,1379,3607,5910,20271,-1361,-398,-664,-3504,35486,91,34,127,0,0,6328,1252,0,1644,644,243,895,0,4,99,-22,586675,0
586693,1169,-4732,693,262,3607,4782,19628,-1439,-220,-529,-3608,35467,96,34,127,0,0,6435,1065,0,1644,644,243,905,0,4,99,-22,586675,0
586703,839,-4693,556,-133,3293,3759,18939,-1573,-163,-672,-4032,35472,90,34,127,0,0,6499,582,0,1644,644,243,915,0,4,99,-22,586675,0
586713,401,-3655,125,-372,2627,2046,18148,-1838,-280,-992,-4808,35484,86,34,127,0,0,6508,54,0,1644,644,243,925,0,4,99,-22,586706,0
586723,694,-2942,-272,-340,2439,1156,17219,-2137,-474,-1028,-5688,35479,124,34,127,0,0,6497,-131,0,1644,644,243,935,0,4,99,-22,586706,0
586733,372,-2038,-434,-142,2112,-59,16138,-2481,-561,-1053,-6336,35459,172,34,127,0,0,6484,-109,0,1644,644,243,945,0,4,99,-22,586706,0
586743,382,-1876,-347,65,1799,-881,14916,-2737,-565,-700,-6504,35452,192,34,127,0,0,6481,-32,0,1644,644,243,955,0,4,99,-22,586722,0
586753,327,-2010,-41,286,1269,-1923,13659,-2754,-346,-596,-6608,35464,172,34,127,0,0,6475,-43,0,1644,644,243,965,0,4,99,-22,586753,0
586763,281,-2100,216,201,961,-2382,12445,-2634,24,-523,-6632,35479,148,34,127,0,0,6473,-21,0,1644,644,243,975,0,4,99,-22,586753,0
586773,110,-2374,575,-152,945,-2771,11244,-2665,121,-557,-6568,35477,138,34,127,0,0,6473,0,0,1644,644,243,985,0,4,99,-22,586753,0
586783,-7,-2466,563,-433,1080,-2836,10015,-2718,-45,-496,-6392,35469,134,34,127,0,0,6477,65,0,1644,644,243,995,0,4,99,-22,586753,0
586793,-211,-2550,389,-597,1082,-2627,8823,-2577,6,-369,-6240,35475,126,34,127,0,0,6484,65,0,2435,1551,244,5,1,4,179,-51,586784,0
586803,-204,-2426,204,-588,963,-2343,7659,-2557,139,-410,-6120,35485,112,34,127,0,0,6503,274,0,2435,1551,244,15,1,4,179,-51,586784,0
586813,1013,-4418,386,356,3520,-2760,6505,-2512,66,-576,-6512,35479,106,34,127,0,0,6407,-1219,0,2435,1551,244,25,1,4,179,-51,586784,0
586823,59,-6378,-326,-49,2325,-5185,5218,-3060,-208,-2253,-8464,35448,184,34,127,0,0,6038,-3834,0,2435,1551,244,35,1,4,179,-51,586816,0
586833,-913,-1366,2315,1319,2505,-5857,3661,-3545,-824,-1239,-7640,35412,299,34,127,0,0,5534,-5086,0,2435,1551,244,45,1,4,179,-51,586816,0
586843,720,53,992,210,1227,-5697,2202,-2947,-399,1465,-1528,35424,255,34,127,0,0,5075,-4504,0,2435,1551,244,55,1,4,179,-51,586816,0
586853,-450,-1296,-307,-1201,75,-4917,2119,1099,2784,6464,4224,35457,185,34,127,0,0,4656,-4196,0,2435,1551,244,65,1,4,179,-51,586847,0
586863,156,-3512,-1274,-1184,-588,-4303,3009,2231,4779,1946,6560,35474,117,34,127,0,0,4308,-3460,0,2435,1551,244,75,1,4,179,-51,586847,0
586873,-2365,-3084,-1277,664,-345,-3876,4269,2980,2455,1855,8480,35456,221,34,127,0,0,3972,-3350,0,2435,1551,244,85,1,4,179,-51,586847,0
586883,-1602,-3409,-1013,1029,311,-4361,5894,3871,1394,1753,10288,35403,403,34,127,0,0,3658,-3229,0,2435,1551,244,95,1,4,179,-51,586863,0
586893,-1149,-2994,816,594,1800,-4902,7906,4584,1473,1236,9208,35392,462,34,127,0,0,3333,-3218,0,2435,1551,244,105,1,4,179,-51,586863,0
586904,-405,-2429,1640,81,2218,-4904,9637,2537,-180,-3956,1696,35444,255,34,127,0,0,2963,-3317,0,2435,1551,244,116,1,4,179,-51,586894,0
586914,-8336,-3346,5831,638,1454,-856,9915,-331,-3474,-3838,-1968,35520,20,34,127,0,0,2765,-1768,0,2435,1551,244,126,1,4,179,-51,586894,0
586924,3239,1522,1058,380,-476,-4372,9582,-686,-3726,-306,-1464,35557,-116,34,127,0,0,2681,-1472,0,2435,1551,244,136,1,4,179,-51,586894,0
586934,-1755,-4128,1825,-839,-716,-4029,9239,-811,-1086,-659,-2024,35559,-72,34,127,0,0,2579,-1016,0,2435,1551,244,146,1,4,179,-51,586956,0
586944,-1482,-1709,-179,-249,-276,-5847,8843,-893,-130,-656,-2368,35506,88,34,127,0,0,2438,-1532,0,2435,1551,244,156,1,4,179,-51,586956,0
586954,-612,-1741,-1123,-177,998,-7230,8368,-1119,-240,-849,-3112,35498,69,34,127,0,0,2246,-1994,0,2435,1551,244,166,1,4,179,-51,586956,0
586964,368,-2107,-698,229,2250,-7391,7821,-1428,-427,-919,-3992,35492,85,34,127,0,0,1992,-2669,0,2435,1551,244,176,1,4,179,-51,586956,0
586974,2635,-2615,956,302,984,-6792,7046,-1818,-609,-916,-4488,35485,101,34,127,0,0,1802,-1823,0,2435,1551,244,186,1,4,179,-51,586972,0
586984,1881,-2705,1257,39,587,-5530,6190,-1893,-475,-584,-4368,35468,126,34,127,0,0,1668,-1203,0,2435,1551,244,196,1,4,179,-51,586972,0
586994,3680,-989,1481,-278,-116,-3708,5378,-1721,-23,-176,-3584,35464,102,34,127,0,0,1597,-703,0,2435,1551,244,206,1,4,179,-51,586972,0
587004,3689,-721,1015,-612,-579,-2737,4694,-1413,361,-64,-2720,35491,59,34,127,0,0,1558,-433,0,2435,1551,244,216,1,4,179,-51,586972,0
587014,2385,-950,388,-653,-1059,-1630,4151,-1112,522,-32,-2024,35524,17,34,127,0,0,1524,-302,0,2435,1551,244,226,1,4,179,-51,587019,0
587024,1835,-688,90,-540,-922,-1378,3736,-830,508,-113,-1496,35534,22,34,127,0,0,1493,-318,0,2435,1551,244,236,1,4,179,-51,587019,0
587034,1200,-414,-409,-357,-431,-1496,3420,-649,429,-288,-1376,35528,28,34,127,0,0,1431,-615,0,2435,1551,244,246,1,4,179,-51,587019,0
587044,1192,-489,-395,-251,14,-1666,3142,-622,242,-625,-1680,35513,24,34,127,0,0,1339,-939,0,2435,1551,244,256,1,4,179,-51,587034,0
587054,1504,-837,-74,-201,497,-1717,2810,-802,-65,-892,-2368,35510,26,34,127,0,0,1222,-1252,0,2435,1551,244,266,1,4,179,-51,587034,0
587064,1684,-1111,284,-280,578,-1541,2358,-1085,-252,-1030,-3080,35505,32,34,127,0,0,1087,-1329,0,2435,1551,244,276,1,4,179,-51,587034,0
587074,1203,-3643,-69,-1374,-109,-798,1768,-1387,-521,-973,-3536,35512,57,34,127,0,0,970,-1071,0,2435,1551,244,286,1,4,179,-51,587050,0
587084,317,-4714,2232,-774,-392,-325,1140,-1318,-453,-144,-2280,35509,57,34,127,0,0,927,-417,0,2435,1551,244,296,1,4,179,-51,587066,0
587094,-578,-2267,922,-384,-1075,-526,654,-955,213,-13,-1304,35518,39,34,127,0,0,938,109,0,2435,1551,244,306,1,4,179,-51,587066,0
587104,-372,-1943,555,-336,-1242,-1372,330,-617,590,-55,-656,35521,24,34,127,0,0,932,-38,0,2435,1551,244,316,1,4,179,-51,587097,0
587114,105,-2157,-814,-248,366,-2264,139,-358,560,-183,-272,35519,29,34,127,0,0,880,-521,0,2435,1551,244,326,1,4,179,-51,587097,0
587124,332,-1956,-566,61,666,-2640,42,-164,435,-252,-192,35519,33,34,127,0,0,798,-780,0,2435,1551,244,336,1,4,179,-51,587097,0
587134,794,-1710,8,436,100,-2795,-11,-94,277,-509,-328,35519,21,34,127,0,0,730,-681,0,2435,1551,244,346,1,4,179,-51,587112,0
587144,1216,-1709,456,218,-166,-2726,-67,-126,74,-591,-256,35528,14,34,127,0,0,677,-483,0,2435,1551,244,356,1,4,179,-51,587112,0
587155,1291,-1855,688,-136,-260,-2554,-138,-126,-27,-303,-136,35530,33,34,127,0,0,626,-483,0,2435,1551,244,367,1,4,179,-51,587175,0
587165,1103,-1854,396,-164,-469,-2442,-173,-14,52,-41,-24,35537,35,34,127,0,0,586,-406,0,2435,1551,244,377,1,4,179,-51,587175,0
587175,1017,-1940,243,-111,-657,-2508,-151,38,183,121,88,35530,23,34,127,0,0,553,-329,0,2435,1551,244,387,1,4,179,-51,587175,0
587185,499,-2178,425,4,-848,-2752,-132,53,96,438,184,35522,20,34,127,0,0,520,-307,0,2435,1551,244,397,1,4,179,-51,587191,0
587195,424,-2327,418,-4,-867,-3043,-68,161,81,318,136,35509,20,34,127,0,0,492,-252,0,2435,1551,244,407,1,4,179,-51,587191,0
587205,248,-2482,431,-117,-899,-3531,2,125,105,-31,0,35505,18,34,127,0,0,461,-296,0,2435,1551,244,417,1,4,179,-51,587237,0
587215,299,-2201,532,-235,-808,-3847,13,-8,-102,-113,-24,35506,-11,34,127,0,0,430,-307,0,2435,1551,244,427,1,4,179,-51,587237,0
587225,367,-2148,640,-189,-866,-4424,10,-11,-146,-131,-16,35522,-27,34,127,0,0,397,-329,0,2435,1551,244,437,1,4,179,-51,587237,0
587235,568,-1581,539,-217,-856,-4664,12,0,-14,-84,-24,35532,-33,34,127,0,0,362,-340,0,2435,1551,244,447,1,4,179,-51,587237,0
587245,1433,-870,85,-124,-625,-5010,12,-1,1,-115,-112,35539,-4,34,127,0,0,316,-472,0,2435,1551,244,457,1,4,179,-51,587237,0
587255,1761,-876,-147,-149,-791,-4906,1,-33,-21,-343,-152,35535,1,34,127,0,0,261,-549,0,2435,1551,244,467,1,4,179,-51,587237,0
587265,2099,-1308,-2,-41,-1062,-4474,-40,-107,-78,-396,-160,35539,3,34,127,0,0,215,-461,0,2435,1551,244,477,1,4,179,-51,587237,0
587275,1826,-1746,61,4,-1232,-4284,-60,-10,-22,-320,-88,35536,4,34,127,0,0,184,-307,0,2435,1551,244,487,1,4,179,-51,587253,0
587285,1153,-2938,579,-38,-1865,-4259,-34,80,135,13,72,35537,15,34,127,0,0,166,-153,0,2435,1551,244,497,1,4,179,-51,587269,0
587295,476,-3624,905,74,-2116,-4576,2,56,108,-4,0,35543,1,34,127,0,0,175,76,0,2435,1551,244,507,1,4,179,-51,587269,0
587305,154,-3260,691,222,-2297,-5133,6,1,-48,32,40,35542,-6,34,127,0,0,217,472,0,2435,1551,244,517,1,4,179,-51,587269,0
587315,580,-2555,-202,75,-1365,-5686,32,82,-17,210,0,35550,-15,34,127,0,0,259,373,0,2435,1551,244,527,1,4,179,-51,587362,0
587325,1046,-2845,-467,70,-826,-5948,26,-48,-11,10,-40,35544,3,34,127,0,0,296,373,0,2435,1551,244,537,1,4,179,-51,587362,0
587335,1247,-2847,-97,301,-979,-6003,26,27,-65,-17,64,35543,13,34,127,0,0,355,604,0,2435,1551,244,547,1,4,179,-51,587362,0
587345,1748,-2816,496,270,-1423,-5579,56,86,75,603,472,35537,13,34,127,0,0,454,1010,0,2435,1551,244,557,1,4,179,-51,587362,0
587355,2176,-2637,1012,145,-1666,-5245,184,369,241,713,1048,35520,9,34,127,0,0,593,1384,0,2435,1551,244,567,1,4,179,-51,587362,0
587365,2322,-2343,991,-292,-1709,-5043,397,519,364,609,1208,35503,21,34,127,0,0,751,1560,0,2435,1551,244,577,1,4,179,-51,587378,0
587375,2658,-1988,992,-612,-1806,-5021,647,561,232,441,1056,35496,39,34,127,0,0,918,1625,0,2435,1551,244,587,1,4,179,-51,587378,0
587385,2068,-2164,1091,-386,-1947,-4209,889,510,49,262,672,35500,42,34,127,0,0,1078,1658,0,2435,1551,244,597,1,4,179,-51,587378,0
587395,2217,-1825,995,-212,-2192,-3514,1081,399,-112,266,592,35508,29,34,127,0,0,1274,1966,0,2435,1551,244,607,1,4,179,-51,587378,0
587406,2117,-1450,995,-13,-2424,-2573,1341,692,-10,1466,2688,35516,33,34,127,0,0,1515,2213,0,2435,1551,244,618,1,4,179,-51,587378,0
587416,2040,-1118,1083,74,-2574,-1783,1888,1382,706,1437,4032,35521,60,34,127,0,0,1751,2406,0,2435,1551,244,628,1,4,179,-51,587409,0
587426,1827,299,1060,92,-2676,-580,2680,1873,1066,1218,4944,35518,94,34,127,0,0,2012,2609,0,2435,1551,244,638,1,4,179,-51,587409,0
587436,1392,2054,459,-203,-2622,427,3608,2094,736,962,5440,35502,144,34,127,0,0,2251,2367,0,2435,1551,244,648,1,4,179,-51,587409,0
587446,242,3245,-724,-1168,-2509,2146,4582,2138,348,546,5096,35482,158,34,127,0,0,2373,1087,0,2435,1551,244,658,1,4,179,-51,587441,0
587456,1292,1777,-1388,-1019,-1918,2836,5511,1981,0,45,3656,35477,137,34,127,0,0,2385,-32,0,2435,1551,244,668,0,4,179,-51,587441,0
587466,-685,680,-820,-257,-2038,4272,6298,1580,-352,-407,1528,35483,89,34,127,0,0,2318,-719,0,2435,1551,244,678,0,4,179,-51,587441,0
587476,-886,177,-388,305,-1698,5508,6789,849,-837,-886,-16,35508,23,34,127,0,0,2269,-411,0,2435,1551,244,688,0,4,179,-51,587472,0
587486,-657,126,525,448,-936,6939,6828,-179,-1449,-1068,-272,35535,-20,34,127,0,0,2268,-21,0,2435,1551,244,698,0,4,179,-51,587472,0
587496,-1088,-24,618,588,-384,7488,6733,-175,-1173,-93,24,35532,6,34,127,0,0,2282,142,0,2435,1551,244,708,0,4,179,-51,587472,0
587506,-629,-136,-50,827,793,8009,6761,141,13,183,128,35522,13,34,127,0,0,2301,131,0,2435,1551,244,718,0,4,179,-51,587472,0
587516,-266,-20,-373,1046,1433,8474,6826,150,322,203,192,35513,20,34,127,0,0,2326,318,0,2435,1551,244,728,0,4,179,-51,587503,0
587526,110,207,-371,1417,1834,9234,6898,182,72,424,424,35520,0,34,127,0,0,2378,521,0,2435,1551,244,738,0,4,179,-51,587503,0
587536,342,241,-258,1626,1829,9716,7035,352,135,513,816,35521,5,34,127,0,0,2455,807,0,2435,1551,244,748,0,4,179,-51,587519,0
587546,536,87,-89,1916,1391,10546,7228,460,238,647,1360,35518,22,34,127,0,0,2570,1213,0,2435,1551,244,758,0,4,179,-51,587519,0
587556,727,-7,97,2047,692,11269,7520,728,287,984,2280,35504,37,34,127,0,0,2748,1889,0,2435,1551,244,768,0,4,179,-51,587550,0
587566,1198,-193,333,2342,-460,12345,7985,1181,523,1432,3688,35518,42,34,127,0,0,3016,2713,0,2435,1551,244,778,0,4,179,-51,587566,0
587576,1462,-238,411,2589,-1201,12881,8713,1805,847,1770,5544,35502,92,34,127,0,0,3362,3537,0,2435,1551,244,788,0,4,179,-51,587566,0
587586,1644,-78,223,2846,-2398,13389,9792,2608,1179,1799,7320,35473,178,34,127,0,0,3752,3872,0,2435,1551,244,798,0,4,179,-51,587566,0
587596,1779,-22,94,2978,-3125,13495,11204,3284,1323,1610,8720,35431,270,34,127,0,0,4149,4004,0,2435,1551,244,808,0,4,179,-51,587566,0
587606,1827,-12,-398,3233,-3909,13180,12802,3600,999,1213,9712,35419,343,34,127,0,0,4535,3894,0,2435,1551,244,818,0,4,179,-51,587597,0
587616,1692,-241,-714,3445,-3939,12652,14614,4136,744,898,9736,35420,376,34,127,0,0,4857,3142,0,2435,1551,244,828,0,4,179,-51,587597,0
587626,1368,-629,-1031,3722,-3108,11331,16478,4005,555,293,8896,35423,343,34,127,0,0,5111,2449,0,2435,1551,244,838,0,4,179,-51,587612,0
587636,1238,-1090,-904,3835,-2096,10290,18197,3693,-210,-30,7536,35437,252,34,127,0,0,5295,1790,0,2435,1551,244,848,0,4,179,-51,587612,0
587646,482,-1787,-352,3893,-32,8817,19720,3165,-646,-265,5912,35459,151,34,127,0,0,5422,1285,0,2435,1551,244,858,0,4,179,-51,587628,0
587657,240,-2749,110,3799,2076,7780,21051,2462,-986,-377,3712,35503,45,34,127,0,0,5539,1054,0,2435,1551,244,869,0,4,179,-51,587628,0
587667,264,-3272,231,3603,3417,7398,21855,1373,-1294,-1701,504,35518,-2,34,127,0,0,5653,1131,0,2435,1551,244,879,0,4,179,-51,587644,0
587677,720,-3683,272,3234,5007,6782,21989,-278,-2056,-2474,-1136,35538,-46,34,127,0,0,5794,1450,0,2435,1551,244,889,0,4,179,-51,587706,0
587687,846,-3435,373,2976,5438,6182,21736,-632,-2132,-784,-1840,35529,-31,34,127,0,0,5934,1428,0,2435,1551,244,899,0,4,179,-51,587706,0
587697,1648,-3479,294,2354,5545,5546,21381,-825,-899,-672,-2200,35517,-17,34,127,0,0,6082,1461,0,2435,1551,244,909,0,4,179,-51,587722,0
587707,1963,-3616,439,1904,4793,5092,20969,-948,-295,-699,-2584,35494,39,34,127,0,0,6209,1274,0,2435,1551,244,919,0,4,179,-51,587722,0
587717,2310,-3708,463,1042,3003,4457,20487,-1119,-242,-781,-3056,35486,65,34,127,0,0,6323,1120,0,2435,1551,244,929,0,4,179,-51,587722,0
587727,2261,-3781,509,437,1780,4071,19916,-1325,-307,-847,-3576,35477,77,34,127,0,0,6413,922,0,2435,1551,244,939,0,4,179,-51,587722,0
587737,1676,-3727,436,-80,257,3425,19235,-1566,-385,-774,-4048,35485,83,34,127,0,0,6479,626,0,2435,1551,244,949,0,4,179,-51,587722,0
587747,1065,-3369,188,-205,-486,2812,18444,-1817,-419,-833,-4592,35477,93,34,127,0,0,6517,384,0,2435,1551,244,959,0,4,179,-51,587722,0
587757,337,-2701,-271,44,-1021,1791,17549,-2034,-417,-855,-5112,35471,120,34,127,0,0,6541,241,0,2435,1551,244,969,0,4,179,-51,587737,0
587767,25,-2406,-498,191,-1058,1113,16572,-2197,-360,-810,-5560,35464,134,34,127,0,0,6574,307,0,2435,1551,244,979,0,4,179,-51,587769,0
587777,-452,-2362,-588,427,-591,54,15510,-2390,-316,-666,-5640,35471,146,34,127,0,0,6624,560,0,2435,1551,244,989,0,4,179,-51,587769,0
587787,-570,-2490,-364,368,131,-693,14422,-2379,-223,-400,-5392,35473,135,34,127,0,0,6686,626,0,2435,1551,244,999,0,4,179,-51,587769,0
587797,-546,-2458,-11,68,1921,-1776,13394,-2213,62,-386,-5200,35469,130,34,127,0,0,6760,758,0,2435,1551,244,1009,0,4,179,-51,587800,0
587807,-709,-2773,429,-324,2745,-2363,12440,-2056,265,-377,-5032,35469,104,34,127,0,0,6826,681,0,2435,1551,244,1019,0,4,179,-51,587800,0
587817,1327,-6640,1340,140,5188,-3911,11527,-1999,221,-514,-5240,35480,80,34,127,0,0,6769,-878,0,1986,1416,245,1,1,4,166,-43,587800,0
587827,-1960,-7473,-490,-146,5398,-6357,10422,-2816,-240,-2794,-9040,35484,98,34,127,0,0,6301,-4877,0,1986,1416,245,11,1,4,166,-43,587815,0
587837,-2662,-1255,2409,564,5771,-5514,8588,-4518,-1799,-3263,-12928,35426,303,34,127,0,0,5827,-4614,0,1986,1416,245,21,1,4,166,-43,587815,0
587847,410,-1915,-421,-371,4114,-5969,6080,-5873,-2763,-2151,-12688,35333,610,34,127,0,0,5411,-4207,0,1986,1416,245,31,1,4,166,-43,587815,0
587857,-324,-809,718,-826,990,-6424,4078,-3188,-511,5958,-392,35296,715,34,127,0,0,4926,-4735,0,1986,1416,245,41,1,4,166,-43,587847,0
587867,246,-2263,-1501,-278,857,-5479,4299,1865,5449,7632,6384,35433,294,34,127,0,0,4557,-3603,0,1986,1416,245,51,1,4,166,-43,587847,0
587877,-1081,-1942,-1136,-202,-170,-5054,5537,3026,6448,1947,8632,35456,196,34,127,0,0,4203,-3504,0,1986,1416,245,61,1,4,166,-43,587862,0
587887,-1330,-2530,-409,36,894,-4783,7286,4194,2771,2126,11064,35474,123,34,127,0,0,3884,-3186,0,1986,1416,245,71,1,4,166,-43,587862,0
587897,-978,-2927,1873,408,1714,-5509,9405,4803,1740,1152,8432,35337,602,34,127,0,0,3544,-3438,0,1986,1416,245,81,1,4,166,-43,587878,0
587908,454,-3340,2239,72,2296,-5482,11030,2210,-641,-4271,920,35394,384,34,127,0,0,3150,-3636,0,1986,1416,245,92,1,4,166,-43,587878,0
587918,1001,-2365,2344,-490,1453,-5241,11104,-702,-4094,-4255,-2936,35484,98,34,127,0,0,2809,-3235,0,1986,1416,245,102,1,4,166,-43,587925,0
587928,-7209,-6998,3173,-710,-373,-2396,10444,-1746,-4079,-1466,-4296,35524,-43,34,127,0,0,2646,-1148,0,1986,1416,245,112,1,4,166,-43,587925,0
587938,-177,1852,438,-1316,-842,-4361,9677,-1580,-1596,-26,-3008,35540,-84,34,127,0,0,2555,-1329,0,1986,1416,245,122,1,4,166,-43,587925,0
587948,-2859,-5086,225,-1531,-1376,-4098,9037,-1365,86,-151,-3000,35482,90,34,127,0,0,2446,-1115,0,1986,1416,245,132,1,4,166,-43,587925,0
587958,-1465,-1645,-1211,-804,-74,-5901,8521,-1227,372,-328,-2936,35488,80,34,127,0,0,2304,-1505,0,1986,1416,245,142,1,4,166,-43,587925,0
587968,-664,-1821,-1454,-695,859,-6401,7951,-1297,125,-611,-3344,35496,40,34,127,0,0,2121,-1807,0,1986,1416,245,152,1,4,166,-43,587956,0
587978,467,-1625,-81,34,440,-6516,7295,-1532,-195,-934,-4184,35496,52,34,127,0,0,1881,-2263,0,1986,1416,245,162,1,4,166,-43,587956,0
587988,2591,-1897,707,169,615,-5963,6501,-1781,-443,-707,-4336,35490,67,34,127,0,0,1716,-1735,0,1986,1416,245,172,1,4,166,-43,587956,0
587998,3264,-1814,1259,-181,15,-3991,5689,-1771,-274,-484,-4064,35482,79,34,127,0,0,1604,-1043,0,1986,1416,245,182,1,4,166,-43,587987,0
588008,3319,-1428,1278,-601,-485,-2800,4944,-1562,125,-195,-3360,35483,102,34,127,0,0,1539,-587,0,1986,1416,245,192,1,4,166,-43,587987,0
588018,2538,-992,899,-961,-882,-1722,4315,-1293,380,-109,-2584,35485,84,34,127,0,0,1499,-390,0,1986,1416,245,202,1,4,166,-43,587987,0
588028,1580,-925,73,-1024,-1075,-1412,3811,-1030,473,-138,-2040,35498,50,34,127,0,0,1445,-466,0,1986,1416,245,212,1,4,166,-43,588003,0
588038,1039,-1143,-507,-742,-544,-1486,3407,-841,421,-276,-1816,35509,17,34,127,0,0,1394,-609,0,1986,1416,245,222,1,4,166,-43,588050,0
588048,803,-1237,-850,-625,9,-1593,3054,-759,267,-540,-1936,35507,13,34,127,0,0,1315,-769,0,1986,1416,245,232,1,4,166,-43,588065,0
588058,977,-1680,-346,-649,286,-1512,2683,-840,131,-668,-2136,35503,46,34,127,0,0,1237,-752,0,1986,1416,245,242,1,4,166,-43,588065,0
588068,945,-2053,188,-657,201,-1430,2278,-910,-61,-680,-2272,35500,46,34,127,0,0,1154,-752,0,1986,1416,245,252,1,4,166,-43,588065,0
588078,574,-2555,847,-625,-64,-1388,1845,-965,-150,-624,-2280,35498,61,34,127,0,0,1086,-697,0,1986,1416,245,262,1,4,166,-43,588081,0
588088,322,-2690,1014,-541,-163,-1541,1407,-949,-65,-542,-2224,35493,65,34,127,0,0,1029,-609,0,1986,1416,245,272,1,4,166,-43,588081,0
588098,148,-2393,836,-437,-237,-1929,985,-907,19,-481,-1968,35495,78,34,127,0,0,973,-565,0,1986,1416,245,282,1,4,166,-43,588081,0
588108,365,-2112,591,-480,-319,-2182,619,-748,133,-246,-1232,35497,76,34,127,0,0,919,-549,0,1986,1416,245,292,1,4,166,-43,588081,0
588118,620,-1817,193,-455,-363,-2478,347,-536,282,-202,-688,35513,56,34,127,0,0,855,-604,0,1986,1416,245,302,1,4,166,-43,588112,0
588128,835,-1613,53,-513,-422,-2571,165,-347,358,-238,-328,35520,34,34,127,0,0,783,-708,0,1986,1416,245,312,1,4,166,-43,588112,0
588138,956,-1528,-63,-575,-419,-2653,58,-179,321,-282,-208,35515,42,34,127,0,0,707,-769,0,1986,1416,245,322,1,4,166,-43,588128,0
588149,976,-1559,-24,-545,-326,-2666,-10,-107,212,-476,-320,35510,37,34,127,0,0,632,-747,0,1986,1416,245,333,1,4,166,-43,588128,0
588159,955,-1651,81,-525,-345,-2682,-79,-162,64,-653,-400,35527,26,34,127,0,0,564,-692,0,1986,1416,245,343,1,4,166,-43,588128,0
588169,969,-1792,393,-470,-465,-2772,-182,-257,-81,-486,-376,35544,26,34,127,0,0,496,-681,0,1986,1416,245,353,1,4,166,-43,588159,0
588179,888,-1821,361,-430,-559,-2892,-290,-236,-82,-432,-392,35543,26,34,127,0,0,432,-681,0,1986,1416,245,363,1,4,166,-43,588159,0
588189,731,-2008,310,-377,-644,-3039,-396,-222,-5,-468,-424,35531,18,34,127,0,0,364,-670,0,1986,1416,245,373,1,4,166,-43,588159,0
588199,1443,-2584,152,-444,-898,-3219,-498,-228,15,-527,-408,35521,2,34,127,0,0,307,-549,0,1986,1416,245,383,1,4,166,-43,588175,0
588209,147,-2613,406,-507,-945,-3151,-604,-251,4,-501,-400,35527,-2,34,127,0,0,248,-516,0,1986,1416,245,393,1,4,166,-43,588190,0
588219,889,-2493,777,-628,-1059,-3627,-708,-205,-9,-319,-152,35525,36,34,127,0,0,210,-406,0,1986,1416,245,403,1,4,166,-43,588206,0
588229,599,-2391,276,-640,-1100,-4102,-759,-82,103,-141,-40,35521,38,34,127,0,0,169,-439,0,1986,1416,245,413,1,4,166,-43,588206,0
588239,503,-2179,479,-558,-1161,-4295,-762,6,203,-296,-72,35528,38,34,127,0,0,127,-395,0,1986,1416,245,423,1,4,166,-43,588237,0
588249,1145,-2055,192,-484,-1271,-4791,-762,12,101,-265,-88,35528,19,34,127,0,0,90,-406,0,1986,1416,245,433,1,4,166,-43,588237,0
588259,847,-2096,208,-462,-1456,-4682,-765,-9,-7,-326,-104,35525,34,34,127,0,0,52,-340,0,1986,1416,245,443,1,4,166,-43,588237,0
588269,1348,-1585,11,-429,-1500,-4767,-756,38,13,-2,136,35515,42,34,127,0,0,35,-175,0,1986,1416,245,453,1,4,166,-43,588237,0
588279,1294,-1405,-254,-441,-1468,-4798,-709,118,95,405,320,35514,52,34,127,0,0,13,-175,0,1986,1416,245,463,1,4,166,-43,588268,0
588289,1339,-1511,-451,-356,-1447,-4589,-624,197,145,417,376,35518,40,34,127,0,0,2,-98,0,1986,1416,245,473,1,4,166,-43,588268,0
588299,1795,-1834,-472,-287,-1428,-4552,-530,218,90,822,792,35514,39,34,127,0,0,13,131,0,1986,1416,245,483,1,4,166,-43,588268,0
588309,1438,-3101,-35,-137,-1718,-4586,-396,330,90,1019,792,35503,38,34,127,0,0,32,241,0,1986,1416,245,493,1,4,166,-43,588284,0
588319,648,-4005,534,39,-1857,-5074,-254,288,102,631,512,35500,15,34,127,0,0,63,318,0,1986,1416,245,503,1,4,166,-43,588300,0
588329,-473,-5467,843,253,-1666,-5767,-119,298,0,308,280,35507,7,34,127,0,0,107,516,0,1986,1416,245,513,1,4,166,-43,588300,0
588339,599,-4811,1076,298,-1660,-6137,5,297,-36,385,704,35514,15,34,127,0,0,208,1054,0,1986,1416,245,523,1,4,166,-43,588315,0
588349,1498,-3650,754,72,-2061,-6308,182,451,75,648,1176,35512,28,34,127,0,0,344,1395,0,1986,1416,245,533,1,4,166,-43,588331,0
588359,1757,-3093,710,-72,-2431,-6007,435,614,262,704,1568,35512,26,34,127,0,0,516,1779,0,1986,1416,245,543,1,4,166,-43,588331,0
588369,3489,-2807,398,-473,-2125,-5817,753,738,280,549,1712,35515,14,34,127,0,0,698,1812,0,1986,1416,245,553,1,4,166,-43,588347,0
588379,1956,-2453,1044,-475,-2097,-5372,1085,701,156,237,1216,35535,10,34,127,0,0,883,1878,0,1986,1416,245,563,1,4,166,-43,588362,0
588389,1916,-1562,911,-762,-2378,-4008,1357,548,-96,240,952,35526,40,34,127,0,0,1096,2153,0,1986,1416,245,573,1,4,166,-43,588362,0
588399,1853,-1277,988,-908,-2566,-3021,1584,490,-209,370,1048,35518,38,34,127,0,0,1340,2482,0,1986,1416,245,583,1,4,166,-43,588378,0
588410,1712,-345,976,-810,-2569,-1912,1863,673,-32,1238,2832,35508,53,34,127,0,0,1640,2730,0,1986,1416,245,594,1,4,166,-43,588378,0
588420,1083,567,735,-585,-2336,-1258,2442,1502,679,1628,4328,35506,100,34,127,0,0,1892,2576,0,1986,1416,245,604,1,4,166,-43,588456,0
588430,-99,2608,35,-466,-2131,670,3263,1883,1120,1024,4784,35495,141,34,127,0,0,2093,1999,0,1986,1416,245,614,1,4,166,-43,588456,0
588440,1344,3364,-895,-848,-1837,1536,4129,1879,534,413,4336,35482,152,34,127,0,0,2195,895,0,1986,1416,245,624,1,4,166,-43,588456,0
588450,94,1615,-926,-1010,-1472,2676,4920,1662,-65,37,2688,35487,98,34,127,0,0,2137,-631,0,1986,1416,245,634,0,4,166,-43,588456,0
588460,-338,497,-507,-474,-1025,4272,5533,1176,-475,-500,744,35502,34,34,127,0,0,2072,-576,0,1986,1416,245,644,0,4,166,-43,588456,0
588470,-44,278,411,43,-103,6546,5849,484,-916,-829,-112,35510,2,34,127,0,0,2070,49,0,1986,1416,245,654,0,4,166,-43,588456,0
588480,-708,369,674,156,304,7548,5844,-118,-1208,-231,56,35509,-13,34,127,0,0,2102,318,0,1986,1416,245,664,0,4,166,-43,588456,0
588490,-543,515,395,186,762,8128,5864,133,-573,590,360,35505,1,34,127,0,0,2137,340,0,1986,1416,245,674,0,4,166,-43,588518,0
588500,-298,348,-208,472,1215,8603,5958,227,231,560,480,35514,-7,34,127,0,0,2170,411,0,1986,1416,245,684,0,4,166,-43,588518,0
588510,144,301,-575,1050,1738,9478,6096,319,219,462,672,35523,-3,34,127,0,0,2224,565,0,1986,1416,245,694,0,4,166,-43,588518,0
588520,329,361,-463,1414,1887,10171,6268,407,136,532,1064,35530,16,34,127,0,0,2319,1005,0,1986,1416,245,704,0,4,166,-43,588534,0
588530,419,336,-238,1790,1502,11316,6513,614,201,745,1840,35519,38,34,127,0,0,2480,1631,0,1986,1416,245,714,0,4,166,-43,588534,0
588540,604,247,-37,1978,848,12126,6912,1020,430,1150,3160,35504,51,34,127,0,0,2735,2603,0,1986,1416,245,724,0,4,166,-43,588534,0
588550,1116,265,58,2391,-275,13135,7566,1620,783,1518,4864,35491,93,34,127,0,0,3070,3455,0,1986,1416,245,734,0,4,166,-43,588534,0
588560,1384,184,95,2697,-976,13626,8535,2369,1091,1971,7040,35467,189,34,127,0,0,3489,4141,0,1986,1416,245,744,0,4,166,-43,588534,0
588570,1766,149,-74,3068,-1959,13970,9894,3250,1355,1813,8864,35436,312,34,127,0,0,3924,4301,0,1986,1416,245,754,0,4,166,-43,588565,0
588580,1926,70,-329,3234,-2542,13836,11573,3826,1382,1438,9912,35408,390,34,127,0,0,4334,4147,0,1986,1416,245,764,0,4,166,-43,588565,0
588590,1891,-112,-592,3542,-2977,13079,13378,4068,846,968,10216,35398,396,34,127,0,0,4675,3317,0,1986,1416,245,774,0,4,166,-43,588565,0
588600,1716,-343,-849,3828,-2976,12298,15316,4272,503,331,9248,35425,325,34,127,0,0,4909,2263,0,1986,1416,245,784,0,4,166,-43,588597,0
588610,1125,-676,-1094,4250,-2312,10921,17109,3765,-9,-151,7448,35462,198,34,127,0,0,5066,1395,0,1986,1416,245,794,0,4,166,-43,588597,0
588620,797,-1154,-1034,4337,-1488,10170,18654,3223,-778,-479,5488,35501,57,34,127,0,0,5165,950,0,1986,1416,245,804,0,4,166,-43,588597,0
588630,7,-1905,-752,4130,180,9298,19866,2422,-1111,-552,4008,35524,-33,34,127,0,0,5269,1038,0,1986,1416,245,814,0,4,166,-43,588612,0
588640,-163,-2631,-410,3980,1417,8838,20769,1833,-1247,-223,3584,35541,-36,34,127,0,0,5428,1614,0,1986,1416,245,824,0,4,166,-43,588612,0
588651,153,-3573,-183,3695,3698,7982,21584,1565,-842,72,2616,35544,-12,34,127,0,0,5620,1779,0,1986,1416,245,835,0,4,166,-43,588643,0
588661,813,-3954,-52,3299,5583,7165,22170,1136,-544,-406,712,35537,-8,34,127,0,0,5794,1757,0,1986,1416,245,845,0,4,166,-43,588643,0
588671,1347,-3862,289,2965,5795,6754,22397,59,-943,-1969,-704,35526,-20,34,127,0,0,5969,1746,0,1986,1416,245,855,0,4,166,-43,588643,0
588681,1633,-3905,557,2233,5713,5896,22216,-476,-1546,-609,-1280,35519,-28,34,127,0,0,6121,1516,0,1986,1416,245,865,0,4,166,-43,588659,0
588691,1859,-4007,844,1628,4936,5275,21939,-680,-945,-763,-1976,35509,10,34,127,0,0,6246,1208,0,1986,1416,245,875,0,4,166,-43,588675,0
588701,1804,-3992,1048,731,3464,4369,21549,-940,-402,-941,-2848,35498,58,34,127,0,0,6339,867,0,1986,1416,245,885,0,4,166,-43,588675,0
588711,1488,-3754,906,294,2587,3893,21016,-1267,-489,-1053,-3616,35486,80,34,127,0,0,6409,725,0,1986,1416,245,895,0,4,166,-43,588690,0
588721,778,-3122,438,41,1477,3110,20349,-1554,-535,-979,-4240,35479,114,34,127,0,0,6479,692,0,1986,1416,245,905,0,4,166,-43,588721,0
588731,438,-2679,5,214,1025,2540,19562,-1799,-491,-795,-4632,35468,120,34,127,0,0,6545,670,0,1986,1416,245,915,0,4,166,-43,588721,0
588741,100,-2078,-270,486,828,1641,18692,-1942,-398,-583,-4680,35465,131,34,127,0,0,6635,922,0,1986,1416,245,925,0,4,166,-43,588721,0
588751,-15,-1918,-190,708,1100,934,17806,-1926,-195,-375,-4360,35472,114,34,127,0,0,6743,1131,0,1986,1416,245,935,0,4,166,-43,588721,0
588761,-102,-1993,13,828,1940,-247,16976,-1784,83,-310,-4200,35481,87,34,127,0,0,6842,999,0,1986,1416,245,945,0,4,166,-43,588815,0
588771,-126,-2341,399,694,2296,-1062,16179,-1752,174,-446,-4216,35484,76,34,127,0,0,6945,999,0,1986,1416,245,955,0,4,166,-43,588815,0
588781,-87,-2963,864,430,2594,-2436,15370,-1790,46,-522,-4288,35483,84,34,127,0,0,7029,823,0,1986,1416,245,965,0,4,166,-43,588831,0
588791,-141,-3151,854,242,2759,-3251,14529,-1879,-86,-643,-4496,35476,100,34,127,0,0,7086,560,0,1986,1416,245,975,0,4,166,-43,588831,0
588801,2451,-6976,1050,496,3532,-5001,13656,-1944,-124,-763,-5320,35469,114,34,127,0,0,6980,-1450,0,2115,1485,246,1,1,4,198,-58,588831,0
588811,747,-8635,-518,-522,2416,-7005,12529,-2881,-497,-3088,-9448,35428,235,34,127,0,0,6492,-5086,0,2115,1485,246,11,1,4,198,-58,588831,0
588821,-2690,-1742,1138,831,986,-6140,10643,-4745,-1965,-3447,-13648,35339,550,34,127,0,0,5941,-5405,0,2115,1485,246,21,1,4,198,-58,588831,0
588831,322,-1977,-683,32,-752,-5970,8018,-6074,-2933,-2494,-16448,35242,860,34,127,0,0,5497,-4438,0,2115,1485,246,31,1,4,198,-58,588831,0
588841,-892,-1773,-623,-227,-762,-6197,5290,-5265,-1743,3441,-5336,35294,627,34,127,0,0,5055,-4317,0,2115,1485,246,41,1,4,198,-58,588831,0
588851,-2025,-994,-1452,-262,366,-6494,4537,86,3572,9026,7024,35427,206,34,127,0,0,4636,-4229,0,2115,1485,246,51,1,4,198,-58,588831,0
588861,-921,-1758,-1191,-307,1173,-6264,5739,3154,7845,2914,9152,35459,158,34,127,0,0,4225,-4020,0,2115,1485,246,61,1,4,198,-58,588831,0
588871,-582,-2703,-308,-125,1752,-6811,7581,4392,4877,2108,11760,35452,275,34,127,0,0,3801,-4273,0,2115,1485,246,71,1,4,198,-58,588862,0
588881,-38,-2916,56,-42,2081,-5910,9724,4639,1824,-225,6432,35346,639,34,127,0,0,3407,-3878,0,2115,1485,246,81,1,4,198,-58,588862,0
588891,559,-2673,801,-516,1609,-5471,10922,1708,-1177,-4285,-32,35487,114,34,127,0,0,3047,-3493,0,2115,1485,246,91,1,4,198,-58,588862,0
588902,302,-4759,-1336,-1347,1081,-5594,10767,-974,-4606,-2859,-3472,35535,-28,34,127,0,0,2679,-3328,0,2115,1485,246,102,1,4,198,-58,588878,0
588912,-1264,-9778,2098,-2510,350,-3268,10041,-1809,-3418,-1302,-4392,35552,-114,34,127,0,0,2507,-1499,0,2115,1485,246,112,1,4,198,-58,588909,0
588922,-1737,-1308,901,1099,-1925,-4316,9232,-1697,-1124,-158,-3496,35494,101,34,127,0,0,2434,-812,0,2115,1485,246,122,1,4,198,-58,588909,0
588932,-2770,-3004,239,-1254,-465,-4960,8539,-1457,101,-109,-3136,35483,91,34,127,0,0,2300,-1301,0,2115,1485,246,132,1,4,198,-58,588909,0
588942,-1231,-2217,-183,-377,493,-6830,7922,-1342,376,-393,-3312,35495,47,34,127,0,0,2129,-1840,0,2115,1485,246,142,1,4,198,-58,588909,0
588952,568,-2578,-461,-216,2390,-7099,7259,-1534,56,-798,-4104,35479,59,34,127,0,0,1887,-2471,0,2115,1485,246,152,1,4,198,-58,588940,0
588962,2560,-1902,280,254,271,-6370,6548,-1786,-351,-900,-4408,35477,88,34,127,0,0,1714,-1697,0,2115,1485,246,162,1,4,198,-58,588940,0
588972,3304,-1651,422,-43,-290,-5111,5723,-1811,-319,-514,-4136,35475,91,34,127,0,0,1594,-1126,0,2115,1485,246,172,1,4,198,-58,588940,0
588982,3368,-1301,541,-527,-382,-3420,4955,-1622,68,-232,-3568,35495,76,34,127,0,0,1515,-736,0,2115,1485,246,182,1,4,198,-58,588971,0
588992,2833,-860,423,-705,-717,-2477,4299,-1369,352,-134,-2832,35499,60,34,127,0,0,1469,-499,0,2115,1485,246,192,1,4,198,-58,588971,0
589002,1865,-1053,94,-599,-845,-1881,3763,-1093,444,-143,-2224,35509,54,34,127,0,0,1422,-472,0,2115,1485,246,202,1,4,198,-58,588971,0
589012,1409,-924,2,-469,-654,-1787,3324,-917,418,-226,-1920,35512,40,34,127,0,0,1369,-582,0,2115,1485,246,212,1,4,198,-58,589003,0
589022,1302,-683,-275,-429,-130,-1846,2950,-806,291,-471,-1984,35518,40,34,127,0,0,1289,-807,0,2115,1485,246,222,1,4,198,-58,589003,0
589032,1496,-682,-317,-518,212,-1782,2570,-854,86,-709,-2224,35511,44,34,127,0,0,1200,-906,0,2115,1485,246,232,1,4,198,-58,589018,0
589042,1614,-1278,-389,-803,169,-1404,2140,-984,-127,-806,-2592,35503,68,34,127,0,0,1098,-1032,0,2115,1485,246,242,1,4,198,-58,589018,0
589052,1463,-2101,21,-1037,24,-1030,1643,-1131,-230,-722,-2776,35504,78,34,127,0,0,1012,-873,0,2115,1485,246,252,1,4,198,-58,589034,0
589062,556,-3007,814,-1003,-291,-717,1121,-1144,-57,-443,-2240,35512,83,34,127,0,0,960,-543,0,2115,1485,246,262,1,4,198,-58,589034,0
589072,26,-3073,1085,-708,-331,-983,684,-866,59,-118,-1368,35513,66,34,127,0,0,915,-444,0,2115,1485,246,272,1,4,198,-58,589050,0
589082,-193,-2722,820,-298,-167,-1710,377,-593,303,-120,-752,35507,58,34,127,0,0,865,-455,0,2115,1485,246,282,1,4,198,-58,589096,0
589092,210,-2286,569,-246,-133,-2076,180,-376,458,-217,-360,35510,45,34,127,0,0,815,-488,0,2115,1485,246,292,1,4,198,-58,589096,0
589102,703,-1762,218,-218,-276,-2435,65,-192,371,-229,-176,35514,34,34,127,0,0,760,-593,0,2115,1485,246,302,1,4,198,-58,589096,0
589112,890,-1563,144,-308,-427,-2518,13,-88,278,-302,-176,35517,27,34,127,0,0,694,-604,0,2115,1485,246,312,1,4,198,-58,589112,0
589122,1084,-1427,14,-418,-404,-2589,-5,-29,185,-607,-248,35510,33,34,127,0,0,635,-626,0,2115,1485,246,322,1,4,198,-58,589112,0
589132,1171,-1456,-57,-408,-426,-2586,-50,-124,10,-611,-312,35509,23,34,127,0,0,567,-653,0,2115,1485,246,332,1,4,198,-58,589112,0
589142,1154,-1662,4,-290,-471,-2565,-121,-187,-109,-548,-344,35521,11,34,127,0,0,504,-659,0,2115,1485,246,342,1,4,198,-58,589112,0
589153,937,-1957,289,-186,-609,-2708,-226,-197,-92,-399,-272,35535,9,34,127,0,0,441,-604,0,2115,1485,246,353,1,4,198,-58,589159,0
589163,726,-2280,453,-145,-947,-2830,-309,-182,-11,-415,-248,35540,16,34,127,0,0,384,-549,0,2115,1485,246,363,1,4,198,-58,589159,0
589173,608,-2695,534,-256,-1065,-3156,-382,-149,42,-419,-272,35533,11,34,127,0,0,331,-516,0,2115,1485,246,373,1,4,198,-58,589175,0
589183,382,-3244,520,-293,-1392,-3261,-432,-119,60,-426,-128,35524,20,34,127,0,0,294,-362,0,2115,1485,246,383,1,4,198,-58,589175,0
589193,46,-2587,686,-304,-1338,-3820,-437,60,115,-1,136,35521,32,34,127,0,0,276,-208,0,2115,1485,246,393,1,4,198,-58,589175,0
589203,161,-1932,299,-262,-1198,-4340,-360,209,250,276,256,35520,53,34,127,0,0,254,-241,0,2115,1485,246,403,1,4,198,-58,589175,0
589213,993,-1269,-287,-228,-778,-4871,-258,217,204,269,184,35526,28,34,127,0,0,215,-439,0,2115,1485,246,413,1,4,198,-58,589190,0
589223,1510,-1413,-489,-208,-716,-4922,-200,66,-37,-63,-16,35534,13,34,127,0,0,164,-483,0,2115,1485,246,423,1,4,198,-58,589221,0
589233,1716,-2198,-105,-138,-928,-4567,-230,-103,-267,-172,-56,35545,15,34,127,0,0,127,-362,0,2115,1485,246,433,1,4,198,-58,589221,0
589243,1466,-2610,201,-120,-1357,-4443,-234,52,-134,157,224,35530,32,34,127,0,0,116,-76,0,2115,1485,246,443,1,4,198,-58,589221,0
589253,415,-3607,952,-131,-2130,-4704,-156,230,216,515,312,35522,37,34,127,0,0,125,87,0,2115,1485,246,453,1,4,198,-58,589221,0
589263,-87,-4103,1078,-215,-2578,-4909,-57,203,210,269,200,35525,16,34,127,0,0,175,483,0,2115,1485,246,463,1,4,198,-58,589237,0
589273,241,-2514,320,82,-1994,-5881,49,239,45,248,280,35535,7,34,127,0,0,237,637,0,2115,1485,246,473,1,4,198,-58,589253,0
589283,539,-2050,-768,96,-1567,-6275,152,227,13,262,200,35527,14,34,127,0,0,285,483,0,2115,1485,246,483,1,4,198,-58,589268,0
589293,973,-1723,-452,552,-1468,-6256,224,132,-62,172,112,35518,23,34,127,0,0,342,593,0,2115,1485,246,493,1,4,198,-58,589268,0
589303,1472,-1278,-584,683,-1329,-6186,263,91,-137,550,368,35524,7,34,127,0,0,419,769,0,2115,1485,246,503,1,4,198,-58,589299,0
589313,1811,-1256,108,403,-1257,-5790,358,240,47,557,512,35530,4,34,127,0,0,500,845,0,2115,1485,246,513,1,4,198,-58,589299,0
589323,1910,-1466,596,130,-1495,-5471,493,302,188,466,600,35528,-7,34,127,0,0,597,999,0,2115,1485,246,523,1,4,198,-58,589299,0
589333,2675,-2034,886,-494,-1321,-5314,649,367,115,438,680,35516,21,34,127,0,0,709,1087,0,2115,1485,246,533,1,4,198,-58,589315,0
589343,2418,-2383,1150,-766,-1106,-5171,817,371,68,292,400,35519,23,34,127,0,0,815,1076,0,2115,1485,246,543,1,4,198,-58,589331,0
589353,2147,-2272,1261,-952,-1646,-4407,956,277,-28,236,312,35534,23,34,127,0,0,944,1329,0,2115,1485,246,553,1,4,198,-58,589331,0
589363,2138,-2127,1136,-971,-1966,-3842,1068,255,-113,440,560,35536,20,34,127,0,0,1107,1669,0,2115,1485,246,563,1,4,198,-58,589331,0
589373,2082,-1868,923,-810,-2325,-3140,1214,356,18,542,808,35523,24,34,127,0,0,1296,1922,0,2115,1485,246,573,1,4,198,-58,589362,0
589383,1918,-1634,750,-650,-2547,-2644,1431,604,192,1257,2392,35516,33,34,127,0,0,1502,2120,0,2115,1485,246,583,1,4,198,-58,589362,0
589393,1704,-1030,613,-334,-2897,-1721,1929,1282,678,1471,3776,35502,70,34,127,0,0,1733,2307,0,2115,1485,246,593,1,4,198,-58,589362,0
589404,1585,-302,508,-64,-2883,-1130,2758,1811,1035,1198,4768,35499,111,34,127,0,0,2007,2499,0,2115,1485,246,604,1,4,198,-58,589393,0
589414,262,1597,261,223,-2480,194,3651,2002,705,890,5152,35479,147,34,127,0,0,2225,2158,0,2115,1485,246,614,1,4,198,-58,589393,0
589424,-598,2577,-109,280,-2660,1604,4568,1995,294,436,4680,35478,161,34,127,0,0,2347,1230,0,2115,1485,246,624,1,4,198,-58,589393,0
589434,-204,2352,-1302,-347,-2020,2389,5426,1827,-72,42,3256,35493,120,34,127,0,0,2334,-368,0,2115,1485,246,634,0,4,198,-58,589409,0
589444,-571,1050,-985,55,-1573,3681,6137,1424,-384,-349,1344,35516,59,34,127,0,0,2259,-747,0,2115,1485,246,644,0,4,198,-58,589424,0
589454,-691,108,-364,731,-627,5990,6582,775,-801,-712,-8,35534,21,34,127,0,0,2226,-252,0,2115,1485,246,654,0,4,198,-58,589424,0
589464,-836,172,216,1065,179,7042,6621,-160,-1293,-895,-152,35530,-6,34,127,0,0,2245,159,0,2115,1485,246,664,0,4,198,-58,589440,0
589474,-937,210,379,1360,1031,7777,6581,0,-979,177,168,35515,0,34,127,0,0,2273,318,0,2115,1485,246,674,0,4,198,-58,589456,0
589484,-586,53,114,1537,1503,8117,6656,202,128,348,264,35515,-4,34,127,0,0,2302,258,0,2115,1485,246,684,0,4,198,-58,589456,0
589494,45,4,-276,1833,2145,8974,6751,224,261,400,408,35519,21,34,127,0,0,2340,450,0,2115,1485,246,694,0,4,198,-58,589565,0
589504,301,59,-263,2004,2260,9705,6883,312,102,468,720,35528,32,34,127,0,0,2416,812,0,2115,1485,246,704,0,4,198,-58,589565,0
589514,676,66,-101,2282,1948,10790,7074,472,177,623,1336,35518,38,34,127,0,0,2535,1252,0,2115,1485,246,714,0,4,198,-58,589565,0
589524,838,-10,48,2440,1277,11520,7369,748,307,980,2320,35508,31,34,127,0,0,2716,1845,0,2115,1485,246,724,0,4,198,-58,589565,0
589534,1188,-132,321,2735,-343,12649,7839,1168,537,1347,3640,35503,67,34,127,0,0,2978,2686,0,2115,1485,246,734,0,4,198,-58,589565,0
589544,1376,-124,438,2997,-1529,13325,8559,1771,807,1709,5432,35478,112,34,127,0,0,3333,3636,0,2115,1485,246,744,0,4,198,-58,589581,0
589554,1655,31,157,3255,-3079,14067,9631,2619,1151,1946,7336,35449,212,34,127,0,0,3727,3927,0,2115,1485,246,754,0,4,198,-58,589581,0
589564,1804,149,49,3384,-3867,14369,11057,3334,1371,1698,8936,35419,297,34,127,0,0,4150,4246,0,2115,1485,246,764,0,4,198,-58,589581,0
589574,1646,148,-454,3600,-4551,14406,12706,3724,1104,1353,10096,35396,361,34,127,0,0,4569,4328,0,2115,1485,246,774,0,4,198,-58,589581,0
589584,1451,45,-656,3677,-4589,14021,14601,4367,877,1093,10512,35384,410,34,127,0,0,4948,3795,0,2115,1485,246,784,0,4,198,-58,589581,0
589594,1149,-426,-920,3988,-3836,12758,16618,4386,749,592,10088,35390,394,34,127,0,0,5267,3158,0,2115,1485,246,794,0,4,198,-58,589581,0
589604,1111,-1069,-1046,4343,-2821,11536,18554,4205,57,98,9088,35422,305,34,127,0,0,5519,2532,0,2115,1485,246,804,0,4,198,-58,589581,0
589614,310,-2073,-806,4547,-663,9886,20251,3398,-575,-1112,4912,35478,151,34,127,0,0,5687,1510,0,2115,1485,246,814,0,4,198,-58,589581,0
589624,150,-2863,-290,4557,1321,9054,21284,1823,-1746,-1996,1504,35548,-44,34,127,0,0,5807,1164,0,2115,1485,246,824,0,4,198,-58,589612,0
589634,-387,-3571,317,4354,4024,7914,21687,401,-2485,-2462,-936,35581,-122,34,127,0,0,5911,1016,0,2115,1485,246,834,0,4,198,-58,589612,0
589644,-995,-8826,525,3771,3791,9082,21470,-578,-2423,-578,-528,35565,-92,34,127,0,0,6292,4097,0,2115,1485,246,844,0,4,198,-58,589612,0
589655,2575,1294,1309,3425,7253,6263,21502,564,-511,2233,1936,35527,0,34,127,0,0,6708,3317,0,2115,1485,246,855,0,4,198,-58,589674,0
589665,2696,-2909,-1782,1760,7766,4248,21839,733,1233,267,1080,35503,58,34,127,0,0,6908,1812,0,2115,1485,246,865,0,4,198,-58,589674,0
589675,1480,-5100,-799,1311,8313,1553,22038,108,275,-1780,-1880,35500,48,34,127,0,0,6831,-1120,0,2115,1485,246,875,0,4,198,-58,589674,0
589685,1657,-4039,1269,1255,5344,1650,21538,-1531,-1611,-2696,-5528,35493,87,34,127,0,0,6679,-1505,0,2115,1485,246,885,0,4,198,-58,589674,0
589695,2275,-4027,1128,327,4617,2936,20501,-2504,-2434,-1635,-6736,35456,165,34,127,0,0,6668,54,0,2115,1485,246,895,0,4,198,-58,589674,0
589705,1109,-2864,899,-287,3594,3295,19279,-2724,-1382,-448,-6312,35446,226,34,127,0,0,6752,933,0,2115,1485,246,905,0,4,198,-58,589690,0
589715,897,-2619,-107,-521,2822,2546,18079,-2568,-296,-72,-5328,35455,228,34,127,0,0,6851,944,0,2115,1485,246,915,0,4,198,-58,589690,0
589725,295,-2309,-1127,-30,1734,1034,17020,-2225,314,-66,-4920,35493,138,34,127,0,0,6927,780,0,2115,1485,246,925,0,4,198,-58,589737,0
589735,85,-2264,-1177,372,1760,53,16062,-2080,483,-394,-5168,35518,52,34,127,0,0,6967,384,0,2115,1485,246,935,0,4,198,-58,589737,0
589745,78,-2369,-470,818,1907,-1099,15065,-2248,118,-721,-5352,35507,53,34,127,0,0,7004,362,0,2115,1485,246,945,0,4,198,-58,589784,0
589755,640,-4904,492,820,47,-2002,14022,-2296,-187,-636,-5488,35482,84,34,127,0,0,7011,54,0,2115,1485,246,955,0,4,198,-58,589784,0
589765,3677,-9511,1665,142,1093,-6566,12941,-2495,-148,-1657,-7680,35459,139,34,127,0,0,6686,-3592,0,2066,1627,247,5,1,4,194,-48,589784,0
589775,-556,-2324,3338,1575,1524,-8188,11380,-3962,-941,-3558,-12528,35418,294,34,127,0,0,6049,-6591,0,2066,1627,247,15,1,4,194,-48,589799,0
589785,-2178,110,-207,239,-435,-6283,8898,-6054,-2740,-3666,-16824,35325,624,34,127,0,0,5501,-5295,0,2066,1627,247,25,1,4,194,-48,589799,0
589795,-317,-3776,15,-1027,-282,-5793,5972,-5976,-2818,2762,-6896,35222,982,34,127,0,0,5082,-4053,0,2066,1627,247,35,1,4,194,-48,589799,0
589805,-2022,-3258,-884,-288,833,-5889,4829,-967,2495,8375,4656,35380,402,34,127,0,0,4664,-4163,0,2066,1627,247,45,1,4,194,-48,589799,0
589815,-2543,-1682,-668,225,1238,-5373,5956,3439,8036,5331,9760,35409,335,34,127,0,0,4289,-3669,0,2066,1627,247,55,1,4,194,-48,589799,0
589825,135,-2009,295,367,1005,-5992,7913,4632,5974,2244,12416,35469,82,34,127,0,0,3941,-3548,0,2066,1627,247,65,1,4,194,-48,589799,0
589835,-802,-1715,95,72,878,-5689,10200,4987,2184,-193,7136,35310,698,34,127,0,0,3574,-3658,0,2066,1627,247,75,1,4,194,-48,589815,0
589845,86,-2643,129,-701,993,-5162,11542,2017,-1106,-4292,784,35382,368,34,127,0,0,3256,-3197,0,2066,1627,247,85,1,4,194,-48,589815,0
589855,5,-2615,-5,-494,1038,-4672,11627,-593,-4386,-3930,-2776,35506,22,34,127,0,0,2961,-2900,0,2066,1627,247,95,1,4,194,-48,589846,0
589865,-72,-1639,-337,-172,1536,-4918,11054,-1493,-3744,-1482,-4360,35566,-183,34,127,0,0,2669,-2911,0,2066,1627,247,105,1,4,194,-48,589846,0
589875,632,-3930,-688,-163,1295,-5031,10193,-2035,-1756,-1181,-5424,35521,-14,34,127,0,0,2384,-2856,0,2066,1627,247,115,1,4,194,-48,589893,0
589885,-2697,-4573,5010,797,347,-2427,9150,-2343,-904,-511,-5384,35458,161,34,127,0,0,2221,-1505,0,2066,1627,247,125,1,4,194,-48,589909,0
589895,238,-806,1446,1330,32,-3086,8153,-2105,-260,29,-3840,35462,128,34,127,0,0,2157,-736,0,2066,1627,247,135,1,4,194,-48,589909,0
589905,-304,-1918,1743,-520,-114,-3392,7302,-1767,380,165,-2968,35477,74,34,127,0,0,2058,-1054,0,2066,1627,247,145,1,4,194,-48,589909,0
589915,194,-2399,636,-443,389,-3558,6618,-1384,598,35,-2592,35495,9,34,127,0,0,1948,-1120,0,2066,1627,247,155,1,4,194,-48,589909,0
589925,1734,-1807,140,-299,483,-3124,6085,-1101,621,-244,-2456,35500,13,34,127,0,0,1852,-977,0,2066,1627,247,165,1,4,194,-48,589909,0
589935,2387,-1667,-25,-232,122,-2529,5618,-1012,416,-440,-2264,35490,33,34,127,0,0,1777,-769,0,2066,1627,247,175,1,4,194,-48,589909,0
589946,2077,-1625,187,-220,-311,-1447,5151,-898,179,-377,-1984,35495,35,34,127,0,0,1725,-417,0,2066,1627,247,186,1,4,194,-48,589924,0
589956,1335,-1722,368,-203,-412,-1147,4817,-776,189,-308,-1576,35515,1,34,127,0,0,1692,-280,0,2066,1627,247,196,1,4,194,-48,589971,0
589966,186,-1660,649,-337,-556,-1307,4517,-607,252,-355,-1296,35529,-8,34,127,0,0,1662,-346,0,2066,1627,247,206,1,4,194,-48,589971,0
589976,100,-1943,615,-426,-348,-1706,4266,-545,228,-461,-1240,35529,19,34,127,0,0,1608,-516,0,2066,1627,247,216,1,4,194,-48,589971,0
589986,167,-2250,409,-350,28,-2148,4028,-535,99,-627,-1456,35514,40,34,127,0,0,1545,-670,0,2066,1627,247,226,1,4,194,-48,589971,0
589996,444,-2137,441,-336,3,-2265,3763,-602,-38,-672,-1624,35504,46,34,127,0,0,1479,-675,0,2066,1627,247,236,1,4,194,-48,589971,0
590006,971,-1929,542,-331,-196,-2445,3462,-670,-128,-571,-1648,35494,47,34,127,0,0,1420,-620,0,2066,1627,247,246,1,4,194,-48,589971,0
590016,478,-1788,536,-275,-367,-2436,3149,-701,-87,-561,-1696,35495,59,34,127,0,0,1352,-626,0,2066,1627,247,256,1,4,194,-48,590002,0
590026,563,-1786,455,-306,-414,-2700,2822,-744,-52,-628,-1832,35499,41,34,127,0,0,1284,-719,0,2066,1627,247,266,1,4,194,-48,590002,0
590036,568,-1855,413,-321,-474,-2883,2470,-790,-79,-658,-1968,35503,23,34,127,0,0,1211,-741,0,2066,1627,247,276,1,4,194,-48,590018,0
590046,521,-2023,283,-311,-666,-3076,2091,-867,-97,-684,-2152,35503,13,34,127,0,0,1138,-708,0,2066,1627,247,286,1,4,194,-48,590049,0
590056,343,-2141,229,-209,-848,-3265,1678,-917,-128,-648,-2256,35500,12,34,127,0,0,1065,-675,0,2066,1627,247,296,1,4,194,-48,590049,0
590066,-50,-2188,263,-43,-961,-3676,1248,-958,-42,-620,-2296,35497,37,34,127,0,0,988,-719,0,2066,1627,247,306,1,4,194,-48,590049,0
590076,113,-2097,232,48,-761,-4135,828,-889,-65,-374,-1656,35497,46,34,127,0,0,914,-823,0,2066,1627,247,316,1,4,194,-48,590049,0
590086,424,-2120,52,111,-587,-4592,492,-665,183,-162,-984,35493,33,34,127,0,0,819,-895,0,2066,1627,247,326,1,4,194,-48,590065,0
590096,721,-2241,5,88,-590,-4670,258,-449,358,-201,-512,35509,14,34,127,0,0,733,-900,0,2066,1627,247,336,1,4,194,-48,590081,0
590106,759,-2208,191,86,-761,-4657,104,-282,356,-230,-208,35520,-10,34,127,0,0,676,-620,0,2066,1627,247,346,1,4,194,-48,590096,0
590116,707,-2090,268,87,-828,-4691,31,-121,304,-177,-112,35522,-6,34,127,0,0,624,-505,0,2066,1627,247,356,1,4,194,-48,590096,0
590126,640,-2061,227,165,-904,-5025,28,39,287,-265,-112,35514,-11,34,127,0,0,582,-472,0,2066,1627,247,366,1,4,194,-48,590096,0
590136,678,-2344,260,205,-1090,-5258,24,-1,147,-254,-48,35524,-6,34,127,0,0,536,-390,0,2066,1627,247,376,1,4,194,-48,590112,0
590146,374,-3040,470,309,-1699,-5565,26,-1,10,-205,-48,35527,-3,34,127,0,0,504,-285,0,2066,1627,247,386,1,4,194,-48,590127,0
590157,-381,-2829,972,250,-2242,-5905,26,-6,2,-182,-48,35528,4,34,127,0,0,507,54,0,2066,1627,247,397,1,4,194,-48,590127,0
590167,432,-1807,618,226,-1288,-6396,27,3,-3,-204,-48,35534,4,34,127,0,0,518,76,0,2066,1627,247,407,1,4,194,-48,590159,0
590177,707,-513,-537,51,-342,-6631,26,-3,1,-187,-48,35545,3,34,127,0,0,509,-54,0,2066,1627,247,417,1,4,194,-48,590159,0
590187,1333,422,-655,155,129,-6836,25,-11,-1,-235,-56,35542,20,34,127,0,0,476,-373,0,2066,1627,247,427,1,4,194,-48,590159,0
590197,2756,230,-710,88,-237,-6396,27,5,4,-182,-48,35534,19,34,127,0,0,439,-373,0,2066,1627,247,437,1,4,194,-48,590174,0
590207,2875,-945,-308,76,-589,-5764,24,-12,1,-199,-48,35528,24,34,127,0,0,410,-241,0,2066,1627,247,447,1,4,194,-48,590206,0
590217,2640,-2719,721,248,-1292,-5080,26,6,0,-178,-48,35533,7,34,127,0,0,417,43,0,2066,1627,247,457,1,4,194,-48,590206,0
590227,1533,-4252,1295,403,-2244,-4677,26,-2,3,-129,8,35533,10,34,127,0,0,470,637,0,2066,1627,247,467,1,4,194,-48,590206,0
590237,333,-5595,2129,638,-3258,-5057,57,112,53,472,456,35531,3,34,127,0,0,577,1131,0,2066,1627,247,477,1,4,194,-48,590206,0
590247,727,-5446,2084,725,-3429,-5802,198,384,266,617,1000,35534,9,34,127,0,0,727,1516,0,2066,1627,247,487,1,4,194,-48,590284,0
590257,812,-5068,1112,506,-1994,-6491,413,497,368,425,904,35538,2,34,127,0,0,876,1516,0,2066,1627,247,497,1,4,194,-48,590284,0
590267,1634,-4401,1280,566,-1859,-6567,625,453,138,256,496,35533,-7,34,127,0,0,1026,1516,0,2066,1627,247,507,1,4,194,-48,590299,0
590277,1753,-3469,1597,519,-2647,-5349,786,318,-108,191,400,35521,6,34,127,0,0,1217,1988,0,2066,1627,247,517,1,4,194,-48,590299,0
590287,2009,-2352,1829,256,-2952,-4272,988,612,-46,1510,2680,35514,20,34,127,0,0,1461,2515,0,2066,1627,247,527,1,4,194,-48,590299,0
590297,928,801,1562,52,-3118,-2288,1542,1462,766,1783,4456,35502,52,34,127,0,0,1740,2856,0,2066,1627,247,537,1,4,194,-48,590299,0
590307,1149,3341,333,-789,-3343,-931,2413,2095,1311,1413,5352,35486,119,34,127,0,0,1979,2307,0,2066,1627,247,547,1,4,194,-48,590299,0
590317,1509,2424,-997,-1848,-4142,1309,3399,2143,854,504,4912,35466,183,34,127,0,0,2120,1351,0,2066,1627,247,557,1,4,194,-48,590299,0
590327,-538,1040,-1966,-1816,-3675,2096,4295,1882,43,101,3616,35463,186,34,127,0,0,2142,54,0,2066,1627,247,567,0,4,194,-48,590299,0
590337,-577,-135,-1076,-585,-3017,3997,5033,1508,-480,-185,2128,35483,120,34,127,0,0,2135,-32,0,2066,1627,247,577,0,4,194,-48,590315,0
590347,-428,-143,-140,-139,-2186,5029,5582,1080,-667,-295,1008,35511,46,34,127,0,0,2135,21,0,2066,1627,247,587,0,4,194,-48,590377,0
590357,-578,641,1226,-495,-822,6357,5937,673,-739,-186,272,35521,10,34,127,0,0,2135,-10,0,2066,1627,247,597,0,4,194,-48,590377,0
590367,-259,713,970,-801,31,7182,6113,234,-705,-362,-24,35517,9,34,127,0,0,2137,54,0,2066,1627,247,607,0,4,194,-48,590377,0
590377,279,496,-165,-941,1058,8593,6106,-57,-709,74,96,35516,26,34,127,0,0,2157,186,0,2066,1627,247,617,0,4,194,-48,590377,0
590387,427,585,-419,-682,1635,9586,6130,106,-292,598,480,35512,27,34,127,0,0,2219,637,0,2066,1627,247,627,0,4,194,-48,590377,0
590397,506,710,-262,-179,1909,10860,6263,353,272,636,976,35515,53,34,127,0,0,2322,1109,0,2066,1627,247,637,0,4,194,-48,590377,0
590408,632,804,79,55,1591,11663,6520,621,390,811,1928,35512,52,34,127,0,0,2498,1730,0,2066,1627,247,648,0,4,194,-48,590393,0
590418,832,703,380,371,643,12829,6926,1036,506,1121,3088,35506,62,34,127,0,0,2732,2356,0,2066,1627,247,658,0,4,194,-48,590393,0
590428,1040,631,194,648,-103,13494,7555,1532,753,1331,4536,35497,66,34,127,0,0,3031,3043,0,2066,1627,247,668,0,4,194,-48,590393,0
590438,1388,683,19,1107,-1251,14299,8435,2125,905,1722,6272,35495,113,34,127,0,0,3409,3707,0,2066,1627,247,678,0,4,194,-48,590424,0
590448,1411,648,-148,1492,-1899,14708,9664,2974,1143,1924,8128,35479,190,34,127,0,0,3807,3982,0,2066,1627,247,688,0,4,194,-48,590440,0
590458,1465,499,-525,1993,-2672,15094,11215,3575,1317,1516,9368,35451,283,34,127,0,0,4216,4125,0,2066,1627,247,698,0,4,194,-48,590440,0
590468,1475,379,-633,2338,-3055,15139,12932,3872,935,1258,10352,35409,351,34,127,0,0,4635,4180,0,2066,1627,247,708,0,4,194,-48,590440,0
590478,1297,18,-712,2933,-3217,14685,14889,4486,763,1043,10616,35395,384,34,127,0,0,5008,3713,0,2066,1627,247,718,0,4,194,-48,590471,0
590488,1120,-331,-876,3359,-2830,13994,16918,4386,647,506,10248,35395,361,34,127,0,0,5347,3312,0,2066,1627,247,728,0,4,194,-48,590471,0
590498,757,-1122,-1053,3990,-1308,12317,18877,4273,-34,215,8792,35420,302,34,127,0,0,5640,2878,0,2066,1627,247,738,0,4,194,-48,590471,0
590508,255,-1834,-848,4222,280,11110,20569,3373,-601,-1179,5128,35454,214,34,127,0,0,5856,2076,0,2066,1627,247,748,0,4,194,-48,590487,0
590518,-171,-3357,-159,4599,3438,9264,21663,2022,-1682,-1760,2056,35512,35,34,127,0,0,6018,1576,0,2066,1627,247,758,0,4,194,-48,590487,0
590528,55,-3695,289,4653,5413,8303,22217,891,-2193,-1520,-368,35547,-78,34,127,0,0,6145,1257,0,2066,1627,247,768,0,4,194,-48,590502,0
590538,978,-4310,499,4225,6569,7602,22120,-462,-2286,-1217,-1344,35565,-121,34,127,0,0,6301,1587,0,2066,1627,247,778,0,4,194,-48,590534,0
590548,1685,-4169,554,3554,6673,7272,21840,-671,-1603,-583,-1552,35544,-49,34,127,0,0,6502,2026,0,2066,1627,247,788,0,4,194,-48,590534,0
