state_time,accelx,accely,accelz,gyrox,gyroy,gyroz,mot_ang,mot_vel,mot_acc,mot_cur,mot_volt,batt_volt,batt_curr,temperature,status_mn,status_ex,status_re,ank_ang,ank_vel,ank_torque,peak_ank_torque,step_energy,step_count,step_time,gait_state,movement,speed,incline,sys_time,eventFlags
59477,148,-2084,156,-28,28,217,11750,23,8,445,136,35308,25,34,127,0,0,3342,32,0,14260,3467,28,5669,-4,0,8,0,1548487,0
59487,150,-2083,154,-29,32,223,11763,41,23,433,168,35298,29,34,127,0,0,3346,32,0,14260,3467,28,5679,-4,0,8,0,59477,0
59497,124,-2088,151,-27,36,226,11800,113,52,319,112,35294,25,34,127,0,0,3348,21,0,14260,3467,28,5689,-4,0,8,0,59477,0
59507,176,-2074,170,-23,23,241,11832,51,45,250,72,35292,18,34,127,0,0,3353,76,0,14260,3467,28,5699,-4,0,8,0,59493,0
59517,120,-2092,153,-17,33,242,11858,67,-30,268,48,35287,15,34,127,0,0,3355,21,0,14260,3467,28,5709,-4,0,8,0,59493,0
59527,139,-2070,160,-14,30,237,11869,1,-36,247,128,35289,19,34,127,0,0,3359,54,0,14260,3467,28,5719,-4,0,8,0,59509,0
59537,112,-2079,161,-15,32,241,11871,11,-54,392,168,35296,24,34,127,0,0,3361,10,0,14260,3467,28,5729,-4,0,8,0,59509,0
59547,133,-2076,170,-13,41,231,11877,14,0,469,120,35305,29,34,127,0,0,3368,43,0,14260,3467,28,5739,-4,0,8,0,59524,0
59557,117,-2079,167,-15,35,225,11887,28,14,537,152,35307,38,34,127,0,0,3370,32,0,14260,3467,28,5749,-4,0,8,0,59555,0
59567,112,-2082,161,-19,38,226,11916,90,50,403,152,35296,41,34,127,0,0,3375,43,0,14260,3467,28,5759,-4,0,8,0,59555,0
59577,140,-2078,178,-21,30,225,11949,44,40,352,128,35292,30,34,127,0,0,3377,21,0,14260,3467,28,5769,-4,0,8,0,59555,0
59587,100,-2081,161,-21,31,213,11956,14,-59,469,168,35291,32,34,127,0,0,3381,10,0,14260,3467,28,5779,-4,0,8,0,59555,0
59597,105,-2081,172,-19,43,203,11970,33,-25,406,128,35308,48,34,127,0,0,3383,32,0,14260,3467,28,5789,-4,0,8,0,59571,0
59607,102,-2082,180,-29,32,204,11994,52,38,370,112,35313,46,34,127,0,0,3388,43,0,14260,3467,28,5799,-4,0,8,0,59602,0
59617,97,-2084,182,-30,31,188,12003,10,-15,390,144,35313,34,34,127,0,0,3385,10,0,14260,3467,28,5809,-4,0,8,0,59602,0
59627,79,-2088,172,-29,37,174,12003,-2,-43,462,112,35308,16,34,127,0,0,3392,21,0,14260,3467,28,5819,-4,0,8,0,59602,0
59637,83,-2089,183,-38,45,157,12008,17,-3,481,152,35302,18,34,127,0,0,3392,21,0,14260,3467,28,5829,-4,0,8,0,59618,0
59647,90,-2087,181,-47,39,144,12014,25,13,487,160,35303,24,34,127,0,0,3394,32,0,14260,3467,28,5839,-4,0,8,0,59618,0
59658,84,-2084,184,-54,35,131,12034,62,33,405,112,35298,35,34,127,0,0,3392,-16,0,14260,3467,28,5850,-4,0,8,0,59649,0
59668,102,-2078,187,-57,34,126,12062,54,44,221,56,35306,31,34,127,0,0,3395,5,0,14260,3467,28,5860,-4,0,8,0,59649,0
59678,77,-2083,179,-58,33,116,12062,-5,-45,237,80,35312,21,34,127,0,0,3394,65,0,14260,3467,28,5870,-4,0,8,0,59649,0
59688,110,-2083,177,-64,35,110,12064,8,-45,302,72,35297,15,34,127,0,0,3394,0,0,14260,3467,28,5880,-4,0,8,0,59680,0
59698,126,-2086,182,-71,39,108,12062,-5,1,264,80,35294,-1,34,127,0,0,3394,43,0,14260,3467,28,5890,-4,0,8,0,59680,0
59708,133,-2086,180,-75,33,106,12062,-4,-6,317,80,35293,2,34,127,0,0,3391,-38,0,14260,3467,28,5900,-4,0,8,0,59680,0
59718,107,-2088,176,-69,39,106,12062,2,0,246,56,35307,-1,34,127,0,0,3389,-49,0,14260,3467,28,5910,-4,0,8,0,59696,0
59728,114,-2078,169,-69,33,106,12061,0,0,204,40,35318,-6,34,127,0,0,3396,16,0,14260,3467,28,5920,-4,0,8,0,59712,0
59738,141,-2079,175,-74,32,116,12062,-1,3,244,56,35305,-7,34,127,0,0,3395,43,0,14260,3467,28,5930,-4,0,8,0,59727,0
59748,126,-2089,168,-78,37,121,12061,-5,-1,270,56,35310,-12,34,127,0,0,3392,-16,0,14260,3467,28,5940,-4,0,8,0,59727,0
59758,129,-2077,175,-69,34,110,12063,4,1,214,56,35310,-16,34,127,0,0,3392,0,0,14260,3467,28,5950,-4,0,8,0,59727,0
59768,126,-2079,175,-70,35,114,12061,0,-3,204,56,35316,-5,34,127,0,0,3389,-5,0,14260,3467,28,5960,-4,0,8,0,59743,0
59778,103,-2072,172,-74,38,118,12060,-1,1,186,64,35311,-10,34,127,0,0,3392,5,0,14260,3467,28,5970,-4,0,8,0,59743,0
59788,115,-2074,173,-77,38,110,12062,3,1,265,56,35300,-9,34,127,0,0,3389,-65,0,14260,3467,28,5980,-4,0,8,0,59774,0
59798,108,-2082,186,-73,38,108,12061,-1,0,184,40,35304,-10,34,127,0,0,3390,-16,0,14260,3467,28,5990,-4,0,8,0,59774,0
59808,107,-2074,185,-74,39,113,12062,6,0,194,32,35310,-2,34,127,0,0,3393,-10,0,14260,3467,28,6000,-4,0,8,0,59774,0
59818,135,-2083,180,-84,34,109,12062,1,3,185,56,35311,15,34,127,0,0,3389,16,0,14260,3467,28,6010,-4,0,8,0,59805,0
59828,126,-2088,174,-86,32,106,12061,4,-1,180,40,35313,0,34,127,0,0,3390,-27,0,14260,3467,28,6020,-4,0,8,0,59805,0
59838,117,-2083,176,-84,31,112,12062,0,4,174,16,35310,-6,34,127,0,0,3391,-5,0,14260,3467,28,6030,-4,0,8,0,59805,0
59848,103,-2090,175,-86,33,107,12060,0,1,157,40,35321,-13,34,127,0,0,3387,-27,0,14260,3467,28,6040,-4,0,8,0,59868,0
59858,131,-2083,174,-87,30,110,12061,9,3,143,40,35327,2,34,127,0,0,3390,-10,0,14260,3467,28,6050,-4,0,8,0,59868,0
59868,110,-2083,172,-87,33,112,12061,2,0,177,40,35322,3,34,127,0,0,3393,32,0,14260,3467,28,6060,-4,0,8,0,59868,0
59878,136,-2084,178,-89,32,106,12060,-6,2,166,40,35327,6,34,127,0,0,3390,38,0,14260,3467,28,6070,-4,0,8,0,59868,0
59888,131,-2079,174,-83,34,113,12061,-1,-1,177,40,35312,-1,34,127,0,0,3390,0,0,14260,3467,28,6080,-4,0,8,0,59883,0
59898,119,-2083,182,-92,28,110,12060,0,2,177,40,35310,0,34,127,0,0,3390,0,0,14260,3467,28,6090,-4,0,8,0,59899,0
59909,101,-2076,179,-94,35,115,12059,-1,1,116,16,35306,-12,34,127,0,0,3388,-10,0,14260,3467,28,6101,-4,0,8,0,59899,0
59919,133,-2084,177,-91,39,113,12060,-3,-2,152,40,35319,-17,34,127,0,0,3390,0,0,14260,3467,28,6111,-4,0,8,0,59899,0
59929,119,-2074,171,-95,33,116,12060,-1,1,139,16,35328,-16,34,127,0,0,3388,-10,0,14260,3467,28,6121,-4,0,8,0,59899,0
59939,134,-2073,174,-94,30,115,12060,2,3,137,72,35348,-1,34,127,0,0,3390,32,0,14260,3467,28,6131,-4,0,8,0,59930,0
59949,104,-2083,174,-92,37,113,12060,-8,3,182,40,35327,-7,34,127,0,0,3390,0,0,14260,3467,28,6141,-4,0,8,0,59930,0
59959,112,-2078,173,-90,36,118,12061,3,0,177,40,35315,6,34,127,0,0,3390,0,0,14260,3467,28,6151,-4,0,8,0,59946,0
59969,130,-2083,172,-94,41,119,12061,0,-3,164,-8,35311,1,34,127,0,0,3390,0,0,14260,3467,28,6161,-4,0,8,0,59946,0
59979,107,-2082,179,-89,42,123,12060,1,0,120,16,35311,2,34,127,0,0,3390,10,0,14260,3467,28,6171,-4,0,8,0,59946,0
59989,151,-2081,167,-92,33,121,12060,-3,2,120,16,35305,-3,34,127,0,0,3390,32,0,14260,3467,28,6181,-4,0,8,0,59977,0
59999,125,-2088,168,-90,31,130,12060,-4,-2,129,8,35306,-15,34,127,0,0,3388,10,0,14260,3467,28,6191,-4,0,8,0,59977,0
60009,99,-2082,179,-89,39,126,12060,0,-4,154,40,35310,2,34,127,0,0,3394,43,0,14260,3467,28,6201,-4,0,8,0,59977,0
60019,80,-2079,174,-94,35,123,12062,5,2,215,0,35322,15,34,127,0,0,3390,-21,0,14260,3467,28,6211,-4,0,8,0,60024,0
60029,133,-2084,169,-95,35,121,12061,2,1,143,48,35334,18,34,127,0,0,3390,10,0,14260,3467,28,6221,-4,0,8,0,60024,0
60039,131,-2079,169,-94,38,118,12060,1,0,176,40,35317,20,34,127,0,0,3388,-32,0,14260,3467,28,6231,-4,0,8,0,60024,0
60049,95,-2081,177,-97,39,111,12060,6,1,141,40,35313,5,34,127,0,0,3388,-21,0,14260,3467,28,6241,-4,0,8,0,60024,0
60059,115,-2081,177,-95,37,101,12060,2,-3,149,8,35310,-7,34,127,0,0,3390,-10,0,14260,3467,28,6251,-4,0,8,0,60024,0
60069,91,-2083,177,-104,34,109,12060,4,0,128,16,35316,-2,34,127,0,0,3388,-32,0,14260,3467,28,6261,-4,0,8,0,60055,0
60079,82,-2081,171,-106,38,94,12059,1,-2,62,0,35319,-3,34,127,0,0,3388,10,0,14260,3467,28,6271,-4,0,8,0,60055,0
60089,90,-2089,179,-108,36,85,12061,13,6,155,-32,35319,-3,34,127,0,0,3383,-87,0,14260,3467,28,6281,-4,0,8,0,60087,0
60099,108,-2081,171,-112,37,71,12054,-1,-2,-27,16,35314,-20,34,127,0,0,3383,0,0,14260,3467,28,6291,-4,0,8,0,60087,0
60109,111,-2088,180,-120,39,65,12054,0,0,-51,-16,35318,-14,34,127,0,0,3383,0,0,14260,3467,28,6301,-4,0,8,0,60102,0
60119,114,-2080,184,-118,37,64,12054,0,7,-44,-48,35309,-5,34,127,0,0,3381,-32,0,14260,3467,28,6311,-4,0,8,0,60102,0
60129,115,-2078,168,-123,30,59,12050,-10,-10,-143,-32,35300,-8,34,127,0,0,3379,0,0,14260,3467,28,6321,-4,0,8,0,60102,0
60139,140,-2078,178,-120,38,61,12050,2,0,-183,-8,35305,-17,34,127,0,0,3377,-43,0,14260,3467,28,6331,-4,0,8,0,60133,0
60149,128,-2084,160,-114,37,71,12047,-3,4,-253,-104,35323,-19,34,127,0,0,3377,-21,0,14260,3467,28,6341,-4,0,8,0,60133,0
60159,130,-2080,149,-111,39,78,12044,-9,-3,-256,-64,35324,2,34,127,0,0,3377,0,0,14260,3467,28,6351,-4,0,8,0,60133,0
60170,148,-2081,141,-97,42,88,12044,-2,2,-312,-112,35311,10,34,127,0,0,3376,10,0,14260,3467,28,6362,-4,0,8,0,60149,0
60180,141,-2083,155,-91,44,100,12039,-1,-3,-328,-80,35304,19,34,127,0,0,3371,-10,0,14260,3467,28,6372,-4,0,8,0,60258,0
60190,153,-2080,153,-84,39,120,12036,-12,2,-366,-72,35311,8,34,127,0,0,3375,38,0,14260,3467,28,6382,-4,0,8,0,60258,0
60200,149,-2087,155,-84,39,126,12036,-1,6,-291,-72,35312,10,34,127,0,0,3375,0,0,14260,3467,28,6392,-4,0,8,0,60258,0
60210,144,-2082,158,-75,48,143,12036,-9,12,-304,-96,35300,3,34,127,0,0,3372,-32,0,14260,3467,28,6402,-4,0,8,0,60274,0
60220,133,-2079,162,-74,44,141,12036,6,1,-295,-72,35295,1,34,127,0,0,3375,-10,0,14260,3467,28,6412,-4,0,8,0,60274,0
60230,139,-2084,161,-78,49,149,12035,-3,6,-289,-96,35300,-1,34,127,0,0,3376,-5,0,14260,3467,28,6422,-4,0,8,0,60274,0
60240,122,-2083,167,-66,46,163,12036,-3,1,-298,-72,35298,5,34,127,0,0,3375,27,0,14260,3467,28,6432,-4,0,8,0,60274,0
60250,106,-2087,168,-66,46,162,12036,-1,8,-268,-48,35288,0,34,127,0,0,3373,-21,0,14260,3467,28,6442,-4,0,8,0,60274,0
60260,111,-2069,175,-65,45,160,12036,3,6,-273,-72,35290,-2,34,127,0,0,3375,-16,0,14260,3467,28,6452,-4,0,8,0,60274,0
60270,102,-2077,136,-55,32,152,12035,-7,-2,-305,-48,35300,4,34,127,0,0,3377,54,0,14260,3467,28,6462,-4,0,8,0,60274,0
60280,91,-2093,126,-49,36,153,12037,-1,5,-228,-48,35301,10,34,127,0,0,3377,27,0,14260,3467,28,6472,-4,0,8,0,60274,0
60290,95,-2085,165,-39,49,139,12037,0,0,-227,-48,35290,11,34,127,0,0,3380,32,0,14260,3467,28,6482,-4,0,8,0,60274,0
60300,107,-2090,173,-46,53,133,12038,0,-3,-167,-32,35281,4,34,127,0,0,3379,43,0,14260,3467,28,6492,-4,0,8,0,60274,0
60310,131,-2082,162,-35,47,128,12039,0,6,-118,-8,35296,-8,34,127,0,0,3375,-27,0,14260,3467,28,6502,-4,0,8,0,60290,0
60320,135,-2070,163,-32,45,131,12040,5,-4,-111,-32,35322,7,34,127,0,0,3379,-43,0,14260,3467,28,6512,-4,0,8,0,60305,0
60330,112,-2083,179,-32,50,138,12039,-2,-6,-140,-8,35330,17,34,127,0,0,3378,5,0,14260,3467,28,6522,-4,0,8,0,60321,0
60340,120,-2074,182,-33,38,147,12040,-1,-1,-145,-32,35316,12,34,127,0,0,3379,0,0,14260,3467,28,6532,-4,0,8,0,60321,0
60350,117,-2083,170,-32,38,142,12040,8,1,-113,-40,35307,2,34,127,0,0,3382,16,0,14260,3467,28,6542,-4,0,8,0,60321,0
60360,111,-2087,173,-34,53,141,12042,-1,3,-73,-8,35310,-16,34,127,0,0,3381,16,0,14260,3467,28,6552,-4,0,8,0,60352,0
60370,114,-2085,197,-37,38,130,12040,-7,2,-41,-16,35314,-9,34,127,0,0,3384,32,0,14260,3467,28,6562,-4,0,8,0,60352,0
60380,98,-2080,192,-43,41,133,12045,8,5,-9,-16,35303,9,34,127,0,0,3381,-16,0,14260,3467,28,6572,-4,0,8,0,60352,0
60390,102,-2076,179,-51,41,124,12043,-1,3,-20,0,35293,1,34,127,0,0,3380,-27,0,14260,3467,28,6582,-4,0,8,0,60368,0
60400,105,-2068,164,-47,41,118,12045,5,-1,-19,0,35299,-4,34,127,0,0,3383,-5,0,14260,3467,28,6592,-4,0,8,0,60368,0
60411,120,-2068,175,-44,43,116,12044,3,1,-9,0,35307,5,34,127,0,0,3383,10,0,14260,3467,28,6603,-4,0,8,0,60399,0
60421,106,-2078,191,-49,47,111,12045,3,-4,-42,-16,35304,12,34,127,0,0,3383,32,0,14260,3467,28,6613,-4,0,8,0,60399,0
60431,132,-2071,197,-53,46,121,12045,0,1,-18,-24,35303,10,34,127,0,0,3381,0,0,14260,3467,28,6623,-4,0,8,0,60399,0
60441,129,-2072,169,-58,38,128,12043,-1,-1,-25,-32,35313,-8,34,127,0,0,3381,0,0,14260,3467,28,6633,-4,0,8,0,60430,0
60451,126,-2080,171,-53,43,129,12044,-3,-6,-25,16,35310,-1,34,127,0,0,3381,-21,0,14260,3467,28,6643,-4,0,8,0,60430,0
60461,100,-2096,198,-60,38,133,12044,0,-4,-41,-16,35309,5,34,127,0,0,3383,0,0,14260,3467,28,6653,-4,0,8,0,60446,0
60471,110,-2085,203,-63,39,141,12045,1,0,-17,-16,35304,19,34,127,0,0,3383,10,0,14260,3467,28,6663,-4,0,8,0,60446,0
60481,137,-2089,188,-82,46,130,12044,-4,-1,0,40,35311,9,34,127,0,0,3381,-10,0,14260,3467,28,6673,-4,0,8,0,60477,0
60491,128,-2082,187,-79,39,129,12046,7,-2,0,-8,35313,7,34,127,0,0,3383,21,0,14260,3467,28,6683,-4,0,8,0,60477,0
60501,105,-2078,181,-80,45,125,12047,1,-2,23,0,35306,14,34,127,0,0,3383,0,0,14260,3467,28,6693,-4,0,8,0,60477,0
60511,110,-2092,189,-89,41,126,12047,-3,0,38,-16,35298,0,34,127,0,0,3385,0,0,14260,3467,28,6703,-4,0,8,0,60477,0
60521,110,-2082,205,-96,32,136,12047,7,-4,49,-8,35305,-1,34,127,0,0,3383,0,0,14260,3467,28,6713,-4,0,8,0,60508,0
60531,118,-2074,201,-102,32,131,12048,2,3,60,-16,35306,1,34,127,0,0,3383,0,0,14260,3467,28,6723,-4,0,8,0,60508,0
60541,108,-2078,188,-108,36,121,12047,-7,-2,27,32,35304,4,34,127,0,0,3383,10,0,14260,3467,28,6733,-4,0,8,0,60508,0
60551,133,-2077,180,-109,38,117,12047,-3,-4,48,32,35307,9,34,127,0,0,3383,-21,0,14260,3467,28,6743,-4,0,8,0,60540,0
60561,102,-2086,185,-110,41,123,12048,0,0,-3,-8,35307,-1,34,127,0,0,3383,0,0,14260,3467,28,6753,-4,0,8,0,60555,0
60571,115,-2073,187,-111,38,120,12048,3,-4,4,32,35308,-2,34,127,0,0,3385,21,0,14260,3467,28,6763,-4,0,8,0,60555,0
60581,124,-2084,167,-112,38,124,12047,-7,-4,37,32,35304,4,34,127,0,0,3385,21,0,14260,3467,28,6773,-4,0,8,0,60555,0
60591,123,-2082,178,-113,34,120,12048,-4,-3,22,-8,35297,13,34,127,0,0,3383,0,0,14260,3467,28,6783,-4,0,8,0,60571,0
60601,112,-2083,175,-116,35,120,12048,-4,-1,43,16,35301,13,34,127,0,0,3385,21,0,14260,3467,28,6793,-4,0,8,0,60586,0
60611,105,-2088,175,-113,39,122,12048,1,0,37,-8,35305,10,34,127,0,0,3383,-10,0,14260,3467,28,6803,-4,0,8,0,60602,0
60621,120,-2079,172,-110,34,121,12049,0,3,24,-8,35299,-5,34,127,0,0,3385,32,0,14260,3467,28,6813,-4,0,8,0,60602,0
60631,124,-2079,179,-113,34,116,12048,-2,1,39,-8,35292,1,34,127,0,0,3383,0,0,14260,3467,28,6823,-4,0,8,0,60602,0
60641,100,-2085,175,-117,42,120,12048,-1,-1,4,32,35300,-6,34,127,0,0,3385,21,0,14260,3467,28,6833,-4,0,8,0,60665,0
60651,119,-2082,182,-112,39,114,12049,2,2,17,-8,35304,3,34,127,0,0,3385,21,0,14260,3467,28,6843,-4,0,8,0,60665,0
60661,129,-2078,198,-121,30,126,12049,-3,4,32,24,35310,1,34,127,0,0,3385,32,0,14260,3467,28,6853,-4,0,8,0,60665,0
60671,139,-2079,189,-116,37,125,12047,-14,-4,37,0,35298,7,34,127,0,0,3383,10,0,14260,3467,28,6863,-4,0,8,0,60665,0
60681,116,-2071,180,-130,33,119,12048,-4,-1,16,-8,35291,14,34,127,0,0,3383,10,0,14260,3467,28,6873,-4,0,8,0,60680,0
60691,126,-2075,174,-128,31,122,12048,-7,-3,21,32,35293,0,34,127,0,0,3383,10,0,14260,3467,28,6883,-4,0,8,0,60680,0
60702,101,-2080,183,-131,31,119,12049,-1,-1,7,-8,35310,0,34,127,0,0,3383,0,0,14260,3467,28,6894,-4,0,8,0,60680,0
60712,116,-2073,178,-136,30,120,12050,10,3,32,-8,35320,6,34,127,0,0,3390,49,0,14260,3467,28,6904,-4,0,8,0,60680,0
60722,117,-2084,177,-138,31,124,12050,0,6,87,-8,35329,-6,34,127,0,0,3387,5,0,14260,3467,28,6914,-4,0,8,0,60711,0
60732,105,-2085,175,-141,30,120,12049,1,-6,48,16,35326,-12,34,127,0,0,3385,43,0,14260,3467,28,6924,-4,0,8,0,60711,0
60742,105,-2078,172,-135,30,111,12049,0,0,57,40,35324,-9,34,127,0,0,3384,5,0,14260,3467,28,6934,-4,0,8,0,60711,0
60752,119,-2079,161,-142,34,113,12049,-3,-4,47,-8,35323,-9,34,127,0,0,3383,-38,0,14260,3467,28,6944,-4,0,8,0,60743,0
60762,97,-2078,168,-139,31,111,12049,4,0,49,16,35316,14,34,127,0,0,3382,-16,0,14260,3467,28,6954,-4,0,8,0,60743,0
60772,98,-2085,172,-140,29,108,12048,-1,3,15,40,35320,-2,34,127,0,0,3384,38,0,14260,3467,28,6964,-4,0,8,0,60774,0
60782,130,-2082,174,-140,22,100,12049,-11,2,23,-8,35323,-1,34,127,0,0,3383,5,0,14260,3467,28,6974,-4,0,8,0,60774,0
60792,147,-2083,164,-143,28,92,12049,-6,-1,10,16,35312,6,34,127,0,0,3382,-21,0,14260,3467,28,6984,-4,0,8,0,60774,0
60802,117,-2080,161,-143,34,96,12048,-1,-4,17,16,35308,13,34,127,0,0,3382,0,0,14260,3467,28,6994,-4,0,8,0,60774,0
60812,131,-2072,164,-138,31,94,12049,0,1,-3,-8,35312,16,34,127,0,0,3383,0,0,14260,3467,28,7004,-4,0,8,0,60805,0
60822,89,-2084,167,-138,29,106,12049,4,0,40,16,35321,13,34,127,0,0,3382,-27,0,14260,3467,28,7014,-4,0,8,0,60805,0
60832,117,-2084,168,-140,30,98,12050,5,5,-2,-8,35323,7,34,127,0,0,3383,0,0,14260,3467,28,7024,-4,0,8,0,60805,0
60842,117,-2083,151,-135,29,108,12049,0,2,27,-8,35309,15,34,127,0,0,3383,-43,0,14260,3467,28,7034,-4,0,8,0,60836,0
60852,116,-2084,154,-130,28,114,12049,-3,0,-1,-8,35303,9,34,127,0,0,3387,32,0,14260,3467,28,7044,-4,0,8,0,60836,0
60862,132,-2080,159,-128,31,104,12049,-4,3,48,-8,35310,3,34,127,0,0,3383,-21,0,14260,3467,28,7054,-4,0,8,0,60836,0
60872,135,-2086,157,-127,36,105,12049,1,3,1,-8,35309,-7,34,127,0,0,3383,0,0,14260,3467,28,7064,-4,0,8,0,60883,0
60882,133,-2082,158,-120,32,105,12048,-3,-3,-28,-24,35304,6,34,127,0,0,3384,21,0,14260,3467,28,7074,-4,0,8,0,60883,0
60892,121,-2085,161,-119,33,112,12047,-3,3,-4,0,35300,7,34,127,0,0,3383,0,0,14260,3467,28,7084,-4,0,8,0,60883,0
60902,128,-2084,154,-120,31,111,12047,-5,3,0,0,35299,2,34,127,0,0,3383,0,0,14260,3467,28,7094,-4,0,8,0,60883,0
60913,115,-2085,161,-120,38,114,12049,1,0,0,-8,35307,-4,34,127,0,0,3383,0,0,14260,3467,28,7105,-4,0,8,0,60883,0
60923,119,-2088,159,-116,33,114,12049,2,0,3,24,35313,-9,34,127,0,0,3383,0,0,14260,3467,28,7115,-4,0,8,0,60914,0
60933,95,-2080,167,-116,30,114,12048,0,3,-39,8,35321,6,34,127,0,0,3385,32,0,14260,3467,28,7125,-4,0,8,0,60914,0
60943,115,-2085,163,-116,32,118,12047,-5,3,22,32,35320,-15,34,127,0,0,3383,0,0,14260,3467,28,7135,-4,0,8,0,60914,0
60953,103,-2084,154,-116,34,115,12049,4,4,-5,-8,35331,-19,34,127,0,0,3383,0,0,14260,3467,28,7145,-4,0,8,0,60946,0
60963,108,-2077,158,-119,34,113,12049,-1,0,19,-16,35322,-9,34,127,0,0,3383,-10,0,14260,3467,28,7155,-4,0,8,0,60946,0
60973,120,-2085,154,-115,32,115,12047,-6,0,3,32,35323,-3,34,127,0,0,3383,0,0,14260,3467,28,7165,-4,0,8,0,60946,0
60983,126,-2082,157,-109,33,106,12049,5,1,-1,-8,35317,10,34,127,0,0,3383,0,0,14260,3467,28,7175,-4,0,8,0,60977,0
60993,108,-2086,154,-109,27,107,12048,-5,-2,2,-8,35316,4,34,127,0,0,3383,0,0,14260,3467,28,7185,-4,0,8,0,60977,0
61003,115,-2078,156,-113,30,103,12049,-6,0,-1,-8,35313,4,34,127,0,0,3383,0,0,14260,3467,28,7195,-4,0,8,0,60977,0
61013,110,-2079,145,-106,28,101,12048,8,2,4,-8,35306,13,34,127,0,0,3383,0,0,14260,3467,28,7205,-4,0,8,0,60993,0
61023,107,-2086,137,-100,25,104,12047,-8,-3,-64,-24,35310,-2,34,127,0,0,3383,43,0,14260,3467,28,7215,-4,0,8,0,61024,0
61033,130,-2086,135,-88,25,97,12049,-2,3,-18,8,35319,1,34,127,0,0,3383,10,0,14260,3467,28,7225,-4,0,8,0,61024,0
61043,121,-2081,141,-82,27,98,12048,-8,1,-35,-8,35323,6,34,127,0,0,3383,21,0,14260,3467,28,7235,-4,0,8,0,61024,0
61053,106,-2088,150,-78,35,92,12048,-1,-1,-40,8,35316,8,34,127,0,0,3381,-10,0,14260,3467,28,7245,-4,0,8,0,61024,0
61063,141,-2078,148,-80,35,84,12046,-5,1,-72,-24,35316,-2,34,127,0,0,3381,-21,0,14260,3467,28,7255,-4,0,8,0,61055,0
61073,128,-2069,174,-81,44,95,12048,6,5,-49,-8,35319,-7,34,127,0,0,3381,-32,0,14260,3467,28,7265,-4,0,8,0,61055,0
61083,141,-2092,184,-88,33,103,12048,6,-3,-52,-40,35329,7,34,127,0,0,3379,-43,0,14260,3467,28,7275,-4,0,8,0,61055,0
61093,121,-2093,185,-100,25,118,12047,0,0,-80,-24,35326,11,34,127,0,0,3379,-43,0,14260,3467,28,7285,-4,0,8,0,61086,0
61103,110,-2082,168,-105,30,118,12048,4,5,-87,8,35318,14,34,127,0,0,3381,-10,0,14260,3467,28,7295,-4,0,8,0,61086,0
61113,94,-2079,140,-98,32,116,12048,9,1,-40,-40,35317,0,34,127,0,0,3379,-54,0,14260,3467,28,7305,-4,0,8,0,61086,0
61123,91,-2086,153,-97,38,109,12046,6,-1,-112,8,35328,1,34,127,0,0,3383,21,0,14260,3467,28,7315,-4,0,8,0,61118,0
61133,124,-2077,163,-100,29,107,12045,-9,4,-64,0,35329,6,34,127,0,0,3383,32,0,14260,3467,28,7325,-4,0,8,0,61118,0
61143,112,-2084,165,-107,39,99,12047,3,4,-76,8,35326,10,34,127,0,0,3379,-10,0,14260,3467,28,7335,-4,0,8,0,61118,0
61154,92,-2087,152,-110,33,110,12046,1,-3,-81,-24,35318,13,34,127,0,0,3381,-43,0,14260,3467,28,7346,-4,0,8,0,61133,0
61164,131,-2079,157,-103,35,106,12047,-1,-1,-73,-24,35327,0,34,127,0,0,3381,-5,0,14260,3467,28,7356,-4,0,8,0,61149,0
61174,116,-2077,161,-100,32,125,12046,0,3,-64,0,35327,-11,34,127,0,0,3380,0,0,14260,3467,28,7366,-4,0,8,0,61149,0
61184,151,-2073,151,-105,27,124,12046,-1,4,-77,-24,35325,-1,34,127,0,0,3381,-5,0,14260,3467,28,7376,-4,0,8,0,61180,0
61194,89,-2082,158,-106,27,126,12047,-1,3,-92,-24,35308,13,34,127,0,0,3381,0,0,14260,3467,28,7386,-4,0,8,0,61180,0
61204,92,-2083,170,-104,29,125,12048,2,1,-73,-24,35301,16,34,127,0,0,3381,-5,0,14260,3467,28,7396,-4,0,8,0,61180,0
61214,96,-2082,164,-106,34,123,12048,7,0,-53,-24,35304,5,34,127,0,0,3381,-43,0,14260,3467,28,7406,-4,0,8,0,61180,0
61224,82,-2085,162,-108,32,125,12046,2,1,-51,0,35314,6,34,127,0,0,3380,0,0,14260,3467,28,7416,-4,0,8,0,61211,0
61234,122,-2087,146,-104,35,110,12047,0,-2,-61,0,35309,17,34,127,0,0,3380,-16,0,14260,3467,28,7426,-4,0,8,0,61211,0
61244,133,-2084,140,-107,41,107,12047,1,2,-78,0,35315,-2,34,127,0,0,3377,-54,0,14260,3467,28,7436,-4,0,8,0,61242,0
61254,126,-2089,148,-104,39,113,12047,-2,-1,-102,-24,35316,-18,34,127,0,0,3381,-16,0,14260,3467,28,7446,-4,0,8,0,61242,0
61264,140,-2080,149,-107,42,114,12046,-3,3,-99,-24,35312,-18,34,127,0,0,3384,32,0,14260,3467,28,7456,-4,0,8,0,61242,0
61274,122,-2086,160,-93,39,134,12047,0,-1,-52,-24,35316,-9,34,127,0,0,3381,-16,0,14260,3467,28,7466,-4,0,8,0,61258,0
61284,119,-2083,150,-100,41,137,12048,7,0,-53,-24,35312,16,34,127,0,0,3384,32,0,14260,3467,28,7476,-4,0,8,0,61274,0
61294,137,-2079,153,-99,30,138,12046,-9,-2,-68,0,35320,12,34,127,0,0,3383,60,0,14260,3467,28,7486,-4,0,8,0,61289,0
61304,148,-2080,146,-97,36,145,12046,-10,-1,-67,-24,35319,16,34,127,0,0,3381,5,0,14260,3467,28,7496,-4,0,8,0,61289,0
61314,124,-2080,152,-97,37,129,12046,-1,-7,-112,-24,35295,22,34,127,0,0,3384,71,0,14260,3467,28,7506,-4,0,8,0,61289,0
61324,140,-2082,156,-95,37,125,12046,-9,-2,-41,-24,35294,20,34,127,0,0,3384,10,0,14260,3467,28,7516,-4,0,8,0,61305,0
61334,107,-2073,152,-98,31,128,12048,0,-1,-46,-24,35304,10,34,127,0,0,3381,-5,0,14260,3467,28,7526,-4,0,8,0,61305,0
61344,94,-2075,150,-97,37,124,12049,12,0,-27,-24,35304,-3,34,127,0,0,3384,-16,0,14260,3467,28,7536,-4,0,8,0,61336,0
61354,108,-2073,151,-99,32,121,12047,0,-1,-33,0,35302,7,34,127,0,0,3383,27,0,14260,3467,28,7546,-4,0,8,0,61336,0
61364,108,-2083,156,-95,35,114,12048,0,1,2,-8,35296,11,34,127,0,0,3383,0,0,14260,3467,28,7556,-4,0,8,0,61336,0
61374,112,-2087,159,-101,35,113,12049,4,2,2,0,35301,14,34,127,0,0,3383,0,0,14260,3467,28,7566,-4,0,8,0,61399,0
61384,119,-2083,156,-108,31,108,12048,3,-1,1,16,35306,13,34,127,0,0,3382,5,0,14260,3467,28,7576,-4,0,8,0,61399,0
61394,138,-2077,136,-101,36,98,12048,-3,0,-30,0,35309,13,34,127,0,0,3383,27,0,14260,3467,28,7586,-4,0,8,0,61399,0
61404,129,-2079,140,-102,45,98,12048,-4,0,-1,-24,35299,16,34,127,0,0,3381,-38,0,14260,3467,28,7596,-4,0,8,0,61414,0
61414,103,-2089,137,-95,32,113,12049,8,1,-21,0,35296,3,34,127,0,0,3383,-10,0,14260,3467,28,7606,-4,0,8,0,61414,0
61424,103,-2082,149,-92,38,111,12048,1,5,1,-8,35298,0,34,127,0,0,3383,0,0,14260,3467,28,7616,-4,0,8,0,61414,0
61435,128,-2083,139,-86,38,112,12049,5,-2,0,-8,35299,4,34,127,0,0,3381,-21,0,14260,3467,28,7627,-4,0,8,0,61414,0
61445,118,-2080,136,-89,45,107,12047,-3,-6,-59,0,35308,-4,34,127,0,0,3383,10,0,14260,3467,28,7637,-4,0,8,0,61414,0
61455,117,-2089,134,-82,46,109,12049,4,-2,-26,-40,35316,-16,34,127,0,0,3381,-32,0,14260,3467,28,7647,-4,0,8,0,61477,0
61465,146,-2090,144,-76,42,122,12047,-1,0,-35,0,35326,-27,34,127,0,0,3383,21,0,14260,3467,28,7657,-4,0,8,0,61477,0
61475,135,-2085,151,-73,37,131,12047,-5,-2,1,0,35315,-14,34,127,0,0,3381,-21,0,14260,3467,28,7667,-4,0,8,0,61477,0
61485,98,-2082,143,-69,38,129,12047,3,-3,-57,8,35294,-2,34,127,0,0,3385,32,0,14260,3467,28,7677,-4,0,8,0,61477,0
61495,89,-2080,138,-68,41,133,12048,-7,3,-13,-24,35286,5,34,127,0,0,3383,10,0,14260,3467,28,7687,-4,0,8,0,61477,0
61505,147,-2079,136,-61,51,116,12048,3,4,-6,-8,35290,5,34,127,0,0,3383,0,0,14260,3467,28,7697,-4,0,8,0,61477,0
61515,134,-2085,138,-65,52,119,12048,-5,-6,0,0,35307,-8,34,127,0,0,3383,0,0,14260,3467,28,7707,-4,0,8,0,61524,0
61525,118,-2087,148,-53,39,119,12048,2,4,1,-8,35320,8,34,127,0,0,3383,0,0,14260,3467,28,7717,-4,0,8,0,61524,0
61535,119,-2081,156,-54,48,122,12047,-5,1,-8,-72,35317,0,34,127,0,0,3383,-10,0,14260,3467,28,7727,-4,0,8,0,61524,0
61545,130,-2086,168,-62,47,131,12047,0,1,-51,8,35313,-2,34,127,0,0,3383,21,0,14260,3467,28,7737,-4,0,8,0,61524,0
61555,125,-2082,171,-64,39,125,12047,8,3,-26,-40,35310,1,34,127,0,0,3381,-32,0,14260,3467,28,7747,-4,0,8,0,61524,0
61565,112,-2079,157,-72,35,130,12047,3,1,-38,0,35323,4,34,127,0,0,3379,-21,0,14260,3467,28,7757,-4,0,8,0,61555,0
61575,116,-2076,153,-69,40,119,12047,-3,-1,-77,-24,35320,8,34,127,0,0,3381,-10,0,14260,3467,28,7767,-4,0,8,0,61555,0
61585,117,-2074,146,-66,37,114,12046,-4,-1,-50,0,35316,-11,34,127,0,0,3381,-10,0,14260,3467,28,7777,-4,0,8,0,61571,0
61595,112,-2076,154,-66,41,116,12047,-4,3,-79,-40,35308,-9,34,127,0,0,3381,-10,0,14260,3467,28,7787,-4,0,8,0,61571,0
61605,97,-2087,147,-65,41,123,12047,9,-1,-36,0,35298,2,34,127,0,0,3383,-10,0,14260,3467,28,7797,-4,0,8,0,61571,0
61615,82,-2085,160,-63,38,118,12048,7,5,-31,-40,35299,13,34,127,0,0,3381,-21,0,14260,3467,28,7807,-4,0,8,0,61602,0
61625,132,-2088,151,-70,40,116,12049,5,6,-30,-8,35297,18,34,127,0,0,3383,0,0,14260,3467,28,7817,-4,0,8,0,61602,0
61635,118,-2082,154,-71,37,113,12047,1,-2,-27,0,35304,19,34,127,0,0,3383,10,0,14260,3467,28,7827,-4,0,8,0,61602,0
61645,109,-2084,155,-66,32,126,12047,-1,2,-23,0,35313,7,34,127,0,0,3385,10,0,14260,3467,28,7837,-4,0,8,0,61633,0
61656,92,-2088,155,-65,39,126,12049,0,7,-8,-8,35311,8,34,127,0,0,3380,5,0,14260,3467,28,7848,-4,0,8,0,61649,0
61666,103,-2085,160,-63,42,122,12050,15,3,-5,-8,35304,-3,34,127,0,0,3383,-38,0,14260,3467,28,7858,-4,0,8,0,61649,0
61676,98,-2086,171,-66,33,130,12049,3,3,23,-8,35304,1,34,127,0,0,3383,-5,0,14260,3467,28,7868,-4,0,8,0,61649,0
61686,118,-2080,163,-67,32,124,12046,-7,-5,-24,0,35314,-1,34,127,0,0,3383,27,0,14260,3467,28,7878,-4,0,8,0,61664,0
61696,134,-2081,155,-72,34,126,12049,1,2,1,-8,35321,11,34,127,0,0,3383,0,0,14260,3467,28,7888,-4,0,8,0,61680,0
61706,105,-2080,155,-67,31,128,12047,-2,0,0,0,35321,1,34,127,0,0,3383,0,0,14260,3467,28,7898,-4,0,8,0,61680,0
61716,108,-2082,160,-75,29,126,12049,12,3,30,-8,35314,3,34,127,0,0,3383,-27,0,14260,3467,28,7908,-4,0,8,0,61696,0
61726,113,-2086,165,-74,33,118,12049,0,2,49,16,35313,-1,34,127,0,0,3385,16,0,14260,3467,28,7918,-4,0,8,0,61711,0
61736,111,-2075,160,-81,30,107,12049,-2,2,48,-8,35306,4,34,127,0,0,3383,-32,0,14260,3467,28,7928,-4,0,8,0,61711,0
61746,114,-2078,160,-79,36,114,12049,-2,-3,27,-8,35300,15,34,127,0,0,3383,-16,0,14260,3467,28,7938,-4,0,8,0,61727,0
61756,105,-2076,157,-82,35,114,12050,9,1,52,-8,35309,1,34,127,0,0,3387,-10,0,14260,3467,28,7948,-4,0,8,0,61727,0
61766,104,-2081,169,-83,37,125,12049,3,2,89,-8,35321,-4,34,127,0,0,3383,-65,0,14260,3467,28,7958,-4,0,8,0,61758,0
61776,106,-2081,176,-93,30,118,12048,1,-3,4,16,35333,-4,34,127,0,0,3382,5,0,14260,3467,28,7968,-4,0,8,0,61758,0
61786,130,-2083,155,-98,34,119,12047,-10,-5,26,0,35321,-2,34,127,0,0,3383,-27,0,14260,3467,28,7978,-4,0,8,0,61758,0
61796,135,-2087,148,-92,33,122,12048,0,-1,0,-8,35310,-2,34,127,0,0,3387,32,0,14260,3467,28,7988,-4,0,8,0,61774,0
61806,130,-2084,153,-95,36,126,12050,-1,2,42,-8,35306,4,34,127,0,0,3387,16,0,14260,3467,28,7998,-4,0,8,0,61805,0
61816,126,-2085,153,-89,35,129,12049,0,-1,41,16,35325,1,34,127,0,0,3382,-5,0,14260,3467,28,8008,-4,0,8,0,61805,0
61826,119,-2083,155,-92,31,126,12049,0,-2,17,16,35321,25,34,127,0,0,3385,21,0,14260,3467,28,8018,-4,0,8,0,61805,0
61836,112,-2085,153,-91,33,136,12048,-5,-1,34,16,35312,28,34,127,0,0,3385,43,0,14260,3467,28,8028,-4,0,8,0,61805,0
61846,133,-2080,152,-84,25,134,12047,-11,4,31,24,35316,7,34,127,0,0,3385,43,0,14260,3467,28,8038,-4,0,8,0,61836,0
61856,139,-2088,157,-85,30,144,12049,-1,1,37,40,35327,0,34,127,0,0,3384,32,0,14260,3467,28,8048,-4,0,8,0,61836,0
61866,134,-2082,159,-86,22,145,12050,-5,0,44,40,35327,4,34,127,0,0,3384,5,0,14260,3467,28,8058,-4,0,8,0,61867,0
61876,124,-2077,160,-88,23,156,12050,0,-2,111,40,35325,-1,34,127,0,0,3388,16,0,14260,3467,28,8068,-4,0,8,0,61867,0
61886,121,-2087,161,-89,27,159,12052,-1,0,203,56,35311,-6,34,127,0,0,3390,-10,0,14260,3467,28,8078,-4,0,8,0,61867,0
61896,116,-2088,150,-87,24,159,12054,8,0,221,48,35318,-10,34,127,0,0,3390,10,0,14260,3467,28,8088,-4,0,8,0,61867,0
61907,113,-2088,150,-83,26,158,12053,-5,-1,216,88,35326,-12,34,127,0,0,3390,21,0,14260,3467,28,8099,-4,0,8,0,61899,0
61917,118,-2092,144,-82,29,156,12057,9,3,252,112,35325,7,34,127,0,0,3394,21,0,14260,3467,28,8109,-4,0,8,0,61899,0
61927,120,-2085,140,-78,25,160,12056,0,-1,301,88,35321,-5,34,127,0,0,3394,0,0,14260,3467,28,8119,-4,0,8,0,61914,0
61937,97,-2085,146,-73,31,158,12058,14,0,341,152,35321,6,34,127,0,0,3396,-21,0,14260,3467,28,8129,-4,0,8,0,61914,0
61947,122,-2076,136,-68,29,159,12065,15,10,379,88,35327,5,34,127,0,0,3399,0,0,14260,3467,28,8139,-4,0,8,0,61914,0
61957,111,-2089,146,-59,28,164,12068,11,5,385,120,35327,14,34,127,0,0,3399,10,0,14260,3467,28,8149,-4,0,8,0,61945,0
61967,110,-2084,154,-56,29,163,12069,5,-4,375,144,35332,9,34,127,0,0,3401,32,0,14260,3467,28,8159,-4,0,8,0,61945,0
61977,106,-2083,157,-60,32,166,12072,14,3,429,160,35326,-14,34,127,0,0,3401,0,0,14260,3467,28,8169,-4,0,8,0,61945,0
61987,108,-2081,154,-56,28,163,12084,28,20,426,120,35321,-15,34,127,0,0,3403,-10,0,14260,3467,28,8179,-4,0,8,0,61961,0
61997,105,-2086,150,-53,30,161,12108,66,39,333,96,35317,-19,34,127,0,0,3403,-21,0,14260,3467,28,8189,-4,0,8,0,61977,0
62007,120,-2087,166,-55,26,168,12118,-3,5,256,80,35317,-9,34,127,0,0,3407,43,0,14260,3467,28,8199,-4,0,8,0,61977,0
62017,109,-2081,161,-52,36,159,12118,2,-51,372,64,35322,-3,34,127,0,0,3410,32,0,14260,3467,28,8209,-4,0,8,0,62024,0
62027,98,-2083,161,-58,36,152,12124,14,-13,439,112,35329,-4,34,127,0,0,3410,-10,0,14260,3467,28,8219,-4,0,8,0,62024,0
62037,96,-2076,162,-52,30,152,12125,7,5,464,96,35314,2,34,127,0,0,3412,0,0,14260,3467,28,8229,-4,0,8,0,62024,0
62047,97,-2077,167,-60,40,148,12126,7,-2,486,128,35312,13,34,127,0,0,3412,0,0,14260,3467,28,8239,-4,0,8,0,62024,0
62057,89,-2084,165,-62,34,138,12127,0,-3,451,160,35318,-6,34,127,0,0,3412,0,0,14260,3467,28,8249,-4,0,8,0,62039,0
62067,97,-2080,166,-67,38,126,12129,5,2,463,160,35325,1,34,127,0,0,3414,21,0,14260,3467,28,8259,-4,0,8,0,62039,0
62077,82,-2082,177,-72,46,115,12132,11,2,495,136,35332,4,34,127,0,0,3414,-10,0,14260,3467,28,8269,-4,0,8,0,62055,0
62087,76,-2082,163,-74,39,107,12135,4,-1,463,112,35325,5,34,127,0,0,3414,-10,0,14260,3467,28,8279,-4,0,8,0,62070,0
62097,91,-2085,158,-76,39,100,12134,0,-4,470,144,35310,6,34,127,0,0,3412,-21,0,14260,3467,28,8289,-4,0,8,0,62070,0
62107,100,-2094,174,-81,37,92,12134,-8,-5,388,112,35310,7,34,127,0,0,3412,0,0,14260,3467,28,8299,-4,0,8,0,62086,0
62117,97,-2086,175,-89,33,85,12134,-3,-1,384,112,35315,13,34,127,0,0,3412,0,0,14260,3467,28,8309,-4,0,8,0,62117,0
62127,91,-2086,185,-89,40,82,12135,10,2,408,80,35320,29,34,127,0,0,3412,-21,0,14260,3467,28,8319,-4,0,8,0,62117,0
62137,103,-2094,176,-101,38,79,12134,-1,-2,388,120,35316,17,34,127,0,0,3412,0,0,14260,3467,28,8329,-4,0,8,0,62117,0
62147,104,-2085,177,-109,38,75,12134,-6,2,376,88,35319,5,34,127,0,0,3410,-10,0,14260,3467,28,8339,-4,0,8,0,62133,0
62158,116,-2079,163,-117,36,66,12133,-5,-4,324,96,35324,-16,34,127,0,0,3406,-27,0,14260,3467,28,8350,-4,0,8,0,62133,0
62168,104,-2080,154,-112,39,65,12134,1,2,332,88,35322,-8,34,127,0,0,3406,-43,0,14260,3467,28,8360,-4,0,8,0,62180,0
62178,113,-2082,146,-112,43,58,12133,4,0,303,96,35320,-16,34,127,0,0,3406,-10,0,14260,3467,28,8370,-4,0,8,0,62180,0
62188,122,-2086,148,-107,45,60,12133,0,-5,269,48,35315,-19,34,127,0,0,3405,-32,0,14260,3467,28,8380,-4,0,8,0,62180,0
62198,120,-2086,150,-107,37,72,12130,-9,-3,228,8,35315,-25,34,127,0,0,3404,-43,0,14260,3467,28,8390,-4,0,8,0,62180,0
62208,141,-2081,156,-104,40,78,12124,-11,-8,136,40,35312,-25,34,127,0,0,3403,43,0,14260,3467,28,8400,-4,0,8,0,62180,0
62218,148,-2081,155,-102,35,91,12124,-11,-1,144,40,35305,-12,34,127,0,0,3400,-16,0,14260,3467,28,8410,-4,0,8,0,62195,0
62228,138,-2073,150,-100,32,98,12124,-7,7,96,0,35319,-14,34,127,0,0,3402,-10,0,14260,3467,28,8420,-4,0,8,0,62195,0
62238,125,-2082,151,-92,41,113,12124,4,-2,133,24,35333,-9,34,127,0,0,3401,-16,0,14260,3467,28,8430,-4,0,8,0,62227,0
62248,121,-2084,150,-90,38,115,12124,-1,1,106,24,35333,-10,34,127,0,0,3401,0,0,14260,3467,28,8440,-4,0,8,0,62227,0
62258,129,-2081,140,-88,44,125,12124,-2,1,103,24,35311,5,34,127,0,0,3401,0,0,14260,3467,28,8450,-4,0,8,0,62227,0
62268,124,-2085,150,-86,39,128,12124,3,6,103,0,35304,11,34,127,0,0,3402,-5,0,14260,3467,28,8460,-4,0,8,0,62258,0
62278,96,-2092,158,-85,41,141,12124,6,3,129,40,35320,6,34,127,0,0,3400,-21,0,14260,3467,28,8470,-4,0,8,0,62258,0
62288,125,-2090,151,-82,33,139,12123,-6,1,120,40,35327,-12,34,127,0,0,3400,-21,0,14260,3467,28,8480,-4,0,8,0,62258,0
62298,92,-2091,153,-81,43,129,12123,-2,-1,134,24,35324,-14,34,127,0,0,3401,-54,0,14260,3467,28,8490,-4,0,8,0,62289,0
62308,102,-2087,154,-81,44,135,12125,4,1,126,40,35320,-10,34,127,0,0,3400,-10,0,14260,3467,28,8500,-4,0,8,0,62289,0
62318,112,-2080,158,-80,48,122,12124,0,-3,96,48,35313,-9,34,127,0,0,3400,5,0,14260,3467,28,8510,-4,0,8,0,62289,0
62328,119,-2075,161,-80,39,119,12123,-2,1,121,40,35320,-11,34,127,0,0,3403,10,0,14260,3467,28,8520,-4,0,8,0,62320,0
62338,135,-2078,170,-85,43,111,12125,4,0,174,24,35313,-3,34,127,0,0,3401,-21,0,14260,3467,28,8530,-4,0,8,0,62320,0
62348,102,-2084,161,-84,38,119,12123,-1,-7,103,24,35305,3,34,127,0,0,3401,0,0,14260,3467,28,8540,-4,0,8,0,62336,0
62358,98,-2084,166,-92,38,121,12123,0,-2,124,24,35305,-6,34,127,0,0,3401,-27,0,14260,3467,28,8550,-4,0,8,0,62336,0
62368,107,-2083,168,-92,35,122,12124,3,-2,113,24,35309,-14,34,127,0,0,3401,10,0,14260,3467,28,8560,-4,0,8,0,62352,0
62378,90,-2079,151,-95,34,114,12123,-3,1,103,24,35314,-7,34,127,0,0,3401,0,0,14260,3467,28,8570,-4,0,8,0,62367,0
62388,97,-2084,153,-95,34,112,12124,0,0,104,24,35313,16,34,127,0,0,3401,0,0,14260,3467,28,8580,-4,0,8,0,62367,0
62398,101,-2081,157,-93,36,112,12124,-5,0,127,40,35305,8,34,127,0,0,3400,-21,0,14260,3467,28,8590,-4,0,8,0,62414,0
62409,90,-2076,160,-92,33,110,12124,-1,-4,96,24,35309,-4,34,127,0,0,3401,10,0,14260,3467,28,8601,-4,0,8,0,62414,0
62419,121,-2076,157,-100,32,112,12124,1,1,136,24,35313,-10,34,127,0,0,3403,0,0,14260,3467,28,8611,-4,0,8,0,62445,0
62429,125,-2077,152,-92,36,113,12124,-6,-3,130,56,35319,-2,34,127,0,0,3401,0,0,14260,3467,28,8621,-4,0,8,0,62445,0
62439,138,-2084,147,-96,41,101,12124,6,0,146,8,35317,-3,34,127,0,0,3405,10,0,14260,3467,28,8631,-4,0,8,0,62445,0
62449,126,-2082,155,-95,30,117,12125,3,-1,146,24,35310,-13,34,127,0,0,3403,21,0,14260,3467,28,8641,-4,0,8,0,62445,0
62459,116,-2088,148,-90,33,116,12124,-4,4,126,24,35310,-21,34,127,0,0,3403,21,0,14260,3467,28,8651,-4,0,8,0,62445,0
62469,130,-2078,144,-86,40,110,12125,2,-2,126,24,35302,-8,34,127,0,0,3401,0,0,14260,3467,28,8661,-4,0,8,0,62445,0
62479,136,-2084,142,-85,36,117,12123,-5,-5,101,24,35298,3,34,127,0,0,3401,0,0,14260,3467,28,8671,-4,0,8,0,62445,0
62489,124,-2080,152,-80,34,119,12124,-1,-3,135,48,35315,-3,34,127,0,0,3403,10,0,14260,3467,28,8681,-4,0,8,0,62492,0
62499,106,-2084,152,-75,38,123,12125,6,1,172,-24,35329,-26,34,127,0,0,3403,0,0,14260,3467,28,8691,-4,0,8,0,62492,0
62509,176,-2079,137,-70,37,133,12124,-1,-3,150,24,35325,-33,34,127,0,0,3403,21,0,14260,3467,28,8701,-4,0,8,0,62492,0
62519,152,-2083,136,-65,41,143,12125,0,2,125,16,35309,-17,34,127,0,0,3401,0,0,14260,3467,28,8711,-4,0,8,0,62492,0
62529,126,-2083,144,-57,38,146,12124,-3,-1,105,24,35301,-13,34,127,0,0,3403,21,0,14260,3467,28,8721,-4,0,8,0,62523,0
62539,119,-2075,142,-47,36,162,12124,3,0,124,24,35320,-13,34,127,0,0,3401,10,0,14260,3467,28,8731,-4,0,8,0,62523,0
62549,147,-2088,147,-36,43,161,12125,5,3,143,8,35326,-21,34,127,0,0,3403,21,0,14260,3467,28,8741,-4,0,8,0,62523,0
62559,122,-2091,147,-32,31,184,12124,-2,3,150,56,35325,-3,34,127,0,0,3403,32,0,14260,3467,28,8751,-4,0,8,0,62539,0
62569,147,-2085,151,-24,19,200,12124,0,-3,218,32,35309,14,34,127,0,0,3405,21,0,14260,3467,28,8761,-4,0,8,0,62570,0
62579,126,-2087,143,-18,15,214,12126,0,2,303,88,35314,12,34,127,0,0,3407,21,0,14260,3467,28,8771,-4,0,8,0,62570,0
62589,109,-2087,140,-6,29,211,12126,-3,-6,344,72,35308,15,34,127,0,0,3412,54,0,14260,3467,28,8781,-4,0,8,0,62570,0
62599,105,-2089,143,-7,32,225,12130,11,5,406,128,35302,10,34,127,0,0,3416,76,0,14260,3467,28,8791,-4,0,8,0,62570,0
62609,108,-2093,158,5,38,219,12135,21,13,525,152,35306,15,34,127,0,0,3418,21,0,14260,3467,28,8801,-4,0,8,0,62602,0
62619,106,-2088,163,5,34,224,12149,34,25,461,160,35322,-4,34,127,0,0,3421,65,0,14260,3467,28,8811,-4,0,8,0,62602,0
62629,89,-2084,161,2,28,225,12180,86,51,418,152,35325,-13,34,127,0,0,3427,32,0,14260,3467,28,8821,-4,0,8,0,62602,0
62639,112,-2079,170,0,33,223,12221,83,53,330,120,35321,5,34,127,0,0,3429,21,0,14260,3467,28,8831,-4,0,8,0,62617,0
62649,119,-2078,172,3,25,225,12249,22,-16,194,96,35304,33,34,127,0,0,3434,76,0,14260,3467,28,8841,-4,0,8,0,62633,0
62660,39,-2078,164,11,41,213,12247,1,-93,392,112,35303,38,34,127,0,0,3440,60,0,14260,3467,28,8852,-4,0,8,0,62633,0
62670,75,-2075,164,5,44,195,12251,8,-23,502,144,35313,16,34,127,0,0,3438,0,0,14260,3467,28,8862,-4,0,8,0,62664,0
62680,87,-2083,174,9,41,191,12253,5,3,546,184,35327,7,34,127,0,0,3443,27,0,14260,3467,28,8872,-4,0,8,0,62664,0
62690,71,-2078,181,0,37,180,12261,7,8,528,168,35316,23,34,127,0,0,3446,82,0,14260,3467,28,8882,-4,0,8,0,62664,0
62700,46,-2081,182,-3,39,166,12266,21,7,638,184,35319,20,34,127,0,0,3445,10,0,14260,3467,28,8892,-4,0,8,0,62680,0
62710,74,-2078,185,-14,37,146,12277,27,13,582,208,35323,13,34,127,0,0,3449,54,0,14260,3467,28,8902,-4,0,8,0,62695,0
62720,59,-2085,188,-17,40,137,12301,59,33,444,136,35318,11,34,127,0,0,3450,32,0,14260,3467,28,8912,-4,0,8,0,62695,0
62730,67,-2075,191,-14,36,112,12312,16,-2,502,136,35317,-6,34,127,0,0,3453,16,0,14260,3467,28,8922,-4,0,8,0,62727,0
62740,42,-2087,182,-30,43,99,12313,5,-49,533,152,35312,-11,34,127,0,0,3448,10,0,14260,3467,28,8932,-4,0,8,0,62727,0
62750,70,-2079,187,-36,39,82,12312,1,-18,509,136,35313,-27,34,127,0,0,3449,-5,0,14260,3467,28,8942,-4,0,8,0,62758,0
62760,81,-2085,197,-46,32,75,12314,1,3,503,152,35315,-16,34,127,0,0,3451,5,0,14260,3467,28,8952,-4,0,8,0,62758,0
62770,71,-2087,189,-59,30,67,12313,0,-1,507,152,35314,10,34,127,0,0,3448,10,0,14260,3467,28,8962,-4,0,8,0,62773,0
62780,92,-2091,182,-54,29,59,12314,3,4,486,152,35311,24,34,127,0,0,3448,-21,0,14260,3467,28,8972,-4,0,8,0,62773,0
62790,95,-2082,176,-61,33,48,12314,1,2,489,128,35313,1,34,127,0,0,3449,0,0,14260,3467,28,8982,-4,0,8,0,62789,0
62800,97,-2084,169,-63,31,53,12314,2,5,489,112,35312,-16,34,127,0,0,3447,-38,0,14260,3467,28,8992,-4,0,8,0,62789,0
62810,98,-2082,171,-62,35,50,12310,-13,-6,384,96,35311,-17,34,127,0,0,3451,43,0,14260,3467,28,9002,-4,0,8,0,62805,0
62820,100,-2082,166,-59,38,56,12312,-2,1,426,112,35316,0,34,127,0,0,3447,10,0,14260,3467,28,9012,-4,0,8,0,62820,0
62830,116,-2093,181,-63,38,50,12312,0,-2,367,112,35319,-6,34,127,0,0,3440,-43,0,14260,3467,28,9022,-4,0,8,0,62820,0
62840,121,-2085,183,-57,41,55,12311,5,-4,349,96,35316,-1,34,127,0,0,3442,-43,0,14260,3467,28,9032,-4,0,8,0,62820,0
62850,112,-2080,181,-70,41,59,12310,-7,-1,270,48,35305,-7,34,127,0,0,3444,10,0,14260,3467,28,9042,-4,0,8,0,62820,0
62860,104,-2084,179,-66,46,67,12308,-1,-5,260,56,35310,-2,34,127,0,0,3440,-16,0,14260,3467,28,9052,-4,0,8,0,62867,0
62870,112,-2078,185,-74,40,64,12307,3,4,188,32,35309,-1,34,127,0,0,3438,-21,0,14260,3467,28,9062,-4,0,8,0,62867,0
62880,111,-2077,192,-71,36,63,12308,0,-2,171,8,35316,-2,34,127,0,0,3436,-32,0,14260,3467,28,9072,-4,0,8,0,62867,0
62890,89,-2078,187,-79,41,73,12302,-5,-5,117,24,35310,4,34,127,0,0,3436,-27,0,14260,3467,28,9082,-4,0,8,0,62883,0
62900,107,-2080,186,-85,43,77,12302,0,3,102,0,35313,0,34,127,0,0,3434,-32,0,14260,3467,28,9092,-4,0,8,0,62883,0
62911,115,-2080,182,-85,44,80,12301,2,5,47,0,35325,13,34,127,0,0,3434,-21,0,14260,3467,28,9103,-4,0,8,0,62883,0
62921,113,-2075,183,-92,35,83,12300,2,2,47,-8,35337,12,34,127,0,0,3434,-21,0,14260,3467,28,9113,-4,0,8,0,62914,0
62931,100,-2085,183,-86,35,85,12298,-9,-8,-44,-16,35333,2,34,127,0,0,3432,32,0,14260,3467,28,9123,-4,0,8,0,62914,0
62941,108,-2086,189,-94,38,87,12296,-3,-2,-15,32,35320,-9,34,127,0,0,3434,10,0,14260,3467,28,9133,-4,0,8,0,62914,0
62951,108,-2091,182,-97,37,91,12295,-16,5,-43,0,35317,-1,34,127,0,0,3432,21,0,14260,3467,28,9143,-4,0,8,0,62930,0
62961,133,-2083,189,-108,34,83,12294,-6,-3,-31,-40,35331,-11,34,127,0,0,3432,10,0,14260,3467,28,9153,-4,0,8,0,62945,0
62971,95,-2082,183,-115,36,88,12293,0,-6,-73,-24,35332,-8,34,127,0,0,3429,-10,0,14260,3467,28,9163,-4,0,8,0,62945,0
62981,92,-2096,187,-114,39,81,12290,-7,-4,-116,-8,35331,-5,34,127,0,0,3427,-32,0,14260,3467,28,9173,-4,0,8,0,62961,0
62991,112,-2080,191,-116,41,69,12287,0,-3,-130,-40,35322,5,34,127,0,0,3427,-21,0,14260,3467,28,9183,-4,0,8,0,62976,0
63001,107,-2086,184,-118,29,77,12285,-5,6,-125,-32,35323,14,34,127,0,0,3425,-32,0,14260,3467,28,9193,-4,0,8,0,62976,0
63011,118,-2085,177,-126,29,72,12278,-21,-4,-160,-56,35324,5,34,127,0,0,3425,-10,0,14260,3467,28,9203,-4,0,8,0,62976,0
63021,107,-2086,168,-118,35,75,12267,-33,-21,-114,-72,35333,-3,34,127,0,0,3421,-65,0,14260,3467,28,9213,-4,0,8,0,63008,0
63031,117,-2090,171,-122,37,73,12238,-66,-43,-85,-32,35320,-14,34,127,0,0,3418,32,0,14260,3467,28,9223,-4,0,8,0,63008,0
63041,173,-2086,175,-119,37,81,12240,-9,30,-153,-32,35323,-4,34,127,0,0,3416,0,0,14260,3467,28,9233,-4,0,8,0,63008,0
63051,138,-2089,171,-120,26,94,12240,5,55,-141,-96,35322,-12,34,127,0,0,3416,-43,0,14260,3467,28,9243,-4,0,8,0,63055,0
63061,105,-2074,160,-114,40,98,12237,0,-15,-234,-80,35320,3,34,127,0,0,3416,21,0,14260,3467,28,9253,-4,0,8,0,63055,0
63071,104,-2076,155,-109,43,96,12236,-8,-1,-256,-72,35318,23,34,127,0,0,3414,0,0,14260,3467,28,9263,-4,0,8,0,63055,0
63081,129,-2073,162,-102,41,96,12237,0,2,-297,-72,35308,44,34,127,0,0,3412,0,0,14260,3467,28,9273,-4,0,8,0,63055,0
63091,129,-2070,169,-105,37,100,12236,-5,-5,-329,-56,35315,37,34,127,0,0,3414,21,0,14260,3467,28,9283,-4,0,8,0,63070,0
63101,119,-2074,175,-105,38,109,12236,7,-5,-330,-88,35317,34,34,127,0,0,3412,0,0,14260,3467,28,9293,-4,0,8,0,63086,0
63111,109,-2076,170,-102,43,103,12234,-4,0,-346,-152,35318,38,34,127,0,0,3412,-10,0,14260,3467,28,9303,-4,0,8,0,63086,0
63121,104,-2068,170,-101,39,104,12231,-4,-4,-400,-128,35316,42,34,127,0,0,3412,54,0,14260,3467,28,9313,-4,0,8,0,63101,0
63131,95,-2079,173,-105,44,99,12230,5,-1,-351,-88,35334,31,34,127,0,0,3407,-43,0,14260,3467,28,9323,-4,0,8,0,63117,0
63141,108,-2074,169,-103,43,98,12227,-3,12,-386,-128,35331,17,34,127,0,0,3407,-10,0,14260,3467,28,9333,-4,0,8,0,63117,0
63152,113,-2083,165,-101,36,102,12227,-4,2,-388,-96,35332,27,34,127,0,0,3410,32,0,14260,3467,28,9344,-4,0,8,0,63133,0
63162,119,-2083,174,-100,42,101,12227,-2,-3,-395,-120,35318,42,34,127,0,0,3407,10,0,14260,3467,28,9354,-4,0,8,0,63148,0
63172,119,-2082,167,-102,39,101,12226,-4,-3,-445,-112,35316,34,34,127,0,0,3407,21,0,14260,3467,28,9364,-4,0,8,0,63148,0
63182,116,-2087,165,-102,39,100,12224,-6,-6,-419,-136,35313,32,34,127,0,0,3409,21,0,14260,3467,28,9374,-4,0,8,0,63180,0
63192,112,-2087,163,-97,36,97,12224,1,-3,-413,-160,35311,34,34,127,0,0,3403,-71,0,14260,3467,28,9384,-4,0,8,0,63180,0
63202,104,-2085,166,-93,35,102,12218,-10,-6,-453,-144,35309,23,34,127,0,0,3403,-32,0,14260,3467,28,9394,-4,0,8,0,63180,0
63212,124,-2085,169,-99,38,100,12210,-17,-15,-404,-128,35315,14,34,127,0,0,3400,-65,0,14260,3467,28,9404,-4,0,8,0,63180,0
63222,121,-2082,178,-98,38,103,12196,-37,-10,-374,-120,35331,10,34,127,0,0,3404,-10,0,14260,3467,28,9414,-4,0,8,0,63226,0
63232,109,-2080,167,-100,47,105,12174,-42,-26,-250,-88,35326,5,34,127,0,0,3401,10,0,14260,3467,28,9424,-4,0,8,0,63226,0
63242,131,-2086,172,-106,37,117,12172,5,26,-276,-80,35321,20,34,127,0,0,3401,0,0,14260,3467,28,9434,-4,0,8,0,63226,0
63252,128,-2077,177,-102,39,119,12173,0,43,-272,-72,35307,8,34,127,0,0,3401,0,0,14260,3467,28,9444,-4,0,8,0,63226,0
63262,118,-2086,168,-102,34,122,12173,1,-1,-289,-72,35317,7,34,127,0,0,3401,5,0,14260,3467,28,9454,-4,0,8,0,63242,0
63272,123,-2079,171,-102,38,131,12172,-5,2,-270,-72,35314,3,34,127,0,0,3401,0,0,14260,3467,28,9464,-4,0,8,0,63258,0
63282,130,-2079,165,-93,38,132,12172,1,-1,-287,-72,35318,10,34,127,0,0,3401,16,0,14260,3467,28,9474,-4,0,8,0,63258,0
63292,133,-2073,161,-91,36,138,12173,-1,-5,-289,-72,35315,26,34,127,0,0,3401,27,0,14260,3467,28,9484,-4,0,8,0,63258,0
63302,113,-2079,161,-88,41,149,12173,-1,0,-273,-72,35324,40,34,127,0,0,3401,0,0,14260,3467,28,9494,-4,0,8,0,63289,0
63312,114,-2083,157,-88,38,145,12172,-2,0,-275,-72,35318,32,34,127,0,0,3398,-32,0,14260,3467,28,9504,-4,0,8,0,63289,0
63322,110,-2084,160,-79,44,155,12171,-3,-1,-303,-72,35313,24,34,127,0,0,3401,5,0,14260,3467,28,9514,-4,0,8,0,63289,0
63332,112,-2077,169,-78,39,155,12172,-4,2,-285,-80,35313,18,34,127,0,0,3401,16,0,14260,3467,28,9524,-4,0,8,0,63320,0
63342,124,-2089,164,-81,46,155,12172,0,1,-278,-72,35311,23,34,127,0,0,3401,0,0,14260,3467,28,9534,-4,0,8,0,63320,0
63352,117,-2081,166,-75,40,158,12172,1,-2,-273,-80,35308,33,34,127,0,0,3401,0,0,14260,3467,28,9544,-4,0,8,0,63336,0
63362,106,-2083,173,-80,39,157,12172,-6,0,-268,-72,35301,27,34,127,0,0,3401,0,0,14260,3467,28,9554,-4,0,8,0,63336,0
63372,102,-2086,172,-83,44,157,12173,6,-1,-277,-80,35299,29,34,127,0,0,3401,0,0,14260,3467,28,9564,-4,0,8,0,63367,0
63382,94,-2080,175,-82,40,162,12173,2,3,-243,-56,35302,13,34,127,0,0,3400,-27,0,14260,3467,28,9574,-4,0,8,0,63383,0
63392,109,-2081,173,-78,29,154,12173,-1,-2,-228,-56,35302,13,34,127,0,0,3406,21,0,14260,3467,28,9584,-4,0,8,0,63398,0
63403,99,-2080,169,-81,36,158,12175,0,0,-141,-32,35306,13,34,127,0,0,3405,21,0,14260,3467,28,9595,-4,0,8,0,63398,0
63413,112,-2084,173,-83,36,150,12173,-2,-3,-176,-24,35308,26,34,127,0,0,3407,54,0,14260,3467,28,9605,-4,0,8,0,63398,0
63423,106,-2084,166,-81,29,148,12175,-1,4,-99,-8,35309,9,34,127,0,0,3407,0,0,14260,3467,28,9615,-4,0,8,0,63398,0
63433,115,-2081,174,-83,27,147,12175,-8,-6,-145,-32,35305,12,34,127,0,0,3407,54,0,14260,3467,28,9625,-4,0,8,0,63398,0
63443,101,-2084,169,-86,31,151,12176,-6,-1,-71,-16,35313,11,34,127,0,0,3407,21,0,14260,3467,28,9635,-4,0,8,0,63445,0
63453,104,-2075,168,-76,37,142,12177,4,2,-41,-16,35315,29,34,127,0,0,3407,21,0,14260,3467,28,9645,-4,0,8,0,63445,0
63463,111,-2077,159,-81,34,148,12180,0,4,44,-40,35310,28,34,127,0,0,3412,0,0,14260,3467,28,9655,-4,0,8,0,63445,0
63473,96,-2079,168,-80,35,146,12182,14,5,86,-48,35298,25,34,127,0,0,3407,-43,0,14260,3467,28,9665,-4,0,8,0,63445,0
63483,102,-2080,167,-73,35,141,12183,10,-5,56,-48,35302,19,34,127,0,0,3412,-10,0,14260,3467,28,9675,-4,0,8,0,63492,0
63493,91,-2085,166,-69,35,155,12183,4,0,82,16,35302,31,34,127,0,0,3412,10,0,14260,3467,28,9685,-4,0,8,0,63492,0
63503,122,-2084,163,-77,41,151,12184,3,10,146,32,35300,43,34,127,0,0,3412,-21,0,14260,3467,28,9695,-4,0,8,0,63492,0
63513,111,-2076,168,-73,36,147,12184,-12,-1,75,16,35296,38,34,127,0,0,3412,10,0,14260,3467,28,9705,-4,0,8,0,63492,0
63523,126,-2085,168,-71,30,150,12186,3,0,149,32,35297,22,34,127,0,0,3412,-21,0,14260,3467,28,9715,-4,0,8,0,63554,0
63533,92,-2081,172,-73,44,143,12187,6,1,150,32,35307,22,34,127,0,0,3414,0,0,14260,3467,28,9725,-4,0,8,0,63570,0
63543,104,-2081,172,-70,37,146,12187,1,-4,173,32,35305,34,34,127,0,0,3414,10,0,14260,3467,28,9735,-4,0,8,0,63570,0
63553,102,-2083,173,-69,34,145,12188,0,5,211,48,35305,34,34,127,0,0,3416,0,0,14260,3467,28,9745,-4,0,8,0,63570,0
63563,101,-2085,172,-70,37,136,12189,0,-1,243,72,35299,36,34,127,0,0,3418,21,0,14260,3467,28,9755,-4,0,8,0,63570,0
63573,96,-2084,176,-74,35,139,12191,2,0,224,40,35298,37,34,127,0,0,3418,21,0,14260,3467,28,9765,-4,0,8,0,63570,0
63583,98,-2082,173,-75,36,139,12190,-1,1,252,104,35299,33,34,127,0,0,3418,21,0,14260,3467,28,9775,-4,0,8,0,63570,0
63593,110,-2078,183,-77,33,122,12193,-2,1,232,96,35299,17,34,127,0,0,3418,10,0,14260,3467,28,9785,-4,0,8,0,63570,0
63603,108,-2084,176,-81,42,124,12195,9,-1,214,56,35309,10,34,127,0,0,3421,54,0,14260,3467,28,9795,-4,0,8,0,63586,0
63613,105,-2086,180,-78,40,125,12197,8,5,298,72,35320,27,34,127,0,0,3418,0,0,14260,3467,28,9805,-4,0,8,0,63586,0
63623,119,-2080,171,-83,37,126,12201,11,6,285,32,35316,34,34,127,0,0,3425,21,0,14260,3467,28,9815,-4,0,8,0,63617,0
63633,100,-2086,170,-83,40,126,12205,19,6,321,128,35312,29,34,127,0,0,3423,10,0,14260,3467,28,9825,-4,0,8,0,63617,0
63643,109,-2084,165,-78,37,130,12222,42,29,139,16,35305,9,34,127,0,0,3423,54,0,14260,3467,28,9835,-4,0,8,0,63617,0
63654,129,-2078,170,-80,29,128,12237,9,4,3,-24,35305,5,34,127,0,0,3428,71,0,14260,3467,28,9846,-4,0,8,0,63633,0
63664,70,-2089,160,-79,40,125,12236,13,-41,126,0,35311,39,34,127,0,0,3424,27,0,14260,3467,28,9856,-4,0,8,0,63648,0
63674,91,-2081,174,-80,42,126,12236,0,-17,98,40,35306,43,34,127,0,0,3425,32,0,14260,3467,28,9866,-4,0,8,0,63695,0
63684,113,-2083,181,-75,38,134,12237,-8,-3,103,-8,35307,35,34,127,0,0,3421,-16,0,14260,3467,28,9876,-4,0,8,0,63695,0
63694,97,-2082,172,-74,41,134,12236,0,-4,12,-24,35313,25,34,127,0,0,3422,0,0,14260,3467,28,9886,-4,0,8,0,63711,0
63704,110,-2083,178,-75,37,131,12236,3,-4,43,-24,35315,22,34,127,0,0,3418,-49,0,14260,3467,28,9896,-4,0,8,0,63711,0
63714,93,-2083,175,-72,43,131,12235,-4,2,-31,0,35314,29,34,127,0,0,3424,49,0,14260,3467,28,9906,-4,0,8,0,63711,0
63724,111,-2085,172,-75,37,134,12237,-2,5,89,40,35305,24,34,127,0,0,3425,60,0,14260,3467,28,9916,-4,0,8,0,63711,0
63734,113,-2080,174,-77,35,129,12237,-6,5,110,16,35305,15,34,127,0,0,3426,38,0,14260,3467,28,9926,-4,0,8,0,63711,0
63744,95,-2085,176,-78,34,132,12237,-6,-11,143,40,35307,18,34,127,0,0,3428,71,0,14260,3467,28,9936,-4,0,8,0,63711,0
63754,99,-2087,172,-82,39,124,12239,3,-2,174,40,35308,41,34,127,0,0,3425,10,0,14260,3467,28,9946,-4,0,8,0,63742,0
63764,100,-2082,173,-82,42,125,12240,1,2,187,32,35306,36,34,127,0,0,3425,-21,0,14260,3467,28,9956,-4,0,8,0,63758,0
63774,92,-2081,176,-77,36,131,12240,0,-2,185,32,35304,25,34,127,0,0,3428,10,0,14260,3467,28,9966,-4,0,8,0,63758,0
63784,97,-2086,174,-82,37,126,12241,0,0,234,32,35301,16,34,127,0,0,3425,-65,0,14260,3467,28,9976,-4,0,8,0,63758,0
63794,95,-2079,175,-84,33,122,12242,11,1,190,72,35303,19,34,127,0,0,3426,21,0,14260,3467,28,9986,-4,0,8,0,63789,0
63804,110,-2085,176,-83,35,126,12241,-7,-3,181,56,35308,19,34,127,0,0,3424,-10,0,14260,3467,28,9996,-4,0,8,0,63789,0
63814,112,-2073,176,-88,35,123,12243,3,-1,176,48,35315,4,34,127,0,0,3427,16,0,14260,3467,28,10006,-4,0,8,0,63804,0
63824,103,-2077,171,-88,37,126,12243,0,-1,232,48,35315,6,34,127,0,0,3431,16,0,14260,3467,28,10016,-4,0,8,0,63804,0
63834,99,-2082,170,-88,27,126,12243,0,-3,255,48,35317,33,34,127,0,0,3427,-16,0,14260,3467,28,10026,-4,0,8,0,63820,0
63844,103,-2076,175,-90,34,126,12244,0,-5,201,48,35315,35,34,127,0,0,3427,5,0,14260,3467,28,10036,-4,0,8,0,63820,0
63854,113,-2080,179,-91,32,124,12243,-3,-5,216,48,35318,26,34,127,0,0,3427,0,0,14260,3467,28,10046,-4,0,8,0,63836,0
63864,104,-2084,178,-95,33,121,12243,-1,0,215,72,35313,22,34,127,0,0,3426,5,0,14260,3467,28,10056,-4,0,8,0,63836,0
63874,105,-2089,171,-91,36,119,12244,0,0,222,48,35315,23,34,127,0,0,3427,-5,0,14260,3467,28,10066,-4,0,8,0,63851,0
63884,104,-2083,170,-91,36,118,12242,0,-1,207,56,35316,37,34,127,0,0,3431,54,0,14260,3467,28,10076,-4,0,8,0,63867,0
63894,90,-2085,175,-87,36,119,12243,-6,1,263,48,35321,24,34,127,0,0,3431,0,0,14260,3467,28,10086,-4,0,8,0,63882,0
63905,120,-2085,174,-93,36,121,12243,0,-1,223,80,35323,3,34,127,0,0,3429,10,0,14260,3467,28,10097,-4,0,8,0,63929,0
63915,105,-2085,163,-84,39,129,12243,0,-3,186,80,35318,1,34,127,0,0,3427,32,0,14260,3467,28,10107,-4,0,8,0,63929,0
63925,111,-2077,166,-84,31,134,12245,0,0,285,56,35316,4,34,127,0,0,3429,-32,0,14260,3467,28,10117,-4,0,8,0,63929,0
63935,111,-2086,163,-85,38,144,12245,2,-1,287,72,35313,14,34,127,0,0,3432,10,0,14260,3467,28,10127,-4,0,8,0,63929,0
63945,103,-2081,160,-81,32,149,12247,6,2,333,120,35313,8,34,127,0,0,3432,10,0,14260,3467,28,10137,-4,0,8,0,63929,0
63955,121,-2086,160,-78,33,153,12248,4,3,344,88,35316,13,34,127,0,0,3434,0,0,14260,3467,28,10147,-4,0,8,0,63929,0
63965,107,-2080,170,-76,35,166,12248,0,0,372,104,35323,16,34,127,0,0,3434,0,0,14260,3467,28,10157,-4,0,8,0,63945,0
63975,115,-2078,168,-70,35,170,12247,-3,-1,384,144,35343,14,34,127,0,0,3434,0,0,14260,3467,28,10167,-4,0,8,0,63976,0
63985,112,-2083,167,-71,39,175,12250,0,3,402,88,35345,4,34,127,0,0,3438,43,0,14260,3467,28,10177,-4,0,8,0,63976,0
63995,100,-2080,168,-68,41,176,12254,17,7,491,176,35336,-3,34,127,0,0,3438,0,0,14260,3467,28,10187,-4,0,8,0,63976,0
64005,106,-2089,169,-66,33,174,12257,-1,11,456,136,35318,15,34,127,0,0,3438,10,0,14260,3467,28,10197,-4,0,8,0,63992,0
64015,86,-2085,167,-66,37,179,12259,4,-10,497,120,35315,13,34,127,0,0,3440,10,0,14260,3467,28,10207,-4,0,8,0,63992,0
64025,83,-2083,175,-71,37,169,12262,14,-3,582,160,35333,3,34,127,0,0,3447,32,0,14260,3467,28,10217,-4,0,8,0,63992,0
64035,83,-2088,176,-67,29,163,12276,40,30,569,160,35341,-1,34,127,0,0,3445,0,0,14260,3467,28,10227,-4,0,8,0,64054,0
64045,85,-2082,170,-74,30,167,12300,54,43,408,104,35344,-14,34,127,0,0,3447,32,0,14260,3467,28,10237,-4,0,8,0,64054,0
64055,92,-2079,174,-76,35,168,12310,5,-8,444,136,35329,7,34,127,0,0,3447,0,0,14260,3467,28,10247,-4,0,8,0,64054,0
64065,82,-2083,175,-70,39,146,12310,1,-52,456,136,35313,6,34,127,0,0,3449,21,0,14260,3467,28,10257,-4,0,8,0,64070,0
64075,96,-2082,175,-73,39,150,12311,-7,-21,497,136,35308,-8,34,127,0,0,3451,32,0,14260,3467,28,10267,-4,0,8,0,64070,0
64085,90,-2084,186,-83,34,144,12314,7,4,525,160,35308,-8,34,127,0,0,3451,10,0,14260,3467,28,10277,-4,0,8,0,64070,0
64095,86,-2078,178,-78,29,141,12314,-3,0,489,160,35315,-6,34,127,0,0,3451,10,0,14260,3467,28,10287,-4,0,8,0,64070,0
64105,89,-2078,178,-81,42,137,12313,1,-3,496,152,35332,-10,34,127,0,0,3451,0,0,14260,3467,28,10297,-4,0,8,0,64086,0
64115,85,-2079,176,-85,45,134,12313,-4,-4,510,192,35346,-24,34,127,0,0,3454,32,0,14260,3467,28,10307,-4,0,8,0,64117,0
64125,88,-2086,175,-85,37,131,12320,20,6,563,160,35344,-32,34,127,0,0,3456,10,0,14260,3467,28,10317,-4,0,8,0,64117,0
64135,84,-2082,168,-83,37,137,12329,25,14,560,176,35332,-9,34,127,0,0,3454,-10,0,14260,3467,28,10327,-4,0,8,0,64117,0
64145,87,-2078,164,-84,44,134,12342,42,14,478,144,35319,5,34,127,0,0,3456,0,0,14260,3467,28,10337,-4,0,8,0,64117,0
64156,96,-2079,169,-87,42,135,12374,62,42,267,80,35320,0,34,127,0,0,3456,5,0,14260,3467,28,10348,-4,0,8,0,64132,0
64166,71,-2088,171,-80,33,138,12376,0,-25,335,96,35323,-5,34,127,0,0,3455,-27,0,14260,3467,28,10358,-4,0,8,0,64164,0
64176,93,-2080,168,-83,40,135,12375,-6,-60,324,72,35327,3,34,127,0,0,3456,-5,0,14260,3467,28,10368,-4,0,8,0,64164,0
64186,88,-2082,177,-83,39,138,12374,0,-4,318,80,35321,24,34,127,0,0,3459,27,0,14260,3467,28,10378,-4,0,8,0,64164,0
64196,100,-2081,182,-80,45,137,12376,0,1,379,72,35324,21,34,127,0,0,3456,-32,0,14260,3467,28,10388,-4,0,8,0,64164,0
64206,87,-2085,167,-82,34,137,12376,0,-3,334,72,35336,29,34,127,0,0,3456,5,0,14260,3467,28,10398,-4,0,8,0,64211,0
64216,103,-2084,170,-75,37,138,12376,0,3,345,96,35334,24,34,127,0,0,3458,10,0,14260,3467,28,10408,-4,0,8,0,64211,0
64226,99,-2084,171,-74,47,135,12379,7,2,371,88,35330,18,34,127,0,0,3461,32,0,14260,3467,28,10418,-4,0,8,0,64211,0
64236,95,-2081,174,-75,43,139,12378,5,-1,406,112,35316,10,34,127,0,0,3457,10,0,14260,3467,28,10428,-4,0,8,0,64211,0
64246,93,-2083,175,-70,40,145,12379,4,0,393,112,35322,-3,34,127,0,0,3457,-38,0,14260,3467,28,10438,-4,0,8,0,64304,0
64256,93,-2088,171,-76,34,148,12379,2,-1,388,112,35325,-7,34,127,0,0,3457,-43,0,14260,3467,28,10448,-4,0,8,0,64304,0
64266,84,-2083,168,-68,38,146,12381,11,-1,437,112,35326,-2,34,127,0,0,3460,-54,0,14260,3467,28,10458,-4,0,8,0,64304,0
64276,101,-2081,173,-77,40,147,12383,5,4,414,128,35314,15,34,127,0,0,3462,10,0,14260,3467,28,10468,-4,0,8,0,64304,0
64286,90,-2084,176,-70,30,156,12384,5,2,457,120,35309,15,34,127,0,0,3462,-5,0,14260,3467,28,10478,-4,0,8,0,64320,0
64296,86,-2089,175,-69,33,154,12386,3,2,454,144,35307,5,34,127,0,0,3461,-10,0,14260,3467,28,10488,-4,0,8,0,64320,0
64306,84,-2082,169,-70,38,154,12392,14,1,474,136,35300,7,34,127,0,0,3465,-10,0,14260,3467,28,10498,-4,0,8,0,64320,0
64316,91,-2081,175,-73,36,163,12398,12,11,420,120,35298,15,34,127,0,0,3468,32,0,14260,3467,28,10508,-4,0,8,0,64320,0
64326,83,-2081,174,-67,34,167,12408,24,12,398,104,35300,21,34,127,0,0,3474,104,0,14260,3467,28,10518,-4,0,8,0,64320,0
64336,80,-2088,166,-67,37,166,12425,29,20,339,88,35305,14,34,127,0,0,3470,54,0,14260,3467,28,10528,-4,0,8,0,64320,0
64346,87,-2079,175,-65,34,170,12429,5,-13,379,80,35310,19,34,127,0,0,3473,32,0,14260,3467,28,10538,-4,0,8,0,64320,0
64356,88,-2080,177,-63,35,174,12429,1,-34,416,120,35328,17,34,127,0,0,3474,38,0,14260,3467,28,10548,-4,0,8,0,64336,0
64366,89,-2084,178,-67,30,172,12434,14,6,481,160,35342,36,34,127,0,0,3476,49,0,14260,3467,28,10558,-4,0,8,0,64336,0
64376,85,-2083,178,-69,28,187,12438,3,8,476,168,35351,18,34,127,0,0,3478,38,0,14260,3467,28,10568,-4,0,8,0,64367,0
64386,89,-2078,177,-63,28,189,12441,0,-7,523,168,35342,12,34,127,0,0,3481,60,0,14260,3467,28,10578,-4,0,8,0,64367,0
64396,66,-2088,180,-65,35,178,12442,12,3,584,160,35317,23,34,127,0,0,3481,21,0,14260,3467,28,10588,-4,0,8,0,64367,0
64407,70,-2081,179,-62,33,178,12450,17,7,606,192,35313,35,34,127,0,0,3482,21,0,14260,3467,28,10599,-4,0,8,0,64382,0
64417,74,-2087,174,-64,35,175,12462,30,15,528,136,35307,41,34,127,0,0,3482,0,0,14260,3467,28,10609,-4,0,8,0,64398,0
64427,66,-2084,176,-67,38,167,12482,64,31,444,192,35311,32,34,127,0,0,3484,32,0,14260,3467,28,10619,-4,0,8,0,64398,0
64437,98,-2077,180,-69,31,170,12512,42,42,294,96,35310,32,34,127,0,0,3484,21,0,14260,3467,28,10629,-4,0,8,0,64445,0
64447,58,-2080,179,-66,36,174,12516,-9,-37,345,136,35315,4,34,127,0,0,3489,32,0,14260,3467,28,10639,-4,0,8,0,64445,0
64457,82,-2081,177,-66,42,164,12519,14,-56,372,88,35310,7,34,127,0,0,3489,21,0,14260,3467,28,10649,-4,0,8,0,64445,0
64467,74,-2086,177,-68,39,164,12525,27,1,407,136,35312,12,34,127,0,0,3489,0,0,14260,3467,28,10659,-4,0,8,0,64445,0
64477,84,-2086,183,-73,43,158,12545,55,36,305,96,35302,33,34,127,0,0,3491,0,0,14260,3467,28,10669,-4,0,8,0,64460,0
64487,88,-2078,188,-76,34,163,12561,22,25,249,56,35306,21,34,127,0,0,3491,-21,0,14260,3467,28,10679,-4,0,8,0,64460,0
64497,41,-2079,172,-70,40,158,12560,9,-45,301,112,35325,4,34,127,0,0,3493,-10,0,14260,3467,28,10689,-4,0,8,0,64476,0
64507,86,-2076,177,-76,43,150,12561,-2,-27,320,80,35338,3,34,127,0,0,3495,10,0,14260,3467,28,10699,-4,0,8,0,64476,0
64517,63,-2086,191,-75,39,155,12564,12,4,377,112,35330,17,34,127,0,0,3495,-32,0,14260,3467,28,10709,-4,0,8,0,64527,0
64527,68,-2084,187,-79,37,154,12564,3,0,372,96,35316,37,34,127,0,0,3498,21,0,14260,3467,28,10719,-4,0,8,0,64527,0
64537,75,-2082,176,-77,38,150,12565,10,0,432,104,35303,38,34,127,0,0,3498,-21,0,14260,3467,28,10729,-4,0,8,0,64527,0
64547,84,-2081,177,-81,40,149,12569,10,8,432,128,35306,11,34,127,0,0,3498,-21,0,14260,3467,28,10739,-4,0,8,0,64527,0
64557,74,-2085,175,-80,39,152,12573,13,4,420,120,35308,-1,34,127,0,0,3500,0,0,14260,3467,28,10749,-4,0,8,0,64543,0
64567,74,-2082,185,-74,39,153,12573,3,1,438,120,35307,-2,34,127,0,0,3500,0,0,14260,3467,28,10759,-4,0,8,0,64543,0
64577,65,-2085,183,-73,37,151,12573,-1,-5,432,160,35323,-5,34,127,0,0,3500,0,0,14260,3467,28,10769,-4,0,8,0,64574,0
64587,79,-2086,177,-74,35,146,12576,-2,1,421,104,35321,-11,34,127,0,0,3502,10,0,14260,3467,28,10779,-4,0,8,0,64574,0
64597,63,-2083,176,-77,43,152,12579,15,0,451,136,35320,-15,34,127,0,0,3502,0,0,14260,3467,28,10789,-4,0,8,0,64574,0
64607,82,-2085,175,-76,39,150,12590,33,15,402,112,35308,-13,34,127,0,0,3502,0,0,14260,3467,28,10799,-4,0,8,0,64574,0
64617,85,-2088,178,-80,38,154,12613,57,42,277,88,35311,4,34,127,0,0,3504,10,0,14260,3467,28,10809,-4,0,8,0,64715,0
64627,87,-2082,181,-78,34,156,12622,-7,-8,276,72,35307,27,34,127,0,0,3504,0,0,14260,3467,28,10819,-4,0,8,0,64715,0
64637,73,-2081,178,-78,41,149,12622,4,-53,311,56,35301,29,34,127,0,0,3504,0,0,14260,3467,28,10829,-4,0,8,0,64715,0
64647,77,-2080,177,-75,38,154,12623,1,-6,335,88,35296,46,34,127,0,0,3506,10,0,14260,3467,28,10839,-4,0,8,0,64715,0
64657,66,-2089,169,-75,47,154,12623,4,-1,374,144,35304,33,34,127,0,0,3506,-21,0,14260,3467,28,10849,-4,0,8,0,64715,0
64667,83,-2083,182,-74,38,154,12626,0,10,399,96,35308,32,34,127,0,0,3511,21,0,14260,3467,28,10859,-4,0,8,0,64730,0
64677,64,-2092,179,-71,41,158,12630,10,6,470,152,35306,14,34,127,0,0,3513,10,0,14260,3467,28,10869,-4,0,8,0,64730,0
64687,71,-2087,191,-75,43,162,12633,6,4,497,136,35298,18,34,127,0,0,3515,21,0,14260,3467,28,10879,-4,0,8,0,64730,0
64697,79,-2077,187,-79,39,166,12638,6,0,467,160,35298,36,34,127,0,0,3515,43,0,14260,3467,28,10889,-4,0,8,0,64730,0
64707,61,-2080,184,-74,36,163,12642,6,-3,481,144,35301,36,34,127,0,0,3515,21,0,14260,3467,28,10899,-4,0,8,0,64730,0
64717,63,-2084,181,-74,37,164,12649,20,4,488,128,35304,22,34,127,0,0,3515,-10,0,14260,3467,28,10909,-4,0,8,0,64730,0
64727,72,-2085,184,-76,39,164,12664,36,22,376,128,35302,30,34,127,0,0,3517,10,0,14260,3467,28,10919,-4,0,8,0,64730,0
64737,75,-2080,184,-74,27,167,12683,30,12,337,136,35304,43,34,127,0,0,3520,0,0,14260,3467,28,10929,-4,0,8,0,64730,0
64748,72,-2081,182,-77,40,169,12684,1,-35,399,120,35305,43,34,127,0,0,3518,-10,0,14260,3467,28,10940,-4,0,8,0,64730,0
64758,61,-2086,178,-83,38,166,12684,-1,-24,436,120,35307,40,34,127,0,0,3522,-16,0,14260,3467,28,10950,-4,0,8,0,64746,0
64768,75,-2086,180,-76,38,170,12686,8,4,467,144,35311,49,34,127,0,0,3524,27,0,14260,3467,28,10960,-4,0,8,0,64746,0
64778,68,-2083,183,-74,37,173,12688,-4,-2,458,136,35329,55,34,127,0,0,3527,38,0,14260,3467,28,10970,-4,0,8,0,64746,0
64788,64,-2083,170,-74,36,170,12691,9,6,536,152,35337,43,34,127,0,0,3529,32,0,14260,3467,28,10980,-4,0,8,0,64793,0
64798,55,-2084,170,-72,37,181,12692,7,-3,542,152,35335,37,34,127,0,0,3529,10,0,14260,3467,28,10990,-4,0,8,0,64793,0
64808,64,-2087,168,-68,39,177,12696,7,1,581,208,35317,30,34,127,0,0,3533,49,0,14260,3467,28,11000,-4,0,8,0,64793,0
64818,66,-2078,176,-62,33,190,12706,20,14,552,168,35308,44,34,127,0,0,3534,82,0,14260,3467,28,11010,-4,0,8,0,64793,0
64828,58,-2082,169,-61,31,185,12717,29,14,544,168,35311,41,34,127,0,0,3536,32,0,14260,3467,28,11020,-4,0,8,0,64793,0
64838,64,-2080,171,-58,34,189,12742,62,29,431,144,35316,54,34,127,0,0,3538,27,0,14260,3467,28,11030,-4,0,8,0,64824,0
64848,80,-2078,176,-51,27,196,12759,12,12,406,152,35314,40,34,127,0,0,3536,5,0,14260,3467,28,11040,-4,0,8,0,64840,0
64858,42,-2085,175,-51,42,197,12763,8,-52,481,144,35313,21,34,127,0,0,3539,-38,0,14260,3467,28,11050,-4,0,8,0,64840,0
64868,62,-2076,185,-46,44,196,12764,8,-25,485,160,35313,21,34,127,0,0,3545,54,0,14260,3467,28,11060,-4,0,8,0,64840,0
64878,48,-2085,185,-53,40,191,12776,47,25,527,160,35316,18,34,127,0,0,3544,0,0,14260,3467,28,11070,-4,0,8,0,64871,0
64888,41,-2086,190,-47,35,189,12809,82,72,324,96,35320,7,34,127,0,0,3547,5,0,14260,3467,28,11080,-4,0,8,0,64871,0
64898,61,-2095,182,-48,31,183,12818,-18,-5,369,144,35311,7,34,127,0,0,3547,38,0,14260,3467,28,11090,-4,0,8,0,64871,0
64909,53,-2086,166,-46,45,170,12819,-7,-75,448,144,35315,4,34,127,0,0,3550,0,0,14260,3467,28,11101,-4,0,8,0,64886,0
64919,56,-2081,179,-41,42,179,12819,3,0,470,144,35323,-1,34,127,0,0,3552,32,0,14260,3467,28,11111,-4,0,8,0,64902,0
64929,60,-2094,192,-45,36,184,12823,14,7,534,160,35340,-10,34,127,0,0,3552,0,0,14260,3467,28,11121,-4,0,8,0,64902,0
64939,68,-2071,193,-44,38,188,12824,-7,10,492,152,35336,-28,34,127,0,0,3555,21,0,14260,3467,28,11131,-4,0,8,0,64918,0
64949,57,-2077,179,-46,46,178,12831,33,8,604,184,35327,-19,34,127,0,0,3557,-21,0,14260,3467,28,11141,-4,0,8,0,65027,0
64959,406,-2353,66,-74,34,108,12847,44,34,512,176,35323,-22,34,127,0,0,3559,21,0,14260,3467,28,11151,-4,0,8,0,65027,0
64969,707,-1950,36,-172,78,-237,12876,64,50,408,104,35321,-15,34,127,0,0,3557,-65,0,14260,3467,28,11161,-4,0,8,0,65027,0
64979,80,-2063,273,-167,2,-165,12874,-24,-36,276,0,35330,-26,34,127,0,0,3544,-142,0,14260,3467,28,11171,-4,0,8,0,65027,0
64989,22,-2124,292,-120,-13,50,12857,-21,-94,43,0,35327,-16,34,127,0,0,3541,-21,0,14260,3467,28,11181,-4,0,8,0,65043,0
64999,231,-2122,58,-125,42,-17,12857,0,16,-29,0,35327,0,34,127,0,0,3541,0,0,14260,3467,28,11191,-4,0,8,0,65043,0
65009,534,-2036,-7,-126,90,-270,12855,-6,29,-107,-32,35323,2,34,127,0,0,3533,-87,0,14260,3467,28,11201,-4,0,8,0,65043,0
65019,431,-2041,109,-150,31,-290,12837,-59,-35,-252,-160,35318,3,34,127,0,0,3522,-153,0,14260,3467,28,11211,-4,0,8,0,65043,0
65029,150,-2099,213,-133,-8,-184,12778,-135,-111,-263,-176,35312,14,34,127,0,0,3509,-120,0,14260,3467,28,11221,-4,0,8,0,65043,0
65039,315,-2083,124,-112,54,-227,12717,-129,-80,-198,-144,35309,23,34,127,0,0,3500,-131,0,14260,3467,28,11231,-4,0,8,0,65043,0
65049,486,-2071,67,-127,98,-340,12660,-119,5,-189,-104,35310,37,34,127,0,0,3491,-87,0,14260,3467,28,11241,-4,0,8,0,65043,0
65059,487,-2063,136,-136,38,-348,12618,-102,40,-285,-176,35312,37,34,127,0,0,3476,-131,0,14260,3467,28,11251,-4,0,8,0,65043,0
65069,294,-2075,149,-149,-8,-302,12573,-95,27,-410,-256,35310,39,34,127,0,0,3460,-142,0,14260,3467,28,11261,-4,0,8,0,65058,0
65079,275,-2091,148,-124,33,-286,12512,-135,-31,-405,-200,35319,17,34,127,0,0,3449,-142,0,14260,3467,28,11271,-4,0,8,0,65058,0
65089,384,-2047,82,-99,62,-275,12444,-141,-39,-325,-152,35339,15,34,127,0,0,3440,-87,0,14260,3467,28,11281,-4,0,8,0,65058,0
65099,393,-2090,96,-109,45,-285,12380,-127,-6,-274,-200,35345,21,34,127,0,0,3429,-120,0,14260,3467,28,11291,-4,0,8,0,65105,0
65109,370,-2037,116,-113,25,-304,12330,-97,37,-370,-168,35342,24,34,127,0,0,3416,-109,0,14260,3467,28,11301,-4,0,8,0,65105,0
65119,324,-2086,119,-107,27,-316,12272,-135,23,-361,-200,35321,27,34,127,0,0,3407,-65,0,14260,3467,28,11311,-4,0,8,0,65105,0
65129,216,-2096,134,-94,67,-347,12213,-100,-33,-346,-208,35313,2,34,127,0,0,3392,-120,0,14260,3467,28,11321,-4,0,8,0,65105,0
65140,293,-2074,158,-100,65,-379,12164,-104,43,-476,-256,35313,7,34,127,0,0,3378,-131,0,14260,3467,28,11332,-4,0,8,0,65121,0
65150,253,-2092,194,-130,38,-446,12106,-151,-2,-444,-304,35320,13,34,127,0,0,3366,-120,0,14260,3467,28,11342,-4,0,8,0,65136,0
65160,133,-2067,183,-144,46,-510,12034,-158,-59,-424,-320,35328,17,34,127,0,0,3347,-170,0,14260,3467,28,11352,-4,0,8,0,65152,0
65170,180,-2081,214,-172,49,-588,11951,-204,-49,-466,-344,35321,14,34,127,0,0,3326,-142,0,14260,3467,28,11362,-4,0,8,0,65152,0
65180,138,-2070,217,-191,61,-640,11850,-227,-60,-406,-352,35317,3,34,127,0,0,3310,-142,0,14260,3467,28,11372,-4,0,8,0,65152,0
65190,209,-2078,214,-233,57,-706,11762,-193,-9,-476,-384,35316,-3,34,127,0,0,3287,-203,0,14260,3467,28,11382,-4,0,8,0,65183,0
65200,262,-2075,205,-259,45,-735,11659,-248,-4,-433,-408,35316,1,34,127,0,0,3265,-203,0,14260,3467,28,11392,-4,0,8,0,65183,0
65210,235,-2096,156,-278,46,-740,11556,-217,-31,-469,-432,35318,13,34,127,0,0,3246,-192,0,14260,3467,28,11402,-4,0,8,0,65199,0
65220,271,-2102,162,-263,42,-726,11445,-239,-13,-458,-440,35304,22,34,127,0,0,3221,-208,0,14260,3467,28,11412,-4,0,8,0,65199,0
65230,291,-2142,145,-254,29,-683,11337,-252,-3,-505,-480,35310,17,34,127,0,0,3202,-192,0,14260,3467,28,11422,-4,0,8,0,65230,0
65240,299,-2064,126,-249,19,-692,11219,-257,-16,-419,-400,35314,9,34,127,0,0,3187,-159,0,14260,3467,28,11432,-4,0,8,0,65230,0
65250,227,-2179,29,-281,62,-633,11107,-231,-3,-392,-328,35316,8,34,127,0,0,3171,-131,0,14260,3467,28,11442,-4,0,8,0,65230,0
65260,101,-2340,53,-297,160,-583,11017,-174,61,-423,-280,35317,19,34,127,0,0,3161,-38,0,14260,3467,28,11452,-4,0,8,0,65230,0
65270,236,-2148,139,-207,202,-571,10955,-139,92,-397,-168,35305,29,34,127,0,0,3156,-5,0,14260,3467,28,11462,-4,0,8,0,65277,0
65280,397,-2061,79,-175,157,-555,10907,-101,70,-278,-64,35301,32,34,127,0,0,3156,5,0,14260,3467,28,11472,-4,0,8,0,65277,0
65290,282,-2076,92,-152,65,-513,10899,18,102,-205,-64,35308,34,34,127,0,0,3160,5,0,14260,3467,28,11482,-4,0,8,0,65277,0
65300,217,-2143,86,-153,96,-521,10900,7,99,-181,-48,35307,32,34,127,0,0,3159,0,0,14260,3467,28,11492,-4,0,8,0,65277,0
65310,205,-2157,112,-169,188,-518,10900,-1,6,-158,0,35307,32,34,127,0,0,3160,16,0,14260,3467,28,11502,-4,0,8,0,65277,0
65320,256,-2154,184,-160,191,-511,10901,-3,4,-51,16,35306,40,34,127,0,0,3166,49,0,14260,3467,28,11512,-4,0,8,0,65308,0
65330,295,-2135,225,-166,122,-498,10907,18,5,123,48,35307,40,34,127,0,0,3170,21,0,14260,3467,28,11522,-4,0,8,0,65308,0
65340,289,-2145,195,-160,70,-492,10913,16,7,249,96,35308,38,34,127,0,0,3177,71,0,14260,3467,28,11532,-4,0,8,0,65308,0
65350,259,-2134,191,-145,46,-515,10925,26,7,354,160,35310,40,34,127,0,0,3186,82,0,14260,3467,28,11542,-4,0,8,0,65418,0
65360,237,-2108,235,-154,36,-528,10959,109,60,353,168,35325,25,34,127,0,0,3195,104,0,14260,3467,28,11552,-4,0,8,0,65418,0
65370,264,-2119,275,-174,-19,-532,11013,127,81,303,160,35321,36,34,127,0,0,3204,104,0,14260,3467,28,11562,-4,0,8,0,65418,0
65380,170,-2105,266,-182,-68,-541,11085,160,70,218,152,35321,27,34,127,0,0,3217,131,0,14260,3467,28,11572,-4,0,8,0,65418,0
65390,227,-2123,206,-208,-68,-608,11147,112,10,253,144,35310,21,34,127,0,0,3228,137,0,14260,3467,28,11582,-4,0,8,0,65433,0
65400,190,-2078,196,-221,-56,-648,11197,94,-54,273,160,35312,5,34,127,0,0,3239,148,0,14260,3467,28,11592,-4,0,8,0,65433,0
65410,228,-2112,213,-245,-62,-662,11248,102,-20,300,168,35312,11,34,127,0,0,3250,109,0,14260,3467,28,11602,-4,0,8,0,65433,0
65420,284,-2166,224,-267,-67,-682,11299,122,-6,325,192,35312,31,34,127,0,0,3258,98,0,14260,3467,28,11612,-4,0,8,0,65433,0
65430,326,-2145,142,-297,-66,-699,11349,129,2,375,224,35302,36,34,127,0,0,3275,159,0,14260,3467,28,11622,-4,0,8,0,65433,0
65440,313,-2087,77,-293,-63,-694,11415,155,36,379,232,35303,27,34,127,0,0,3288,159,0,14260,3467,28,11632,-4,0,8,0,65433,0
65450,408,-2001,-1,-248,-73,-723,11496,180,54,289,216,35299,3,34,127,0,0,3304,203,0,14260,3467,28,11642,-4,0,8,0,65433,0
65461,467,-1911,-39,-183,-131,-712,11573,139,0,384,224,35311,18,34,127,0,0,3315,109,0,14260,3467,28,11653,-4,0,8,0,65433,0
65471,457,-1886,-62,-168,-105,-702,11639,160,-31,350,216,35327,35,34,127,0,0,3331,131,0,14260,3467,28,11663,-4,0,8,0,65449,0
65481,539,-1942,-39,-182,3,-658,11710,128,7,315,184,35329,29,34,127,0,0,3339,109,0,14260,3467,28,11673,-4,0,8,0,65480,0
65491,488,-1898,2,-193,110,-654,11759,96,-39,327,176,35322,35,34,127,0,0,3346,76,0,14260,3467,28,11683,-4,0,8,0,65480,0
65501,581,-1878,1,-201,202,-613,11811,138,-35,308,168,35310,25,34,127,0,0,3355,54,0,14260,3467,28,11693,-4,0,8,0,65480,0
65511,667,-1848,17,-179,200,-571,11866,118,16,253,80,35308,56,34,127,0,0,3359,43,0,14260,3467,28,11703,-4,0,8,0,65480,0
65521,684,-1801,75,-133,157,-509,11891,26,-45,322,104,35330,39,34,127,0,0,3364,-10,0,14260,3467,28,11713,-4,0,8,0,65496,0
65531,697,-1825,143,-110,130,-478,11906,39,-88,345,104,35328,16,34,127,0,0,3368,21,0,14260,3467,28,11723,-4,0,8,0,65527,0
65541,749,-1898,238,-113,82,-389,11929,60,11,225,48,35328,17,34,127,0,0,3368,10,0,14260,3467,28,11733,-4,0,8,0,65527,0
65551,721,-1892,275,-117,43,-320,11931,-9,-23,265,64,35307,31,34,127,0,0,3368,10,0,14260,3467,28,11743,-4,0,8,0,65527,0
65561,771,-1937,195,-119,22,-234,11931,2,-49,302,88,35307,48,34,127,0,0,3372,21,0,14260,3467,28,11753,-4,0,8,0,65527,0
65571,827,-1932,152,-106,18,-260,11933,9,3,372,144,35312,51,34,127,0,0,3370,-21,0,14260,3467,28,11763,-4,0,8,0,65558,0
65581,640,-1852,225,-126,-18,-124,11935,1,2,320,152,35310,34,34,127,0,0,3372,32,0,14260,3467,28,11773,-4,0,8,0,65558,0
65591,621,-2056,235,-126,-25,-49,11937,0,-1,369,104,35307,37,34,127,0,0,3372,0,0,14260,3467,28,11783,-4,0,8,0,65574,0
65601,644,-2164,199,-130,-37,-61,11936,-3,-7,374,104,35308,26,34,127,0,0,3372,0,0,14260,3467,28,11793,-4,0,8,0,65574,0
65611,610,-2143,195,-160,-32,-62,11937,3,2,365,112,35318,22,34,127,0,0,3375,21,0,14260,3467,28,11803,-4,0,8,0,65605,0
65621,426,-2178,153,-170,-110,74,11937,-7,4,416,128,35321,24,34,127,0,0,3377,54,0,14260,3467,28,11813,-4,0,8,0,65605,0
65631,407,-2226,107,-134,-130,93,11944,31,12,562,240,35310,42,34,127,0,0,3390,109,0,14260,3467,28,11823,-4,0,8,0,65605,0
65642,382,-2186,32,-130,-88,35,11994,131,96,480,280,35313,37,34,127,0,0,3404,164,0,14260,3467,28,11834,-4,0,8,0,65621,0
65652,404,-2182,33,-168,-18,-30,12069,182,129,399,264,35332,16,34,127,0,0,3417,126,0,14260,3467,28,11844,-4,0,8,0,65636,0
65662,307,-2149,81,-189,22,-34,12149,163,60,353,240,35334,5,34,127,0,0,3434,148,0,14260,3467,28,11854,-4,0,8,0,65636,0
65672,305,-2156,107,-187,20,-51,12222,166,-9,380,272,35329,7,34,127,0,0,3451,197,0,14260,3467,28,11864,-4,0,8,0,65652,0
65682,409,-2142,116,-204,17,-101,12297,147,-8,447,256,35324,5,34,127,0,0,3468,153,0,14260,3467,28,11874,-4,0,8,0,65652,0
65692,405,-2100,156,-228,30,-146,12365,165,-17,545,336,35333,2,34,127,0,0,3487,170,0,14260,3467,28,11884,-4,0,8,0,65683,0
65702,416,-2081,222,-266,6,-186,12451,200,31,482,368,35337,8,34,127,0,0,3503,153,0,14260,3467,28,11894,-4,0,8,0,65683,0
65712,400,-2057,240,-290,-26,-203,12539,201,45,435,392,35325,22,34,127,0,0,3523,214,0,14260,3467,28,11904,-4,0,8,0,65683,0
65722,441,-2039,212,-319,-45,-255,12642,225,36,404,360,35328,36,34,127,0,0,3544,214,0,14260,3467,28,11914,-4,0,8,0,65777,0
65732,484,-2032,193,-335,-50,-303,12737,187,4,408,328,35317,50,34,127,0,0,3559,181,0,14260,3467,28,11924,-4,0,8,0,65777,0
65742,505,-1944,182,-344,-66,-370,12825,192,-33,406,328,35317,28,34,127,0,0,3573,186,0,14260,3467,28,11934,-4,0,8,0,65777,0
65752,527,-1957,150,-365,-82,-382,12903,161,-31,469,352,35306,35,34,127,0,0,3584,148,0,14260,3467,28,11944,-4,0,8,0,65777,0
65762,489,-1955,102,-374,-96,-417,12987,189,-4,387,280,35307,24,34,127,0,0,3596,82,0,14260,3467,28,11954,-4,0,8,0,65777,0
65772,531,-2020,87,-382,-82,-433,13055,125,-23,462,264,35307,17,34,127,0,0,3611,104,0,14260,3467,28,11964,-4,0,8,0,65793,0
65782,489,-1992,60,-379,-70,-498,13104,113,-78,560,256,35308,0,34,127,0,0,3619,76,0,14260,3467,28,11974,-4,0,8,0,65793,0
65792,478,-1977,41,-376,-63,-502,13164,116,-2,443,232,35308,8,34,127,0,0,3632,137,0,14260,3467,28,11984,-4,0,8,0,65793,0
65802,450,-1962,8,-380,-39,-546,13215,98,-8,450,224,35313,23,34,127,0,0,3634,98,0,14260,3467,28,11994,-4,0,8,0,65793,0
65812,444,-1958,-4,-373,-9,-601,13262,119,-20,392,200,35312,51,34,127,0,0,3640,49,0,14260,3467,28,12004,-4,0,8,0,65793,0
65822,488,-1955,1,-377,20,-661,13303,91,-8,423,192,35311,55,34,127,0,0,3647,27,0,14260,3467,28,12014,-4,0,8,0,65808,0
65832,435,-1484,-79,-479,-21,-765,13342,66,-16,345,112,35310,37,34,127,0,0,3647,-5,0,14260,3467,28,12024,-4,0,8,0,65824,0
65842,488,-2033,-51,-605,-44,-898,13375,76,-29,230,48,35308,13,34,127,0,0,3647,-16,0,14260,3467,28,12034,-4,0,8,0,65824,0
65852,618,-2494,-43,-513,64,-886,13381,-14,-63,196,32,35313,-5,34,127,0,0,3647,-32,0,14260,3467,28,12044,-4,0,8,0,65824,0
65862,462,-2132,185,-352,47,-898,13380,2,-56,163,40,35331,-8,34,127,0,0,3644,-32,0,14260,3467,28,12054,-4,0,10,0,65855,0
65872,422,-1935,174,-402,9,-961,13378,-3,-11,104,40,35333,10,34,127,0,0,3647,16,0,14260,3467,28,12064,-4,0,10,0,65855,0
65882,444,-2030,139,-482,-9,-1041,13380,0,8,195,64,35332,-1,34,127,0,0,3649,-16,0,14260,3467,28,12074,-4,0,10,0,65855,0
65893,483,-2055,146,-497,-60,-1155,13380,-3,0,189,24,35324,16,34,127,0,0,3647,-10,0,14260,3467,28,12085,-4,0,11,0,65871,0
65903,423,-1979,173,-531,-114,-1243,13381,6,-2,167,32,35331,10,34,127,0,0,3647,10,0,14260,3467,28,12095,-4,0,11,0,65886,0
65913,447,-2125,138,-596,-165,-1351,13381,1,1,206,24,35334,5,34,127,0,0,3649,10,0,14260,3467,28,12105,-4,0,11,0,65886,0
65923,433,-2253,145,-587,-157,-1417,13381,0,4,212,32,35330,13,34,127,0,0,3647,-21,0,14260,3467,28,12115,-4,0,12,0,65902,0
65933,415,-2225,163,-573,-181,-1561,13381,1,0,164,32,35326,16,34,127,0,0,3649,21,0,14260,3467,28,12125,-4,0,12,0,65949,0
65943,373,-2155,142,-591,-206,-1664,13381,6,0,215,24,35319,25,34,127,0,0,3649,21,0,14260,3467,28,12135,-4,0,12,0,65949,0
65953,305,-2105,141,-609,-425,-1702,13381,-4,-2,236,96,35319,22,34,127,0,0,3658,131,0,14260,3467,28,12145,-4,0,13,0,65964,0
65963,396,-2024,45,-652,-316,-1814,13396,51,20,507,344,35315,21,34,127,0,0,3678,208,0,14260,3467,28,12155,-4,0,13,0,65964,0
65973,134,-2151,105,-724,-330,-2020,13452,152,117,522,184,35312,35,34,127,0,0,3678,0,0,14260,3467,28,12165,-4,0,14,0,65964,0
65983,92,-2342,208,-719,-377,-1902,13492,66,55,465,296,35311,32,34,127,0,0,3700,285,0,14260,3467,28,12175,-4,0,14,0,65964,0
65993,566,-2450,103,-792,-280,-2424,13553,163,-2,649,464,35328,25,34,127,0,0,3722,208,0,14260,3467,28,12185,-4,0,15,0,65964,0
66003,371,-2278,54,-806,-389,-2458,13651,213,124,527,408,35339,13,34,127,0,0,3739,208,0,14260,3467,28,12195,-4,0,15,0,66011,0
66013,234,-2148,45,-790,-590,-2464,13755,239,73,511,424,35340,1,34,127,0,0,3766,263,0,14260,3467,28,12205,-4,0,16,0,66011,0
66023,197,-2132,24,-750,-638,-2524,13866,256,26,616,616,35328,3,34,127,0,0,3801,395,0,14260,3467,28,12215,-4,0,16,0,66011,0
66033,306,-2181,-131,-770,-564,-3015,14005,334,69,592,728,35313,15,34,127,0,0,3836,274,0,14260,3467,28,12225,-4,0,17,0,66011,0
66043,135,-2181,-132,-737,-588,-3110,14164,357,97,501,712,35309,28,34,127,0,0,3869,329,0,14260,3467,28,12235,-4,0,18,0,66011,0
66053,373,-2317,-224,-677,-612,-3301,14333,374,47,499,808,35317,30,34,127,0,0,3908,395,0,14260,3467,28,12245,-4,0,19,0,66027,0
66063,342,-2376,-264,-599,-583,-3512,14511,397,32,510,816,35318,21,34,127,0,0,3944,329,0,14260,3467,28,12255,-4,0,20,0,66042,0
66073,597,-2438,-211,-527,-509,-3887,14692,401,30,482,800,35315,18,34,127,0,0,3974,318,0,14260,3467,28,12265,-4,0,21,0,66058,0
66083,647,-2561,-30,-460,-497,-4095,14879,405,19,407,680,35304,11,34,127,0,0,3996,219,0,14260,3467,28,12275,-4,0,21,0,66058,0
66093,665,-2948,194,-429,-710,-4190,15056,378,-3,379,560,35306,45,34,127,0,0,4014,131,0,14260,3467,28,12285,-4,0,23,0,66136,0
66103,518,-2884,319,-381,-926,-4143,15203,297,-71,389,520,35313,28,34,127,0,0,4045,285,0,14260,3467,28,12295,-4,0,23,0,66136,0
66113,544,-2697,236,-421,-1321,-4165,15342,307,-80,479,648,35315,27,34,127,0,0,4091,472,0,14260,3467,28,12305,-4,0,25,0,66136,0
66123,695,-2750,138,-425,-1358,-4360,15499,369,20,614,856,35311,10,34,127,0,0,4144,494,0,14260,3467,28,12315,-4,0,26,0,66152,0
66133,427,-2746,180,-307,-1636,-4382,15685,418,94,525,952,35309,20,34,127,0,0,4192,516,0,14260,3467,28,12325,-4,0,27,0,66152,0
66143,555,-2663,284,-251,-1857,-4293,15899,481,110,539,1176,35309,47,34,127,0,0,4256,681,0,14260,3467,28,12335,-4,0,28,0,66152,0
66153,685,-2721,335,-186,-2488,-4165,16135,551,92,707,1528,35303,46,34,127,0,0,4339,867,0,14260,3467,28,12345,-4,0,30,0,66152,0
66163,796,-2824,362,-181,-2918,-3832,16430,690,152,840,1960,35302,39,34,127,0,0,4449,1142,0,14260,3467,28,12355,-4,0,32,0,66152,0
66174,577,-2682,381,-115,-3333,-3216,16856,923,290,877,2512,35298,38,34,127,0,0,4591,1246,0,14260,3467,28,12366,-4,0,34,0,66152,0
66184,378,-2391,317,-105,-3540,-2694,17344,1159,350,1001,3136,35302,48,34,127,0,0,4750,1571,0,14260,3467,28,12376,-4,0,36,0,66152,0
66194,378,-1781,256,-113,-3780,-1857,17950,1424,408,1086,3896,35311,66,34,127,0,0,4938,1889,0,14260,3467,28,12386,-4,0,38,0,66183,0
66204,1462,-1706,129,33,-3499,-1626,18691,1704,492,979,4248,35298,99,34,127,0,0,5092,1477,0,14260,3467,28,12396,-4,0,40,55,66183,0
66214,1070,-1373,-85,99,-2586,-1657,19476,1674,351,293,3256,35289,106,34,127,0,0,5107,65,0,14260,3467,28,12406,-4,0,42,54,66183,0
66224,1454,-1309,-312,71,-2133,-1373,20112,1272,-207,-73,1656,35283,73,34,127,0,0,5042,-741,0,14260,3467,28,12416,-4,0,45,52,66214,0
66234,906,-1028,-196,182,-1836,-964,20528,729,-707,-821,-456,35302,14,34,127,0,0,4913,-1340,0,14260,3467,28,12426,-4,0,47,51,66246,0
66244,1021,-1091,-177,182,-1902,-517,20397,-526,-1470,-1180,-1816,35310,11,34,127,0,0,4766,-1472,0,14260,3467,28,12436,-4,0,49,49,66246,0
66254,568,-1191,4,258,-2089,221,20025,-936,-1515,-926,-2672,35314,29,34,127,0,0,4625,-1389,0,14260,3467,28,12446,-4,0,51,47,66246,0
66264,593,-1331,-50,241,-2136,820,19506,-1209,-715,-648,-3016,35303,75,34,127,0,0,4507,-1115,0,14260,3467,28,12456,-4,0,54,45,66246,0
66274,492,-1460,-93,323,-1898,1576,18921,-1290,-403,-329,-2864,35299,67,34,127,0,0,4414,-955,0,14260,3467,28,12466,-4,0,56,44,66246,0
66284,466,-1482,-149,426,-1589,1998,18350,-1240,-93,-224,-2592,35296,74,34,127,0,0,4337,-774,0,14260,3467,28,12476,-4,0,59,41,66261,0
66294,442,-1395,-280,548,-944,2521,17821,-1125,103,-168,-2280,35302,71,34,127,0,0,4261,-681,0,14260,3467,28,12486,-4,0,61,39,66277,0
66304,475,-1337,-273,601,-513,2892,17347,-1012,190,-180,-2056,35308,63,34,127,0,0,4197,-659,0,14260,3467,28,12496,-4,0,64,36,66277,0
66314,471,-1269,-306,741,148,3447,16922,-907,202,-193,-1808,35306,48,34,127,0,0,4131,-587,0,14260,3467,28,12506,-4,0,66,34,66324,0
66324,472,-1227,-344,796,523,3850,16534,-827,166,-213,-1624,35315,20,34,127,0,0,4079,-549,0,14260,3467,28,12516,-4,0,70,31,66324,0
66334,531,-1225,-352,877,996,4467,16179,-764,133,-197,-1424,35311,14,34,127,0,0,4031,-450,0,14260,3467,28,12526,-4,0,72,29,66324,0
66344,553,-1254,-328,936,1252,4839,15857,-680,124,-191,-1128,35311,7,34,127,0,0,3996,-340,0,14260,3467,28,12536,-4,0,75,27,66324,0
66354,545,-1346,-281,1051,1651,5372,15576,-585,140,-201,-912,35299,17,34,127,0,0,3964,-302,0,14260,3467,28,12546,-4,0,78,25,66339,0
66364,553,-1412,-249,1120,1883,5716,15334,-511,151,-195,-728,35308,42,34,127,0,0,3936,-307,0,14260,3467,28,12556,-4,0,82,22,66339,0
66374,536,-1459,-165,1227,2149,6222,15128,-437,134,-266,-608,35310,44,34,127,0,0,3914,-241,0,14260,3467,28,12566,-4,0,84,20,66355,0
66384,570,-1485,-144,1304,2260,6555,14942,-401,110,-254,-400,35314,52,34,127,0,0,3889,-208,0,14260,3467,28,12576,-4,0,88,17,66355,0
66395,566,-1495,-132,1440,2355,7044,14774,-320,99,-250,-280,35307,38,34,127,0,0,3875,-142,0,14260,3467,28,12587,-4,0,90,16,66371,0
66405,539,-1524,-123,1600,2417,7500,14652,-232,117,-166,-104,35321,29,34,127,0,0,3869,-43,0,14260,3467,28,12597,-4,0,94,13,66402,0
66415,534,-1545,-110,1706,2466,7798,14588,-88,165,-87,-40,35312,25,34,127,0,0,3867,-10,0,14260,3467,28,12607,-4,0,97,12,66402,0
66425,523,-1593,-111,1890,2558,8216,14573,4,213,3,-8,35312,5,34,127,0,0,3864,-21,0,14260,3467,28,12617,-4,0,101,10,66402,0
66435,513,-1644,-121,2014,2611,8479,14573,-14,130,-45,-8,35304,4,34,127,0,0,3867,10,0,14260,3467,28,12627,-4,0,104,9,66402,0
66445,507,-1784,-104,2168,2639,8892,14576,7,23,28,16,35314,-4,34,127,0,0,3875,76,0,14260,3467,28,12637,-4,0,108,7,66433,0
66455,483,-1902,-58,2284,2677,9117,14589,41,23,292,160,35317,0,34,127,0,0,3886,142,0,14260,3467,28,12647,-4,0,111,6,66464,0
66465,419,-2078,12,2446,2762,9395,14638,144,97,366,272,35311,-9,34,127,0,0,3904,197,0,14260,3467,28,12657,-4,0,115,4,66480,0
66475,420,-2202,52,2544,2833,9529,14712,175,130,386,304,35310,-6,34,127,0,0,3926,219,0,14260,3467,28,12667,-4,0,118,3,66480,0
66485,378,-2373,95,2666,2966,9670,14808,222,90,374,344,35304,17,34,127,0,0,3948,241,0,14260,3467,28,12677,-4,0,122,2,66480,0
66495,416,-2514,108,2724,3044,9704,14915,245,66,394,368,35304,24,34,127,0,0,3970,208,0,14260,3467,28,12687,-4,0,125,2,66495,0
66505,406,-2697,140,2783,3137,9704,15037,265,52,367,376,35304,30,34,127,0,0,3999,296,0,14260,3467,28,12697,-4,0,129,1,66495,0
66515,405,-2844,157,2783,3207,9614,15157,280,29,405,440,35307,37,34,127,0,0,4023,252,0,14260,3467,28,12707,-4,0,132,0,66495,0
66525,497,-3069,157,2716,3196,9417,15284,284,9,403,416,35312,24,34,127,0,0,4049,274,0,14260,3467,28,12717,-4,0,136,0,66527,0
66535,557,-3195,166,2611,3096,9222,15417,288,22,388,440,35318,34,34,127,0,0,4080,296,0,14260,3467,28,12727,-4,0,139,0,66527,0
66545,677,-3381,242,2387,2878,8869,15533,278,0,449,456,35313,25,34,127,0,0,4102,230,0,14260,3467,28,12737,-4,0,142,0,66527,0
66555,749,-3475,264,2220,2745,8648,15663,275,-6,371,408,35307,22,34,127,0,0,4128,263,0,14260,3467,28,12747,-4,0,145,0,66527,0
66565,858,-3443,288,1917,2319,8207,15800,320,13,344,440,35306,17,34,127,0,0,4152,285,0,14260,3467,28,12757,-4,0,148,0,66542,0
66575,975,-3385,388,1638,1880,7636,15932,285,5,366,448,35313,18,34,127,0,0,4177,230,0,14260,3467,28,12767,-4,0,150,0,66542,0
66585,1104,-3211,396,1413,1083,6460,16054,262,-32,365,336,35320,13,34,127,0,0,4185,54,0,14260,3467,28,12777,-4,0,153,0,66605,0
66595,1222,-2980,320,1506,434,5628,16162,215,-46,204,120,35314,26,34,127,0,0,4183,-43,0,14260,3467,28,12787,-4,0,155,0,66620,0
66605,1310,-2229,174,1580,-601,3995,16205,5,-173,-70,-88,35310,25,34,127,0,0,4172,-109,0,14260,3467,28,12797,-4,0,157,0,66620,0
66615,1243,-1813,134,1289,-1238,2898,16163,-107,-309,-171,-72,35298,42,34,127,0,0,4161,-98,0,14260,3467,28,12807,-4,0,158,0,66620,0
66625,1004,-2030,72,585,-1599,1264,16140,-35,-91,-339,-152,35307,31,34,127,0,0,4155,-87,0,14260,3467,28,12817,-4,0,159,0,66620,0
66635,782,-2453,-33,73,-1576,265,16102,-110,7,-300,-104,35306,24,34,127,0,0,4150,-54,0,14260,3467,28,12827,-4,0,159,0,66620,0
66646,674,-2947,-35,-362,-1171,-1069,16067,-41,-25,-154,-32,35305,12,34,127,0,0,4152,-5,0,14260,3467,28,12838,-4,0,159,0,66636,0
66656,724,-2818,-119,-635,-838,-1732,16057,-18,73,-84,8,35314,6,34,127,0,0,4155,82,0,14260,3467,28,12848,-4,0,159,0,66636,0
66666,874,-2532,-44,-825,-348,-2460,16060,5,58,-8,0,35329,11,34,127,0,0,4151,-16,0,14260,3467,28,12858,-4,0,159,0,66636,0
66676,978,-2282,-59,-934,-183,-2843,16059,6,13,5,0,35336,-11,34,127,0,0,4155,-10,0,14260,3467,28,12868,-4,0,159,0,66667,0
66686,1094,-2016,-14,-910,-88,-3243,16059,0,-2,49,24,35323,3,34,127,0,0,4153,-10,0,14260,3467,28,12878,-4,0,159,0,66667,0
66696,1096,-1996,-84,-839,-71,-3384,16058,-16,1,23,72,35313,-11,34,127,0,0,4158,43,0,2782,183,29,4,1,1,159,0,66683,0
66706,-1479,-5765,394,-1019,-729,-1183,16114,247,116,1248,1704,35308,6,34,127,0,0,4276,1488,0,2782,183,29,14,1,1,159,0,66683,0
66716,-51,-3320,1015,74,1177,-1384,16490,1104,803,1837,3440,35305,47,34,127,0,0,4373,785,0,2782,183,29,24,1,1,159,0,66699,0
66726,-581,-860,387,560,426,-1362,17132,1471,1153,843,3728,35290,91,34,127,0,0,4420,461,0,2782,183,29,34,1,1,159,0,66699,0
66736,358,-1316,372,385,-220,-731,17842,1614,554,884,4304,35279,133,34,127,0,0,4526,1076,0,2782,183,29,44,1,1,159,0,66730,0
66746,-555,-1687,-232,446,-316,97,18671,1916,360,1122,5160,35277,144,34,127,0,0,4672,1538,0,2782,183,29,54,1,1,159,0,66730,0
66756,-1307,-969,-493,197,-472,578,19654,2265,545,1263,6176,35280,161,34,127,0,0,4871,2059,0,2782,183,29,64,1,1,159,0,66730,0
66766,-1321,-1705,-911,7,-159,322,20797,2628,606,1403,7400,35272,208,34,127,0,0,5082,2103,0,2782,183,29,74,1,1,159,0,66745,0
66776,-1276,-2332,-990,221,668,-465,22141,3065,695,919,7592,35256,248,34,127,0,0,5251,1691,0,2782,183,29,84,1,1,159,0,66745,0
66786,-937,-2569,-612,663,1240,-1292,23565,3084,510,133,6280,35251,245,34,127,0,0,5371,1175,0,2782,183,29,94,1,1,159,0,66761,0
66796,-114,-4004,70,619,818,-1810,24827,2636,-239,-144,4888,35276,171,34,127,0,0,5459,851,0,2782,183,29,104,1,1,159,0,66792,0
66806,1522,-3337,369,145,-259,-2670,25877,2157,-757,-376,3032,35299,69,34,127,0,0,5454,-98,0,2782,183,29,114,1,1,159,0,66792,0
66816,405,-2609,867,-112,-289,-3354,26637,1402,-983,-1077,456,35319,-7,34,127,0,0,5330,-1323,0,2782,183,29,124,1,1,159,0,66792,0
66826,123,-2388,492,-431,94,-3056,26809,-194,-1777,-2290,-896,35317,-29,34,127,0,0,5250,-774,0,2782,183,29,134,1,1,159,0,66808,0
66836,-848,-2324,152,-100,545,-3408,26644,-308,-1810,103,16,35331,-22,34,127,0,0,5141,-1131,700,2782,183,29,144,1,1,159,0,66824,0
66846,-291,-1438,95,134,124,-2389,26641,92,-124,444,192,35327,-6,34,127,0,0,5066,-637,900,2782,183,29,154,1,1,159,0,66839,0
66856,1104,-2156,457,152,-517,-1496,26618,-141,291,606,48,35325,-1,34,127,0,0,5054,-109,1100,2782,183,29,164,1,1,159,0,66855,0
66866,425,-2261,118,350,-954,-1516,26433,-546,-381,586,-296,35319,-10,34,127,0,0,5028,-318,1300,2782,183,29,174,1,1,159,0,66855,0
66876,-44,-1981,-553,445,-135,-1757,26049,-950,-705,498,-760,35315,-21,34,127,0,0,4972,-598,1500,2782,183,29,184,1,1,159,0,66855,0
66886,-739,-1854,101,626,840,-1763,25606,-940,-509,695,-400,35320,-11,34,127,0,0,4888,-928,1500,2782,183,29,194,1,1,159,0,66855,0
66897,-216,-1559,404,647,8,-1194,25265,-522,190,1159,72,35328,-27,34,127,0,0,4822,-560,1500,2782,183,29,205,1,1,159,0,66870,0
66907,467,-1968,412,534,-402,-643,25184,-97,709,1032,176,35331,-2,34,127,0,0,4809,-142,1500,2782,183,29,215,1,1,159,0,66902,0
66917,-250,-2282,181,569,-817,-575,25151,-77,526,870,120,35329,-4,34,127,0,0,4809,32,1500,2782,183,29,225,1,1,159,0,66902,0
66927,-353,-2068,68,643,-539,-691,25074,-199,-6,863,56,35319,14,34,127,0,0,4805,-21,1500,2782,183,29,235,1,1,159,0,66917,0
66937,-687,-2136,446,737,57,-889,24911,-431,-242,797,-72,35315,10,34,127,0,0,4776,-307,1500,2782,183,29,245,1,1,159,0,66917,0
66947,-735,-1985,525,840,491,-1115,24657,-606,-345,701,-144,35315,1,34,127,0,0,4730,-505,1500,2782,183,29,255,1,1,159,0,66933,0
66957,-433,-1947,794,570,526,-1355,24364,-642,-255,780,-136,35322,-11,34,127,0,0,4671,-593,1500,2782,183,29,265,1,1,159,0,66949,0
66967,-328,-1861,1051,331,106,-1242,24111,-497,0,1012,-8,35335,-22,34,127,0,0,4627,-417,1500,2782,183,29,275,1,1,159,0,66949,0
66977,-260,-2091,1177,8,-323,-1048,23930,-384,227,958,0,35337,-25,34,127,0,0,4598,-241,1500,2782,183,29,285,1,1,159,0,66949,0
66987,-531,-2091,929,-97,-394,-1162,23742,-441,129,856,-96,35338,-14,34,127,0,0,4570,-252,1500,2782,183,29,295,1,1,159,0,66980,0
66997,-474,-2070,703,-252,-97,-1518,23498,-598,-125,759,-168,35332,2,34,127,0,0,4530,-395,1500,2782,183,29,305,1,1,159,0,66980,0
67007,-386,-2071,708,-359,120,-1709,23166,-780,-285,724,-360,35331,-6,34,127,0,0,4475,-582,1500,2782,183,29,315,1,1,159,0,66980,0
67017,-384,-2057,605,-477,270,-1859,22776,-874,-279,752,-392,35322,-8,34,127,0,0,4405,-725,1500,2782,183,29,325,1,1,159,0,67011,0
67027,-322,-2054,525,-503,211,-1841,22410,-749,-74,919,-152,35323,-22,34,127,0,0,4337,-670,1500,2782,183,29,335,1,1,159,0,67011,0
67037,28,-2065,506,-511,-91,-1641,22127,-579,215,1022,-72,35325,-20,34,127,0,0,4284,-527,1500,2782,183,29,345,1,1,159,0,67011,0
67047,142,-2039,402,-552,-291,-1561,21880,-550,232,924,-128,35328,-30,34,127,0,0,4242,-362,1500,2782,183,29,355,1,1,159,0,67042,0
67057,169,-2096,289,-679,-379,-1642,21596,-661,-9,765,-232,35328,-22,34,127,0,0,4201,-406,1500,2782,183,29,365,1,1,159,0,67042,0
67067,-319,-1942,103,-686,-94,-1727,21276,-697,-152,826,-200,35334,-30,34,127,0,0,4148,-527,1500,2782,183,29,375,1,1,159,0,67042,0
67077,-181,-2034,322,-673,125,-1713,20978,-626,-26,911,-128,35333,-17,34,127,0,0,4091,-527,1500,2782,183,29,385,1,1,159,0,67042,0
67087,120,-2063,506,-650,-4,-1649,20703,-612,90,884,-128,35332,-22,34,127,0,0,4040,-472,1500,2782,183,29,395,1,1,159,0,67073,0
67097,83,-2044,459,-670,-153,-1632,20419,-626,16,860,-136,35325,-21,34,127,0,0,3983,-538,1500,2782,183,29,405,1,1,159,0,67073,0
67107,-53,-2022,362,-675,-101,-1618,20139,-607,-4,912,-128,35325,-18,34,127,0,0,3937,-472,1500,2782,183,29,415,1,1,159,0,67073,0
67117,20,-2008,337,-684,-10,-1644,19852,-647,-8,821,-176,35322,-30,34,127,0,0,3884,-560,1500,2782,183,29,425,1,1,159,0,67105,0
67127,-37,-2017,357,-681,21,-1645,19546,-669,-58,849,-160,35322,-11,34,127,0,0,3832,-560,1500,2782,183,29,435,1,1,159,0,67105,0
67137,100,-2024,326,-688,-10,-1626,19250,-649,-10,893,-120,35322,-16,34,127,0,0,3779,-516,1500,2782,183,29,445,1,1,159,0,67120,0
67148,93,-2020,319,-697,-88,-1566,18962,-540,85,991,-40,35321,-18,34,127,0,0,3730,-466,1500,2782,183,29,456,1,1,159,0,67120,0
67158,159,-2014,311,-700,-214,-1455,18732,-508,128,923,-72,35319,-9,34,127,0,0,3691,-362,1500,2782,183,29,466,1,1,159,0,67136,0
67168,74,-2023,239,-684,-164,-1510,18462,-640,-10,765,-208,35326,-12,34,127,0,0,3639,-483,1500,2782,183,29,476,1,1,159,0,67243,0
67178,-154,-2038,150,-612,86,-1728,18144,-715,-182,811,-224,35324,4,34,127,0,0,3584,-565,1500,2782,183,29,486,1,1,159,0,67243,0
67188,-24,-2053,238,-559,130,-1736,17851,-613,-49,944,-56,35321,2,34,127,0,0,3531,-499,1500,2782,183,29,496,1,1,159,0,67243,0
67198,233,-2050,393,-518,-131,-1600,17597,-548,125,969,-56,35315,-6,34,127,0,0,3479,-499,1500,2782,183,29,506,1,1,159,0,67243,0
67208,172,-2051,339,-529,-253,-1540,17357,-524,108,919,-72,35316,-16,34,127,0,0,3439,-428,1500,2782,183,29,516,1,1,159,0,67243,0
67218,52,-2029,128,-505,-146,-1637,17116,-533,25,875,-72,35318,-20,34,127,0,0,3393,-455,1500,2782,183,29,526,1,1,159,0,67259,0
67228,167,-1976,124,-478,-52,-1790,16843,-640,-68,793,-224,35316,-27,34,127,0,0,3342,-549,1500,2782,183,29,536,1,1,159,0,67259,0
67238,-27,-1967,193,-467,-50,-1937,16526,-713,-156,830,-192,35310,-15,34,127,0,0,3288,-576,1500,2782,183,29,546,1,1,159,0,67259,0
67248,-26,-1990,289,-467,-71,-1992,16202,-700,-96,896,-192,35315,-9,34,127,0,0,3223,-620,1500,2782,183,29,556,1,1,159,0,67259,0
67258,-238,-1889,358,-556,-230,-2027,15893,-671,16,911,-136,35313,2,34,127,0,0,3167,-609,1500,2782,183,29,566,1,1,159,0,67259,0
67268,-59,-2199,404,-595,-226,-2138,15597,-648,52,895,-144,35317,-7,34,127,0,0,3114,-532,1560,2782,183,29,576,1,1,159,0,67259,0
67278,154,-2041,457,-579,-191,-2418,15285,-707,-1,956,-192,35316,-5,34,127,0,0,3054,-576,1790,2782,183,29,586,1,1,159,0,67259,0
67288,168,-1845,485,-670,-354,-2501,14944,-763,-86,1094,-200,35316,-13,34,127,0,0,2992,-615,2050,2782,183,29,596,1,1,159,0,67259,0
67298,211,-2081,761,-713,-1095,-2583,14606,-729,-51,1304,-80,35335,5,34,127,0,0,2932,-620,2350,2782,183,29,606,1,1,159,0,67290,0
67308,94,-2852,673,-809,-1236,-2447,14338,-506,128,1661,152,35331,0,34,127,0,0,2885,-477,2670,2782,183,29,616,1,1,159,0,67306,0
67318,-326,-3152,634,-857,-870,-2287,14223,-166,435,1827,248,35331,2,34,127,0,0,2863,-186,2980,2782,183,29,626,1,1,159,0,67306,0
67328,-370,-2532,384,-913,-686,-2413,14200,-8,472,1795,456,35311,19,34,127,0,0,2856,-82,3150,2782,183,29,636,1,1,159,0,67306,0
67338,66,-2284,109,-949,-742,-2574,14204,3,218,1922,464,35298,39,34,127,0,0,2861,0,3210,2782,183,29,646,1,1,159,0,67306,0
67348,10,-2285,59,-1003,-859,-2676,14202,-1,30,1954,464,35301,68,34,127,0,0,2855,-71,3260,2782,183,29,656,1,1,159,0,67337,0
67358,-147,-2423,33,-1181,-851,-2953,14203,5,-3,1983,464,35307,71,34,127,0,0,2858,-60,3310,2782,183,29,666,1,1,159,0,67337,0
67368,-135,-2705,152,-1170,-768,-3116,14205,10,7,2002,488,35304,71,34,127,0,0,2865,38,3340,2782,183,29,676,1,1,159,0,67337,0
67378,-152,-2628,222,-1193,-419,-3432,14219,47,30,1978,584,35305,62,34,127,0,0,2859,10,3360,2782,183,29,686,1,1,159,0,67368,0
67388,-221,-2384,306,-1179,-358,-3601,14255,80,63,2012,664,35305,59,34,127,0,0,2871,82,3360,2782,183,29,696,1,1,159,0,67368,0
67398,-93,-2568,372,-1320,-571,-3535,14325,209,96,1833,1120,35303,69,34,127,0,0,2886,230,3360,2782,183,29,706,1,1,159,0,67384,0
67409,-100,-2683,348,-1232,-768,-3712,14529,511,300,1880,1952,35292,70,34,127,0,0,2917,318,3350,2782,183,29,717,1,1,159,0,67399,0
67419,116,-2643,250,-1279,-1022,-3731,14867,849,495,2069,2888,35280,73,34,127,0,0,2977,637,3470,2782,183,29,727,1,1,159,0,67399,0
67429,-133,-2731,376,-1397,-1276,-3461,15349,1132,568,2219,3432,35268,102,34,127,0,0,3060,823,3640,2782,183,29,737,1,1,159,0,67431,0
67439,-590,-2686,318,-1292,-1249,-3488,15915,1286,440,2231,3832,35270,153,34,127,0,0,3168,1054,3890,2782,183,29,747,1,1,159,0,67431,0
67449,-516,-2565,-163,-946,-1036,-3962,16536,1392,263,2373,4120,35257,208,34,127,0,0,3280,1109,4190,2782,183,29,757,1,1,159,0,67431,0
67459,-173,-2257,-330,-802,-996,-4202,17191,1458,178,2576,4328,35243,244,34,127,0,0,3401,1219,4520,2782,183,29,767,1,1,159,0,67431,0
67469,-13,-2048,-220,-564,-1217,-4404,17867,1495,101,2762,4464,35224,281,34,127,0,0,3524,1230,4810,2782,183,29,777,1,1,159,0,67446,0
67479,-56,-2072,-231,-409,-1379,-4523,18556,1518,73,2893,4400,35218,324,34,127,0,0,3647,1208,4900,2782,183,29,787,1,1,159,0,67446,0
67489,-52,-2419,-388,-435,-1169,-4969,19223,1440,-8,2931,4192,35213,355,34,127,0,0,3768,1197,4920,2782,183,29,797,1,1,159,0,67493,0
67499,267,-2368,-234,-314,-1051,-5460,19832,1288,-153,2895,3968,35207,376,34,127,0,0,3878,1109,4840,2782,183,29,807,1,1,159,0,67493,0
67509,925,-2504,29,-627,-1402,-5819,20368,1116,-260,2798,3568,35203,361,34,127,0,0,3972,944,5150,2782,183,29,817,1,1,159,0,67524,0
67519,755,-2876,436,-588,-1900,-5832,20854,1070,-249,3025,3704,35202,352,34,127,0,0,4060,867,5620,2782,183,29,827,1,1,159,0,67524,0
67529,385,-3230,446,-451,-2441,-5726,21395,1268,7,3250,4304,35208,338,34,127,0,0,4166,1065,5760,2782,183,29,837,1,1,159,0,67540,0
67539,239,-3378,381,-422,-2787,-5553,22015,1614,408,3348,5280,35204,360,34,127,0,0,4291,1329,5640,2782,183,29,847,1,1,159,0,67571,0
67549,84,-3410,522,-449,-3329,-5236,22902,2101,705,3285,6336,35193,410,34,127,0,0,4453,1702,5470,2782,183,29,857,1,1,159,0,67571,0
67559,76,-3189,660,-456,-3841,-4888,24019,2601,846,3116,7392,35178,489,34,127,0,0,4642,1922,5220,2782,183,29,867,1,1,159,0,67571,0
67569,44,-2955,809,-448,-4467,-3934,25342,3029,829,2889,8664,35155,566,34,127,0,0,4869,2340,4900,2782,183,29,877,1,1,159,0,67571,0
67579,-534,-2882,934,-311,-4924,-3059,26890,3571,826,2589,9504,35131,645,34,127,0,0,5137,2713,2260,2782,183,29,887,1,1,159,0,67587,0
67589,116,-2575,530,-312,-5153,-2109,28524,3498,574,887,-40,35117,656,34,127,0,0,5436,2955,0,2782,183,29,897,1,1,159,0,67587,0
67599,700,-2642,691,6,-4808,-1617,28850,-1084,-2754,-9435,-7552,35154,502,34,127,0,0,5682,2340,0,2782,183,29,907,1,1,159,0,67587,0
67609,1115,-1865,-11,19,-3044,-1940,27551,-3107,-6067,-901,-6000,35125,616,34,127,0,0,5743,362,0,2782,183,29,917,1,1,159,0,67602,0
67619,1336,-1179,-345,-108,-1860,-1622,26268,-2622,-2375,596,-4168,35177,441,34,127,0,0,5640,-1175,0,2782,183,29,927,0,1,159,0,67602,0
67629,1100,-613,-450,-9,-286,-1041,25271,-2040,771,178,-4176,35208,371,34,127,0,0,5431,-2175,0,2782,183,29,937,0,1,159,0,67602,0
67639,760,-547,-445,167,120,-495,24413,-1876,781,-625,-5000,35295,64,34,127,0,0,5176,-2526,0,2782,183,29,947,0,1,159,0,67634,0
67649,390,-803,-192,251,221,527,23457,-2197,-5,-874,-5496,35313,38,34,127,0,0,4948,-2296,0,2782,183,29,957,0,1,159,0,67649,0
67659,324,-1033,50,276,159,1289,22417,-2303,-382,-577,-5488,35293,94,34,127,0,0,4763,-1823,0,2782,183,29,967,0,1,159,0,67649,0
67669,465,-1100,218,346,-29,2314,21413,-2156,-52,-292,-4976,35274,128,34,127,0,0,4623,-1340,0,2782,183,29,977,0,1,159,0,67649,0
67680,532,-1041,112,319,-110,3082,20414,-1932,288,-119,-4088,35271,107,34,127,0,0,4529,-763,0,2782,183,29,988,0,1,159,0,67665,0
67690,616,-1006,-30,437,137,3936,19605,-1714,361,59,-2944,35287,75,34,127,0,0,4471,-505,0,2782,183,29,998,0,1,159,0,67665,0
67700,581,-930,-139,522,365,4376,18919,-1411,429,149,-1976,35307,68,34,127,0,0,4429,-466,0,2782,183,29,1008,0,1,159,0,67696,0
67710,614,-927,-184,686,809,4998,18391,-1062,554,134,-1272,35316,31,34,127,0,0,4385,-450,0,2782,183,29,1018,0,1,159,0,67696,0
67720,638,-912,-214,771,1104,5408,18005,-763,567,41,-856,35313,12,34,127,0,0,4341,-417,0,2782,183,29,1028,0,1,159,0,67696,0
67730,628,-861,-249,870,1547,6060,17729,-549,473,-65,-688,35306,-5,34,127,0,0,4295,-450,0,2782,183,29,1038,0,1,159,0,67696,0
67740,644,-830,-239,919,1801,6488,17517,-427,317,-219,-592,35314,-5,34,127,0,0,4257,-384,0,2782,183,29,1048,0,1,159,0,67727,0
67750,689,-916,-235,969,2106,7117,17337,-387,179,-302,-520,35302,18,34,127,0,0,4216,-351,0,2782,183,29,1058,0,1,159,0,67727,0
67760,647,-1027,-180,1009,2268,7503,17182,-339,100,-353,-496,35305,14,34,127,0,0,4185,-302,0,2782,183,29,1068,0,1,159,0,67743,0
67770,588,-1184,-87,1112,2524,8008,17034,-309,56,-275,-392,35302,41,34,127,0,0,4153,-296,0,2782,183,29,1078,0,1,159,0,67759,0
67780,600,-1255,-61,1172,2720,8331,16900,-270,45,-267,-320,35325,33,34,127,0,0,4131,-258,0,2782,183,29,1088,0,1,159,0,67759,0
67790,581,-1405,-13,1245,3059,8806,16790,-229,76,-252,-200,35316,36,34,127,0,0,4108,-164,0,2782,183,29,1098,0,1,159,0,67759,0
67800,570,-1504,19,1301,3309,9084,16710,-150,107,-222,-96,35316,21,34,127,0,0,4096,-104,0,2782,183,29,1108,0,1,159,0,67790,0
67810,547,-1643,18,1387,3651,9423,16679,-2,159,-128,0,35320,13,34,127,0,0,4090,-32,0,2782,183,29,1118,0,1,159,0,67790,0
67820,644,-1765,23,1469,3896,9625,16697,38,194,-18,48,35325,11,34,127,0,0,4091,0,0,2782,183,29,1128,0,1,159,0,67790,0
67830,616,-1912,26,1646,4264,9851,16706,20,51,279,136,35328,16,34,127,0,0,4091,-5,0,2782,183,29,1138,0,1,159,0,67805,0
67840,645,-1996,28,1730,4454,10043,16728,47,0,425,240,35320,-8,34,127,0,0,4095,71,0,2782,183,29,1148,0,1,159,0,67821,0
67850,665,-2176,100,1818,4721,10292,16789,159,87,444,312,35327,2,34,127,0,0,4111,142,0,2782,183,29,1158,0,1,159,0,67837,0
67860,657,-2315,162,1868,4846,10408,16878,204,141,420,376,35329,-7,34,127,0,0,4124,219,0,2782,183,29,1168,0,1,159,0,67837,0
67870,607,-2605,261,1950,4953,10439,16990,271,95,433,440,35316,8,34,127,0,0,4141,192,0,2782,183,29,1178,0,1,159,0,67837,0
67880,662,-2817,292,1963,4931,10392,17110,276,59,481,512,35314,14,34,127,0,0,4164,236,0,2782,183,29,1188,0,1,159,0,67868,0
67890,731,-3134,395,1934,4731,10200,17251,310,54,446,568,35316,31,34,127,0,0,4186,258,0,2782,183,29,1198,0,1,159,0,67868,0
67900,778,-3332,438,1928,4467,9946,17407,351,70,399,608,35316,45,34,127,0,0,4207,263,0,2782,183,29,1208,0,1,159,0,67884,0
67911,889,-3558,480,1817,3859,9476,17585,359,38,418,656,35313,40,34,127,0,0,4236,263,0,2782,183,29,1219,0,1,159,0,67884,0
67921,1035,-3719,508,1687,3156,8998,17753,385,15,448,728,35311,46,34,127,0,0,4264,274,0,2782,183,29,1229,0,1,159,0,67977,0
67931,1174,-3680,538,1616,2508,8659,17925,385,21,457,824,35308,37,34,127,0,0,4300,362,0,2782,183,29,1239,0,1,159,0,67977,0
67941,1247,-3388,646,1387,1243,7806,18111,427,34,453,880,35303,33,34,127,0,0,4326,285,0,2782,183,29,1249,0,1,159,0,67977,0
67951,1400,-3168,658,1281,296,7122,18311,428,60,415,840,35306,24,34,127,0,0,4341,142,0,2782,183,29,1259,0,1,159,0,67977,0
67961,1459,-2825,528,1374,-1288,5996,18498,400,-7,383,560,35307,27,34,127,0,0,4339,-43,0,2782,183,29,1269,0,1,159,0,67993,0
67971,1621,-2469,445,1415,-2344,5064,18662,332,-72,276,304,35309,33,34,127,0,0,4330,-120,0,2782,183,29,1279,0,1,159,0,67993,0
67981,1386,-1843,423,1225,-3792,3589,18767,164,-155,44,24,35307,20,34,127,0,0,4315,-142,0,2782,183,29,1289,0,1,159,0,67993,0
67991,1279,-1893,376,884,-4393,2534,18776,-39,-303,-152,-48,35309,19,34,127,0,0,4295,-208,0,2782,183,29,1299,0,1,159,0,67993,0
68001,874,-2205,135,216,-4692,1010,18742,-97,-279,-222,-128,35315,23,34,127,0,0,4278,-186,0,2782,183,29,1309,0,1,159,0,67993,0
68011,669,-2627,54,-170,-4518,40,18694,-85,-109,-178,-72,35318,18,34,127,0,0,4267,-87,0,2782,183,29,1319,0,1,159,0,67993,0
68021,577,-2974,-17,-516,-3934,-1132,18668,-24,27,-7,-8,35326,26,34,127,0,0,4260,-21,0,2782,183,29,1329,0,1,159,0,67993,0
68031,685,-2814,-106,-707,-3424,-1769,18682,42,121,191,80,35336,14,34,127,0,0,4260,-21,0,2782,183,29,1339,0,1,159,0,68009,0
68041,730,-2463,-167,-811,-2631,-2537,18699,42,80,346,168,35332,25,34,127,0,0,4260,32,0,2782,183,29,1349,0,1,159,0,68024,0
68051,843,-2232,-209,-895,-2204,-2938,18739,105,52,327,160,35323,20,34,127,0,0,4260,43,0,2782,183,29,1359,0,1,159,0,68024,0
68061,-1405,-4849,-873,-1128,-1759,-2824,18774,73,38,445,200,35309,36,34,127,0,0,4267,109,0,2782,183,29,1369,0,1,159,0,68040,0
68071,-1538,-6040,611,-1223,-2124,-774,18833,178,26,805,976,35316,57,34,127,0,0,4431,1834,0,6192,2409,30,7,1,1,309,4,68071,0
68081,-698,-1610,963,401,1002,-1769,19086,758,414,1370,2200,35308,57,34,127,0,0,4495,483,0,6192,2409,30,17,1,1,309,4,68071,0
68091,-791,-192,396,426,277,-1780,19491,907,709,560,1984,35304,72,34,127,0,0,4500,-10,0,6192,2409,30,27,1,1,309,4,68087,0
68101,393,-1320,757,397,-941,-257,19882,858,243,692,2456,35295,66,34,127,0,0,4598,1098,0,6192,2409,30,37,1,1,309,4,68087,0
68111,-844,-2088,439,542,-837,401,20364,1182,134,1281,3720,35294,73,34,127,0,0,4770,1801,0,6192,2409,30,47,1,1,309,4,68087,0
68121,-1399,-1679,90,894,-473,328,21063,1695,602,1425,5024,35292,92,34,127,0,0,4972,2032,0,6192,2409,30,57,1,1,309,4,68118,0
68131,-1135,-1679,-732,779,239,-257,21995,2201,866,1139,5832,35270,153,34,127,0,0,5141,1647,0,6192,2409,30,67,1,1,309,4,68118,0
68141,-1296,-1388,-654,248,1464,-902,23084,2440,764,580,5728,35261,196,34,127,0,0,5266,1241,0,6192,2409,30,77,1,1,309,4,68118,0
68152,-1056,-2211,-65,201,1436,-1338,24275,2336,241,303,5136,35266,136,34,127,0,0,5401,1213,0,6192,2409,30,88,1,1,309,4,68118,0
68162,-44,-3304,724,429,887,-1847,25250,2067,-235,123,4432,35297,74,34,127,0,0,5497,873,0,6192,2409,30,98,1,1,309,4,68165,0
68172,197,-2859,430,311,218,-2346,26116,1826,-410,-1,3240,35304,34,34,127,0,0,5522,126,0,6192,2409,30,108,1,1,309,4,68165,0
68182,68,-2110,345,-512,-513,-2348,26829,1444,-496,-215,1760,35306,5,34,127,0,0,5518,-98,0,6192,2409,30,118,1,1,309,4,68165,0
68192,604,-3415,171,-585,212,-3206,27338,965,-684,-426,208,35306,1,34,127,0,0,5437,-977,0,6192,2409,30,128,1,1,309,4,68165,0
68202,-485,-1487,31,-174,418,-3380,27414,-280,-1218,-2211,-1240,35317,17,34,127,0,0,5327,-1082,0,6192,2409,30,138,1,1,309,4,68180,0
68212,-164,-2093,36,-111,597,-3410,27164,-567,-1566,-265,-224,35322,27,34,127,0,0,5219,-1065,660,6192,2409,30,148,1,1,309,4,68196,0
68222,-48,-1476,461,23,39,-2559,27030,-130,-376,554,128,35316,42,34,127,0,0,5129,-867,860,6192,2409,30,158,1,1,309,4,68196,0
68232,1221,-2168,345,-35,-397,-1529,27011,-44,488,544,104,35306,25,34,127,0,0,5121,-65,1060,6192,2409,30,168,1,1,309,4,68212,0
68242,331,-2400,191,223,-767,-1206,26903,-343,52,647,-112,35313,-9,34,127,0,0,5109,-120,1260,6192,2409,30,178,1,1,309,4,68227,0
68252,55,-2090,-88,336,-400,-1377,26607,-780,-551,509,-544,35311,15,34,127,0,0,5069,-411,1460,6192,2409,30,188,1,1,309,4,68227,0
68262,-773,-1864,-20,404,645,-1598,26203,-880,-589,643,-336,35311,1,34,127,0,0,4996,-752,1500,6192,2409,30,198,1,1,309,4,68243,0
68272,-765,-1860,421,575,667,-1367,25882,-599,-52,1022,112,35306,-16,34,127,0,0,4932,-598,1500,6192,2409,30,208,1,1,309,4,68259,0
68282,45,-1947,815,397,-335,-638,25766,-133,571,1077,200,35308,-14,34,127,0,0,4909,-153,1500,6192,2409,30,218,1,1,309,4,68259,0
68292,-299,-2003,708,326,-597,-435,25753,-12,612,845,200,35316,21,34,127,0,0,4908,10,1500,6192,2409,30,228,1,1,309,4,68337,0
68302,-484,-2057,470,363,-666,-721,25704,-166,123,904,64,35310,35,34,127,0,0,4916,54,1500,6192,2409,30,238,1,1,309,4,68337,0
68312,-608,-1962,470,270,-107,-979,25542,-462,-290,803,-208,35307,30,34,127,0,0,4887,-318,1500,6192,2409,30,248,1,1,309,4,68337,0
68322,-657,-2023,835,135,413,-1438,25231,-781,-513,607,-456,35307,-5,34,127,0,0,4830,-620,1500,6192,2409,30,258,1,1,309,4,68337,0
68332,-781,-1966,1019,39,682,-1564,24857,-801,-418,708,-224,35308,-3,34,127,0,0,4760,-752,1500,6192,2409,30,268,1,1,309,4,68337,0
68342,-330,-1745,1103,-245,124,-1357,24584,-487,74,1098,96,35309,-13,34,127,0,0,4706,-472,1500,6192,2409,30,278,1,1,309,4,68337,0
68352,5,-2002,1231,-407,-282,-1002,24442,-270,477,988,24,35305,-2,34,127,0,0,4682,-219,1500,6192,2409,30,288,1,1,309,4,68337,0
68362,-464,-2063,694,-517,-611,-1077,24287,-380,228,828,-32,35308,-1,34,127,0,0,4668,-164,1500,6192,2409,30,298,1,1,309,4,68337,0
68372,-251,-2100,560,-621,-251,-1225,24072,-519,-153,798,-160,35317,-10,34,127,0,0,4639,-313,1500,6192,2409,30,308,1,1,309,4,68337,0
68382,-550,-2087,459,-617,215,-1605,23766,-755,-285,665,-368,35327,-20,34,127,0,0,4588,-549,1500,6192,2409,30,318,1,1,309,4,68368,0
68392,-410,-2044,567,-652,358,-1759,23373,-896,-354,700,-416,35325,-30,34,127,0,0,4521,-692,1500,6192,2409,30,328,1,1,309,4,68368,0
68402,-458,-2009,507,-728,450,-1745,22993,-797,-141,871,-160,35322,-14,34,127,0,0,4448,-747,1500,6192,2409,30,338,1,1,309,4,68383,0
68413,-52,-1923,440,-788,24,-1551,22680,-544,233,1101,40,35318,-11,34,127,0,0,4387,-538,1500,6192,2409,30,349,1,1,309,4,68383,0
68423,234,-2044,537,-849,-416,-1402,22481,-425,347,985,-16,35329,-2,34,127,0,0,4357,-274,1500,6192,2409,30,359,1,1,309,4,68415,0
68433,-225,-2080,273,-904,-376,-1391,22239,-587,63,764,-208,35331,-10,34,127,0,0,4326,-340,1500,6192,2409,30,369,1,1,309,4,68415,0
68443,-625,-2024,110,-875,85,-1652,21921,-731,-239,721,-256,35320,-15,34,127,0,0,4273,-549,1500,6192,2409,30,379,1,1,309,4,68415,0
68453,-240,-1987,372,-821,368,-1764,21598,-691,-158,875,-184,35318,-19,34,127,0,0,4209,-626,1500,6192,2409,30,389,1,1,309,4,68446,0
68463,103,-1979,611,-831,191,-1656,21298,-645,45,907,-168,35313,-10,34,127,0,0,4150,-527,1500,6192,2409,30,399,1,1,309,4,68446,0
68473,92,-1995,561,-871,-241,-1482,21028,-559,101,942,-56,35314,-13,34,127,0,0,4102,-505,1500,6192,2409,30,409,1,1,309,4,68446,0
68483,87,-2026,357,-896,-212,-1450,20796,-508,134,955,-88,35311,-6,34,127,0,0,4062,-395,1500,6192,2409,30,419,1,1,309,4,68477,0
68493,-132,-2016,208,-866,-20,-1561,20545,-576,34,822,-152,35311,-5,34,127,0,0,4016,-417,1500,6192,2409,30,429,1,1,309,4,68477,0
68503,-124,-2005,215,-838,85,-1674,20238,-714,-148,751,-240,35308,0,34,127,0,0,3959,-560,1500,6192,2409,30,439,1,1,309,4,68477,0
68513,-28,-2033,291,-822,167,-1776,19896,-765,-181,819,-280,35306,10,34,127,0,0,3895,-626,1500,6192,2409,30,449,1,1,309,4,68524,0
68523,38,-2019,345,-825,131,-1781,19550,-738,-78,872,-184,35301,9,34,127,0,0,3836,-604,1500,6192,2409,30,459,1,1,309,4,68524,0
68533,93,-2034,375,-838,-76,-1669,19240,-671,75,934,-144,35305,-1,34,127,0,0,3781,-516,1500,6192,2409,30,469,1,1,309,4,68524,0
68543,-59,-2023,323,-821,-135,-1611,18984,-616,115,949,-112,35307,-6,34,127,0,0,3728,-516,1500,6192,2409,30,479,1,1,309,4,68540,0
68553,-16,-2033,228,-779,-65,-1701,18707,-622,63,897,-152,35315,5,34,127,0,0,3684,-450,1500,6192,2409,30,489,1,1,309,4,68540,0
68563,-3,-2035,177,-740,54,-1898,18373,-784,-110,780,-336,35314,5,34,127,0,0,3618,-659,1500,6192,2409,30,499,1,1,309,4,68540,0
68573,-122,-1965,216,-735,153,-2153,17975,-902,-239,791,-416,35320,9,34,127,0,0,3548,-736,1500,6192,2409,30,509,1,1,309,4,68540,0
68583,15,-1982,283,-745,150,-2228,17563,-894,-135,866,-368,35328,-2,34,127,0,0,3473,-758,1500,6192,2409,30,519,1,1,309,4,68571,0
68593,-11,-2005,350,-791,-25,-2160,17176,-825,40,914,-264,35328,-3,34,127,0,0,3401,-703,1500,6192,2409,30,529,1,1,309,4,68587,0
68603,111,-2027,361,-787,-107,-2143,16821,-770,110,948,-224,35318,-9,34,127,0,0,3333,-659,1500,6192,2409,30,539,1,1,309,4,68587,0
68613,134,-1947,251,-788,-112,-2222,16472,-777,59,892,-272,35315,-12,34,127,0,0,3267,-659,1500,6192,2409,30,549,1,1,309,4,68587,0
68623,149,-1896,205,-817,-73,-2357,16082,-895,-78,829,-472,35322,-21,34,127,0,0,3197,-725,1500,6192,2409,30,559,1,1,309,4,68602,0
68633,22,-1975,271,-743,28,-2495,15639,-991,-183,849,-544,35329,-16,34,127,0,0,3115,-802,1680,6192,2409,30,569,1,1,309,4,68602,0
68643,32,-1992,332,-751,28,-2544,15190,-954,-98,1013,-280,35332,-25,34,127,0,0,3032,-834,2000,6192,2409,30,579,1,1,309,4,68618,0
68654,83,-2066,509,-806,-268,-2326,14799,-678,214,1532,-64,35328,-21,34,127,0,0,2963,-560,2380,6192,2409,30,590,1,1,309,4,68712,0
68664,356,-2187,552,-881,-591,-2045,14592,-390,474,1802,40,35326,-16,34,127,0,0,2925,-346,2710,6192,2409,30,600,1,1,309,4,68712,0
68674,309,-2096,369,-928,-653,-2102,14390,-483,246,1659,-8,35319,-16,34,127,0,0,2892,-346,3050,6192,2409,30,610,1,1,309,4,68712,0
68684,176,-2145,198,-913,-445,-2350,14102,-710,-194,1714,-88,35313,-23,34,127,0,0,2836,-532,3450,6192,2409,30,620,1,1,309,4,68712,0
68694,58,-2116,270,-880,-212,-2645,13742,-804,-316,2065,-104,35312,-35,34,127,0,0,2774,-648,3940,6192,2409,30,630,1,1,309,4,68712,0
68704,49,-2402,506,-891,-493,-2486,13462,-487,55,2799,152,35315,-39,34,127,0,0,2714,-538,4470,6192,2409,30,640,1,1,309,4,68727,0
68714,476,-2858,821,-798,-1053,-2093,13366,-134,561,2812,664,35314,-16,34,127,0,0,2699,-219,4960,6192,2409,30,650,1,1,309,4,68727,0
68724,360,-2472,400,-941,-1500,-2039,13370,41,513,2945,1000,35302,24,34,127,0,0,2703,10,5160,6192,2409,30,660,1,1,309,4,68727,0
68734,-445,-2496,149,-1174,-1128,-2138,13379,3,166,3185,984,35290,67,34,127,0,0,2704,0,5360,6192,2409,30,670,1,1,309,4,68727,0
68744,-500,-2486,-207,-1286,-961,-2369,13389,31,-8,3270,1072,35282,92,34,127,0,0,2707,38,5570,6192,2409,30,680,1,1,309,4,68727,0
68754,-80,-2695,-201,-1219,-694,-2871,13426,98,62,3369,1264,35289,109,34,127,0,0,2713,87,5820,6192,2409,30,690,1,1,309,4,68727,0
68764,-149,-2600,-83,-1320,-650,-2975,13515,235,154,3412,1792,35302,131,34,127,0,0,2729,170,6090,6192,2409,30,700,1,1,309,4,68743,0
68774,-453,-2826,161,-1581,-652,-2714,13697,481,294,3606,2464,35284,160,34,127,0,0,2761,340,6390,6192,2409,30,710,1,1,309,4,68743,0
68784,-518,-3017,217,-1584,-575,-2643,14028,837,485,3946,3544,35254,210,34,127,0,0,2827,609,6730,6192,2409,30,720,1,1,309,4,68758,0
68794,-97,-3086,156,-1575,-579,-2781,14550,1277,663,4206,4512,35220,312,34,127,0,0,2919,950,7130,6192,2409,30,730,1,1,309,4,68790,0
68804,99,-2809,135,-1700,-587,-2768,15223,1553,658,4470,5048,35193,463,34,127,0,0,3031,1115,7630,6192,2409,30,740,1,1,309,4,68790,0
68814,-207,-2379,264,-1701,-805,-2767,15965,1662,392,4724,5400,35169,589,34,127,0,0,3173,1378,8270,6192,2409,30,750,1,1,309,4,68790,0
68824,-290,-2495,65,-1558,-858,-2925,16727,1691,152,5033,5632,35133,693,34,127,0,0,3312,1428,9040,6192,2409,30,760,1,1,309,4,68790,0
68834,-361,-2594,14,-1341,-579,-3247,17518,1778,100,5523,6056,35107,769,34,127,0,0,3460,1494,9910,6192,2409,30,770,1,1,309,4,68821,0
68844,-432,-2442,99,-1324,-388,-3375,18390,1982,20,6066,6672,35072,885,34,127,0,0,3615,1549,10920,6192,2409,30,780,1,1,309,4,68821,0
68854,-394,-2267,83,-1263,-415,-3367,19370,2235,443,6618,7496,35017,1048,34,127,0,0,3790,1774,11930,6192,2409,30,790,1,1,309,4,68821,0
68864,-279,-2302,-42,-1055,-589,-3289,20462,2470,618,7060,8344,34944,1278,34,127,0,0,3982,1977,12690,6192,2409,30,800,1,1,309,4,68852,0
68874,-226,-2496,-171,-799,-710,-3254,21649,2689,396,7511,8896,34869,1534,34,127,0,0,4209,2274,13420,6192,2409,30,810,1,1,309,4,68852,0
68884,60,-2581,-206,-757,-736,-3449,22958,2965,412,8135,9424,34789,1805,34,127,0,0,4438,2356,14210,6192,2409,30,820,1,1,309,4,68852,0
68894,280,-2842,89,-756,-759,-3712,24335,3028,381,8369,9464,34725,2040,34,127,0,0,4670,2230,15030,6192,2409,30,830,1,1,309,4,68868,0
68905,685,-2585,-38,-1053,-968,-4006,25765,2770,-52,8778,8960,34659,2191,34,127,0,0,4917,2219,15370,6192,2409,30,841,1,1,309,4,68883,0
68915,404,-3030,249,-874,-1217,-4303,26927,2453,-412,8715,7952,34650,2232,34,127,0,0,5115,1955,14960,6192,2409,30,851,1,1,309,4,68915,0
68925,340,-3507,504,-658,-1497,-4812,27922,2076,-576,8297,7080,34682,2112,34,127,0,0,5291,1757,14350,6192,2409,30,861,1,1,309,4,68915,0
68935,178,-3244,505,-634,-1734,-5035,28794,1855,-568,7848,6760,34749,1897,34,127,0,0,5453,1691,13560,6192,2409,30,871,1,1,309,4,68915,0
68945,-53,-2978,534,-662,-2322,-4968,29631,1856,-311,7410,6728,34813,1647,34,127,0,0,5618,1614,12630,6192,2409,30,881,1,1,309,4,68915,0
68955,-225,-2692,609,-719,-2902,-4838,30560,2154,100,6792,7208,34868,1466,34,127,0,0,5794,1790,10150,6192,2409,30,891,1,1,309,4,68930,0
68965,104,-2674,720,-672,-3937,-4177,31621,2347,463,4978,6152,34914,1326,34,127,0,0,5989,1922,4910,6192,2409,30,901,1,1,309,4,68961,0
68975,126,-2305,695,-634,-4370,-4239,32482,1623,-101,2245,3344,35001,1047,34,127,0,0,6150,1571,1530,6192,2409,30,911,1,1,309,4,68961,0
68985,384,-2150,699,-683,-4257,-4451,32887,589,-1298,511,344,35105,650,34,127,0,0,6229,725,0,6192,2409,30,921,1,1,309,4,68961,0
68995,-254,-1400,1575,-32,-3505,-3566,32817,-610,-1781,-2358,-2704,35211,286,34,127,0,0,6246,87,0,6192,2409,30,931,1,1,309,4,68961,0
69005,1856,-2451,-538,-380,-4036,-1757,32275,-1358,-1882,-1084,-3960,35274,111,34,127,0,0,6292,428,0,6192,2409,30,941,1,1,309,4,68993,0
69015,1955,-2431,-444,-605,-2842,-1442,31463,-1994,-1392,-1490,-5728,35285,134,34,127,0,0,6235,-681,0,6192,2409,30,951,1,1,309,4,68993,0
69025,946,-1055,-245,18,-1986,-999,30283,-2904,-1209,-1932,-6920,35253,237,34,127,0,0,6082,-1614,0,6192,2409,30,961,0,1,309,4,69008,0
69035,778,-537,-342,281,-1592,-815,28998,-2731,-978,-185,-6464,35245,225,34,127,0,0,5868,-2197,0,6192,2409,30,971,0,1,309,4,69008,0
69045,733,-669,-104,328,-1252,-190,27795,-2651,5,-400,-6520,35255,207,34,127,0,0,5627,-2471,0,6192,2409,30,981,0,1,309,4,69040,0
69055,591,-907,97,435,-994,367,26565,-2745,103,-712,-6752,35277,154,34,127,0,0,5378,-2493,0,6192,2409,30,991,0,1,309,4,69055,0
69065,518,-1004,124,600,-911,1273,25309,-2753,-116,-576,-6568,35282,145,34,127,0,0,5156,-2131,0,6192,2409,30,1001,0,1,309,4,69055,0
69075,497,-963,120,682,-1005,1918,24087,-2661,15,-303,-6032,35274,145,34,127,0,0,4985,-1691,0,6192,2409,30,1011,0,1,309,4,69071,0
69085,452,-933,-18,739,-997,2893,22935,-2461,195,-119,-5184,35284,117,34,127,0,0,4853,-1285,0,6192,2409,30,1021,0,1,309,4,69071,0
69095,378,-878,-111,853,-832,3424,21923,-2103,404,28,-4112,35296,68,34,127,0,0,4759,-922,0,6192,2409,30,1031,0,1,309,4,69071,0
69105,405,-902,-197,1060,-423,4086,21097,-1704,629,66,-3208,35309,54,34,127,0,0,4677,-769,0,6192,2409,30,1041,0,1,309,4,69102,0
69115,407,-891,-238,1241,-76,4508,20425,-1382,650,41,-2528,35307,43,34,127,0,0,4609,-659,0,6192,2409,30,1051,0,1,309,4,69102,0
69125,486,-833,-281,1429,616,5163,19876,-1144,541,-7,-2000,35305,37,34,127,0,0,4548,-615,0,6192,2409,30,1061,0,1,309,4,69118,0
69135,472,-806,-270,1547,1095,5582,19426,-922,420,-69,-1632,35297,23,34,127,0,0,4491,-538,0,6192,2409,30,1071,0,1,309,4,69118,0
69145,424,-815,-314,1719,1750,6182,19052,-769,336,-131,-1392,35295,10,34,127,0,0,4434,-560,0,6192,2409,30,1081,0,1,309,4,69118,0
69156,409,-893,-310,1817,2111,6581,18712,-644,258,-277,-1256,35308,13,34,127,0,0,4378,-505,0,6192,2409,30,1092,0,1,309,4,69165,0
69166,455,-1094,-227,1964,2510,7177,18431,-602,161,-271,-1024,35307,26,34,127,0,0,4339,-285,0,6192,2409,30,1102,0,1,309,4,69165,0
69176,466,-1222,-144,2082,2757,7548,18188,-512,117,-241,-784,35309,22,34,127,0,0,4306,-313,0,6192,2409,30,1112,0,1,309,4,69180,0
69186,458,-1309,-77,2224,3121,8073,17987,-409,150,-266,-504,35298,30,34,127,0,0,4284,-214,0,6192,2409,30,1122,0,1,309,4,69180,0
69196,484,-1361,-42,2311,3345,8407,17823,-331,153,-181,-232,35293,34,34,127,0,0,4269,-131,0,6192,2409,30,1132,0,1,309,4,69180,0
69206,538,-1463,-7,2449,3660,8825,17715,-185,176,-4,-8,35290,23,34,127,0,0,4260,-98,0,6192,2409,30,1142,0,1,309,4,69180,0
69216,503,-1566,11,2529,3872,9084,17725,62,331,-49,32,35301,26,34,127,0,0,4259,-43,0,6192,2409,30,1152,0,1,309,4,69211,0
69226,559,-1712,-2,2656,4259,9400,17747,19,254,90,96,35314,21,34,127,0,0,4259,-21,0,6192,2409,30,1162,0,1,309,4,69211,0
69236,543,-1824,-7,2743,4519,9590,17755,27,-21,430,192,35314,22,34,127,0,0,4262,5,0,6192,2409,30,1172,0,1,309,4,69211,0
69246,635,-2038,-19,2816,4918,9921,17785,92,21,589,288,35306,17,34,127,0,0,4267,27,0,6192,2409,30,1182,0,1,309,4,69211,0
69256,636,-2197,34,2842,5164,10119,17856,171,124,535,392,35306,9,34,127,0,0,4283,142,0,6192,2409,30,1192,0,1,309,4,69243,0
69266,688,-2526,174,2844,5452,10320,17964,247,149,438,424,35316,15,34,127,0,0,4300,203,0,6192,2409,30,1202,0,1,309,4,69243,0
69276,745,-2751,272,2769,5584,10361,18088,285,100,420,496,35317,26,34,127,0,0,4323,236,0,6192,2409,30,1212,0,1,309,4,69258,0
69286,864,-3119,384,2556,5540,10332,18230,318,70,443,552,35304,34,34,127,0,0,4341,225,0,6192,2409,30,1222,0,1,309,4,69274,0
69296,982,-3380,400,2397,5350,10236,18374,336,39,480,616,35292,61,34,127,0,0,4367,230,0,6192,2409,30,1232,0,1,309,4,69290,0
69306,1136,-3708,411,2104,4768,9931,18531,369,32,510,720,35292,52,34,127,0,0,4392,247,0,6192,2409,30,1242,0,1,309,4,69290,0
69316,1218,-3904,477,1876,4285,9648,18700,373,62,475,752,35292,39,34,127,0,0,4416,241,0,6192,2409,30,1252,0,1,309,4,69290,0
69326,1362,-4155,537,1636,3588,9126,18875,396,37,461,792,35297,18,34,127,0,0,4442,247,0,6192,2409,30,1262,0,1,309,4,69321,0
69336,1501,-3909,488,1578,2895,8693,19064,408,42,380,760,35290,35,34,127,0,0,4464,197,0,6192,2409,30,1272,0,1,309,4,69321,0
69346,1649,-3598,621,1733,1453,7478,19241,385,2,407,608,35291,41,34,127,0,0,4467,27,0,6192,2409,30,1282,0,1,309,4,69321,0
69356,1918,-3140,448,1926,303,6570,19409,343,-41,258,320,35286,44,34,127,0,0,4462,-54,0,6192,2409,30,1292,0,1,309,4,69336,0
69366,2035,-2244,357,1978,-1358,4838,19526,205,-113,35,-56,35304,19,34,127,0,0,4437,-258,0,6192,2409,30,1302,0,1,309,4,69336,0
69376,2003,-1843,238,1625,-2258,3601,19500,-150,-379,-299,-208,35306,29,34,127,0,0,4407,-263,0,6192,2409,30,1312,0,1,309,4,69368,0
69386,1485,-2040,95,844,-2921,1525,19424,-178,-387,-324,-280,35305,22,34,127,0,0,4367,-368,0,6192,2409,30,1322,0,1,309,4,69368,0
69396,1242,-2589,-58,229,-2918,217,19326,-229,-121,-412,-360,35297,18,34,127,0,0,4341,-307,0,6192,2409,30,1332,0,1,309,4,69383,0
69407,908,-3312,-147,-337,-2437,-1513,19215,-193,-45,-313,-224,35298,13,34,127,0,0,4328,-109,0,6192,2409,30,1343,0,1,309,4,69414,0
69417,853,-3615,-298,-763,-1558,-2741,19149,-106,66,-91,0,35301,13,34,127,0,0,4326,0,0,6192,2409,30,1353,0,1,309,4,69414,0
69427,-2303,-7350,-777,-1239,-1993,-2125,19151,61,195,432,336,35307,9,34,127,0,0,4420,1065,0,16576,7314,31,3,1,1,336,2,69430,0
69437,-514,-2742,1022,-703,-225,-2029,19301,536,392,1471,2344,35300,-3,34,127,0,0,4583,1505,0,16576,7314,31,13,1,1,336,2,69430,0
69447,-299,-901,734,-15,662,-2520,19754,1098,897,949,2720,35287,45,34,127,0,0,4609,153,0,16576,7314,31,23,1,1,336,2,69430,0
