state_time,accelx,accely,accelz,gyrox,gyroy,gyroz,mot_ang,mot_vel,mot_acc,mot_cur,mot_volt,batt_volt,batt_curr,temperature,status_mn,status_ex,status_re,ank_ang,ank_vel,ank_torque,peak_ank_torque,step_energy,step_count,step_time,gait_state,movement,speed,incline,sys_time,eventFlags
356793,257,-2078,33,-28,47,121,7911,-9,0,334,96,35194,34,35,127,0,0,2548,43,0,1128,130,173,23605,-4,0,107,14,356815,0
356803,250,-2085,39,-24,50,121,7914,5,2,348,96,35190,23,35,127,0,0,2548,21,0,1128,130,173,23615,-4,0,107,14,356815,0
356813,247,-2081,37,-27,51,126,7919,16,8,379,40,35206,16,35,127,0,0,2546,-54,0,1128,130,173,23625,-4,0,107,14,356815,0
356823,234,-2073,52,-27,47,119,7920,5,-10,344,64,35216,21,35,127,0,0,2546,0,0,1128,130,173,23635,-4,0,107,14,356815,0
356833,249,-2073,43,-27,49,116,7926,19,1,321,88,35221,36,35,127,0,0,2544,-32,0,1128,130,173,23645,-4,0,107,14,356815,0
356843,250,-2068,48,-36,49,119,7928,2,3,217,72,35223,44,35,127,0,0,2548,32,0,1128,130,173,23655,-4,0,107,14,356815,0
356853,251,-2072,43,-36,50,114,7931,13,3,256,88,35223,20,35,127,0,0,2548,21,0,1128,130,173,23665,-4,0,107,14,356831,0
356863,247,-2077,42,-35,52,117,7944,32,16,112,40,35238,8,35,127,0,0,2546,21,0,1128,130,173,23675,-4,0,107,14,356831,0
356873,264,-2071,44,-37,49,108,7952,12,14,41,40,35239,13,35,127,0,0,2546,0,0,1128,130,173,23685,-4,0,107,14,356846,0
356883,266,-2079,39,-36,51,103,7955,9,-17,47,8,35228,31,35,127,0,0,2544,-43,0,1128,130,173,23695,-4,0,107,14,356846,0
356893,218,-2080,42,-36,47,111,7953,5,-18,20,-8,35217,30,35,127,0,0,2546,-10,0,1128,130,173,23705,-4,0,107,14,356862,0
356904,220,-2073,54,-42,42,111,7953,8,3,60,32,35219,30,35,127,0,0,2548,43,0,1128,130,173,23716,-4,0,107,14,356878,0
356914,265,-2073,53,-40,44,106,7956,-9,11,38,24,35219,40,35,127,0,0,2548,43,0,1128,130,173,23726,-4,0,107,14,356878,0
356924,264,-2089,41,-46,44,111,7957,-13,-8,10,-16,35218,69,35,127,0,0,2544,-21,0,1128,130,173,23736,-4,0,107,14,356893,0
356934,235,-2077,49,-48,47,116,7957,7,-14,-20,0,35211,68,34,127,0,0,2546,5,0,1128,130,173,23746,-4,0,107,14,356925,0
356944,244,-2075,48,-43,43,117,7954,-7,-1,-39,-16,35217,29,35,127,0,0,2544,10,0,1128,130,173,23756,-4,0,107,14,356925,0
356954,261,-2076,47,-43,48,112,7957,10,2,-36,24,35220,29,35,127,0,0,2542,-5,0,1128,130,173,23766,-4,0,107,14,356925,0
356964,269,-2079,51,-45,46,113,7954,-14,3,-70,-16,35212,23,35,127,0,0,2544,5,0,1128,130,173,23776,-4,0,107,14,356925,0
356974,250,-2080,51,-48,44,112,7954,4,-6,-67,-16,35204,45,35,127,0,0,2547,32,0,1128,130,173,23786,-4,0,107,14,356940,0
356984,236,-2084,52,-47,47,112,7956,8,8,15,-16,35218,23,35,127,0,0,2544,-49,0,1128,130,173,23796,-4,0,107,14,356940,0
356994,243,-2088,43,-49,46,118,7954,2,-3,-25,-16,35225,20,35,127,0,0,2547,0,0,1128,130,173,23806,-4,0,107,14,356971,0
357004,253,-2073,51,-48,43,113,7956,1,-5,-14,-16,35232,33,35,127,0,0,2547,10,0,1128,130,173,23816,-4,0,107,14,356971,0
357014,258,-2074,46,-53,43,121,7955,-2,2,-43,-16,35216,47,35,127,0,0,2547,43,0,1128,130,173,23826,-4,0,107,14,356971,0
357024,254,-2075,47,-55,42,122,7956,3,1,-22,24,35220,44,35,127,0,0,2542,5,0,1128,130,173,23836,-4,0,107,14,356987,0
357034,267,-2075,51,-55,43,113,7955,-9,4,-39,-16,35219,39,35,127,0,0,2547,16,0,1128,130,173,23846,-4,0,107,14,357003,0
357044,245,-2070,59,-56,45,117,7956,-1,1,-30,-16,35222,42,35,127,0,0,2547,27,0,1128,130,173,23856,-4,0,107,14,357018,0
357054,247,-2079,58,-58,41,123,7957,0,-1,-24,-16,35219,48,35,127,0,0,2544,-16,0,1128,130,173,23866,-4,0,107,14,357018,0
357064,240,-2087,56,-60,41,116,7956,4,4,-21,-16,35212,46,35,127,0,0,2547,-10,0,1128,130,173,23876,-4,0,107,14,357050,0
357074,244,-2080,47,-66,39,118,7956,2,1,3,24,35219,35,35,127,0,0,2545,27,0,1128,130,173,23886,-4,0,107,14,357050,0
357084,268,-2073,56,-71,35,118,7955,-15,-1,10,-16,35211,20,35,127,0,0,2544,-38,0,1128,130,173,23896,-4,0,107,14,357050,0
357094,236,-2065,65,-70,43,118,7955,0,-1,-61,-16,35209,31,35,127,0,0,2547,32,0,1128,130,173,23906,-4,0,107,14,357065,0
357104,238,-2078,58,-70,37,119,7956,0,-2,-29,0,35207,36,35,127,0,0,2543,-10,0,1128,130,173,23916,-4,0,107,14,357065,0
357114,259,-2087,41,-70,46,116,7956,3,-2,-50,-16,35214,32,35,127,0,0,2547,5,0,1128,130,173,23926,-4,0,107,14,357096,0
357124,245,-2079,46,-69,40,120,7956,5,0,-35,-16,35223,31,35,127,0,0,2544,5,0,1128,130,173,23936,-4,0,107,14,357096,0
357134,256,-2082,49,-66,43,121,7954,-6,-1,-58,-16,35210,48,35,127,0,0,2544,0,0,1128,130,173,23946,-4,0,107,14,357096,0
357144,251,-2067,52,-60,38,124,7957,13,-3,-56,-16,35209,61,35,127,0,0,2544,0,0,1128,130,173,23956,-4,0,107,14,357112,0
357155,255,-2076,54,-57,51,130,7956,-1,3,-57,-16,35208,56,35,127,0,0,2548,43,0,1128,130,173,23967,-4,0,107,14,357112,0
357165,280,-2077,45,-59,40,134,7957,6,4,-16,8,35218,26,35,127,0,0,2546,32,0,1128,130,173,23977,-4,0,107,14,357159,0
357175,262,-2076,37,-56,44,134,7957,0,-1,-7,-32,35220,21,35,127,0,0,2546,0,0,1128,130,173,23987,-4,0,107,14,357159,0
357185,262,-2080,43,-58,46,133,7955,-4,-3,-32,16,35209,27,35,127,0,0,2546,21,0,1128,130,173,23997,-4,0,107,14,357159,0
357195,254,-2079,48,-54,49,136,7956,2,2,-18,0,35202,25,35,127,0,0,2546,0,0,1128,130,173,24007,-4,0,107,14,357190,0
357205,254,-2075,55,-46,54,146,7956,-1,0,-3,0,35199,23,35,127,0,0,2546,0,0,1128,130,173,24017,-4,0,107,14,357190,0
357215,255,-2074,50,-46,46,147,7957,3,-1,32,24,35214,24,35,127,0,0,2544,-32,0,1128,130,173,24027,-4,0,107,14,357206,0
357225,251,-2073,46,-43,50,165,7957,3,0,15,0,35208,40,35,127,0,0,2546,-10,0,1128,130,173,24037,-4,0,107,14,357206,0
357235,275,-2072,44,-40,42,184,7956,-8,3,64,48,35197,26,35,127,0,0,2553,76,0,1128,130,173,24047,-4,0,107,14,357206,0
357245,268,-2085,35,-29,48,187,7964,9,17,167,48,35185,16,35,127,0,0,2551,-10,0,1128,130,173,24057,-4,0,107,14,357206,0
357255,253,-2080,45,-22,44,184,7966,12,-5,200,40,35193,13,35,127,0,0,2557,43,0,1128,130,173,24067,-4,0,107,14,357221,0
357265,243,-2078,59,-15,55,197,7973,21,4,306,40,35203,28,35,127,0,0,2557,-10,0,1128,130,173,24077,-4,0,107,14,357237,0
357275,244,-2069,64,-16,52,193,7974,3,2,288,72,35202,29,35,127,0,0,2557,10,0,1128,130,173,24087,-4,0,107,14,357253,0
357285,227,-2075,51,-20,55,192,7976,14,-10,363,80,35198,41,35,127,0,0,2559,-21,0,1128,130,173,24097,-4,0,107,14,357253,0
357295,232,-2079,66,-15,52,194,7980,4,5,366,128,35194,41,35,127,0,0,2564,54,0,1128,130,173,24107,-4,0,107,14,357268,0
357305,231,-2076,61,-18,58,192,7989,19,12,396,104,35193,39,35,127,0,0,2564,0,0,1128,130,173,24117,-4,0,107,14,357268,0
357315,229,-2076,71,-16,52,185,7995,8,11,359,88,35188,41,35,127,0,0,2566,21,0,1128,130,173,24127,-4,0,107,14,357300,0
357325,214,-2074,77,-23,50,181,8005,34,-2,364,128,35191,48,35,127,0,0,2568,32,0,1128,130,173,24137,-4,0,107,14,357300,0
357335,219,-2079,72,-34,50,175,8023,38,23,293,104,35183,50,35,127,0,0,2570,21,0,1128,130,173,24147,-4,0,107,14,357300,0
357345,220,-2070,75,-34,49,158,8026,-5,-12,310,88,35188,50,35,127,0,0,2570,10,0,1128,130,173,24157,-4,0,107,14,357315,0
357355,215,-2073,62,-42,48,160,8026,-2,-37,333,120,35187,51,35,127,0,0,2572,21,0,1128,130,173,24167,-4,0,107,14,357331,0
357365,223,-2083,66,-40,47,145,8027,-1,-6,341,120,35182,54,35,127,0,0,2572,32,0,1128,130,173,24177,-4,0,107,14,357331,0
357375,228,-2077,66,-45,44,146,8028,0,2,367,72,35188,69,35,127,0,0,2572,-10,0,1128,130,173,24187,-4,0,107,14,357346,0
357385,221,-2080,67,-51,43,136,8029,17,0,379,168,35194,57,35,127,0,0,2577,65,0,1128,130,173,24197,-4,0,107,14,357346,0
357395,232,-2082,67,-53,41,135,8034,0,13,420,72,35191,58,35,127,0,0,2577,21,0,1128,130,173,24207,-4,0,107,14,357362,0
357405,234,-2089,65,-53,43,141,8034,2,-6,402,96,35196,50,35,127,0,0,2572,10,0,1128,130,173,24217,-4,0,107,14,357378,0
357416,227,-2078,71,-52,38,137,8034,0,-10,397,136,35187,46,35,127,0,0,2574,16,0,1128,130,173,24228,-4,0,107,14,357378,0
357426,235,-2073,70,-56,39,130,8034,-1,5,421,136,35201,48,35,127,0,0,2577,16,0,1128,130,173,24238,-4,0,107,14,357393,0
357436,226,-2084,71,-56,39,134,8035,4,4,451,152,35201,48,35,127,0,0,2576,32,0,1128,130,173,24248,-4,0,107,14,357409,0
357446,243,-2078,60,-53,41,131,8036,0,1,462,128,35208,64,35,127,0,0,2577,0,0,1128,130,173,24258,-4,0,107,14,357440,0
357456,231,-2080,57,-52,41,132,8037,5,0,470,152,35208,79,34,127,0,0,2576,-21,0,1128,130,173,24268,-4,0,107,14,357440,0
357466,238,-2081,67,-46,46,129,8038,7,-2,458,128,35200,81,35,127,0,0,2577,-16,0,1128,130,173,24278,-4,0,107,14,357456,0
357476,236,-2077,72,-49,45,126,8037,7,-2,446,128,35188,77,35,127,0,0,2580,32,0,1128,130,173,24288,-4,0,107,14,357456,0
357486,235,-2077,66,-53,45,126,8037,7,5,461,152,35185,70,35,127,0,0,2576,-10,0,1128,130,173,24298,-4,0,107,14,357456,0
357496,231,-2081,64,-51,47,130,8037,-6,-1,471,152,35189,89,34,127,0,0,2579,-10,0,1128,130,173,24308,-4,0,107,14,357471,0
357506,229,-2080,68,-55,47,134,8037,-6,-7,464,128,35192,75,35,127,0,0,2577,-32,0,1128,130,173,24318,-4,0,107,14,357471,0
357516,232,-2077,73,-47,41,130,8039,7,-1,466,144,35197,75,34,127,0,0,2579,-10,0,1128,130,173,24328,-4,0,107,14,357487,0
357526,221,-2081,71,-56,40,135,8038,-3,0,490,144,35208,62,34,127,0,0,2579,-5,0,1128,130,173,24338,-4,0,107,14,357549,0
357536,239,-2083,64,-54,42,136,8040,0,-1,492,144,35196,74,34,127,0,0,2582,16,0,1128,130,173,24348,-4,0,107,14,357549,0
357546,233,-2078,66,-49,45,133,8040,-1,-3,492,168,35196,69,35,127,0,0,2578,38,0,1128,130,173,24358,-4,0,107,14,357549,0
357556,237,-2087,68,-56,45,130,8043,3,2,519,136,35187,76,35,127,0,0,2579,-49,0,1128,130,173,24368,-4,0,107,14,357565,0
357566,224,-2079,68,-49,42,133,8046,10,4,530,128,35187,82,35,127,0,0,2582,-16,0,1128,130,173,24378,-4,0,107,14,357565,0
357576,234,-2072,73,-53,35,132,8045,4,-2,509,152,35181,75,35,127,0,0,2581,16,0,1128,130,173,24388,-4,0,107,14,357565,0
357586,233,-2076,77,-53,41,138,8047,4,6,547,152,35175,76,35,127,0,0,2581,-21,0,1128,130,173,24398,-4,0,107,14,357565,0
357596,233,-2076,70,-58,42,135,8049,1,-4,512,144,35181,62,35,127,0,0,2581,21,0,1128,130,173,24408,-4,0,107,14,357565,0
357606,230,-2068,74,-56,37,132,8052,8,-3,522,160,35204,45,34,127,0,0,2580,-10,0,1128,130,173,24418,-4,0,107,14,357565,0
357616,229,-2076,73,-62,39,135,8055,7,3,501,176,35228,47,34,127,0,0,2582,10,0,1128,130,173,24428,-4,0,107,14,357596,0
357626,229,-2077,82,-59,36,134,8066,24,17,447,136,35224,53,35,127,0,0,2583,0,0,1128,130,173,24438,-4,0,107,14,357596,0
357636,225,-2078,80,-57,42,131,8084,44,27,321,96,35206,67,35,127,0,0,2583,0,0,1128,130,173,24448,-4,0,107,14,357596,0
357646,239,-2082,70,-61,38,132,8096,4,0,291,72,35190,76,35,127,0,0,2583,-21,0,1128,130,173,24458,-4,0,107,14,357612,0
357657,211,-2080,64,-54,41,129,8095,-3,-42,280,104,35194,73,35,127,0,0,2583,0,0,1128,130,173,24469,-4,0,107,14,357643,0
357667,244,-2080,71,-57,43,124,8094,-15,-20,261,80,35188,68,35,127,0,0,2583,0,0,1128,130,173,24479,-4,0,107,14,357643,0
357677,247,-2072,78,-55,41,126,8095,-1,2,272,104,35191,47,35,127,0,0,2586,21,0,1128,130,173,24489,-4,0,107,14,357643,0
357687,234,-2075,77,-54,40,132,8098,2,5,302,72,35186,47,35,127,0,0,2586,0,0,1128,130,173,24499,-4,0,107,14,357643,0
357697,232,-2073,73,-57,41,129,8097,12,-2,305,88,35198,64,35,127,0,0,2586,21,0,1128,130,173,24509,-4,0,107,14,357674,0
357707,227,-2082,77,-55,39,131,8097,2,0,308,88,35195,78,35,127,0,0,2586,0,0,1128,130,173,24519,-4,0,107,14,357674,0
357717,232,-2076,77,-55,42,131,8097,-1,-1,318,88,35193,75,35,127,0,0,2588,21,0,1128,130,173,24529,-4,0,107,14,357674,0
357727,228,-2078,76,-54,44,135,8098,0,2,337,88,35202,63,35,127,0,0,2588,10,0,1128,130,173,24539,-4,0,107,14,357706,0
357737,235,-2083,73,-55,37,134,8098,-2,-2,334,120,35200,37,35,127,0,0,2586,10,0,1128,130,173,24549,-4,0,107,14,357721,0
357747,227,-2082,69,-58,37,133,8097,-4,-3,314,88,35198,29,35,127,0,0,2586,10,0,1128,130,173,24559,-4,0,107,14,357721,0
357757,243,-2079,80,-59,42,129,8099,9,3,365,96,35193,34,35,127,0,0,2588,0,0,1128,130,173,24569,-4,0,107,14,357721,0
357767,234,-2080,72,-56,43,129,8100,6,3,378,96,35198,47,35,127,0,0,2586,-21,0,1128,130,173,24579,-4,0,107,14,357753,0
357777,225,-2075,76,-52,41,139,8101,-5,-3,351,112,35208,39,35,127,0,0,2590,21,0,1128,130,173,24589,-4,0,107,14,357753,0
357787,230,-2088,71,-53,45,144,8103,4,1,389,120,35211,51,35,127,0,0,2592,32,0,1128,130,173,24599,-4,0,107,14,357753,0
357797,231,-2081,72,-52,43,143,8105,11,4,411,120,35208,50,35,127,0,0,2590,0,0,1128,130,173,24609,-4,0,107,14,357799,0
357807,236,-2078,73,-47,44,148,8106,-3,-2,425,104,35200,48,35,127,0,0,2590,0,0,1128,130,173,24619,-4,0,107,14,357815,0
357817,232,-2076,76,-48,37,155,8108,1,3,401,144,35201,41,35,127,0,0,2592,21,0,1128,130,173,24629,-4,0,107,14,357815,0
357827,227,-2079,70,-47,44,151,8110,3,4,424,128,35201,42,35,127,0,0,2592,0,0,1128,130,173,24639,-4,0,107,14,357815,0
357837,228,-2076,68,-42,51,155,8111,3,-1,432,112,35196,57,35,127,0,0,2594,10,0,1128,130,173,24649,-4,0,107,14,357815,0
357847,223,-2077,71,-40,54,163,8114,9,0,427,152,35193,53,35,127,0,0,2594,32,0,1128,130,173,24659,-4,0,107,14,357815,0
357857,236,-2074,67,-31,55,167,8122,23,17,432,80,35195,62,35,127,0,0,2594,0,0,1128,130,173,24669,-4,0,107,14,357831,0
357867,226,-2079,76,-23,57,175,8141,50,33,327,104,35200,67,35,127,0,0,2597,32,0,1128,130,173,24679,-4,0,107,14,357831,0
357877,258,-2086,70,-20,44,198,8164,23,29,210,56,35208,67,35,127,0,0,2599,32,0,1128,130,173,24689,-4,0,107,14,357878,0
357887,205,-2088,72,-9,60,196,8162,5,-50,303,88,35204,41,35,127,0,0,2601,43,0,1128,130,173,24699,-4,0,107,14,357878,0
357897,233,-2083,77,-4,62,197,8162,-4,-32,362,104,35205,19,35,127,0,0,2601,0,0,1128,130,173,24709,-4,0,107,14,357893,0
357907,241,-2084,81,-1,59,198,8164,7,10,398,120,35201,20,35,127,0,0,2605,32,0,1128,130,173,24719,-4,0,107,14,357924,0
357917,217,-2080,82,-4,58,212,8170,16,12,467,152,35201,24,35,127,0,0,2608,0,0,1128,130,173,24729,-4,0,107,14,357940,0
357928,230,-2081,82,-1,62,215,8172,0,0,482,168,35199,37,35,127,0,0,2610,32,0,1128,130,173,24740,-4,0,107,14,357940,0
357938,224,-2077,82,5,60,220,8177,17,-5,535,200,35204,24,35,127,0,0,2614,71,0,1128,130,173,24750,-4,0,107,14,357940,0
357948,221,-2076,83,11,62,225,8186,18,17,565,176,35210,25,35,127,0,0,2614,27,0,1128,130,173,24760,-4,0,107,14,357940,0
357958,208,-2081,76,14,68,219,8207,53,21,480,136,35212,15,35,127,0,0,2621,43,0,1128,130,173,24770,-4,0,107,14,357940,0
357968,210,-2080,71,16,67,222,8236,56,41,374,120,35208,24,35,127,0,0,2622,49,0,1128,130,173,24780,-4,0,107,14,357940,0
357978,196,-2082,78,25,66,213,8247,14,-24,449,120,35205,35,35,127,0,0,2621,-5,0,1128,130,173,24790,-4,0,107,14,357940,0
357988,215,-2086,90,24,71,217,8254,28,-46,424,144,35215,54,35,127,0,0,2622,21,0,1128,130,173,24800,-4,0,107,14,357971,0
357998,227,-2086,109,23,65,226,8279,76,31,354,112,35214,68,35,127,0,0,2627,5,0,1128,130,173,24810,-4,0,107,14,357971,0
358008,239,-2088,117,12,53,245,8311,45,51,233,48,35213,84,35,127,0,0,2631,27,0,1128,130,173,24820,-4,0,107,14,357971,0
358018,192,-2080,106,6,43,234,8311,-4,-53,343,112,35207,72,35,127,0,0,2634,38,0,1128,130,173,24830,-4,0,107,14,357987,0
358028,194,-2078,84,6,51,231,8318,16,-45,366,120,35214,49,35,127,0,0,2636,32,0,1128,130,173,24840,-4,0,107,14,358002,0
358038,196,-2074,88,5,50,218,8339,58,39,345,96,35228,17,35,127,0,0,2642,27,0,1128,130,173,24850,-4,0,107,14,358018,0
358048,203,-2082,117,8,46,229,8360,21,27,296,96,35224,24,35,127,0,0,2643,5,0,1128,130,173,24860,-4,0,107,14,358018,0
358058,162,-2084,115,-1,44,211,8358,0,-52,422,104,35219,30,35,127,0,0,2649,27,0,1128,130,173,24870,-4,0,107,14,358065,0
358068,196,-2071,109,2,54,208,8362,8,-32,496,136,35210,50,35,127,0,0,2647,0,0,1128,130,173,24880,-4,0,107,14,358065,0
358078,207,-2081,111,-7,43,205,8367,21,8,525,144,35213,34,35,127,0,0,2649,-16,0,1128,130,173,24890,-4,0,107,14,358081,0
358088,200,-2083,119,-3,42,210,8368,8,5,551,184,35218,34,35,127,0,0,2651,-5,0,1128,130,173,24900,-4,0,107,14,358081,0
358098,178,-2085,123,-23,44,214,8378,22,12,539,184,35219,38,35,127,0,0,2656,16,0,1128,130,173,24910,-4,0,107,14,358081,0
358108,182,-2082,119,-15,50,194,8394,54,25,557,152,35213,38,35,127,0,0,2659,-16,0,1128,130,173,24920,-4,0,107,14,358081,0
358118,197,-2077,103,-26,44,201,8430,77,53,356,120,35214,28,35,127,0,0,2664,54,0,1128,130,173,24930,-4,0,107,14,358081,0
358128,189,-2069,106,-24,38,193,8443,8,-3,391,112,35208,35,35,127,0,0,2663,43,0,1128,130,173,24940,-4,0,107,14,358096,0
358138,161,-2087,102,-23,57,182,8450,24,-61,450,144,35200,40,35,127,0,0,2660,-38,0,1128,130,173,24950,-4,0,107,14,358112,0
358148,192,-2079,112,-26,56,173,8472,46,19,319,104,35203,43,35,127,0,0,2670,54,0,1128,130,173,24960,-4,0,107,14,358112,0
358159,207,-2083,121,-33,38,178,8490,12,13,310,80,35212,51,35,127,0,0,2667,-21,0,1128,130,173,24971,-4,0,107,14,358143,0
358169,165,-2075,102,-36,47,165,8489,6,-55,358,80,35217,49,35,127,0,0,2669,-32,0,1128,130,173,24981,-4,0,107,14,358143,0
358179,191,-2068,107,-34,52,165,8488,-2,-27,367,104,35216,51,35,127,0,0,2671,21,0,1128,130,173,24991,-4,0,107,14,358143,0
358189,203,-2078,123,-36,51,165,8489,-7,3,396,136,35211,30,35,127,0,0,2674,21,0,1128,130,173,25001,-4,0,107,14,358159,0
358199,194,-2087,119,-37,47,166,8492,8,6,434,88,35210,51,35,127,0,0,2674,0,0,1128,130,173,25011,-4,0,107,14,358174,0
358209,179,-2081,110,-41,47,168,8494,9,0,448,120,35215,38,35,127,0,0,2676,32,0,1128,130,173,25021,-4,0,107,14,358174,0
358219,180,-2090,104,-33,56,164,8496,11,3,488,128,35213,45,35,127,0,0,2678,0,0,1128,130,173,25031,-4,0,107,14,358190,0
358229,189,-2084,115,-38,50,163,8500,3,3,487,112,35219,46,35,127,0,0,2676,-32,0,1128,130,173,25041,-4,0,107,14,358206,0
358239,189,-2090,111,-36,42,161,8500,-3,-13,477,144,35220,76,35,127,0,0,2680,32,0,1128,130,173,25051,-4,0,107,14,358206,0
358249,173,-2091,101,-29,52,165,8510,25,5,533,120,35219,63,35,127,0,0,2682,10,0,1128,130,173,25061,-4,0,107,14,358206,0
358259,160,-2084,102,-30,50,159,8526,45,35,441,104,35213,43,35,127,0,0,2682,10,0,1128,130,173,25071,-4,0,107,14,358299,0
358269,172,-2082,108,-25,55,150,8554,54,38,287,88,35206,51,35,127,0,0,2685,21,0,1128,130,173,25081,-4,0,107,14,358299,0
358279,155,-2069,121,-14,56,128,8553,4,-40,339,80,35208,58,35,127,0,0,2682,-10,0,1128,130,173,25091,-4,0,107,14,358299,0
358289,172,-2073,104,-19,61,112,8553,-5,-48,325,104,35213,50,35,127,0,0,2685,21,0,1128,130,173,25101,-4,0,107,14,358299,0
358299,172,-2074,121,-17,58,106,8553,3,5,388,88,35218,43,35,127,0,0,2685,-21,0,1128,130,173,25111,-4,0,107,14,358299,0
358309,143,-2079,142,-25,50,104,8554,9,-2,370,56,35213,54,35,127,0,0,2682,-32,0,1128,130,173,25121,-4,0,107,14,358299,0
358319,154,-2070,150,-31,44,94,8552,-5,2,356,88,35206,79,35,127,0,0,2685,10,0,1128,130,173,25131,-4,0,107,14,358299,0
358329,168,-2060,131,-39,41,86,8551,-14,1,348,128,35200,73,35,127,0,0,2682,0,0,1128,130,173,25141,-4,0,107,14,358299,0
358339,206,-2072,117,-44,36,80,8552,-13,0,320,72,35204,61,35,127,0,0,2682,0,0,1128,130,173,25151,-4,0,107,14,358315,0
358349,168,-2067,139,-48,38,70,8552,-2,-1,342,64,35211,57,35,127,0,0,2682,-32,0,1128,130,173,25161,-4,0,107,14,358315,0
358359,156,-2079,134,-53,38,64,8554,2,-5,285,96,35226,57,35,127,0,0,2682,10,0,1128,130,173,25171,-4,0,107,14,358331,0
358369,186,-2076,117,-56,34,51,8552,3,3,288,88,35228,66,34,127,0,0,2682,10,0,1128,130,173,25181,-4,0,107,14,358331,0
358379,178,-2087,114,-51,36,50,8552,-1,8,278,88,35228,43,35,127,0,0,2680,-21,0,1128,130,173,25191,-4,0,107,14,358346,0
358389,199,-2083,116,-48,39,49,8550,-5,-8,221,48,35220,33,35,127,0,0,2678,10,0,1128,130,173,25201,-4,0,107,14,358362,0
358399,207,-2083,108,-50,29,44,8551,8,-1,206,40,35218,42,35,127,0,0,2676,-21,0,1128,130,173,25211,-4,0,107,14,358362,0
358410,206,-2084,115,-45,40,48,8550,1,5,152,24,35225,53,35,127,0,0,2672,-76,0,1128,130,173,25222,-4,0,107,14,358393,0
358420,216,-2077,110,-46,35,56,8546,-5,-6,75,8,35225,56,35,127,0,0,2677,5,0,1128,130,173,25232,-4,0,107,14,358393,0
358430,218,-2085,108,-31,43,77,8547,1,3,60,8,35222,53,35,127,0,0,2674,16,0,1128,130,173,25242,-4,0,107,14,358393,0
358440,200,-2086,112,-32,41,85,8545,-8,6,31,-8,35217,46,35,127,0,0,2668,-54,0,1128,130,173,25252,-4,0,107,14,358424,0
358450,213,-2083,109,-18,42,91,8543,-5,-4,-26,0,35217,67,34,127,0,0,2671,-10,0,1128,130,173,25262,-4,0,107,14,358424,0
358460,218,-2074,101,-24,36,102,8543,-4,0,8,0,35218,66,34,127,0,0,2675,27,0,1128,130,173,25272,-4,0,107,14,358424,0
358470,201,-2081,116,-12,50,114,8543,-1,1,4,0,35217,64,35,127,0,0,2671,16,0,1128,130,173,25282,-4,0,107,14,358440,0
358480,195,-2087,118,-2,49,118,8545,10,4,18,-8,35216,48,35,127,0,0,2671,-16,0,1128,130,173,25292,-4,0,107,14,358455,0
358490,196,-2075,128,-3,53,121,8542,-4,-1,6,0,35220,58,35,127,0,0,2671,0,0,1128,130,173,25302,-4,0,107,14,358471,0
358500,194,-2078,131,-2,42,124,8543,-2,0,1,0,35222,58,35,127,0,0,2668,-32,0,1128,130,173,25312,-4,0,107,14,358471,0
358510,179,-2068,120,-5,49,126,8542,-5,-1,-38,0,35214,47,35,127,0,0,2671,5,0,1128,130,173,25322,-4,0,107,14,358471,0
358520,196,-2076,114,2,48,124,8543,1,-1,-3,-24,35216,35,35,127,0,0,2676,27,0,1128,130,173,25332,-4,0,107,14,358487,0
358530,186,-2078,138,-2,54,130,8542,-1,-3,0,0,35228,34,35,127,0,0,2675,71,0,1128,130,173,25342,-4,0,107,14,358507,0
358540,188,-2080,134,-4,52,126,8545,2,4,61,-8,35233,71,35,127,0,0,2671,-32,0,1128,130,173,25352,-4,0,107,14,358507,0
358550,199,-2082,136,-12,45,120,8543,7,-2,34,0,35221,62,35,127,0,0,2675,38,0,1128,130,173,25362,-4,0,107,14,358507,0
358560,184,-2077,142,-13,43,120,8542,-12,-4,28,0,35213,52,35,127,0,0,2671,32,0,1128,130,173,25372,-4,0,107,14,358538,0
358570,183,-2066,149,-22,45,117,8544,0,3,25,-8,35207,54,35,127,0,0,2675,-10,0,1128,130,173,25382,-4,0,107,14,358554,0
358580,156,-2069,154,-26,50,119,8545,5,12,38,16,35206,51,35,127,0,0,2670,0,0,1128,130,173,25392,-4,0,107,14,358554,0
358590,195,-2087,150,-30,42,114,8543,2,-4,38,0,35210,53,35,127,0,0,2671,-43,0,1128,130,173,25402,-4,0,107,14,358554,0
358600,178,-2076,148,-29,42,106,8544,2,2,28,16,35207,50,35,127,0,0,2670,-32,0,1128,130,173,25412,-4,0,107,14,358569,0
358610,194,-2082,130,-38,29,111,8543,7,-3,52,16,35211,67,35,127,0,0,2674,-10,0,1128,130,173,25422,-4,0,107,14,358647,0
358620,182,-2076,139,-41,36,105,8543,4,3,56,16,35220,90,34,127,0,0,2674,0,0,1128,130,173,25432,-4,0,107,14,358663,0
358630,196,-2075,141,-40,32,103,8544,0,2,29,-8,35225,70,34,127,0,0,2671,-5,0,1128,130,173,25442,-4,0,107,14,358663,0
358640,195,-2084,151,-46,36,101,8544,5,2,-25,-8,35220,67,34,127,0,0,2671,21,0,1128,130,173,25452,-4,0,107,14,358663,0
358650,209,-2084,146,-55,31,109,8544,1,5,-30,-8,35212,63,35,127,0,0,2671,21,0,1128,130,173,25462,-4,0,107,14,358663,0
358660,201,-2091,136,-50,29,112,8543,-1,2,-30,0,35210,53,35,127,0,0,2671,32,0,1128,130,173,25472,-4,0,107,14,358678,0
358670,200,-2075,138,-51,34,104,8543,7,-3,27,0,35211,52,35,127,0,0,2671,-16,0,1128,130,173,25482,-4,0,107,14,358678,0
358680,191,-2078,140,-51,30,110,8542,-7,-5,3,-24,35209,54,35,127,0,0,2672,16,0,1128,130,173,25492,-4,0,107,14,358678,0
358690,173,-2082,150,-48,38,114,8543,4,-3,-6,0,35204,48,35,127,0,0,2671,-21,0,1128,130,173,25502,-4,0,107,14,358678,0
358701,229,-2073,134,-54,42,118,8545,6,8,45,16,35205,45,35,127,0,0,2674,-10,0,1128,130,173,25513,-4,0,107,14,358678,0
358711,189,-2082,136,-49,42,123,8543,3,-1,19,0,35219,35,35,127,0,0,2671,0,0,1128,130,173,25523,-4,0,107,14,358678,0
358721,193,-2075,135,-54,39,124,8542,-12,-4,-19,8,35222,52,35,127,0,0,2669,-10,0,1128,130,173,25533,-4,0,107,14,358694,0
358731,217,-2080,135,-56,39,120,8542,-3,-3,-24,0,35228,47,35,127,0,0,2671,32,0,1128,130,173,25543,-4,0,107,14,358725,0
358741,193,-2074,154,-58,44,117,8543,-7,1,22,0,35231,59,34,127,0,0,2671,10,0,1128,130,173,25553,-4,0,107,14,358725,0
358751,207,-2081,149,-58,39,117,8544,8,0,0,8,35234,58,34,127,0,0,2671,-10,0,1128,130,173,25563,-4,0,107,14,358725,0
358761,207,-2071,146,-65,43,117,8543,3,-1,12,-16,35227,61,35,127,0,0,2671,-10,0,1128,130,173,25573,-4,0,107,14,358725,0
358771,177,-2079,144,-62,34,113,8543,1,1,45,16,35219,56,35,127,0,0,2674,0,0,1128,130,173,25583,-4,0,107,14,358757,0
358781,156,-2080,146,-65,31,114,8542,-3,-4,-13,8,35215,36,35,127,0,0,2671,10,0,1128,130,173,25593,-4,0,107,14,358757,0
358791,191,-2083,141,-61,35,116,8543,0,0,13,-16,35219,40,34,127,0,0,2671,-10,0,1128,130,173,25603,-4,0,107,14,358757,0
358801,185,-2085,143,-67,35,113,8544,6,2,40,16,35226,38,35,127,0,0,2674,-10,0,1128,130,173,25613,-4,0,107,14,358772,0
358811,170,-2071,146,-67,39,109,8542,-4,-5,33,-8,35211,56,35,127,0,0,2671,-10,0,1128,130,173,25623,-4,0,107,14,358772,0
358821,190,-2084,145,-68,36,111,8543,-1,-5,1,0,35218,50,35,127,0,0,2669,-21,0,1128,130,173,25633,-4,0,107,14,358803,0
358831,214,-2076,139,-69,36,112,8543,-2,2,22,-16,35224,56,35,127,0,0,2674,0,0,1128,130,173,25643,-4,0,107,14,358803,0
358841,192,-2080,140,-69,31,122,8542,-3,1,36,0,35234,44,35,127,0,0,2671,-32,0,1128,130,173,25653,-4,0,107,14,358803,0
358851,182,-2085,129,-63,33,120,8542,0,-3,-30,8,35229,34,35,127,0,0,2674,32,0,1128,130,173,25663,-4,0,107,14,358835,0
358861,203,-2087,132,-61,40,122,8543,0,2,18,0,35216,34,35,127,0,0,2671,-10,0,1128,130,173,25673,-4,0,107,14,358835,0
358871,188,-2087,125,-61,41,120,8544,14,5,19,-16,35212,38,35,127,0,0,2671,0,0,1128,130,173,25683,-4,0,107,14,358835,0
358881,185,-2079,147,-56,34,121,8543,-8,5,27,0,35214,34,35,127,0,0,2671,0,0,1128,130,173,25693,-4,0,107,14,358850,0
358891,203,-2067,144,-57,43,126,8544,7,3,-4,-8,35217,43,35,127,0,0,2674,21,0,1128,130,173,25703,-4,0,107,14,358866,0
358901,204,-2085,133,-54,46,130,8544,3,5,18,24,35219,34,35,127,0,0,2671,10,0,1128,130,173,25713,-4,0,107,14,358866,0
358912,218,-2073,136,-50,48,128,8543,-4,-6,2,0,35219,50,35,127,0,0,2671,0,0,1128,130,173,25724,-4,0,107,14,358897,0
358922,188,-2074,139,-52,53,129,8544,6,-1,23,-8,35231,26,35,127,0,0,2671,-16,0,1128,130,173,25734,-4,0,107,14,358897,0
358932,191,-2075,133,-48,50,139,8543,3,-1,2,0,35236,30,35,127,0,0,2671,0,0,1128,130,173,25744,-4,0,107,14,358897,0
358942,203,-2080,136,-39,53,138,8543,5,-3,-14,16,35235,34,35,127,0,0,2670,21,0,1128,130,173,25754,-4,0,107,14,358913,0
358952,220,-2081,131,-41,59,141,8543,-7,5,24,0,35230,36,35,127,0,0,2671,-43,0,1128,130,173,25764,-4,0,107,14,358928,0
358962,188,-2074,141,-33,49,139,8543,1,0,-2,0,35226,54,35,127,0,0,2671,0,0,1128,130,173,25774,-4,0,107,14,358928,0
358972,183,-2071,125,-32,53,138,8543,-2,-4,15,16,35227,48,34,127,0,0,2670,-10,0,1128,130,173,25784,-4,0,107,14,359022,0
358982,174,-2079,133,-29,62,131,8543,2,3,5,0,35223,47,34,127,0,0,2675,32,0,1128,130,173,25794,-4,0,107,14,359022,0
358992,192,-2079,152,-27,63,135,8543,2,2,14,0,35216,48,35,127,0,0,2675,43,0,1128,130,173,25804,-4,0,107,14,359022,0
359002,218,-2083,166,-37,63,146,8543,-1,2,22,16,35212,30,35,127,0,0,2674,21,0,1128,130,173,25814,-4,0,107,14,359022,0
359012,207,-2094,170,-37,54,151,8545,5,3,50,-8,35214,9,35,127,0,0,2675,-10,0,1128,130,173,25824,-4,0,107,14,359038,0
359022,215,-2091,158,-41,56,159,8545,14,3,46,-8,35218,15,35,127,0,0,2671,-5,0,1128,130,173,25834,-4,0,107,14,359038,0
359032,196,-2083,149,-38,51,158,8544,8,-3,21,16,35222,7,35,127,0,0,2670,-21,0,1128,130,173,25844,-4,0,107,14,359038,0
359042,191,-2077,140,-39,48,166,8545,13,7,45,32,35224,8,35,127,0,0,2669,-32,0,1128,130,173,25854,-4,0,107,14,359038,0
359052,197,-2063,126,-36,49,166,8545,10,10,117,32,35226,13,35,127,0,0,2679,-5,0,1128,130,173,25864,-4,0,107,14,359038,0
359062,180,-2074,112,-25,42,175,8545,-9,-6,184,32,35227,21,35,127,0,0,2676,10,0,1128,130,173,25874,-4,0,107,14,359038,0
359072,176,-2076,123,-21,55,170,8549,9,-4,221,24,35222,28,35,127,0,0,2679,-43,0,1128,130,173,25884,-4,0,107,14,359069,0
359082,158,-2078,156,-9,66,164,8551,24,5,258,64,35231,30,35,127,0,0,2677,-71,0,1128,130,173,25894,-4,0,107,14,359069,0
359092,205,-2071,177,-12,64,164,8549,6,-3,255,88,35245,33,35,127,0,0,2682,21,0,1128,130,173,25904,-4,0,107,14,359069,0
359102,214,-2074,163,-14,52,181,8549,-9,0,286,88,35248,27,35,127,0,0,2682,16,0,1128,130,173,25914,-4,0,107,14,359069,0
359112,195,-2083,152,-9,55,183,8552,8,3,342,120,35237,25,35,127,0,0,2687,27,0,1128,130,173,25924,-4,0,107,14,359069,0
359122,202,-2082,159,-8,55,199,8554,0,3,386,120,35232,35,35,127,0,0,2687,43,0,1128,130,173,25934,-4,0,107,14,359116,0
359132,198,-2075,164,-6,53,206,8556,6,1,416,136,35237,37,35,127,0,0,2692,71,0,1128,130,173,25944,-4,0,107,14,359116,0
359142,187,-2080,158,-14,52,219,8560,11,3,462,168,35241,39,35,127,0,0,2693,38,0,1128,130,173,25954,-4,0,107,14,359116,0
359152,178,-2074,149,-9,42,222,8566,22,8,521,176,35238,32,35,127,0,0,2696,21,0,1128,130,173,25964,-4,0,107,14,359116,0
359163,173,-2073,148,-9,53,218,8580,33,14,509,200,35226,40,35,127,0,0,2702,76,0,1128,130,173,25975,-4,0,107,14,359132,0
359173,170,-2085,153,-7,50,220,8617,93,54,348,120,35230,43,35,127,0,0,2702,32,0,1128,130,173,25985,-4,0,107,14,359147,0
359183,185,-2076,178,-6,46,218,8630,-13,2,373,128,35238,36,35,127,0,0,2709,65,0,1128,130,173,25995,-4,0,107,14,359147,0
359193,133,-2087,164,-11,48,201,8633,11,-72,489,144,35238,19,35,127,0,0,2709,21,0,1128,130,173,26005,-4,0,107,14,359194,0
359203,159,-2078,167,-12,56,193,8637,6,-14,487,168,35235,15,35,127,0,0,2707,-10,0,1128,130,173,26015,-4,0,107,14,359210,0
359213,166,-2073,169,-14,53,175,8648,25,8,458,168,35226,22,34,127,0,0,2711,43,0,1128,130,173,26025,-4,0,107,14,359210,0
359223,153,-2082,167,-22,51,170,8674,68,43,366,136,35225,22,35,127,0,0,2713,10,0,1128,130,173,26035,-4,0,107,14,359210,0
359233,162,-2073,178,-28,46,161,8694,17,24,304,80,35221,13,35,127,0,0,2715,32,0,1128,130,173,26045,-4,0,107,14,359210,0
359243,141,-2081,173,-29,54,147,8698,9,-56,371,104,35218,7,35,127,0,0,2718,43,0,1128,130,173,26055,-4,0,107,14,359225,0
359253,156,-2068,182,-36,54,137,8700,17,-32,394,112,35232,11,35,127,0,0,2718,0,0,1128,130,173,26065,-4,0,107,14,359225,0
359263,167,-2070,186,-43,47,135,8715,47,24,350,104,35238,-5,35,127,0,0,2718,0,0,1128,130,173,26075,-4,0,107,14,359225,0
359273,168,-2075,186,-49,35,142,8746,60,51,143,32,35253,-12,35,127,0,0,2722,21,0,1128,130,173,26085,-4,0,107,14,359256,0
359283,139,-2078,188,-51,40,124,8743,-2,-33,238,48,35243,-19,35,127,0,0,2720,-32,0,1128,130,173,26095,-4,0,107,14,359256,0
359293,150,-2079,179,-59,48,126,8744,9,-55,208,72,35240,-3,35,127,0,0,2720,-21,0,1128,130,173,26105,-4,0,107,14,359256,0
359303,189,-2065,178,-61,41,125,8742,-9,-1,198,40,35231,19,35,127,0,0,2722,32,0,1128,130,173,26115,-4,0,107,14,359288,0
359313,172,-2072,182,-67,30,128,8744,-16,4,229,72,35230,11,35,127,0,0,2722,43,0,1128,130,173,26125,-4,0,107,14,359288,0
359323,158,-2084,170,-74,30,126,8747,-4,7,266,64,35227,22,35,127,0,0,2722,10,0,1128,130,173,26135,-4,0,107,14,359288,0
359333,176,-2077,175,-78,37,116,8747,-3,-3,259,72,35222,16,35,127,0,0,2722,0,0,1128,130,173,26145,-4,0,107,14,359319,0
359343,182,-2082,173,-81,37,123,8747,0,-3,274,88,35228,14,35,127,0,0,2720,-21,0,1128,130,173,26155,-4,0,107,14,359319,0
359353,162,-2069,180,-80,36,120,8745,1,-4,241,64,35231,6,35,127,0,0,2722,0,0,1128,130,173,26165,-4,0,107,14,359366,0
359363,181,-2079,185,-78,32,119,8744,-17,-2,239,64,35233,8,35,127,0,0,2722,10,0,1128,130,173,26175,-4,0,107,14,359366,0
359373,193,-2073,201,-88,39,118,8746,-4,3,214,32,35222,12,35,127,0,0,2722,21,0,1128,130,173,26185,-4,0,107,14,359381,0
359383,180,-2080,190,-98,37,123,8747,1,2,281,56,35222,16,35,127,0,0,2722,-21,0,1128,130,173,26195,-4,0,107,14,359381,0
359393,151,-2082,169,-101,30,128,8749,12,-3,266,88,35227,14,35,127,0,0,2724,0,0,1128,130,173,26205,-4,0,107,14,359381,0
359403,151,-2081,178,-103,30,122,8747,-13,-10,271,88,35240,9,35,127,0,0,2724,21,0,1128,130,173,26215,-4,0,107,14,359381,0
359414,159,-2082,177,-103,29,124,8748,-5,2,294,72,35233,6,35,127,0,0,2724,16,0,1128,130,173,26226,-4,0,107,14,359381,0
359424,160,-2092,172,-107,28,121,8749,-2,6,309,96,35228,13,35,127,0,0,2726,54,0,1128,130,173,26236,-4,0,107,14,359381,0
359434,186,-2082,177,-115,22,119,8751,2,4,351,72,35230,17,35,127,0,0,2727,27,0,1128,130,173,26246,-4,0,107,14,359428,0
359444,158,-2081,173,-117,26,118,8748,-9,-5,278,80,35237,27,35,127,0,0,2724,54,0,1128,130,173,26256,-4,0,107,14,359428,0
359454,195,-2078,165,-115,27,115,8750,0,-2,251,72,35236,16,35,127,0,0,2721,16,0,1128,130,173,26266,-4,0,107,14,359428,0
359464,187,-2088,158,-113,33,117,8751,8,7,260,48,35228,23,35,127,0,0,2725,0,0,1128,130,173,26276,-4,0,107,14,359428,0
359474,164,-2077,163,-112,25,120,8749,7,-2,249,56,35220,18,35,127,0,0,2725,43,0,1128,130,173,26286,-4,0,107,14,359444,0
359484,160,-2073,169,-115,30,118,8750,0,2,276,56,35228,2,35,127,0,0,2722,-16,0,1128,130,173,26296,-4,0,107,14,359475,0
359494,174,-2080,165,-118,22,118,8750,12,2,286,72,35225,-4,35,127,0,0,2724,-10,0,1128,130,173,26306,-4,0,107,14,359475,0
359504,165,-2077,173,-120,28,117,8749,-2,-1,288,56,35222,3,35,127,0,0,2725,10,0,1128,130,173,26316,-4,0,107,14,359475,0
359514,174,-2071,173,-115,23,120,8750,-5,2,243,56,35214,5,35,127,0,0,2722,10,0,1128,130,173,26326,-4,0,107,14,359475,0
359524,170,-2087,172,-120,33,120,8750,1,-1,224,56,35221,6,35,127,0,0,2725,32,0,1128,130,173,26336,-4,0,107,14,359506,0
359534,169,-2081,156,-124,26,126,8750,2,5,256,56,35227,21,35,127,0,0,2722,10,0,1128,130,173,26346,-4,0,107,14,359506,0
359544,161,-2086,149,-119,26,123,8749,3,2,240,72,35228,19,35,127,0,0,2721,0,0,1128,130,173,26356,-4,0,107,14,359506,0
359554,180,-2078,148,-115,32,116,8749,-5,-3,232,72,35227,26,35,127,0,0,2721,5,0,1128,130,173,26366,-4,0,107,14,359538,0
359564,187,-2082,153,-118,31,125,8749,-7,-2,248,72,35229,16,35,127,0,0,2721,-10,0,1128,130,173,26376,-4,0,107,14,359538,0
359574,181,-2074,163,-109,27,126,8749,-2,-4,259,72,35228,24,35,127,0,0,2721,-10,0,1128,130,173,26386,-4,0,107,14,359538,0
359584,184,-2079,156,-107,25,130,8750,0,0,263,72,35226,22,35,127,0,0,2724,16,0,1128,130,173,26396,-4,0,107,14,359569,0
359594,171,-2075,146,-99,38,133,8749,-8,-1,289,72,35218,29,35,127,0,0,2724,0,0,1128,130,173,26406,-4,0,107,14,359569,0
359604,183,-2078,146,-93,36,133,8752,5,0,332,72,35215,20,35,127,0,0,2727,0,0,1128,130,173,26416,-4,0,107,14,359569,0
359614,163,-2084,154,-86,38,138,8752,11,4,373,88,35218,25,35,127,0,0,2726,0,0,1128,130,173,26426,-4,0,107,14,359585,0
359624,160,-2085,163,-86,38,142,8752,7,-2,378,88,35219,36,35,127,0,0,2726,-16,0,1128,130,173,26436,-4,0,107,14,359600,0
359634,166,-2076,159,-85,33,137,8753,-3,1,360,88,35211,52,35,127,0,0,2726,-5,0,1128,130,173,26446,-4,0,107,14,359600,0
359644,173,-2081,157,-87,38,137,8753,0,2,377,112,35209,44,35,127,0,0,2729,16,0,1128,130,173,26456,-4,0,107,14,359616,0
359654,174,-2074,160,-80,40,128,8754,2,6,415,128,35213,24,35,127,0,0,2727,-10,0,1128,130,173,26466,-4,0,107,14,359616,0
359665,155,-2080,158,-81,37,131,8756,1,2,420,136,35225,41,35,127,0,0,2731,10,0,1128,130,173,26477,-4,0,107,14,359631,0
359675,163,-2076,162,-75,42,126,8758,3,-1,426,120,35231,22,34,127,0,0,2731,21,0,1128,130,173,26487,-4,0,107,14,359647,0
359685,167,-2071,169,-82,34,126,8760,5,-1,435,144,35231,40,34,127,0,0,2731,21,0,1128,130,173,26497,-4,0,107,14,359663,0
359695,172,-2076,171,-89,28,118,8760,0,-8,434,112,35223,19,35,127,0,0,2733,21,0,1128,130,173,26507,-4,0,107,14,359663,0
359705,170,-2080,176,-93,40,121,8761,5,0,434,144,35213,7,35,127,0,0,2731,10,0,1128,130,173,26517,-4,0,107,14,359772,0
359715,179,-2084,174,-98,29,124,8764,2,5,432,136,35211,27,35,127,0,0,2733,0,0,1128,130,173,26527,-4,0,107,14,359772,0
359725,151,-2087,177,-99,31,116,8764,5,-3,452,128,35214,18,35,127,0,0,2731,-43,0,1128,130,173,26537,-4,0,107,14,359772,0
359735,148,-2081,168,-103,34,106,8764,5,-5,413,136,35218,26,35,127,0,0,2733,10,0,1128,130,173,26547,-4,0,107,14,359788,0
359745,169,-2088,169,-113,29,105,8767,10,8,455,152,35220,11,35,127,0,0,2733,0,0,1128,130,173,26557,-4,0,107,14,359788,0
359755,167,-2082,170,-114,31,100,8769,2,3,407,96,35220,10,35,127,0,0,2733,32,0,1128,130,173,26567,-4,0,107,14,359788,0
359765,182,-2081,170,-119,32,95,8769,1,-5,441,120,35225,19,35,127,0,0,2733,10,0,1128,130,173,26577,-4,0,107,14,359788,0
359775,174,-2078,162,-124,31,95,8771,9,2,436,80,35224,18,35,127,0,0,2731,-21,0,1128,130,173,26587,-4,0,107,14,359788,0
359785,173,-2084,166,-123,28,102,8770,0,-3,408,96,35225,13,35,127,0,0,2733,10,0,1128,130,173,26597,-4,0,107,14,359788,0
359795,165,-2071,163,-126,28,104,8771,-4,-2,415,80,35227,7,35,127,0,0,2733,43,0,1128,130,173,26607,-4,0,107,14,359788,0
359805,175,-2066,162,-134,32,100,8773,9,0,414,112,35226,14,35,127,0,0,2733,0,0,1128,130,173,26617,-4,0,107,14,359788,0
359815,170,-2075,165,-136,29,110,8771,-3,0,411,80,35220,18,35,127,0,0,2733,-10,0,1128,130,173,26627,-4,0,107,14,359788,0
359825,186,-2080,157,-136,31,116,8773,9,1,432,112,35225,25,35,127,0,0,2731,-32,0,1128,130,173,26637,-4,0,107,14,359788,0
359835,176,-2082,158,-132,21,110,8771,-11,1,351,96,35232,19,34,127,0,0,2731,0,0,1128,130,173,26647,-4,0,107,14,359803,0
359845,174,-2073,164,-135,30,120,8774,5,0,390,104,35249,9,34,127,0,0,2733,-10,0,1128,130,173,26657,-4,0,107,14,359819,0
359855,164,-2077,164,-141,26,117,8776,12,8,426,72,35237,35,35,127,0,0,2733,-43,0,1128,130,173,26667,-4,0,107,14,359834,0
359865,161,-2087,163,-144,25,126,8776,0,-3,352,112,35221,39,35,127,0,0,2731,0,0,1128,130,173,26677,-4,0,107,14,359834,0
359875,181,-2076,162,-149,23,120,8776,0,-1,353,80,35222,59,35,127,0,0,2733,10,0,1128,130,173,26687,-4,0,107,14,359834,0
359885,179,-2088,172,-153,24,124,8778,9,2,381,72,35224,31,35,127,0,0,2733,10,0,1128,130,173,26697,-4,0,107,14,359866,0
359895,153,-2084,172,-161,18,126,8778,3,-6,396,96,35222,32,35,127,0,0,2733,0,0,1128,130,173,26707,-4,0,107,14,359866,0
359905,153,-2079,161,-167,14,120,8783,17,1,376,88,35220,22,35,127,0,0,2733,10,0,1128,130,173,26717,-4,0,107,14,359866,0
359916,146,-2075,156,-170,15,115,8787,13,14,348,80,35220,38,35,127,0,0,2733,-5,0,1128,130,173,26728,-4,0,107,14,359897,0
359926,137,-2071,146,-173,16,97,8789,1,-2,297,80,35216,46,35,127,0,0,2736,49,0,1128,130,173,26738,-4,0,107,14,359897,0
359936,143,-2083,146,-175,17,96,8791,-1,-6,331,72,35221,47,35,127,0,0,2733,5,0,1128,130,173,26748,-4,0,107,14,359897,0
359946,140,-2083,132,-175,26,75,8790,-8,-8,292,72,35222,27,35,127,0,0,2736,32,0,1128,130,173,26758,-4,0,107,14,359913,0
359956,160,-2087,121,-169,22,74,8792,-1,-4,307,72,35213,40,35,127,0,0,2733,10,0,1128,130,173,26768,-4,0,107,14,359928,0
359966,173,-2086,121,-160,26,76,8791,-2,2,273,56,35216,48,35,127,0,0,2731,-32,0,1128,130,173,26778,-4,0,107,14,359928,0
359976,182,-2080,119,-141,24,75,8791,7,2,259,56,35213,46,35,127,0,0,2734,0,0,1128,130,173,26788,-4,0,107,14,359959,0
359986,193,-2081,126,-135,27,94,8792,-1,4,277,48,35212,57,35,127,0,0,2731,-10,0,1128,130,173,26798,-4,0,107,14,359959,0
359996,208,-2072,136,-121,21,100,8791,1,1,215,56,35207,52,35,127,0,0,2731,5,0,1128,130,173,26808,-4,0,107,14,359959,0
360006,196,-2076,135,-121,19,116,8791,1,6,223,56,35196,52,34,127,0,0,2727,-32,0,1128,130,173,26818,-4,0,107,14,359991,0
360016,203,-2086,129,-118,33,118,8791,7,5,233,56,35195,60,34,127,0,0,2731,-27,0,1128,130,173,26828,-4,0,107,14,359991,0
360026,175,-2080,129,-109,29,130,8791,1,-4,231,56,35201,61,35,127,0,0,2734,32,0,1128,130,173,26838,-4,0,107,14,359991,0
360036,175,-2077,112,-102,25,138,8792,0,0,241,72,35205,62,35,127,0,0,2733,49,0,1128,130,173,26848,-4,0,107,14,360022,0
360046,193,-2087,116,-88,34,146,8791,-4,7,255,56,35205,63,35,127,0,0,2734,16,0,1128,130,173,26858,-4,0,107,14,360022,0
360056,163,-2085,129,-85,34,152,8792,6,-3,244,48,35204,67,35,127,0,0,2734,32,0,1128,130,173,26868,-4,0,107,14,360022,0
360066,170,-2089,141,-82,32,163,8792,7,2,275,72,35202,73,35,127,0,0,2730,-5,0,1128,130,173,26878,-4,0,107,14,360053,0
360076,173,-2087,140,-75,26,170,8794,12,6,328,88,35216,89,35,127,0,0,2732,-49,0,1128,130,173,26888,-4,0,107,14,360053,0
360086,212,-2065,144,-79,25,180,8797,3,2,328,120,35216,89,35,127,0,0,2736,16,0,1128,130,173,26898,-4,0,107,14,360084,0
360096,158,-2088,132,-75,27,177,8804,23,7,416,112,35210,92,35,127,0,0,2743,0,0,1128,130,173,26908,-4,0,107,14,360100,0
360106,166,-2076,143,-71,34,176,8811,10,6,425,96,35198,92,35,127,0,0,2749,60,0,1128,130,173,26918,-4,0,107,14,360100,0
360116,159,-2079,145,-70,36,168,8813,17,-12,509,136,35200,95,35,127,0,0,2747,43,0,1128,130,173,26928,-4,0,107,14,360116,0
360126,172,-2074,146,-66,29,175,8814,0,2,501,152,35197,116,35,127,0,0,2749,16,0,1128,130,173,26938,-4,0,107,14,360116,0
360136,146,-2066,139,-73,35,165,8819,9,2,545,160,35187,110,35,127,0,0,2752,32,0,1128,130,173,26948,-4,0,107,14,360116,0
360146,139,-2074,142,-63,38,155,8825,21,7,537,168,35191,92,35,127,0,0,2750,0,0,1128,130,173,26958,-4,0,107,14,360116,0
360156,139,-2074,149,-71,46,146,8831,16,11,528,160,35207,68,35,127,0,0,2757,65,0,1128,130,173,26968,-4,0,107,14,360131,0
360167,146,-2088,161,-75,38,134,8852,55,26,409,152,35223,89,34,127,0,0,2750,0,0,1128,130,173,26979,-4,0,107,14,360163,0
360177,157,-2090,168,-88,37,121,8884,60,44,205,88,35217,85,34,127,0,0,2755,32,0,1128,130,173,26989,-4,0,107,14,360163,0
360187,131,-2093,165,-95,33,109,8885,-5,-42,279,72,35211,64,35,127,0,0,2753,-10,0,1128,130,173,26999,-4,0,107,14,360163,0
360197,152,-2081,153,-99,42,99,8886,11,-60,297,96,35198,37,35,127,0,0,2753,-21,0,1128,130,173,27009,-4,0,107,14,360163,0
360207,151,-2085,158,-105,31,94,8885,9,2,266,72,35201,37,35,127,0,0,2753,-21,0,1128,130,173,27019,-4,0,107,14,360178,0
360217,134,-2086,152,-110,30,94,8885,0,-1,242,48,35204,51,35,127,0,0,2755,10,0,1128,130,173,27029,-4,0,107,14,360194,0
360227,112,-2092,144,-116,29,85,8887,10,11,296,56,35199,51,35,127,0,0,2750,-32,0,1128,130,173,27039,-4,0,107,14,360194,0
360237,151,-2073,137,-117,34,70,8883,-4,-3,235,72,35197,49,35,127,0,0,2750,0,0,1128,130,173,27049,-4,0,107,14,360194,0
360247,186,-2069,149,-118,37,68,8884,-7,-1,226,72,35198,47,34,127,0,0,2750,-10,0,1128,130,173,27059,-4,0,107,14,360225,0
360257,157,-2076,151,-125,40,65,8885,1,3,211,80,35195,61,35,127,0,0,2750,-21,0,1128,130,173,27069,-4,0,107,14,360225,0
360267,167,-2073,160,-132,40,61,8884,0,-4,198,56,35190,54,35,127,0,0,2750,0,0,1128,130,173,27079,-4,0,107,14,360256,0
360277,165,-2075,157,-137,29,66,8884,0,4,198,48,35194,49,35,127,0,0,2750,0,0,1128,130,173,27089,-4,0,107,14,360272,0
360287,159,-2075,153,-146,29,61,8884,-4,5,198,48,35198,42,35,127,0,0,2750,0,0,1128,130,173,27099,-4,0,107,14,360272,0
360297,160,-2082,144,-144,29,54,8883,-13,-4,160,64,35205,50,35,127,0,0,2748,0,0,1128,130,173,27109,-4,0,107,14,360272,0
360307,152,-2088,148,-151,31,47,8881,-9,-1,103,16,35192,59,35,127,0,0,2746,-21,0,1128,130,173,27119,-4,0,107,14,360272,0
360317,159,-2084,141,-153,33,47,8880,6,-5,83,16,35196,59,35,127,0,0,2744,-21,0,1128,130,173,27129,-4,0,107,14,360287,0
360327,181,-2085,151,-153,28,44,8878,-7,-1,28,0,35203,48,35,127,0,0,2744,0,0,1128,130,173,27139,-4,0,107,14,360287,0
360337,172,-2093,136,-156,17,54,8876,-3,0,-8,-48,35212,51,35,127,0,0,2739,-43,0,1128,130,173,27149,-4,0,107,14,360319,0
360347,174,-2078,128,-157,29,45,8872,-4,-10,-51,-32,35202,57,35,127,0,0,2742,21,0,1128,130,173,27159,-4,0,107,14,360350,0
360357,195,-2079,132,-159,24,52,8874,-1,-1,-72,-24,35192,53,35,127,0,0,2737,-32,0,1128,130,173,27169,-4,0,107,14,360350,0
360367,184,-2076,141,-157,22,53,8868,-6,7,-162,-72,35191,44,34,127,0,0,2733,-43,0,1128,130,173,27179,-4,0,107,14,360350,0
360377,172,-2067,133,-155,33,63,8866,1,-6,-192,-48,35194,56,34,127,0,0,2735,-21,0,1128,130,173,27189,-4,0,107,14,360366,0
360387,187,-2061,128,-157,28,68,8863,-6,3,-249,-72,35197,78,35,127,0,0,2733,-21,0,1128,130,173,27199,-4,0,107,14,360366,0
360397,192,-2076,111,-143,32,73,8856,-16,-6,-263,-88,35205,77,35,127,0,0,2733,21,0,1128,130,173,27209,-4,0,107,14,360366,0
360407,182,-2084,101,-136,30,82,8855,-7,-1,-288,-96,35204,65,35,127,0,0,2729,-10,0,1128,130,173,27219,-4,0,107,14,360366,0
360418,190,-2094,93,-130,30,91,8844,-35,-8,-294,-56,35214,57,35,127,0,0,2727,5,0,1128,130,173,27230,-4,0,107,14,360397,0
360428,180,-2096,118,-123,35,93,8825,-51,-25,-168,-40,35209,79,35,127,0,0,2729,0,0,1128,130,173,27240,-4,0,107,14,360397,0
360438,183,-2089,113,-110,40,101,8804,-27,-21,43,8,35201,92,35,127,0,0,2729,0,0,1128,130,173,27250,-4,0,107,14,360412,0
360448,199,-2083,113,-108,36,111,8806,4,40,0,0,35190,74,35,127,0,0,2729,0,0,1128,130,173,27260,-4,0,107,14,360412,0
360458,193,-2091,125,-104,35,125,8806,1,36,-3,0,35194,70,35,127,0,0,2725,-32,0,1128,130,173,27270,-4,0,107,14,360428,0
360468,191,-2090,114,-94,34,126,8805,-4,-6,-21,8,35202,78,35,127,0,0,2729,16,0,1128,130,173,27280,-4,0,107,14,360428,0
360478,177,-2081,117,-92,36,132,8805,-3,-1,2,8,35202,85,35,127,0,0,2729,0,0,1128,130,173,27290,-4,0,107,14,360444,0
360488,177,-2076,126,-84,42,136,8806,-8,1,9,0,35197,88,35,127,0,0,2729,21,0,1128,130,173,27300,-4,0,107,14,360491,0
360498,154,-2068,146,-86,36,128,8805,-14,-7,-14,-16,35198,76,35,127,0,0,2730,10,0,1128,130,173,27310,-4,0,107,14,360491,0
360508,149,-2071,134,-94,36,125,8807,8,-3,1,0,35203,72,35,127,0,0,2729,0,0,1128,130,173,27320,-4,0,107,14,360491,0
360518,156,-2068,134,-96,32,124,8805,3,-2,9,8,35201,78,35,127,0,0,2729,0,0,1128,130,173,27330,-4,0,107,14,360491,0
360528,162,-2070,135,-101,36,122,8805,-1,-2,-9,-16,35197,74,35,127,0,0,2730,10,0,1128,130,173,27340,-4,0,107,14,360491,0
360538,161,-2072,131,-96,41,116,8808,6,4,-5,0,35203,73,35,127,0,0,2729,5,0,1128,130,173,27350,-4,0,107,14,360522,0
360548,138,-2083,143,-98,33,113,8806,6,-2,13,0,35210,67,34,127,0,0,2725,-32,0,1128,130,173,27360,-4,0,107,14,360522,0
360558,175,-2087,143,-106,31,100,8807,7,2,24,0,35209,79,35,127,0,0,2729,-27,0,1128,130,173,27370,-4,0,107,14,360537,0
360568,174,-2078,148,-109,32,101,8805,-5,-7,16,8,35194,79,35,127,0,0,2729,0,0,1128,130,173,27380,-4,0,107,14,360537,0
360578,185,-2083,126,-118,33,111,8805,-7,-2,10,-16,35193,79,35,127,0,0,2726,-38,0,1128,130,173,27390,-4,0,107,14,360553,0
360588,174,-2088,129,-122,30,103,8804,0,-2,-39,8,35201,80,34,127,0,0,2725,0,0,1128,130,173,27400,-4,0,107,14,360569,0
360598,151,-2083,129,-116,27,92,8806,-1,2,-34,0,35202,76,35,127,0,0,2729,32,0,1128,130,173,27410,-4,0,107,14,360569,0
360608,153,-2084,123,-121,27,98,8805,-7,-2,-5,8,35204,83,34,127,0,0,2729,27,0,1128,130,173,27420,-4,0,107,14,360569,0
360618,185,-2073,126,-123,33,81,8804,-5,-5,-85,-32,35198,80,34,127,0,0,2724,5,0,1128,130,173,27430,-4,0,107,14,360600,0
360628,153,-2072,132,-123,43,59,8799,-8,-13,-118,-24,35205,72,34,127,0,0,2724,0,0,1128,130,173,27440,-4,0,107,14,360600,0
360638,181,-2083,144,-119,37,63,8801,7,7,-133,-32,35196,59,35,127,0,0,2721,-5,0,1128,130,173,27450,-4,0,107,14,360600,0
360648,184,-2084,143,-124,34,68,8797,-5,4,-176,-40,35198,64,35,127,0,0,2722,0,0,1128,130,173,27460,-4,0,107,14,360616,0
360658,183,-2081,141,-133,24,64,8796,-10,-4,-197,-40,35203,76,35,127,0,0,2715,-27,0,1128,130,173,27470,-4,0,107,14,360631,0
360669,186,-2078,111,-134,24,76,8789,-12,-7,-251,-64,35211,70,35,127,0,0,2718,0,0,1128,130,173,27481,-4,0,107,14,360662,0
360679,182,-2078,97,-134,24,74,8784,-6,-6,-193,-56,35221,67,35,127,0,0,2718,-21,0,1128,130,173,27491,-4,0,107,14,360662,0
360689,195,-2081,103,-125,32,77,8777,-16,-3,-218,-64,35211,69,35,127,0,0,2715,10,0,1128,130,173,27501,-4,0,107,14,360662,0
360699,189,-2088,107,-124,26,80,8766,-25,-12,-137,-40,35207,75,35,127,0,0,2715,0,0,1128,130,173,27511,-4,0,107,14,360678,0
360709,203,-2092,114,-108,31,86,8756,-19,-3,-55,-16,35198,70,35,127,0,0,2713,-21,0,1128,130,173,27521,-4,0,107,14,360678,0
360719,222,-2085,116,-108,26,98,8757,0,20,-128,-40,35213,63,34,127,0,0,2713,-32,0,1128,130,173,27531,-4,0,107,14,360678,0
360729,189,-2075,103,-102,28,117,8749,-13,-5,-175,-48,35216,69,35,127,0,0,2713,32,0,1128,130,173,27541,-4,0,107,14,360709,0
360739,200,-2077,90,-93,33,125,8750,6,4,-102,-32,35210,87,35,127,0,0,2711,-10,0,1128,130,173,27551,-4,0,107,14,360709,0
360749,210,-2076,97,-83,40,126,8748,-10,7,-158,-48,35196,72,35,127,0,0,2711,10,0,1128,130,173,27561,-4,0,107,14,360725,0
360759,214,-2077,100,-77,41,138,8751,5,0,-107,-32,35202,57,34,127,0,0,2711,-54,0,1128,130,173,27571,-4,0,107,14,360740,0
360769,177,-2074,99,-72,36,151,8749,3,1,-124,-24,35211,53,35,127,0,0,2711,-32,0,1128,130,173,27581,-4,0,107,14,360740,0
360779,185,-2064,107,-68,41,146,8748,-5,-1,-155,-56,35210,58,35,127,0,0,2713,10,0,1128,130,173,27591,-4,0,107,14,360740,0
360789,167,-2076,111,-58,35,157,8748,-1,6,-129,-16,35207,59,34,127,0,0,2713,10,0,1128,130,173,27601,-4,0,107,14,360772,0
360799,174,-2073,110,-49,41,155,8749,6,11,-100,-24,35205,57,34,127,0,0,2713,0,0,1128,130,173,27611,-4,0,107,14,360772,0
360809,162,-2082,116,-53,43,146,8749,0,-3,-115,16,35209,59,35,127,0,0,2713,10,0,1128,130,173,27621,-4,0,107,14,360772,0
360819,180,-2087,129,-50,41,146,8750,3,-4,-78,-8,35218,58,35,127,0,0,2711,-32,0,1128,130,173,27631,-4,0,107,14,360850,0
360829,137,-2080,148,-59,36,133,8750,1,-3,-82,-40,35213,66,35,127,0,0,2713,-32,0,1128,130,173,27641,-4,0,107,14,360865,0
360839,153,-2073,151,-60,40,132,8749,-2,-6,-44,-8,35208,49,35,127,0,0,2713,-21,0,1128,130,173,27651,-4,0,107,14,360865,0
360849,157,-2080,124,-59,38,126,8748,-16,0,-57,0,35200,27,35,127,0,0,2715,21,0,1128,130,173,27661,-4,0,107,14,360865,0
360859,182,-2079,117,-60,34,124,8749,-14,-4,-65,8,35200,26,35,127,0,0,2715,21,0,1128,130,173,27671,-4,0,107,14,360865,0
360869,178,-2075,129,-60,38,126,8752,11,-1,-39,-8,35203,34,35,127,0,0,2713,-21,0,1128,130,173,27681,-4,0,107,14,360865,0
360879,182,-2078,131,-64,40,124,8750,1,0,-30,-8,35203,62,35,127,0,0,2715,0,0,1128,130,173,27691,-4,0,107,14,360865,0
360889,188,-2079,130,-67,32,126,8749,-7,-4,-30,-8,35203,51,35,127,0,0,2715,21,0,1128,130,173,27701,-4,0,107,14,360865,0
360899,195,-2086,126,-70,39,132,8751,0,0,-18,-8,35207,54,35,127,0,0,2715,0,0,1128,130,173,27711,-4,0,107,14,360865,0
360910,185,-2073,126,-77,37,134,8750,-5,0,-11,-8,35214,67,35,127,0,0,2715,0,0,1128,130,173,27722,-4,0,107,14,360881,0
360920,180,-2084,130,-74,44,137,8749,-5,-1,-34,-8,35222,73,35,127,0,0,2715,27,0,1128,130,173,27732,-4,0,107,14,360881,0
360930,190,-2079,131,-72,48,142,8751,6,-3,-3,-8,35229,56,35,127,0,0,2719,27,0,1128,130,173,27742,-4,0,107,14,360912,0
360940,187,-2079,123,-70,41,148,8750,-4,0,18,32,35234,44,35,127,0,0,2720,43,0,1128,130,173,27752,-4,0,107,14,360912,0
360950,204,-2083,119,-72,37,164,8752,-8,1,31,32,35223,43,35,127,0,0,2720,87,0,1128,130,173,27762,-4,0,107,14,360928,0
360960,182,-2084,107,-67,36,170,8755,-2,0,98,0,35214,46,35,127,0,0,2721,-5,0,1128,130,173,27772,-4,0,107,14,360928,0
360970,168,-2082,118,-68,40,168,8754,1,-4,109,48,35215,54,35,127,0,0,2722,38,0,1128,130,173,27782,-4,0,107,14,360944,0
360980,180,-2080,134,-68,41,178,8756,-4,-6,170,40,35222,46,34,127,0,0,2722,27,0,1128,130,173,27792,-4,0,107,14,360944,0
360990,192,-2082,136,-69,39,182,8756,0,-3,205,40,35221,45,35,127,0,0,2725,10,0,1128,130,173,27802,-4,0,107,14,360990,0
361000,180,-2078,135,-72,41,180,8759,2,-1,230,56,35228,55,35,127,0,0,2727,32,0,1128,130,173,27812,-4,0,107,14,360990,0
361010,169,-2079,131,-81,40,188,8763,25,8,310,88,35220,48,35,127,0,0,2725,5,0,1128,130,173,27822,-4,0,107,14,361006,0
361020,177,-2074,132,-79,35,184,8768,14,10,338,80,35224,47,35,127,0,0,2729,-32,0,1128,130,173,27832,-4,0,107,14,361006,0
361030,168,-2082,129,-84,34,186,8775,19,4,301,64,35225,54,35,127,0,0,2732,5,0,1128,130,173,27842,-4,0,107,14,361006,0
361040,159,-2082,126,-86,39,182,8778,6,-4,333,96,35217,72,35,127,0,0,2730,16,0,1128,130,173,27852,-4,0,107,14,361022,0
361050,166,-2075,126,-88,37,181,8789,30,14,298,80,35222,82,35,127,0,0,2736,21,0,1128,130,173,27862,-4,0,107,14,361022,0
361060,173,-2078,125,-89,35,184,8803,27,20,271,88,35224,70,35,127,0,0,2741,71,0,1128,130,173,27872,-4,0,107,14,361022,0
361070,170,-2085,121,-89,33,186,8807,3,-14,327,80,35233,87,35,127,0,0,2741,65,0,1128,130,173,27882,-4,0,107,14,361053,0
361080,166,-2086,124,-88,31,182,8808,1,-22,374,104,35222,106,35,127,0,0,2743,32,0,1128,130,173,27892,-4,0,107,14,361053,0
361090,171,-2075,130,-94,34,188,8810,2,-1,378,120,35217,107,35,127,0,0,2742,49,0,1128,130,173,27902,-4,0,107,14,361053,0
361100,159,-2081,125,-98,41,181,8814,13,0,428,112,35205,96,35,127,0,0,2748,60,0,1128,130,173,27912,-4,0,107,14,361084,0
361110,154,-2083,125,-90,36,181,8817,10,3,457,104,35222,69,35,127,0,0,2748,-5,0,1128,130,173,27922,-4,0,107,14,361084,0
361120,156,-2075,117,-92,48,175,8819,13,-3,485,144,35222,83,35,127,0,0,2749,27,0,1128,130,173,27932,-4,0,107,14,361100,0
361130,153,-2084,121,-85,32,173,8824,13,10,491,128,35223,86,35,127,0,0,2749,-5,0,1128,130,173,27942,-4,0,107,14,361100,0
361140,155,-2080,128,-89,38,171,8826,-1,-1,490,168,35223,96,35,127,0,0,2750,32,0,1128,130,173,27952,-4,0,107,14,361115,0
361150,158,-2082,115,-92,35,174,8839,35,5,492,144,35228,85,34,127,0,0,2750,0,0,1128,130,173,27962,-4,0,107,14,361131,0
361160,159,-2081,111,-88,47,165,8868,83,52,311,88,35230,67,35,127,0,0,2754,27,0,1128,130,173,27972,-4,0,107,14,361131,0
361171,180,-2085,130,-91,33,176,8892,17,22,255,48,35228,70,35,127,0,0,2753,-21,0,1128,130,173,27983,-4,0,107,14,361131,0
361181,132,-2087,124,-81,37,171,8893,4,-64,300,104,35230,78,35,127,0,0,2755,-21,0,1128,130,173,27993,-4,0,107,14,361162,0
361191,167,-2078,121,-84,39,166,8894,5,-35,327,112,35231,59,34,127,0,0,2757,-10,0,1128,130,173,28003,-4,0,107,14,361162,0
361201,161,-2082,131,-86,36,167,8898,9,10,303,112,35228,56,35,127,0,0,2759,21,0,1128,130,173,28013,-4,0,107,14,361162,0
361211,153,-2085,124,-90,35,163,8906,20,11,322,120,35225,47,35,127,0,0,2759,10,0,1128,130,173,28023,-4,0,107,14,361178,0
361221,151,-2086,121,-88,35,162,8927,57,33,233,80,35223,53,35,127,0,0,2764,32,0,1128,130,173,28033,-4,0,107,14,361209,0
361231,160,-2093,113,-80,30,171,8934,-8,-1,211,88,35220,43,35,127,0,0,2766,54,0,1128,130,173,28043,-4,0,107,14,361225,0
361241,155,-2091,104,-73,32,165,8937,9,-43,307,56,35220,17,35,127,0,0,2766,10,0,1128,130,173,28053,-4,0,107,14,361225,0
361251,152,-2071,107,-67,38,160,8936,8,-13,303,88,35220,3,35,127,0,0,2768,54,0,1128,130,173,28063,-4,0,107,14,361225,0
361261,164,-2074,121,-65,34,171,8938,-4,0,348,88,35231,-4,35,127,0,0,2768,10,0,1128,130,173,28073,-4,0,107,14,361225,0
361271,144,-2082,115,-65,36,169,8939,2,2,354,120,35234,6,35,127,0,0,2768,10,0,1128,130,173,28083,-4,0,107,14,361256,0
361281,150,-2086,119,-65,39,167,8939,3,-2,386,136,35234,0,35,127,0,0,2770,10,0,1128,130,173,28093,-4,0,107,14,361272,0
361291,153,-2091,122,-61,29,170,8943,2,7,431,136,35222,-1,35,127,0,0,2772,32,0,1128,130,173,28103,-4,0,107,14,361272,0
361301,145,-2091,119,-57,38,163,8948,10,11,463,160,35218,-5,35,127,0,0,2772,-10,0,1128,130,173,28113,-4,0,107,14,361272,0
361311,141,-2089,118,-59,33,156,8947,-9,-7,467,152,35214,6,35,127,0,0,2775,0,0,1128,130,173,28123,-4,0,107,14,361272,0
361321,131,-2084,118,-59,45,142,8949,5,-3,489,144,35226,16,35,127,0,0,2777,10,0,1128,130,173,28133,-4,0,107,14,361287,0
361331,128,-2088,135,-61,45,135,8953,12,6,511,128,35230,5,35,127,0,0,2777,21,0,1128,130,173,28143,-4,0,107,14,361303,0
361341,141,-2071,138,-66,47,124,8955,9,13,535,152,35232,4,35,127,0,0,2777,10,0,1128,130,173,28153,-4,0,107,14,361318,0
361351,144,-2077,135,-72,42,122,8960,15,6,517,168,35235,1,35,127,0,0,2777,-32,0,1128,130,173,28163,-4,0,107,14,361318,0
361361,140,-2077,126,-72,44,115,8964,6,-1,501,168,35232,13,35,127,0,0,2777,0,0,1128,130,173,28173,-4,0,107,14,361334,0
361371,146,-2076,131,-76,43,113,8971,17,2,443,120,35228,10,35,127,0,0,2777,10,0,1128,130,173,28183,-4,0,107,14,361334,0
361381,152,-2086,134,-77,42,101,8985,35,16,387,88,35222,6,35,127,0,0,2779,10,0,1128,130,173,28193,-4,0,107,14,361365,0
361391,151,-2074,136,-81,35,108,8999,26,23,293,64,35222,4,35,127,0,0,2777,0,0,1128,130,173,28203,-4,0,107,14,361365,0
361401,147,-2090,131,-86,37,106,9000,3,-33,299,72,35222,11,34,127,0,0,2777,0,0,1128,130,173,28213,-4,0,107,14,361365,0
361412,156,-2085,125,-80,39,106,8999,-5,-23,305,88,35221,9,34,127,0,0,2776,-21,0,1128,130,173,28224,-4,0,107,14,361381,0
361422,168,-2094,124,-78,36,104,8998,-3,-1,288,64,35223,33,35,127,0,0,2777,0,0,1128,130,173,28234,-4,0,107,14,361397,0
361432,161,-2088,117,-78,35,106,8999,0,-3,259,48,35230,34,35,127,0,0,2778,38,0,1128,130,173,28244,-4,0,107,14,361397,0
361442,163,-2087,122,-76,36,113,8999,4,-4,292,48,35234,38,35,127,0,0,2778,-5,0,1128,130,173,28254,-4,0,107,14,361412,0
361452,159,-2084,121,-71,38,118,8999,2,2,261,64,35227,-6,35,127,0,0,2777,21,0,1128,130,173,28264,-4,0,107,14,361428,0
361462,186,-2082,109,-68,37,124,9000,-3,3,288,64,35220,-15,35,127,0,0,2774,-32,0,1128,130,173,28274,-4,0,107,14,361443,0
361472,178,-2085,111,-59,41,123,8999,0,2,272,64,35216,-10,35,127,0,0,2777,-10,0,1128,130,173,28284,-4,0,107,14,361443,0
361482,157,-2077,118,-62,39,133,8998,-8,-5,294,48,35215,1,35,127,0,0,2778,-5,0,1128,130,173,28294,-4,0,107,14,361475,0
361492,143,-2077,128,-55,41,143,9000,-2,4,298,64,35215,8,35,127,0,0,2777,5,0,1128,130,173,28304,-4,0,107,14,361475,0
361502,136,-2083,126,-52,39,142,9000,2,-1,329,64,35219,-3,35,127,0,0,2780,-16,0,1128,130,173,28314,-4,0,107,14,361475,0
361512,143,-2075,132,-56,39,147,9000,1,0,317,104,35221,-5,35,127,0,0,2775,-5,0,1128,130,173,28324,-4,0,107,14,361475,0
361522,157,-2079,123,-54,34,149,9002,5,10,312,80,35222,-15,35,127,0,0,2782,27,0,1128,130,173,28334,-4,0,107,14,361506,0
361532,138,-2076,129,-59,33,153,9001,-1,1,362,104,35230,6,35,127,0,0,2781,43,0,1128,130,173,28344,-4,0,107,14,361506,0
361542,146,-2080,122,-58,38,158,9005,9,7,402,96,35228,8,35,127,0,0,2781,-21,0,1128,130,173,28354,-4,0,107,14,361506,0
361552,160,-2080,139,-62,35,156,9006,-13,-4,341,112,35228,14,35,127,0,0,2783,38,0,1128,130,173,28364,-4,0,107,14,361522,0
361562,153,-2083,136,-65,36,155,9008,-9,-5,387,112,35228,18,35,127,0,0,2787,32,0,1128,130,173,28374,-4,0,107,14,361600,0
361572,135,-2088,137,-61,36,151,9010,1,-5,420,104,35228,17,35,127,0,0,2787,38,0,1128,130,173,28384,-4,0,107,14,361600,0
361582,146,-2084,142,-70,34,147,9013,9,-3,439,120,35227,22,35,127,0,0,2786,0,0,1128,130,173,28394,-4,0,107,14,361600,0
361592,137,-2088,135,-71,43,144,9017,9,8,437,112,35219,10,35,127,0,0,2789,32,0,1128,130,173,28404,-4,0,107,14,361631,0
361602,148,-2082,137,-71,37,136,9019,6,0,407,128,35213,-7,35,127,0,0,2788,49,0,1128,130,173,28414,-4,0,107,14,361631,0
361612,134,-2081,134,-71,36,138,9022,11,3,436,120,35210,-12,35,127,0,0,2785,-32,0,1128,130,173,28424,-4,0,107,14,361631,0
361622,144,-2077,130,-79,38,126,9027,12,4,405,112,35210,9,35,127,0,0,2788,-10,0,1128,130,173,28434,-4,0,107,14,361631,0
361632,140,-2081,131,-77,47,124,9042,40,23,328,80,35209,8,35,127,0,0,2788,0,0,1128,130,173,28444,-4,0,107,14,361631,0
361642,145,-2080,133,-78,36,126,9066,48,40,166,32,35208,18,35,127,0,0,2785,-32,0,1128,130,173,28454,-4,0,107,14,361631,0
361652,160,-2074,142,-79,46,129,9064,-12,-37,163,40,35219,-5,35,127,0,0,2788,-10,0,1128,130,173,28464,-4,0,107,14,361647,0
361662,158,-2074,130,-82,45,125,9067,-3,-42,189,32,35221,-6,35,127,0,0,2788,0,0,1128,130,173,28474,-4,0,107,14,361647,0
361673,156,-2083,134,-79,46,132,9067,-3,3,153,40,35221,-7,35,127,0,0,2790,32,0,1128,130,173,28485,-4,0,107,14,361647,0
361683,144,-2088,136,-80,40,132,9067,9,-1,193,24,35227,1,35,127,0,0,2790,10,0,1128,130,173,28495,-4,0,107,14,361647,0
361693,154,-2082,129,-80,45,134,9067,5,1,204,24,35235,24,35,127,0,0,2788,-10,0,1128,130,173,28505,-4,0,107,14,361678,0
361703,148,-2081,124,-78,40,130,9068,11,0,194,32,35242,24,35,127,0,0,2788,0,0,1128,130,173,28515,-4,0,107,14,361678,0
361713,144,-2088,126,-83,39,137,9067,2,1,193,64,35234,43,35,127,0,0,2790,32,0,1128,130,173,28525,-4,0,107,14,361693,0
361723,155,-2076,133,-73,38,136,9066,-6,3,184,32,35225,48,35,127,0,0,2790,21,0,1128,130,173,28535,-4,0,107,14,361693,0
361733,163,-2083,135,-82,37,138,9068,0,2,220,56,35219,37,34,127,0,0,2790,10,0,1128,130,173,28545,-4,0,107,14,361693,0
361743,150,-2084,126,-78,34,147,9068,-2,-1,207,56,35225,19,34,127,0,0,2794,43,0,1128,130,173,28555,-4,0,107,14,361725,0
361753,146,-2090,126,-78,38,147,9069,0,4,268,40,35234,16,35,127,0,0,2790,-10,0,1128,130,173,28565,-4,0,107,14,361740,0
361763,143,-2086,126,-76,42,140,9069,3,2,224,48,35233,20,35,127,0,0,2794,32,0,1128,130,173,28575,-4,0,107,14,361740,0
361773,147,-2087,124,-69,34,150,9073,14,2,283,72,35226,16,35,127,0,0,2797,43,0,1128,130,173,28585,-4,0,107,14,361740,0
361783,124,-2091,125,-70,42,150,9073,1,11,342,72,35222,18,35,127,0,0,2797,32,0,1128,130,173,28595,-4,0,107,14,361740,0
361793,144,-2082,129,-71,37,149,9076,2,2,363,72,35222,13,35,127,0,0,2797,0,0,1128,130,173,28605,-4,0,107,14,361772,0
361803,143,-2089,132,-68,38,149,9077,1,-4,378,96,35221,26,35,127,0,0,2797,0,0,1128,130,173,28615,-4,0,107,14,361772,0
361813,148,-2083,132,-66,41,158,9078,2,-5,375,96,35223,24,35,127,0,0,2799,32,0,1128,130,173,28625,-4,0,107,14,361772,0
361823,150,-2084,129,-64,44,158,9081,9,0,384,88,35224,9,35,127,0,0,2797,0,0,1128,130,173,28635,-4,0,107,14,361787,0
361833,147,-2082,134,-71,35,151,9082,0,5,384,144,35229,10,35,127,0,0,2801,54,0,1128,130,173,28645,-4,0,107,14,361803,0
361843,140,-2084,137,-68,38,153,9086,6,3,405,120,35231,20,35,127,0,0,2803,10,0,1128,130,173,28655,-4,0,107,14,361818,0
361853,122,-2088,130,-74,36,146,9095,34,6,420,136,35233,36,35,127,0,0,2803,10,0,1128,130,173,28665,-4,0,107,14,361818,0
361863,133,-2089,137,-72,44,144,9110,45,24,349,96,35226,38,35,127,0,0,2803,0,0,1128,130,173,28675,-4,0,107,14,361850,0
361873,152,-2084,134,-75,28,143,9130,27,34,204,56,35225,26,35,127,0,0,2803,0,0,1128,130,173,28685,-4,0,107,14,361850,0
361883,116,-2078,132,-68,37,133,9130,14,-36,265,120,35225,36,35,127,0,0,2803,-10,0,1128,130,173,28695,-4,0,107,14,361850,0
361893,141,-2084,138,-71,46,126,9129,-15,-35,237,88,35225,34,35,127,0,0,2803,10,0,1128,130,173,28705,-4,0,107,14,361850,0
361903,150,-2091,142,-80,35,126,9130,-5,1,234,56,35236,7,35,127,0,0,2803,21,0,1128,130,173,28715,-4,0,107,14,361865,0
361914,168,-2082,139,-79,43,123,9132,-3,0,232,96,35234,-8,35,127,0,0,2804,27,0,1128,130,173,28726,-4,0,107,14,361928,0
361924,140,-2091,134,-84,40,132,9130,-1,-3,262,80,35239,-2,35,127,0,0,2809,65,0,1128,130,173,28736,-4,0,107,14,361943,0
361934,158,-2071,139,-80,36,129,9132,1,-4,314,72,35225,3,35,127,0,0,2809,38,0,1128,130,173,28746,-4,0,107,14,361943,0
361944,129,-2076,136,-80,40,124,9133,2,4,323,48,35231,17,35,127,0,0,2807,-10,0,1128,130,173,28756,-4,0,107,14,361943,0
361954,116,-2084,129,-84,42,135,9132,8,-3,313,72,35236,17,35,127,0,0,2809,5,0,1128,130,173,28766,-4,0,107,14,361943,0
361964,129,-2077,134,-81,42,131,9132,0,4,322,96,35241,12,35,127,0,0,2808,43,0,1128,130,173,28776,-4,0,107,14,361959,0
361974,149,-2086,126,-78,43,134,9131,-8,4,316,96,35240,6,35,127,0,0,2804,-16,0,1128,130,173,28786,-4,0,107,14,361959,0
361984,149,-2078,132,-89,33,137,9132,-6,2,299,96,35232,6,35,127,0,0,2808,-5,0,1128,130,173,28796,-4,0,107,14,361959,0
361994,142,-2083,128,-76,37,147,9134,3,7,349,88,35231,-6,35,127,0,0,2808,0,0,1128,130,173,28806,-4,0,107,14,361959,0
362004,131,-2081,129,-77,38,148,9133,0,-3,352,136,35239,-1,35,127,0,0,2805,-5,0,1128,130,173,28816,-4,0,107,14,361990,0
362014,144,-2089,133,-79,37,146,9135,0,4,365,112,35247,15,34,127,0,0,2810,-10,0,1128,130,173,28826,-4,0,107,14,361990,0
362024,139,-2090,135,-77,42,143,9138,11,0,378,104,35247,25,34,127,0,0,2810,0,0,1128,130,173,28836,-4,0,107,14,361990,0
362034,126,-2086,137,-82,34,141,9138,16,-3,419,120,35233,22,35,127,0,0,2812,-10,0,1128,130,173,28846,-4,0,107,14,362006,0
362044,131,-2086,132,-83,34,144,9138,0,7,403,120,35225,3,35,127,0,0,2812,21,0,1128,130,173,28856,-4,0,107,14,362006,0
362054,136,-2086,132,-80,30,138,9140,0,-3,439,120,35234,-3,35,127,0,0,2812,-5,0,1128,130,173,28866,-4,0,107,14,362021,0
362064,138,-2082,133,-80,38,139,9141,2,-3,438,120,35227,26,35,127,0,0,2812,0,0,1128,130,173,28876,-4,0,107,14,362021,0
362074,146,-2073,135,-84,44,136,9142,9,0,486,160,35231,14,35,127,0,0,2813,5,0,1128,130,173,28886,-4,0,107,14,362053,0
362084,148,-2082,136,-79,39,138,9148,13,13,452,128,35235,12,35,127,0,0,2814,-16,0,1128,130,173,28896,-4,0,107,14,362053,0
362094,133,-2087,136,-83,33,136,9145,-5,-4,420,128,35231,-15,35,127,0,0,2817,76,0,1128,130,173,28906,-4,0,107,14,362068,0
362104,130,-2090,129,-81,38,139,9151,7,-3,477,144,35231,-7,35,127,0,0,2816,16,0,1128,130,173,28916,-4,0,107,14,362068,0
362114,138,-2080,133,-83,36,141,9153,0,5,480,112,35231,-8,35,127,0,0,2817,21,0,1128,130,173,28926,-4,0,107,14,362100,0
362124,143,-2082,133,-85,34,133,9154,-2,-10,470,136,35241,-13,35,127,0,0,2820,43,0,1128,130,173,28936,-4,0,107,14,362100,0
362134,130,-2087,134,-78,36,137,9162,18,7,460,144,35241,-19,35,127,0,0,2819,43,0,1128,130,173,28946,-4,0,107,14,362100,0
362144,126,-2084,134,-80,39,132,9179,44,29,360,112,35234,-14,35,127,0,0,2819,21,0,1128,130,173,28956,-4,0,107,14,362115,0
362154,145,-2080,130,-84,37,140,9198,19,30,238,64,35235,-13,35,127,0,0,2819,16,0,1128,130,173,28966,-4,0,107,14,362115,0
362165,117,-2081,134,-82,39,132,9196,6,-46,271,104,35244,-21,35,127,0,0,2821,21,0,1128,130,173,28977,-4,0,107,14,362146,0
362175,134,-2084,131,-78,40,128,9197,-9,-25,311,24,35240,-30,35,127,0,0,2821,-10,0,1128,130,173,28987,-4,0,107,14,362146,0
362185,134,-2091,126,-79,36,138,9199,10,2,313,72,35237,-24,35,127,0,0,2819,-10,0,1128,130,173,28997,-4,0,107,14,362146,0
362195,122,-2083,140,-81,39,135,9199,11,0,303,104,35240,-17,35,127,0,0,2823,21,0,1128,130,173,29007,-4,0,107,14,362178,0
362205,147,-2085,133,-79,32,135,9198,1,1,339,80,35235,-27,35,127,0,0,2821,10,0,1128,130,173,29017,-4,0,107,14,362178,0
362215,142,-2087,126,-77,41,138,9199,0,-1,334,88,35239,-32,35,127,0,0,2821,0,0,1128,130,173,29027,-4,0,107,14,362178,0
362225,135,-2084,134,-77,38,141,9198,3,2,327,88,35231,-33,35,127,0,0,2821,-10,0,1128,130,173,29037,-4,0,107,14,362209,0
362235,137,-2084,137,-70,41,140,9198,2,1,326,120,35225,-15,35,127,0,0,2823,32,0,1128,130,173,29047,-4,0,107,14,362209,0
362245,138,-2087,136,-72,30,142,9201,1,4,386,136,35228,-15,35,127,0,0,2825,43,0,1128,130,173,29057,-4,0,107,14,362209,0
362255,141,-2086,133,-75,33,147,9206,2,7,410,128,35236,-23,35,127,0,0,2825,32,0,1128,130,173,29067,-4,0,107,14,362225,0
362265,129,-2089,121,-74,30,151,9206,0,-1,442,112,35237,-20,35,127,0,0,2827,0,0,1128,130,173,29077,-4,0,107,14,362240,0
362275,122,-2088,130,-71,47,150,9209,10,-4,478,104,35236,-15,35,127,0,0,2827,0,0,1128,130,173,29087,-4,0,107,14,362240,0
362285,119,-2080,133,-69,35,147,9209,7,1,455,128,35236,-11,34,127,0,0,2830,10,0,1128,130,173,29097,-4,0,107,14,362287,0
362295,117,-2080,140,-69,38,144,9210,5,-4,460,128,35234,-16,34,127,0,0,2830,32,0,1128,130,173,29107,-4,0,107,14,362287,0
362305,126,-2083,135,-71,37,151,9211,0,3,462,128,35229,-35,35,127,0,0,2827,10,0,1128,130,173,29117,-4,0,107,14,362287,0
362315,117,-2082,133,-77,34,144,9212,7,-2,475,144,35229,-40,35,127,0,0,2830,32,0,1128,130,173,29127,-4,0,107,14,362303,0
362325,144,-2089,136,-70,38,143,9215,1,6,493,168,35226,-25,35,127,0,0,2830,0,0,1128,130,173,29137,-4,0,107,14,362318,0
362335,126,-2092,135,-69,36,143,9222,12,6,480,152,35232,-23,35,127,0,0,2832,21,0,1128,130,173,29147,-4,0,107,14,362318,0
362345,120,-2081,136,-75,43,133,9232,34,5,469,128,35231,-19,35,127,0,0,2832,0,0,1128,130,173,29157,-4,0,107,14,362318,0
362355,128,-2096,133,-77,34,131,9251,41,24,341,120,35231,-28,35,127,0,0,2834,21,0,1128,130,173,29167,-4,0,107,14,362318,0
362365,142,-2081,137,-77,39,126,9262,3,4,296,96,35229,-21,35,127,0,0,2832,-10,0,1128,130,173,29177,-4,0,107,14,362334,0
362375,519,-2282,-56,-130,47,-7,9263,10,-44,327,120,35238,-16,34,127,0,0,2834,10,0,1128,130,173,29187,-4,0,107,14,362365,0
362385,931,-1818,-54,-232,87,-388,9264,-10,-8,355,72,35239,-21,34,127,0,0,2827,-87,0,1128,130,173,29197,-4,0,0,0,362365,0
362395,131,-2064,207,-247,-37,-250,9252,-40,-23,89,-160,35234,-13,35,127,0,0,2810,-208,0,1128,130,173,29207,-4,0,0,0,362365,0
362405,81,-2061,292,-136,-41,15,9211,-109,-90,-165,-80,35228,-12,35,127,0,0,2808,-21,0,1128,130,173,29217,-4,0,0,0,362381,0
362416,373,-2081,-34,-177,40,-123,9189,19,-7,6,-16,35230,-25,35,127,0,0,2804,-87,0,1128,130,173,29228,-4,0,0,0,362381,0
362426,763,-1892,-96,-226,83,-470,9184,-36,102,-225,-104,35242,-33,35,127,0,0,2792,-126,0,1128,130,173,29238,-4,0,0,0,362396,0
362436,497,-1932,57,-260,2,-442,9159,-92,-27,-459,-240,35243,-17,35,127,0,0,2772,-159,0,1128,130,173,29248,-4,0,0,0,362412,0
362446,286,-2068,159,-231,-56,-247,9088,-177,-147,-334,-216,35236,1,35,127,0,0,2766,-93,0,1128,130,173,29258,-4,0,0,0,362412,0
362456,416,-2068,-5,-172,25,-278,9013,-142,-88,-231,-144,35231,-2,35,127,0,0,2754,-87,0,1128,130,173,29268,-4,0,0,0,362428,0
362466,671,-1984,-108,-189,72,-441,8954,-124,44,-231,-152,35233,-22,35,127,0,0,2744,-109,0,1128,130,173,29278,-4,0,0,0,362428,0
362476,676,-1965,24,-196,48,-502,8900,-92,35,-279,-184,35233,-19,35,127,0,0,2722,-208,0,1128,130,173,29288,-4,0,0,0,362443,0
362486,539,-2021,125,-200,-36,-323,8848,-124,17,-412,-224,35230,-24,35,127,0,0,2710,-126,0,1128,130,173,29298,-4,0,0,0,362443,0
362496,487,-2087,18,-158,-41,-212,8776,-175,-45,-292,-160,35230,-1,35,127,0,0,2704,-71,0,1128,130,173,29308,-4,0,0,0,362474,0
362506,539,-1976,-121,-96,47,-230,8720,-75,2,-224,-88,35232,4,35,127,0,0,2697,-54,0,1128,130,173,29318,-4,0,0,0,362474,0
362516,669,-1972,-94,-84,59,-252,8725,16,169,-431,-160,35231,0,35,127,0,0,2693,-71,0,1128,130,173,29328,-4,0,0,0,362474,0
362526,532,-2044,40,-76,6,-217,8715,-31,70,-547,-200,35224,0,35,127,0,0,2680,-109,0,1128,130,173,29338,-4,0,0,0,362506,0
362536,418,-2067,83,-62,-12,-156,8682,-99,-81,-512,-216,35225,9,35,127,0,0,2678,-43,0,1128,130,173,29348,-4,0,0,0,362521,0
362546,323,-2122,44,-36,31,-160,8628,-125,-87,-345,-152,35222,8,35,127,0,0,2677,-10,0,1128,130,173,29358,-4,0,0,0,362521,0
362556,364,-2063,56,-28,72,-227,8589,-53,-3,-230,-96,35217,19,35,127,0,0,2668,-60,0,1128,130,173,29368,-4,0,0,0,362521,0
362566,384,-2044,124,-82,39,-278,8580,-26,89,-391,-136,35221,19,35,127,0,0,2661,-60,0,1128,130,173,29378,-4,0,0,0,362553,0
362576,265,-2086,178,-122,0,-331,8544,-94,-11,-316,-152,35216,34,35,127,0,0,2656,-60,0,1128,130,173,29388,-4,0,0,0,362553,0
362586,76,-2230,195,-172,14,-406,8515,-53,-32,-379,-168,35213,40,35,127,0,0,2647,-49,0,1128,130,173,29398,-4,0,0,0,362553,0
362596,73,-2323,189,-211,67,-487,8475,-109,-7,-320,-136,35209,33,35,127,0,0,2640,-32,0,1128,130,173,29408,-4,0,0,0,362568,0
362606,19,-2432,104,-340,251,-502,8444,-59,-15,-362,-112,35216,12,35,127,0,0,2638,54,0,1128,130,173,29418,-4,0,0,0,362584,0
362616,-58,-2160,164,-363,344,-575,8419,-40,40,-217,-80,35217,-2,35,127,0,0,2640,10,0,1128,130,173,29428,-4,0,0,0,362584,0
362626,322,-2092,90,-367,244,-718,8418,8,59,-201,-56,35214,-16,35,127,0,0,2638,0,0,1128,130,173,29438,-4,0,0,0,362615,0
362636,280,-2207,124,-372,149,-718,8417,-3,35,-237,-96,35211,-20,35,127,0,0,2641,10,0,1128,130,173,29448,-4,0,0,0,362615,0
362646,38,-2247,185,-468,171,-749,8417,5,-7,-224,-56,35208,-9,35,127,0,0,2638,16,0,1128,130,173,29458,-4,0,0,0,362615,0
362656,134,-2290,178,-524,238,-796,8417,-4,5,-147,-40,35198,-11,35,127,0,0,2644,27,0,1128,130,173,29468,-4,0,0,0,362631,0
362667,220,-2266,178,-548,276,-862,8423,3,4,1,16,35208,-11,35,127,0,0,2649,54,0,1128,130,173,29479,-4,0,0,0,362693,0
362677,290,-2144,185,-533,160,-911,8432,26,13,149,64,35217,-12,35,127,0,0,2658,76,0,1128,130,173,29489,-4,0,0,0,362693,0
362687,299,-2142,124,-536,57,-901,8447,51,30,344,128,35219,-15,35,127,0,0,2669,98,0,1128,130,173,29499,-4,0,0,0,362709,0
362697,245,-2187,23,-508,10,-896,8496,128,84,282,160,35215,-13,35,127,0,0,2685,153,0,1128,130,173,29509,-4,0,0,0,362709,0
362707,229,-2230,-37,-467,44,-936,8557,149,82,299,176,35201,-5,35,127,0,0,2698,142,0,1128,130,173,29519,-4,0,0,0,362709,0
362717,295,-2229,-39,-424,143,-918,8612,131,6,342,224,35190,25,35,127,0,0,2718,208,0,1128,130,173,29529,-4,0,0,0,362709,0
362727,424,-2180,-46,-425,182,-854,8676,156,10,435,280,35185,51,35,127,0,0,2737,219,0,1128,130,173,29539,-4,0,0,0,362709,0
362737,533,-2069,-183,-339,202,-727,8768,224,77,378,296,35180,62,35,127,0,0,2764,274,0,1128,130,173,29549,-4,0,0,0,362709,0
362747,578,-1978,-301,-248,220,-647,8860,201,39,496,408,35188,57,35,127,0,0,2794,296,0,1128,130,173,29559,-4,0,35,0,362709,0
362757,663,-1860,-386,-147,271,-555,8979,270,55,428,472,35204,53,34,127,0,0,2821,263,0,1128,130,173,29569,-4,0,38,0,362740,0
362767,618,-1775,-327,-115,342,-501,9106,300,87,446,480,35212,67,34,127,0,0,2852,252,0,1128,130,173,29579,-4,0,39,0,362740,0
362777,644,-1739,-228,-71,454,-364,9238,293,31,437,504,35204,61,34,127,0,0,2882,296,0,1128,130,173,29589,-4,0,42,0,362756,0
362787,742,-1731,-148,-21,519,-338,9367,295,0,462,520,35189,50,35,127,0,0,2909,274,0,1128,130,173,29599,-4,0,43,0,362756,0
362797,789,-1664,-3,23,471,-138,9493,281,-12,491,464,35189,34,35,127,0,0,2931,252,0,1128,130,173,29609,-4,0,46,0,362771,0
362807,818,-1716,154,68,397,15,9624,273,2,461,496,35204,50,34,127,0,0,2959,274,0,1128,130,173,29619,-4,0,47,0,362771,0
362817,880,-1801,245,126,254,102,9752,279,0,439,496,35202,47,34,127,0,0,2986,274,0,1128,130,173,29629,-4,0,49,0,362818,0
362827,862,-1856,257,120,247,93,9887,307,5,398,448,35197,46,35,127,0,0,3008,197,0,1128,130,173,29639,-4,0,51,0,362818,0
362837,588,-1846,326,133,76,280,10015,258,4,416,368,35184,38,35,127,0,0,3027,197,0,1128,130,173,29649,-4,0,53,0,362818,0
362847,688,-2109,348,116,-50,394,10125,250,-53,436,440,35186,36,35,127,0,0,3058,318,0,1128,130,173,29659,-4,0,54,0,362818,0
362857,641,-2285,411,145,-138,327,10235,247,-22,514,472,35184,50,35,127,0,0,3084,241,0,1128,130,173,29669,-4,0,55,0,362818,0
362867,427,-2238,393,92,-196,309,10371,296,51,372,448,35190,59,35,127,0,0,3109,274,0,1128,130,173,29679,-4,0,56,0,362849,0
362877,214,-2184,289,7,-275,347,10494,262,23,404,448,35196,61,35,127,0,0,3135,230,0,1128,130,173,29689,-4,0,58,0,362849,0
362887,153,-2224,191,4,-297,314,10621,286,-16,449,488,35197,49,35,127,0,0,3168,318,0,1128,130,173,29699,-4,0,59,0,362849,0
362897,100,-2212,124,-8,-251,146,10763,311,35,404,472,35202,51,35,127,0,0,3194,263,0,1128,130,173,29709,-4,0,61,0,362881,0
362907,102,-2169,76,-82,-189,38,10897,295,7,464,536,35196,47,35,127,0,0,3225,296,0,1128,130,173,29719,-4,0,62,0,362881,0
362918,115,-2143,89,-173,-133,-36,11050,320,-7,495,584,35200,72,35,127,0,0,3259,263,0,1128,130,173,29730,-4,0,64,0,362896,0
362928,175,-2180,83,-204,-112,-69,11205,338,50,410,568,35207,58,34,127,0,0,3288,302,0,1128,130,173,29740,-4,0,67,0,362912,0
362938,343,-2164,111,-241,-43,-197,11360,333,30,432,584,35202,56,34,127,0,0,3318,291,0,1128,130,173,29750,-4,0,68,0,362912,0
362948,419,-2075,67,-272,-47,-250,11516,348,1,400,576,35203,54,35,127,0,0,3344,269,0,1128,130,173,29760,-4,0,70,0,362912,0
362958,375,-1966,41,-298,-58,-234,11662,323,-7,443,584,35199,49,35,127,0,0,3372,263,0,1128,130,173,29770,-4,0,72,0,362927,0
362968,362,-1979,49,-285,-87,-201,11805,312,-31,435,568,35205,52,34,127,0,0,3402,280,0,1128,130,173,29780,-4,0,74,0,362959,0
362978,441,-1991,77,-258,-67,-249,11958,340,10,414,576,35213,62,34,127,0,0,3429,263,0,1128,130,173,29790,-4,0,75,0,362959,0
362988,511,-1961,73,-263,-65,-284,12101,316,9,412,536,35209,65,35,127,0,0,3457,236,0,1128,130,173,29800,-4,0,78,0,362959,0
362998,479,-1884,85,-264,-92,-257,12243,306,-22,422,520,35196,61,35,127,0,0,3477,247,0,1128,130,173,29810,-4,0,79,0,362959,0
363008,488,-1903,91,-249,-117,-235,12366,258,-33,468,496,35201,47,35,127,0,0,3505,285,0,1128,130,173,29820,-4,0,81,0,362990,0
363018,475,-1903,55,-234,-98,-292,12487,258,-38,471,472,35211,45,34,127,0,0,3521,197,0,1128,130,173,29830,-4,0,82,0,362990,0
363028,473,-1899,32,-255,-86,-322,12606,257,-9,402,392,35220,53,34,127,0,0,3539,148,0,1128,130,173,29840,-4,0,84,11,362990,0
363038,435,-1482,-6,-331,-144,-404,12716,221,-9,360,280,35216,66,35,127,0,0,3550,109,0,1128,130,173,29850,-4,0,86,11,363068,0
363048,326,-1699,5,-370,-187,-502,12796,157,-80,344,208,35202,66,35,127,0,0,3552,54,0,1128,130,173,29860,-4,0,88,10,363084,0
363058,637,-2432,-83,-246,-22,-409,12849,80,-112,318,128,35201,49,35,127,0,0,3561,104,0,1128,130,173,29870,-4,0,89,10,363084,0
363068,532,-2161,37,-168,-63,-326,12871,42,-117,400,192,35194,48,35,127,0,0,3562,120,0,1128,130,173,29880,-4,0,91,10,363084,0
363078,479,-1933,51,-166,-142,-277,12891,53,-58,580,264,35193,28,35,127,0,0,3580,120,0,1128,130,173,29890,-4,0,92,9,363099,0
363088,423,-1983,-28,-146,-98,-302,12940,154,54,543,256,35188,28,35,127,0,0,3592,104,0,1128,130,173,29900,-4,0,94,9,363099,0
363098,503,-2025,-72,-115,-43,-306,13019,169,120,377,240,35190,28,35,127,0,0,3599,82,0,1128,130,173,29910,-4,0,95,9,363099,0
363108,500,-1960,-18,-103,-30,-335,13068,109,-4,504,264,35196,38,35,127,0,0,3610,65,0,1128,130,173,29920,-4,0,97,8,363099,0
363118,443,-1943,-16,-134,-21,-344,13118,121,-54,536,256,35196,50,35,127,0,0,3622,76,0,1128,130,173,29930,-4,0,99,8,363099,0
363128,436,-1989,-25,-165,7,-364,13181,136,30,456,208,35198,59,35,127,0,0,3632,76,0,1128,130,173,29940,-4,0,100,8,363099,0
363138,403,-1987,-2,-171,57,-460,13232,99,-2,443,208,35201,59,35,127,0,0,3637,82,0,1128,130,173,29950,-4,0,102,8,363115,0
363148,347,-1971,28,-174,57,-498,13277,80,-33,338,160,35221,65,35,127,0,0,3641,71,0,1128,130,173,29960,-4,0,104,7,363115,0
363159,384,-2090,69,-216,52,-585,13309,72,-43,365,104,35230,67,35,127,0,0,3640,-10,0,1128,130,173,29971,-4,0,105,7,363131,0
363169,469,-2233,137,-256,65,-607,13327,17,-43,355,120,35229,78,35,127,0,0,3647,54,0,1128,130,173,29981,-4,0,107,7,363162,0
363179,384,-2232,187,-259,43,-630,13332,14,-45,485,160,35223,69,35,127,0,0,3656,120,0,1128,130,173,29991,-4,0,108,7,363162,0
363189,350,-2181,176,-291,3,-668,13367,102,29,524,232,35216,61,35,127,0,0,3662,76,0,1128,130,173,30001,-4,0,110,7,363162,0
363199,380,-2196,185,-324,-27,-681,13426,119,106,420,248,35210,59,35,127,0,0,3678,153,0,1128,130,173,30011,-4,0,111,7,363193,0
363209,406,-2201,205,-362,-69,-785,13480,105,34,531,256,35201,78,35,127,0,0,3691,98,0,1128,130,173,30021,-4,0,113,6,363193,0
363219,401,-2184,237,-397,-118,-849,13537,130,-7,536,272,35203,74,35,127,0,0,3706,164,0,1128,130,173,30031,-4,0,114,6,363193,0
363229,400,-2220,237,-449,-214,-890,13609,150,43,528,304,35208,62,35,127,0,0,3722,175,0,1128,130,173,30041,-4,0,116,6,363209,0
363239,387,-2288,213,-479,-238,-931,13681,157,23,578,376,35211,33,35,127,0,0,3741,230,0,1128,130,173,30051,-4,0,118,6,363209,0
363249,376,-2258,220,-504,-273,-1003,13780,224,42,511,408,35212,31,35,127,0,0,3759,197,0,1128,130,173,30061,-4,0,120,6,363209,0
363259,397,-2229,220,-525,-325,-1071,13878,221,53,574,448,35219,60,35,127,0,0,3785,230,0,1128,130,173,30071,-4,0,121,6,363256,0
363269,531,-2180,230,-536,-515,-1193,13989,256,29,566,544,35216,62,35,127,0,0,3818,329,0,1128,130,173,30081,-4,0,123,6,363256,0
363279,120,-1744,252,-465,-477,-1154,14120,301,58,611,712,35213,83,35,127,0,0,3854,351,0,1128,130,173,30091,-4,0,124,7,363256,0
363289,31,-2485,70,-745,-435,-1101,14280,351,99,512,624,35202,83,35,127,0,0,3873,164,0,1128,130,173,30101,-4,0,126,7,363256,0
363299,126,-2660,437,-667,-433,-961,14435,317,45,466,688,35187,72,35,127,0,0,3926,560,0,1128,130,173,30111,-4,0,128,7,363256,0
363309,1097,-2471,147,-830,-340,-2100,14613,436,19,638,944,35194,58,35,127,0,0,3966,329,0,1128,130,173,30121,-4,0,130,7,363287,0
363319,190,-2023,118,-811,-645,-1827,14808,409,92,422,672,35203,50,35,127,0,0,3979,153,0,1128,130,173,30131,-4,0,132,7,363287,0
363329,60,-2236,134,-724,-975,-1374,14983,388,-12,447,792,35209,68,35,127,0,0,4034,604,0,1128,130,173,30141,-4,0,134,7,363302,0
363339,199,-2348,147,-656,-931,-1699,15167,425,-23,602,1032,35200,99,35,127,0,0,4093,604,0,1128,130,173,30151,-4,0,135,7,363302,0
363349,530,-2369,-15,-980,-605,-2364,15391,510,101,552,1064,35190,95,35,127,0,0,4130,318,0,1128,130,173,30161,-4,0,137,8,363334,0
363359,-54,-2407,202,-1006,-595,-2325,15609,466,65,439,872,35205,68,35,127,0,0,4157,285,0,1128,130,173,30171,-4,0,139,8,363334,0
363369,42,-2546,231,-930,-739,-2112,15807,451,-50,476,968,35202,59,35,127,0,0,4212,549,0,1128,130,173,30181,-4,0,141,8,363349,0
363379,355,-2461,10,-911,-668,-2389,16014,460,-14,581,1144,35202,59,35,127,0,0,4269,582,0,1128,130,173,30191,-4,0,143,8,363349,0
363389,464,-2302,-207,-990,-541,-2843,16248,532,62,593,1200,35190,69,35,127,0,0,4313,428,0,1128,130,173,30201,-4,0,146,9,363365,0
363399,380,-2338,-102,-987,-589,-2968,16486,519,58,498,1072,35199,53,35,127,0,0,4348,329,0,1128,130,173,30211,-4,0,147,9,363412,0
363410,252,-2403,65,-903,-833,-2932,16735,475,-15,423,1048,35204,55,35,127,0,0,4394,472,0,1128,130,173,30222,-4,0,150,9,363412,0
363420,382,-2405,51,-864,-1017,-2950,16944,467,-60,620,1160,35207,62,34,127,0,0,4454,598,0,1128,130,173,30232,-4,0,153,9,363412,0
363430,549,-2261,-210,-784,-1181,-3191,17180,533,17,627,1272,35193,68,35,127,0,0,4503,549,0,1128,130,173,30242,-4,0,154,10,363412,0
363440,490,-2116,-276,-736,-1362,-3310,17407,564,85,536,1272,35184,55,35,127,0,0,4548,450,0,1128,130,173,30252,-4,0,157,10,363412,0
363450,524,-2060,-180,-614,-1819,-3274,17658,549,29,584,1352,35185,46,35,127,0,0,4606,587,0,1128,130,173,30262,-4,0,159,10,363412,0
363460,519,-2168,-156,-553,-2087,-3240,17923,605,30,667,1480,35196,58,35,127,0,0,4674,609,0,1128,130,173,30272,-4,0,162,11,363459,0
363470,465,-2300,-136,-476,-2370,-3250,18219,672,97,645,1648,35201,91,35,127,0,0,4744,725,0,1128,130,173,30282,-4,0,164,11,363459,0
363480,372,-2287,-92,-422,-2526,-3210,18535,724,99,748,1816,35195,95,35,127,0,0,4822,769,0,1128,130,173,30292,-4,0,167,11,363474,0
363490,367,-2269,-19,-354,-2732,-3039,18884,788,110,730,2032,35190,84,35,127,0,0,4908,889,0,1128,130,173,30302,-4,0,169,11,363474,0
363500,364,-2270,11,-326,-2960,-2850,19270,867,133,781,2304,35180,78,35,127,0,0,5014,1087,0,1128,130,173,30312,-4,0,172,12,363474,0
363510,427,-2288,52,-313,-3342,-2501,19702,979,162,847,2688,35177,88,35,127,0,0,5139,1285,0,1128,130,173,30322,-4,0,174,12,363474,0
363520,412,-2269,71,-307,-3481,-2256,20196,1132,211,966,3208,35178,108,35,127,0,0,5282,1461,0,1128,130,173,30332,-4,0,177,12,363505,0
363530,408,-2046,131,-214,-3501,-1888,20769,1305,273,953,3672,35183,95,35,127,0,0,5449,1675,0,1128,130,173,30342,-4,0,179,12,363505,0
363540,951,-1559,187,-58,-2840,-1919,21422,1488,301,619,2536,35183,107,35,127,0,0,5553,1021,0,1128,130,173,30352,-4,0,183,12,363505,0
363550,847,-1541,-273,-111,-1664,-2272,21949,914,-132,-1732,-1192,35189,89,35,127,0,0,5512,-587,0,1128,130,173,30362,-4,0,185,12,363568,0
363560,990,-1716,-247,-5,-1319,-2319,21688,-1023,-1916,-2038,-2256,35189,131,35,127,0,0,5376,-1466,0,1128,130,173,30372,-4,0,188,12,363568,0
363570,471,-1506,14,204,-497,-2462,21247,-814,-1792,1187,848,35192,106,34,127,0,0,5145,-2345,0,1128,130,173,30382,-4,0,191,12,363584,0
363580,469,-1595,116,223,-654,-1773,21248,-93,740,-1342,-1672,35192,94,35,127,0,0,4919,-2197,0,1128,130,173,30392,-4,0,194,12,363584,0
363590,596,-1889,100,185,-750,-998,20922,-923,24,-1547,-3192,35182,101,35,127,0,0,4712,-2070,0,1128,130,173,30402,-4,0,197,12,363584,0
363600,235,-1834,139,263,-1056,-521,20332,-1434,-1227,-1133,-4000,35175,118,35,127,0,0,4537,-1724,0,1128,130,173,30412,-4,0,200,12,363584,0
363610,575,-1748,1,171,-1328,209,19595,-1685,-747,-614,-4096,35163,140,35,127,0,0,4401,-1373,0,1128,130,173,30422,-4,0,203,11,363584,0
363620,580,-1773,-78,191,-1236,617,18815,-1714,-322,-352,-3864,35167,125,35,127,0,0,4280,-1213,0,1128,130,173,30432,-4,0,207,11,363584,0
363630,551,-1721,-168,357,-925,1075,18063,-1622,4,-233,-3528,35186,104,35,127,0,0,4168,-1126,0,1128,130,173,30442,-4,0,210,11,363599,0
363640,501,-1652,-235,403,-716,1343,17370,-1483,179,-207,-3264,35202,91,35,127,0,0,4058,-1076,0,1128,130,173,30452,-4,0,214,10,363615,0
363650,587,-1589,-218,440,-359,1835,16731,-1382,218,-271,-3032,35212,80,35,127,0,0,3958,-961,0,1128,130,173,30462,-4,0,216,10,363615,0
363661,618,-1506,-287,492,-33,2357,16073,-1288,165,-238,-2768,35202,62,35,127,0,0,3862,-878,0,1128,130,173,30473,-4,0,221,9,363630,0
363671,638,-1504,-338,534,188,2686,15514,-1206,145,-232,-2512,35207,71,35,127,0,0,3788,-780,0,1128,130,173,30483,-4,0,223,9,363662,0
363681,651,-1549,-308,626,503,3130,14997,-1099,153,-226,-2232,35199,64,35,127,0,0,3719,-692,0,1128,130,173,30493,-4,0,228,8,363662,0
363691,687,-1584,-279,680,720,3400,14532,-993,186,-211,-1928,35195,83,35,127,0,0,3658,-637,0,1128,130,173,30503,-4,0,231,8,363662,0
363701,688,-1630,-211,743,997,3796,14119,-876,198,-252,-1704,35193,75,35,127,0,0,3601,-582,0,1128,130,173,30513,-4,0,235,7,363662,0
363711,671,-1646,-198,794,1157,4049,13746,-799,172,-234,-1568,35201,79,35,127,0,0,3548,-538,0,1128,130,173,30523,-4,0,238,7,363693,0
363721,644,-1700,-212,851,1347,4447,13413,-706,148,-263,-1376,35215,67,35,127,0,0,3506,-417,0,1128,130,173,30533,-4,0,243,6,363693,0
363731,623,-1752,-199,919,1463,4693,13116,-628,144,-245,-1192,35212,77,35,127,0,0,3465,-373,0,1128,130,173,30543,-4,0,246,6,363693,0
363741,665,-1802,-212,1032,1648,5034,12855,-540,194,-276,-1008,35204,60,35,127,0,0,3436,-285,0,1128,130,173,30553,-4,0,250,5,363724,0
363751,670,-1828,-213,1128,1772,5248,12624,-499,155,-285,-856,35215,54,35,127,0,0,3405,-285,0,1128,130,173,30563,-4,0,253,5,363724,0
363761,669,-1851,-212,1248,1956,5532,12425,-413,80,-308,-760,35223,45,35,127,0,0,3377,-307,0,1128,130,173,30573,-4,0,258,4,363724,0
363771,650,-1882,-177,1337,2054,5715,12250,-375,56,-380,-696,35222,57,35,127,0,0,3350,-285,0,1128,130,173,30583,-4,0,261,4,363740,0
363781,613,-1960,-151,1461,2184,5960,12088,-351,70,-395,-616,35217,68,35,127,0,0,3324,-263,0,1128,130,173,30593,-4,0,266,3,363755,0
363791,580,-2024,-123,1532,2289,6111,11928,-348,33,-394,-520,35214,63,35,127,0,0,3306,-153,0,1128,130,173,30603,-4,0,269,3,363771,0
363801,519,-2091,-95,1654,2520,6278,11781,-310,25,-325,-384,35216,54,35,127,0,0,3289,-175,0,1128,130,173,30613,-4,0,274,2,363787,0
363811,498,-2125,-96,1733,2735,6370,11659,-265,74,-319,-304,35211,65,35,127,0,0,3278,-98,0,1128,130,173,30623,-4,0,277,2,363787,0
363821,429,-2115,-71,1829,3095,6472,11573,-152,108,-306,-232,35212,72,35,127,0,0,3269,-131,0,1128,130,173,30633,-4,0,282,1,363787,0
363831,458,-2099,-62,1903,3329,6549,11507,-132,112,-314,-128,35213,49,35,127,0,0,3265,-76,0,1128,130,173,30643,-4,0,285,1,363802,0
363841,426,-2091,-65,2002,3611,6646,11465,-51,80,-308,-80,35220,32,35,127,0,0,3265,21,0,1128,130,173,30653,-4,0,290,1,363818,0
363851,417,-2118,-36,2061,3760,6719,11475,25,154,-347,-48,35218,35,35,127,0,0,3269,32,0,1128,130,173,30663,-4,0,293,0,363834,0
363861,435,-2167,-10,2139,3818,6890,11476,5,79,-143,-16,35225,39,35,127,0,0,3282,120,0,1128,130,173,30673,-4,0,298,0,363834,0
363871,442,-2211,44,2173,3801,7002,11496,75,15,231,136,35217,47,35,127,0,0,3302,208,0,1128,130,173,30683,-4,0,302,0,363834,0
363881,415,-2278,101,2211,3657,7128,11552,164,109,466,320,35222,42,35,127,0,0,3328,241,0,1128,130,173,30693,-4,0,307,0,363849,0
363891,464,-2343,143,2210,3510,7198,11656,266,167,418,448,35218,22,35,127,0,0,3364,340,0,1128,130,173,30703,-4,0,310,0,363865,0
363901,484,-2417,207,2169,3200,7277,11791,300,156,395,544,35220,27,35,127,0,0,3399,362,0,1128,130,173,30713,-4,0,315,0,363865,0
363912,423,-2456,255,2128,2920,7333,11963,356,87,392,656,35220,37,35,127,0,0,3442,390,0,1128,130,173,30724,-4,0,319,0,363880,0
363922,433,-2534,290,2036,2429,7379,12130,374,62,391,744,35223,58,35,127,0,0,3490,422,0,1128,130,173,30734,-4,0,322,0,363896,0
363932,430,-2575,298,1972,2066,7391,12308,402,42,446,896,35227,54,35,127,0,0,3537,488,0,1128,130,173,30744,-4,0,327,0,363912,0
363942,394,-2784,246,1871,1464,7394,12497,429,42,504,1072,35218,42,35,127,0,0,3599,615,0,1128,130,173,30754,-4,0,330,0,363912,0
363952,316,-4508,-154,1649,709,7450,12722,521,87,605,1584,35214,43,35,127,0,0,3712,1252,0,1128,130,173,30764,-4,0,334,0,363927,0
363962,782,-2001,594,1810,568,6869,13041,796,237,981,2432,35220,50,35,127,0,0,3844,1400,0,1128,130,173,30774,-4,0,337,0,363927,0
363972,751,-1969,104,1571,688,6306,13496,1074,456,740,2600,35212,76,35,127,0,0,3935,834,0,1128,130,173,30784,-4,0,340,0,363943,0
363982,526,-2258,-88,1289,460,5683,13988,1068,340,417,2360,35205,85,35,127,0,0,4002,692,0,1128,130,173,30794,-4,0,343,0,363958,0
363992,633,-2043,-79,1290,393,5229,14456,1003,18,296,1960,35211,87,35,127,0,0,4035,329,0,1128,130,173,30804,-4,0,346,0,363958,0
364002,597,-2173,6,1241,69,4819,14862,839,-162,173,1368,35215,76,35,127,0,0,4057,164,0,1128,130,173,30814,-4,0,348,0,363990,0
364012,457,-2251,147,1275,-93,4564,15183,647,-286,133,840,35232,61,34,127,0,0,4064,27,0,1128,130,173,30824,-4,0,351,0,363990,0
364022,403,-2181,214,1246,-381,4106,15417,464,-331,168,416,35224,53,34,127,0,0,4069,27,0,1128,130,173,30834,-4,0,353,0,363990,0
364032,423,-2151,187,1179,-595,3826,15564,265,-334,165,120,35217,37,35,127,0,0,4072,5,0,1128,130,173,30844,-4,0,355,0,364021,0
364042,410,-2141,151,1044,-855,3378,15620,49,-338,36,32,35228,43,35,127,0,0,4064,-16,0,1128,130,173,30854,-4,0,357,0,364021,0
364052,346,-2147,125,939,-990,3008,15607,-32,-321,123,40,35228,47,35,127,0,0,4072,32,0,1128,130,173,30864,-4,0,359,0,364021,0
364062,310,-2236,72,737,-1111,2435,15609,4,-97,156,56,35231,44,35,127,0,0,4078,120,0,1128,130,173,30874,-4,0,360,0,364021,0
364072,284,-2289,53,618,-1099,1997,15619,33,41,306,128,35226,56,35,127,0,0,4083,115,0,1128,130,173,30884,-4,0,362,0,364052,0
364082,327,-2363,50,423,-1037,1286,15642,67,44,387,168,35234,72,34,127,0,0,4095,137,0,1128,130,173,30894,-4,0,363,0,364052,0
364092,130,-3287,-136,128,-1182,954,15676,97,39,647,432,35231,78,35,127,0,0,4145,560,0,1128,130,173,30904,-4,0,364,0,364083,0
364102,184,-3330,92,-145,-942,237,15806,366,198,680,1048,35239,69,35,127,0,0,4244,1060,0,1128,130,173,30914,-4,0,365,0,364083,0
364112,438,-3247,-22,-454,-686,-393,16047,629,405,1003,2056,35222,53,35,127,0,0,4396,1614,0,1128,130,173,30924,-4,0,365,0,364099,0
364122,544,-3178,-27,-823,-152,-1465,16462,1043,546,1196,3024,35213,75,35,127,0,0,4568,1669,0,1128,130,173,30934,-4,0,366,0,364099,0
364132,208,-2675,537,-633,275,-1799,17052,1393,682,1073,3640,35203,92,35,127,0,0,4720,1428,0,1128,130,173,30944,-4,0,366,0,364099,0
364142,464,-2192,370,-560,-59,-1746,17735,1530,512,663,3608,35198,112,35,127,0,0,4830,1038,0,1128,130,173,30954,-4,0,366,0,364115,0
364152,-90,-2541,585,-493,-344,-1570,18409,1441,163,362,3088,35204,130,35,127,0,0,4903,697,0,1128,130,173,30964,-4,0,367,0,364130,0
364162,-370,-2382,821,63,-594,-1457,18998,1229,-176,258,2560,35210,107,35,127,0,0,4960,598,0,2535,357,174,2,1,0,367,0,364146,0
364173,-324,-1661,646,102,-1105,-1149,19536,1008,-360,316,2176,35214,75,35,127,0,0,5038,703,0,2535,357,174,13,1,0,367,0,364177,0
364183,-440,-1672,162,-55,-1224,-899,19956,903,-313,576,2288,35220,67,35,127,0,0,5128,911,0,2535,357,174,23,1,0,367,0,364177,0
364193,-721,-1557,-525,-284,-981,-859,20380,955,-111,666,2440,35213,50,35,127,0,0,5229,977,0,2535,357,174,33,1,0,367,0,364193,0
364203,-914,-1614,-746,-452,-284,-1005,20832,1024,69,743,2608,35208,59,35,127,0,0,5321,823,0,2535,357,174,43,1,0,367,0,364193,0
364213,-954,-2146,-444,-264,708,-1444,21300,1022,90,480,2480,35210,73,35,127,0,0,5394,714,0,2535,357,174,53,1,0,367,0,364193,0
364223,-723,-2511,-283,-104,1104,-1711,21754,986,1,419,2152,35208,73,35,127,0,0,5442,461,0,2535,357,174,63,1,0,367,0,364193,0
364233,214,-2484,106,-57,1087,-2163,22158,827,-114,248,1512,35210,69,35,127,0,0,5436,-98,0,2535,357,174,73,1,0,367,0,364193,0
364243,554,-2228,141,-354,21,-2326,22463,595,-281,87,440,35211,45,35,127,0,0,5383,-527,0,2535,357,174,83,1,0,367,0,364208,0
364253,-65,-1905,177,-489,-239,-2252,22566,-60,-557,-1001,-680,35226,20,35,127,0,0,5304,-802,0,2535,357,174,93,1,0,366,0,364255,0
364263,-775,-1980,-123,-455,-81,-2337,22397,-427,-963,-575,-1112,35242,24,35,127,0,0,5236,-692,0,2535,357,174,103,1,0,366,0,364255,0
364273,-1079,-1964,-49,-44,444,-2438,22162,-544,-632,-551,-1456,35240,47,35,127,0,0,5159,-802,0,2535,357,174,113,1,0,366,0,364255,0
364283,-697,-1869,402,36,388,-2230,21874,-661,-220,-558,-1624,35229,45,35,127,0,0,5086,-703,0,2535,357,174,123,1,0,366,0,364255,0
364293,-13,-1896,751,-12,105,-1965,21560,-700,-161,-492,-1688,35213,52,35,127,0,0,5025,-637,0,2535,357,174,133,1,0,366,0,364255,0
364303,46,-1920,525,-95,38,-1875,21234,-718,-75,-434,-1688,35210,61,34,127,0,0,4965,-582,0,2535,357,174,143,1,0,366,0,364271,0
364313,-416,-1798,410,-87,30,-1693,20914,-705,-5,-424,-1656,35217,73,34,127,0,0,4908,-571,0,2535,357,174,153,1,0,366,0,364287,0
364323,-538,-1831,504,-8,22,-1528,20597,-690,17,-393,-1640,35223,77,35,127,0,0,4853,-538,0,2535,357,174,163,1,0,366,0,364302,0
364333,-478,-1916,412,20,-14,-1367,20287,-660,23,-377,-1448,35221,54,35,127,0,0,4809,-461,0,2535,357,174,173,1,0,366,0,364302,0
364343,-444,-1970,302,12,-14,-1359,19993,-637,51,-348,-1320,35212,58,34,127,0,0,4765,-439,0,2535,357,174,183,1,0,366,0,364302,0
364353,-597,-2058,276,7,43,-1438,19712,-613,51,-361,-1280,35217,37,35,127,0,0,4717,-505,0,2535,357,174,193,1,0,366,0,364333,0
364363,-747,-1950,338,27,32,-1457,19441,-595,43,-372,-1296,35222,35,34,127,0,0,4669,-516,0,2535,357,174,203,1,0,366,0,364333,0
364373,-812,-1931,250,78,11,-1442,19166,-601,14,-377,-1224,35222,34,34,127,0,0,4620,-472,0,2535,357,174,213,1,0,366,0,364333,0
364383,-712,-1978,206,93,68,-1543,18897,-584,0,-366,-1168,35220,38,35,127,0,0,4572,-483,0,2535,357,174,223,1,0,366,0,364349,0
364393,-557,-1843,396,20,134,-1761,18637,-582,23,-405,-1248,35223,53,34,127,0,0,4517,-582,0,2535,357,174,233,1,0,366,0,364380,0
364403,-544,-2004,575,-45,88,-1730,18362,-601,-17,-384,-1264,35231,47,34,127,0,0,4460,-571,0,2535,357,174,243,1,0,366,0,364380,0
364413,-470,-2087,778,-142,41,-1683,18079,-621,-41,-412,-1352,35222,48,34,127,0,0,4403,-582,0,2535,357,174,253,1,0,366,0,364380,0
364424,-437,-2047,748,-201,61,-1710,17764,-631,-14,-388,-1368,35212,43,35,127,0,0,4340,-543,0,2535,357,174,264,1,0,366,0,364380,0
364434,-371,-2073,651,-297,90,-1824,17476,-622,-3,-411,-1416,35216,38,35,127,0,0,4278,-626,0,2535,357,174,274,1,0,366,0,364427,0
364444,-365,-2059,623,-375,74,-1839,17215,-639,-11,-452,-1472,35224,49,35,127,0,0,4219,-571,0,2535,357,174,284,1,0,366,0,364427,0
364454,-416,-2078,591,-443,23,-1810,16908,-681,-40,-407,-1448,35218,54,35,127,0,0,4156,-554,0,2535,357,174,294,1,0,366,0,364427,0
364464,-408,-2046,460,-478,48,-1859,16600,-683,-30,-418,-1504,35209,46,35,127,0,0,4096,-593,0,2535,357,174,304,1,0,366,0,364427,0
364474,-320,-1995,341,-525,82,-1979,16292,-687,-1,-391,-1488,35204,43,35,127,0,0,4030,-692,0,2535,357,174,314,1,0,366,0,364443,0
364484,-311,-1975,342,-567,60,-1982,15975,-701,-23,-390,-1520,35214,45,35,127,0,0,3971,-653,0,2535,357,174,324,1,0,366,0,364474,0
364494,-257,-1978,351,-589,35,-1964,15657,-700,-20,-437,-1536,35222,45,34,127,0,0,3910,-598,0,2535,357,174,334,1,0,366,0,364490,0
364504,-209,-1982,329,-591,50,-1979,15332,-722,-23,-365,-1520,35230,42,34,127,0,0,3850,-571,0,2535,357,174,344,1,0,366,0,364490,0
364514,-71,-1999,327,-607,74,-2035,15010,-709,-8,-462,-1552,35230,38,35,127,0,0,3783,-593,0,2535,357,174,354,1,0,366,0,364510,0
364524,-89,-2001,382,-622,52,-2025,14677,-740,-15,-426,-1592,35236,61,35,127,0,0,3717,-670,0,2535,357,174,364,1,0,366,0,364510,0
364534,-86,-2046,453,-630,16,-1944,14340,-739,-37,-396,-1576,35224,48,35,127,0,0,3656,-615,0,2535,357,174,374,1,0,366,0,364525,0
364544,-30,-2042,426,-642,11,-1908,14010,-719,2,-392,-1576,35212,40,35,127,0,0,3594,-587,0,2535,357,174,384,1,0,366,0,364525,0
364554,51,-1992,304,-658,14,-1930,13680,-721,14,-364,-1560,35211,26,35,127,0,0,3539,-593,0,2535,357,174,394,1,0,366,0,364541,0
364564,85,-1965,223,-680,2,-1938,13366,-687,36,-392,-1528,35213,21,35,127,0,0,3473,-648,0,2535,357,174,404,1,0,366,0,364541,0
364574,72,-1947,241,-673,-36,-1906,13054,-690,29,-386,-1552,35223,37,35,127,0,0,3413,-615,0,2535,357,174,414,1,0,366,0,364541,0
364584,26,-1973,247,-664,-41,-1847,12748,-668,15,-437,-1544,35218,30,35,127,0,0,3347,-615,0,2535,357,174,424,1,0,366,0,364572,0
364594,54,-2010,271,-624,-24,-1805,12441,-667,11,-436,-1552,35222,40,35,127,0,0,3294,-571,0,2535,357,174,434,1,0,366,0,364572,0
364604,145,-2018,246,-615,-26,-1798,12140,-652,13,-486,-1552,35219,43,35,127,0,0,3234,-565,0,2535,357,174,444,1,0,366,0,364572,0
364614,192,-2063,226,-601,-22,-1811,11835,-676,8,-494,-1592,35219,60,35,127,0,0,3172,-582,0,2535,357,174,454,1,0,366,0,364588,0
364624,126,-2086,250,-581,-51,-1769,11525,-678,-15,-477,-1592,35204,58,35,127,0,0,3112,-620,0,2535,357,174,464,1,0,366,0,364588,0
364634,143,-2093,269,-557,-66,-1725,11217,-685,-7,-471,-1552,35204,47,35,127,0,0,3053,-604,0,2535,357,174,474,1,0,366,0,364619,0
364644,165,-2052,212,-551,-65,-1765,10908,-674,0,-449,-1512,35213,23,35,127,0,0,2993,-571,0,2535,357,174,484,1,0,366,0,364619,0
364654,177,-1992,178,-563,-79,-1825,10608,-649,18,-488,-1440,35219,23,35,127,0,0,2938,-582,0,2535,357,174,494,1,0,366,0,364634,0
364664,113,-1976,227,-573,-96,-1827,10320,-637,35,-456,-1440,35211,23,35,127,0,0,2886,-554,0,2535,357,174,504,1,0,366,0,364634,0
364675,103,-1978,274,-578,-98,-1865,10006,-629,20,-478,-1392,35216,32,35,127,0,0,2819,-560,0,2535,357,174,515,1,0,366,0,364634,0
364685,97,-1942,297,-638,-93,-1950,9725,-610,17,-447,-1416,35222,34,35,127,0,0,2761,-560,0,2535,357,174,525,1,0,366,0,364666,0
364695,104,-2021,406,-720,-111,-2012,9444,-612,7,-462,-1352,35224,33,35,127,0,0,2700,-593,0,2535,357,174,535,1,0,366,0,364666,0
364705,353,-2022,293,-682,-111,-1984,9168,-613,11,-475,-1368,35210,43,35,127,0,0,2643,-560,0,2535,357,174,545,1,0,366,0,364666,0
364715,398,-2018,243,-713,-186,-1930,8892,-610,5,-445,-1344,35207,40,35,127,0,0,2586,-538,0,2535,357,174,555,1,0,366,0,364681,0
364725,307,-2029,163,-684,-240,-1864,8616,-599,0,-452,-1296,35228,32,35,127,0,0,2529,-571,0,2535,357,174,565,1,0,366,0,364697,0
364735,293,-2010,157,-675,-254,-1854,8344,-593,11,-412,-1248,35241,26,35,127,0,0,2478,-527,0,2535,357,174,575,1,0,366,0,364713,0
364745,268,-2022,175,-662,-276,-1907,8078,-590,76,-377,-1216,35236,27,35,127,0,0,2425,-505,0,2535,357,174,585,1,0,366,0,364713,0
364755,156,-2027,165,-670,-290,-1937,7820,-554,53,-409,-1192,35224,24,35,127,0,0,2377,-472,0,2535,357,174,595,1,0,366,0,364713,0
364765,72,-2033,281,-697,-364,-2061,7573,-539,-19,-389,-1096,35220,23,35,127,0,0,2324,-527,0,2535,357,174,605,1,0,366,0,364744,0
364775,6,-2075,334,-711,-424,-2174,7339,-507,45,-481,-1136,35222,24,35,127,0,0,2271,-538,0,2535,357,174,615,1,0,366,0,364744,0
364785,57,-2222,362,-778,-443,-2283,7117,-476,46,-602,-1176,35215,32,35,127,0,0,2223,-494,0,2535,357,174,625,1,0,366,0,364744,0
364795,413,-2427,659,-746,-809,-2350,6899,-479,26,-612,-1104,35220,38,35,127,0,0,2181,-406,0,2535,357,174,635,1,0,366,0,364775,0
364805,445,-3259,652,-865,-1165,-2054,6686,-463,16,-611,-984,35222,36,35,127,0,0,2155,-186,0,2535,357,174,645,1,0,366,0,364775,0
364815,125,-3081,767,-942,-1073,-1954,6491,-392,36,-431,-656,35227,29,35,127,0,0,2159,76,0,2535,357,174,655,1,0,366,0,364775,0
364825,69,-2684,331,-1093,-1038,-2108,6352,-251,149,-355,-240,35225,30,35,127,0,0,2177,208,0,2535,357,174,665,1,0,366,0,364900,0
364835,105,-2565,222,-1072,-1080,-2260,6316,16,294,-80,32,35219,23,35,127,0,0,2199,208,0,2535,357,174,675,1,0,366,0,364916,0
364845,193,-2777,92,-1188,-1254,-2309,6380,182,400,131,160,35223,18,35,127,0,0,2228,307,0,2535,357,174,685,1,0,366,0,364916,0
364855,-165,-2934,165,-1272,-1180,-2292,6483,246,263,213,296,35216,4,35,127,0,0,2271,472,0,2535,357,174,695,1,0,366,0,364916,0
364865,16,-3075,147,-1378,-1033,-2416,6616,321,128,311,552,35217,-7,35,127,0,0,2333,659,0,2535,357,174,705,1,0,366,0,364916,0
364875,-27,-2873,247,-1335,-827,-2711,6794,428,143,340,752,35211,-4,35,127,0,0,2395,615,0,2535,357,174,715,1,0,366,0,364916,0
364885,33,-2744,197,-1516,-882,-2766,7006,488,159,326,936,35209,-3,35,127,0,0,2471,791,0,2535,357,174,725,1,0,366,0,364916,0
364895,-70,-2713,282,-1561,-901,-2818,7254,570,135,380,1288,35209,-13,35,127,0,0,2562,933,0,2535,357,174,735,1,0,366,0,364916,0
364905,-353,-2684,197,-1680,-1063,-2666,7537,651,137,563,1648,35217,-12,35,127,0,0,2676,1186,0,2535,357,174,745,1,0,366,0,364916,0
364915,-213,-2735,119,-1753,-945,-2843,7886,817,192,716,2200,35214,3,35,127,0,0,2805,1296,0,2535,357,174,755,1,0,366,0,364916,0
364925,-317,-2476,32,-1725,-806,-3189,8312,985,275,738,2560,35211,24,35,127,0,0,2935,1351,0,2535,357,174,765,1,0,366,0,364931,0
364935,-195,-2506,-74,-1811,-850,-3432,8802,1125,269,703,2896,35209,37,35,127,0,0,3076,1428,0,2535,357,174,775,1,0,31,0,364931,0
364945,-681,-2466,327,-1557,-994,-3541,9358,1265,240,706,3216,35203,50,35,127,0,0,3229,1549,0,2535,357,174,785,1,0,36,0,364931,0
364956,-548,-2503,318,-1406,-946,-3869,10053,1460,260,748,3640,35202,75,35,127,0,0,3393,1466,0,2535,357,174,796,1,0,41,0,364931,0
364966,-288,-2400,165,-1383,-1168,-4647,10751,1564,272,569,3744,35210,70,35,127,0,0,3537,1384,0,2535,357,174,806,1,0,44,0,364931,0
364976,197,-2776,149,-1463,-1438,-5144,11456,1533,135,426,3648,35223,64,35,127,0,0,3661,1203,0,2535,357,174,816,1,0,49,0,364947,0
364986,-31,-4086,261,-1419,-1576,-5399,12130,1457,-46,394,3504,35240,51,35,127,0,0,3767,1071,0,2535,357,174,826,1,0,52,0,364978,0
364996,112,-4136,431,-1320,-1659,-5427,12765,1374,-135,460,3472,35240,46,35,127,0,0,3893,1285,0,2535,357,174,836,1,0,57,0,364978,0
365006,-60,-3421,550,-1334,-1924,-5627,13403,1411,-71,556,3440,35217,62,35,127,0,0,4010,1181,0,2535,357,174,846,1,0,61,0,364978,0
365016,-166,-3109,581,-1288,-2321,-5509,14047,1417,27,563,3472,35199,65,35,127,0,0,4139,1373,0,2535,357,174,856,1,0,67,0,364978,0
365026,-334,-3113,531,-1125,-2874,-5130,14716,1479,55,599,3528,35205,59,35,127,0,0,4282,1411,0,2535,357,174,866,1,0,72,0,365009,0
365036,-516,-2952,485,-988,-3366,-4642,15410,1561,91,762,3904,35210,70,35,127,0,0,4471,1928,0,2535,357,174,876,1,0,79,0,365009,0
365046,-629,-2409,413,-766,-4057,-3695,16177,1752,184,1029,4552,35202,97,35,127,0,0,4684,2208,0,2535,357,174,886,1,0,84,0,365009,0
365056,-547,-2104,436,-601,-4293,-2921,17052,2013,351,1211,5504,35195,133,35,127,0,0,4940,2664,0,2535,357,174,896,1,0,92,0,365041,0
365066,1131,-2359,27,-374,-3518,-2983,18099,2420,542,1124,5992,35191,174,35,127,0,0,5161,2037,0,2535,357,174,906,1,0,97,0,365041,0
365076,1093,-2013,15,-139,-2207,-3313,19213,2397,482,277,4800,35200,174,35,127,0,0,5207,318,0,2535,357,174,916,1,0,106,0,365041,0
365086,739,-1543,-90,58,-778,-3369,20144,1865,-217,-271,2320,35200,119,35,127,0,0,5108,-1087,0,2535,357,174,926,1,0,111,74,365056,0
365096,408,-1381,5,105,-369,-3069,20699,880,-1062,-1509,-528,35229,29,35,127,0,0,4927,-1812,0,2535,357,174,936,0,0,120,71,365072,0
365106,398,-1588,14,140,-495,-2306,20562,-612,-2073,-1492,-2192,35246,0,35,127,0,0,4748,-1768,0,2535,357,174,946,0,0,125,68,365088,0
365116,66,-1647,62,224,-722,-1592,20128,-1085,-1907,-1056,-3144,35243,43,35,127,0,0,4585,-1560,0,2535,357,174,956,0,0,133,64,365088,0
365126,315,-1755,24,319,-896,-576,19530,-1381,-846,-648,-3448,35229,91,35,127,0,0,4462,-1181,0,2535,357,174,966,0,0,139,62,365103,0
365136,243,-1794,81,453,-903,18,18866,-1472,-429,-380,-3304,35216,112,35,127,0,0,4367,-994,0,2535,357,174,976,0,0,148,58,365103,0
365146,293,-1837,72,621,-720,767,18219,-1388,-94,-174,-2872,35223,85,35,127,0,0,4283,-774,0,2535,357,174,986,0,0,153,55,365119,0
365157,347,-1749,7,775,-397,1426,17581,-1221,175,-136,-2480,35233,51,35,127,0,0,4198,-736,0,2535,357,174,997,0,0,162,52,365119,0
365167,357,-1674,-64,841,-219,1860,17070,-1084,256,-171,-2192,35238,25,35,127,0,0,4128,-692,0,2535,357,174,1007,0,0,168,49,365150,0
365177,360,-1565,-134,992,90,2493,16617,-960,238,-188,-1920,35234,24,35,127,0,0,4062,-648,0,2535,357,174,1017,0,0,177,46,365166,0
365187,386,-1481,-166,1080,317,2948,16206,-877,189,-210,-1808,35231,11,35,127,0,0,3994,-670,0,2535,357,174,1027,0,0,182,43,365166,0
365197,409,-1396,-207,1187,622,3623,15823,-822,133,-249,-1632,35224,3,35,127,0,0,3941,-538,0,2535,357,174,1037,0,0,191,40,365166,0
365207,403,-1383,-204,1266,811,4062,15467,-764,104,-241,-1464,35227,9,35,127,0,0,3893,-483,0,2535,357,174,1047,0,0,197,38,365197,0
365217,382,-1429,-196,1415,1079,4664,15141,-688,111,-237,-1272,35224,13,34,127,0,0,3847,-450,0,2535,357,174,1057,0,0,206,35,365197,0
365227,443,-1496,-184,1511,1260,5032,14845,-622,120,-264,-1120,35228,22,35,127,0,0,3803,-450,0,2535,357,174,1067,0,0,212,33,365197,0
365237,463,-1569,-114,1686,1551,5515,14577,-575,113,-272,-1048,35229,2,35,127,0,0,3763,-439,0,2535,357,174,1077,0,0,221,30,365197,0
365247,417,-1576,-79,1774,1740,5830,14330,-532,91,-312,-1064,35240,5,35,127,0,0,3717,-483,0,2535,357,174,1087,0,0,227,28,365212,0
365257,402,-1619,-33,1898,1967,6316,14086,-533,50,-363,-1048,35235,31,35,127,0,0,3669,-428,0,2535,357,174,1097,0,0,236,26,365228,0
365267,391,-1664,4,1988,2064,6639,13843,-531,9,-310,-1056,35231,38,35,127,0,0,3627,-406,0,2535,357,174,1107,0,0,242,24,365228,0
365277,380,-1706,40,2139,2164,7100,13606,-506,10,-328,-1000,35224,29,35,127,0,0,3590,-340,0,2535,357,174,1117,0,0,251,22,365259,0
365287,430,-1734,44,2252,2216,7392,13380,-491,37,-296,-808,35220,18,35,127,0,0,3561,-241,0,2535,357,174,1127,0,0,257,20,365259,0
365297,455,-1758,57,2447,2262,7752,13177,-432,67,-287,-624,35214,13,35,127,0,0,3539,-252,0,2535,357,174,1137,0,0,265,19,365259,0
365307,476,-1757,25,2564,2274,7966,12996,-390,86,-261,-480,35203,4,35,127,0,0,3520,-208,0,2535,357,174,1147,0,0,271,17,365291,0
365317,503,-1785,25,2735,2271,8294,12847,-316,94,-277,-384,35201,11,35,127,0,0,3504,-131,0,2535,357,174,1157,0,0,280,16,365291,0
365327,553,-1827,5,2849,2303,8498,12724,-247,117,-261,-256,35213,13,35,127,0,0,3491,-98,0,2535,357,174,1167,0,0,286,15,365306,0
365337,607,-1869,-45,2971,2334,8776,12626,-180,95,-163,-120,35210,21,35,127,0,0,3489,-32,0,2535,357,174,1177,0,0,294,13,365306,0
365347,640,-1958,-53,3000,2337,8914,12594,1,178,-98,-24,35203,26,35,127,0,0,3487,0,0,2535,357,174,1187,0,0,300,12,365337,0
365357,752,-2137,-3,3031,2346,9045,12604,3,221,-257,-120,35205,6,35,127,0,0,3489,10,0,2535,357,174,1197,0,0,308,11,365337,0
365367,750,-2257,10,3050,2359,9066,12602,3,42,-222,-104,35214,-3,35,127,0,0,3487,-10,0,2535,357,174,1207,0,0,313,11,365337,0
365377,866,-2399,-17,3042,2485,9011,12604,18,-17,-256,-64,35213,9,35,127,0,0,3489,21,0,2535,357,174,1217,0,0,321,10,365337,0
365387,941,-2465,-58,3002,2669,8904,12604,2,8,-185,-80,35213,20,35,127,0,0,3489,-21,0,2535,357,174,1227,0,0,326,9,365353,0
365398,1104,-2579,-140,2876,2992,8601,12604,12,-3,-198,-64,35211,16,35,127,0,0,3487,-10,0,2535,357,174,1238,0,0,333,9,365369,0
365408,1296,-2670,-192,2778,3172,8279,12601,-9,-3,-242,-64,35216,24,35,127,0,0,3487,-5,0,2535,357,174,1248,0,0,340,8,365400,0
365418,1623,-2843,-209,2503,3299,7686,12603,-5,0,-249,-24,35219,10,35,127,0,0,3488,10,0,2535,357,174,1258,0,0,344,8,365400,0
365428,1934,-3003,-180,2211,3253,7213,12606,2,11,-136,-8,35211,19,35,127,0,0,3493,27,0,2535,357,174,1268,0,0,349,8,365400,0
365438,2426,-3275,-41,1650,2946,6319,12613,15,14,15,64,35197,12,35,127,0,0,3502,93,0,2535,357,174,1278,0,0,352,8,365400,0
365448,2725,-3400,59,1268,2608,5585,12633,42,30,240,136,35192,22,35,127,0,0,3516,131,0,2535,357,174,1288,0,0,356,7,365431,0
365458,3131,-3314,147,704,1927,4292,12672,103,53,318,144,35208,36,35,127,0,0,3525,126,0,2535,357,174,1298,0,0,358,7,365431,0
365468,3372,-3152,137,380,1385,3371,12721,99,50,296,96,35197,52,35,127,0,0,3526,-54,0,2535,357,174,1308,0,0,360,7,365431,0
365478,3474,-2875,20,49,542,1901,12754,52,-18,140,32,35188,53,35,127,0,0,3520,-109,0,2535,357,174,1318,0,0,360,7,365462,0
365488,3494,-2592,5,-83,119,763,12745,-38,-117,0,-40,35183,48,35,127,0,0,3507,-192,0,2535,357,174,1328,0,0,360,7,365478,0
365498,3290,-2166,-135,-171,-386,-889,12721,-74,-111,-408,-264,35183,42,35,127,0,0,3481,-291,0,2535,357,174,1338,0,0,359,7,365478,0
365508,3240,-1936,-231,-285,-610,-1904,12645,-206,-135,-509,-488,35186,51,35,127,0,0,3444,-357,0,2535,357,174,1348,0,0,356,7,365478,0
365518,3177,-1497,-457,-389,-714,-3172,12529,-275,-174,-576,-680,35180,57,35,127,0,0,3402,-439,0,2535,357,174,1358,0,0,354,6,365478,0
365528,2688,-2351,-764,-666,-600,-3624,12377,-370,-135,-528,-776,35189,72,34,127,0,0,3385,-87,0,2535,357,174,1368,0,0,350,6,365509,0
365538,1391,-6217,1639,-944,1158,-2332,12230,-245,-56,833,1120,35194,74,34,127,0,0,3587,2175,0,1516,421,175,2,1,1,347,6,365509,0
365548,1068,1751,2675,1509,1763,-3681,12464,693,804,979,1704,35190,79,35,127,0,0,3635,313,0,1516,421,175,12,1,1,347,6,365525,0
365558,-390,-1135,375,-2030,-2379,-1302,12802,767,914,875,2904,35172,81,35,127,0,0,3762,1400,0,1516,421,175,22,1,1,347,6,365525,0
365568,-2988,-3021,966,-2046,-3122,-424,13375,1541,622,2099,5336,35152,145,35,127,0,0,4008,2543,0,1516,421,175,32,1,1,347,6,365541,0
365578,-1610,-2670,-2052,-1717,224,-3127,14403,2529,1426,1519,6520,35138,229,35,127,0,0,4166,1433,0,1516,421,175,42,1,1,347,6,365541,0
365588,4,-2855,-1487,-1523,2261,-5117,15658,2769,1260,376,5792,35129,253,35,127,0,0,4170,-82,0,1516,421,175,52,1,1,347,6,365634,0
365598,2065,-2967,1039,-1273,1307,-6957,16802,2381,92,-201,3536,35142,205,35,127,0,0,4013,-1669,0,1516,421,175,62,1,1,347,6,365634,0
365608,1274,-2840,1030,-1491,-573,-6339,17634,1520,-896,-1130,808,35165,82,35,127,0,0,3799,-2092,0,1516,421,175,72,1,1,347,6,365634,0
365618,1353,-1341,-79,-2053,-503,-4677,17986,480,-1587,-1214,-256,35193,13,35,127,0,0,3660,-1367,520,1516,421,175,82,1,1,347,6,365634,0
365628,-671,-1898,-822,-1627,-877,-4319,17963,-76,-1596,317,48,35192,17,35,127,0,0,3536,-1197,720,1516,421,175,92,1,1,347,6,365650,0
365638,2131,-1669,-1939,-830,-215,-2843,17823,-464,-830,467,-320,35183,34,35,127,0,0,3522,-181,920,1516,421,175,102,1,1,347,6,365650,0
365648,1075,-1502,-581,-527,-114,-2997,17351,-1303,-913,423,-2224,35170,40,35,127,0,0,3432,-900,1120,1516,421,175,112,1,1,347,6,365650,0
365658,-283,-2064,174,-503,779,-3601,16574,-1818,-1239,472,-2848,35176,24,34,127,0,0,3292,-1455,1320,1516,421,175,122,1,1,347,6,365650,0
365668,-24,-2261,129,-538,1518,-3347,15773,-1685,-531,622,-1984,35183,17,34,127,0,0,3130,-1609,1500,1516,421,175,132,1,1,347,6,365650,0
365679,979,-2477,588,-137,598,-2475,15124,-1073,503,809,-280,35188,17,35,127,0,0,3008,-1032,1500,1516,421,175,143,1,1,347,6,365650,0
365689,847,-2621,668,-235,-564,-1012,14928,-104,1205,1565,408,35195,7,35,127,0,0,2968,-351,1500,1516,421,175,153,1,1,347,6,365650,0
365699,1078,-2138,407,-367,-999,-594,14980,81,1206,975,248,35210,10,35,127,0,0,2981,142,1500,1516,421,175,163,1,1,347,6,365681,0
365709,-340,-2183,-577,-252,-428,-561,14925,-179,126,937,64,35222,33,35,127,0,0,2992,43,1500,1516,421,175,173,1,1,347,6,365681,0
365719,-556,-1992,-664,89,112,-814,14792,-348,-368,860,0,35210,50,35,127,0,0,2968,-263,1500,1516,421,175,183,1,1,347,6,365681,0
365729,664,-1892,128,277,560,-947,14584,-497,-289,816,-88,35190,38,35,127,0,0,2931,-384,1500,1516,421,175,193,1,1,347,6,365697,0
365739,565,-2123,520,350,419,-710,14367,-439,-148,909,0,35177,20,35,127,0,0,2889,-406,1500,1516,421,175,203,1,1,347,6,365712,0
365749,282,-1925,302,132,-223,-179,14273,-96,244,946,232,35202,22,35,127,0,0,2871,-120,1500,1516,421,175,213,1,1,347,6,365728,0
365759,280,-2161,197,178,-389,11,14293,51,442,879,320,35210,44,35,127,0,0,2878,76,1500,1516,421,175,223,1,1,347,6,365728,0
365769,-209,-2236,14,223,-105,-170,14291,-31,168,933,240,35206,66,35,127,0,0,2878,0,1500,1516,421,175,233,1,1,347,6,365744,0
365779,-113,-2228,188,240,83,-322,14282,-13,-72,902,248,35199,78,35,127,0,0,2876,-54,1500,1516,421,175,243,1,1,347,6,365744,0
365789,438,-2082,602,146,-19,-355,14261,-69,-33,933,152,35206,78,35,127,0,0,2871,-43,1500,1516,421,175,253,1,1,347,6,365759,0
365799,261,-1913,544,66,-90,-412,14176,-229,-153,906,56,35222,71,35,127,0,0,2858,-142,1500,1516,421,175,263,1,1,347,6,365775,0
365809,-54,-1994,225,-1,46,-448,14076,-192,-155,895,128,35215,60,35,127,0,0,2843,-153,1500,1516,421,175,273,1,1,347,6,365775,0
365819,143,-1928,202,6,78,-444,14027,-91,79,900,200,35201,49,35,127,0,0,2836,-65,1500,1516,421,175,283,1,1,347,6,365775,0
365829,339,-1987,330,-8,-94,-305,14013,0,161,877,272,35205,51,34,127,0,0,2832,-21,1500,1516,421,175,293,1,1,347,6,365806,0
365839,366,-2020,290,-7,-162,-286,14013,-12,99,906,264,35210,53,34,127,0,0,2832,-10,1500,1516,421,175,303,1,1,347,6,365806,0
365849,308,-2083,48,-13,-151,-337,14007,-15,3,911,240,35209,76,35,127,0,0,2832,0,1500,1516,421,175,313,1,1,347,6,365806,0
365859,316,-2035,45,22,-123,-391,13986,-64,-40,927,160,35204,77,35,127,0,0,2827,-43,1500,1516,421,175,323,1,1,347,6,365837,0
365869,223,-2007,33,112,-157,-499,13923,-141,-109,910,120,35191,102,35,127,0,0,2814,-109,1500,1516,421,175,333,1,1,347,6,365837,0
365879,129,-1981,128,178,-262,-553,13848,-156,-110,899,112,35204,79,35,127,0,0,2799,-164,1500,1516,421,175,343,1,1,347,6,365853,0
365889,108,-1902,301,162,-635,-683,13778,-145,-3,903,120,35211,62,35,127,0,0,2788,-131,1500,1516,421,175,353,1,1,347,6,365853,0
365899,-219,-2228,363,125,-730,-755,13722,-97,37,894,160,35196,38,35,127,0,0,2779,-109,1500,1516,421,175,363,1,1,347,6,365869,0
365910,-543,-2377,393,-149,-637,-945,13696,-16,91,880,248,35192,45,35,127,0,0,2775,10,1500,1516,421,175,374,1,1,347,6,365900,0
365920,-683,-2472,454,-273,-427,-1169,13699,-6,113,911,232,35200,46,35,127,0,0,2775,49,1500,1516,421,175,384,1,1,347,6,365900,0
365930,-759,-2183,462,-398,-313,-1630,13696,-7,23,899,224,35207,64,35,127,0,0,2772,-21,1500,1516,421,175,394,1,1,347,6,365900,0
365940,-588,-2175,530,-533,-400,-1933,13681,-54,-25,922,192,35197,61,35,127,0,0,2770,-82,1500,1516,421,175,404,1,1,347,6,365900,0
365950,-360,-2244,550,-755,-529,-2552,13613,-219,-119,968,40,35197,70,35,127,0,0,2759,-71,1700,1516,421,175,414,1,1,347,6,365931,0
365960,-589,-2178,480,-907,-487,-3004,13443,-422,-315,1047,-56,35210,52,35,127,0,0,2722,-346,2020,1516,421,175,424,1,1,347,6,365931,0
365970,-348,-2513,477,-1090,-336,-3445,13221,-499,-299,1253,0,35220,44,35,127,0,0,2682,-417,2410,1516,421,175,434,1,1,347,6,365931,0
365980,-151,-2794,592,-1117,-420,-3486,13056,-287,5,1649,176,35218,36,35,127,0,0,2648,-357,2840,1516,421,175,444,1,1,347,6,365947,0
365990,374,-2866,665,-1122,-904,-3427,13009,-35,348,1723,480,35201,32,35,127,0,0,2641,-49,3050,1516,421,175,454,1,1,347,6,365978,0
366000,279,-2711,492,-1241,-1120,-3434,13030,69,364,1865,632,35197,26,35,127,0,0,2644,76,3310,1516,421,175,464,1,1,347,6,365994,0
366010,-187,-2921,292,-1404,-1035,-3552,13086,144,188,1962,968,35197,38,35,127,0,0,2655,120,3610,1516,421,175,474,1,1,347,6,365994,0
366020,-438,-3148,176,-1484,-740,-3687,13219,364,201,2093,1736,35187,72,35,127,0,0,2681,269,3970,1516,421,175,484,1,1,347,6,365994,0
366030,-343,-3183,253,-1639,-614,-3727,13493,722,414,2444,2896,35169,115,35,127,0,0,2732,587,4380,1516,421,175,494,1,1,347,6,365994,0
366040,-279,-3239,388,-1771,-692,-3612,13961,1169,655,2806,3968,35149,166,35,127,0,0,2817,884,4910,1516,421,175,504,1,1,347,6,366009,0
366050,-274,-3117,532,-1856,-1039,-3494,14648,1653,797,3150,5208,35146,263,34,127,0,0,2941,1279,5590,1516,421,175,514,1,1,347,6,366040,0
366060,-461,-3246,520,-1837,-1190,-3459,15543,2094,820,3558,6208,35131,387,34,127,0,0,3092,1593,6470,1516,421,175,524,1,1,347,6,366040,0
366070,-1035,-3335,355,-1689,-1113,-3458,16605,2423,720,4052,7264,35086,555,35,127,0,0,3289,1922,7610,1516,421,175,534,1,1,347,6,366040,0
366080,-1360,-3102,275,-1524,-1416,-3440,17805,2746,574,4718,8328,35009,725,35,127,0,0,3506,2180,8860,1516,421,175,544,1,1,347,6,366040,0
366090,-1554,-2560,-5,-1289,-1120,-4002,19217,3265,668,5434,9832,34933,963,35,127,0,0,3761,2526,9870,1516,421,175,554,1,1,347,6,366072,0
366100,-1237,-2653,-162,-1204,-1497,-4105,20789,3492,734,5989,10568,34863,1255,35,127,0,0,4041,2828,11030,1516,421,175,564,1,1,347,6,366072,0
366110,-1324,-3606,115,-1522,-1611,-3778,22436,3726,428,6676,11048,34770,1583,35,127,0,0,4347,3131,12380,1516,421,175,574,1,1,347,6,366103,0
366120,-1402,-3623,101,-1618,-1248,-4650,24269,4128,508,7591,11952,34649,1933,35,127,0,0,4658,3103,13430,1516,421,175,584,1,1,347,6,366103,0
366130,216,-4884,242,-1705,-1522,-5386,26107,3964,396,7779,11312,34544,2267,35,127,0,0,4963,3125,13210,1516,421,175,594,1,1,347,6,366103,0
366140,104,-4900,908,-1765,-1849,-5735,27735,3377,-392,7520,9584,34488,2451,35,127,0,0,5250,2746,11690,1516,421,175,604,1,1,347,6,366119,0
366151,-76,-3815,928,-1692,-2069,-6570,29053,2181,-1244,5225,5096,34520,2335,35,127,0,0,5501,2263,4880,1516,421,175,615,1,1,347,6,366119,0
366161,807,-3672,860,-1713,-2022,-8313,29475,353,-2257,2129,-208,34690,1742,35,127,0,0,5594,769,2110,1516,421,175,625,1,1,347,6,366150,0
366171,220,-3542,997,-1528,-2647,-8693,29152,-987,-2933,694,-1296,34912,958,35,127,0,0,5541,-615,1540,1516,421,175,635,1,1,347,6,366150,0
366181,-2320,-2173,1552,-1068,-4530,-7156,28653,-1034,-1780,548,-2224,35108,324,35,127,0,0,5464,-780,0,1516,421,175,645,0,1,347,6,366165,0
366191,-3846,-1314,2145,-156,-6220,-3044,28028,-1786,-483,-2372,-5064,35189,92,35,127,0,0,5666,2526,0,1516,421,175,655,0,1,347,6,366165,0
366201,2368,-3216,-465,-1192,-4638,-3710,27067,-2243,-985,-983,-3952,35169,148,35,127,0,0,5908,2164,0,1516,421,175,665,0,1,347,6,366165,0
366211,730,-3010,-172,-862,-3807,-3830,26226,-1561,-454,1004,-1352,35164,174,35,127,0,0,5939,153,0,1516,421,175,675,0,1,347,6,366197,0
366221,926,-2075,-58,-252,-2762,-3294,25759,-855,1002,384,-808,35180,137,35,127,0,0,5871,-834,0,1516,421,175,685,0,1,347,6,366197,0
366231,427,-1649,103,-228,-1757,-2961,25470,-594,1069,-327,-1792,35207,58,35,127,0,0,5695,-1845,0,1516,421,175,695,0,1,347,6,366197,0
366241,339,-1658,166,-38,-967,-2204,25070,-1060,139,-1472,-3448,35204,54,35,127,0,0,5475,-2274,0,1516,421,175,705,0,1,347,6,366212,0
366251,289,-1578,73,144,-734,-1656,24394,-1649,-772,-1359,-4688,35185,142,35,127,0,0,5240,-2362,0,1516,421,175,715,0,1,347,6,366228,0
366261,298,-1472,-1,309,-570,-479,23502,-2068,-948,-975,-5128,35170,168,35,127,0,0,5042,-1922,0,1516,421,175,725,0,1,347,6,366228,0
366271,358,-1446,-7,412,-377,315,22533,-2139,-565,-552,-4976,35181,183,35,127,0,0,4882,-1560,0,1516,421,175,735,0,1,347,6,366243,0
366281,446,-1318,14,528,-80,1339,21615,-1956,-54,-267,-4528,35187,165,35,127,0,0,4754,-1252,0,1516,421,175,745,0,1,347,6,366243,0
366291,431,-1245,-5,584,152,1991,20797,-1733,297,-172,-3896,35181,121,35,127,0,0,4651,-1010,0,1516,421,175,755,0,1,347,6,366275,0
366301,465,-1176,-76,766,540,2882,20070,-1548,368,-128,-3272,35193,94,35,127,0,0,4570,-812,0,1516,421,175,765,0,1,347,6,366275,0
366311,513,-1089,-159,894,894,3386,19422,-1369,326,-89,-2728,35190,69,34,127,0,0,4489,-769,0,1516,421,175,775,0,1,347,6,366275,0
366321,541,-930,-257,1076,1409,4085,18858,-1191,308,-103,-2360,35199,62,34,127,0,0,4398,-922,0,1516,421,175,785,0,1,347,6,366290,0
366331,568,-870,-294,1187,1752,4580,18366,-1039,302,-204,-2160,35190,78,35,127,0,0,4308,-911,0,1516,421,175,795,0,1,347,6,366290,0
366341,567,-859,-312,1324,2188,5354,17915,-974,219,-323,-2120,35181,66,35,127,0,0,4220,-867,0,1516,421,175,805,0,1,347,6,366368,0
366351,517,-909,-291,1422,2383,5890,17486,-933,115,-321,-1976,35198,50,35,127,0,0,4144,-769,0,1516,421,175,815,0,1,347,6,366384,0
366361,484,-1077,-177,1572,2545,6648,17083,-867,93,-304,-1808,35198,42,35,127,0,0,4084,-604,0,1516,421,175,825,0,1,347,6,366384,0
366371,477,-1166,-150,1701,2637,7083,16716,-777,120,-215,-1448,35198,69,35,127,0,0,4036,-461,0,1516,421,175,835,0,1,347,6,366384,0
366381,481,-1206,-94,1848,2738,7725,16401,-656,166,-203,-1104,35180,70,35,127,0,0,3999,-362,0,1516,421,175,845,0,1,347,6,366400,0
366391,504,-1217,-108,1912,2787,8123,16131,-558,188,-157,-776,35178,67,35,127,0,0,3970,-296,0,1516,421,175,855,0,1,347,6,366400,0
366401,511,-1287,-137,1988,2783,8660,15913,-445,191,-181,-464,35190,35,35,127,0,0,3948,-219,0,1516,421,175,865,0,1,347,6,366400,0
366411,493,-1334,-169,2044,2763,8981,15745,-344,190,-150,-216,35186,46,35,127,0,0,3930,-164,0,1516,421,175,875,0,1,347,6,366400,0
366422,420,-1400,-185,2142,2762,9390,15649,-139,245,-160,-104,35181,41,35,127,0,0,3915,-137,0,1516,421,175,886,0,1,347,6,366400,0
366432,443,-1435,-224,2217,2833,9634,15608,-46,242,-65,-64,35196,57,35,127,0,0,3896,-131,0,1516,421,175,896,0,1,347,6,366400,0
366442,425,-1469,-292,2327,3018,10000,15601,-16,146,-168,-96,35215,54,35,127,0,0,3884,-181,0,1516,421,175,906,0,1,347,6,366400,0
366452,409,-1520,-330,2372,3239,10175,15576,-66,21,-177,-40,35234,61,34,127,0,0,3866,-126,0,1516,421,175,916,0,1,347,6,366431,0
