state_time,accelx,accely,accelz,gyrox,gyroy,gyroz,mot_ang,mot_vel,mot_acc,mot_cur,mot_volt,batt_volt,batt_curr,temperature,status_mn,status_ex,status_re,ank_ang,ank_vel,ank_torque,peak_ank_torque,step_energy,step_count,step_time,gait_state,movement,speed,incline,sys_time,eventFlags
506088,164,-2047,381,-78,42,130,6502,1,2,232,48,35659,-31,33,127,0,0,2232,-5,0,1121,0,201,25216,-4,0,9,0,506068,0
506098,169,-2035,384,-80,42,124,6501,-2,-4,218,64,35668,-47,33,127,0,0,2228,-27,0,1121,0,201,25226,-4,0,9,0,506083,0
506108,199,-2043,382,-83,38,128,6500,-12,-5,168,32,35670,-33,33,127,0,0,2236,54,0,1121,0,201,25236,-4,0,9,0,506099,0
506118,176,-2026,391,-80,38,138,6500,-7,-2,187,72,35669,-31,33,127,0,0,2234,65,0,1121,0,201,25246,-4,0,9,0,506115,0
506128,171,-2063,381,-87,32,147,6501,-5,3,193,48,35659,-29,33,127,0,0,2232,10,0,1121,0,201,25256,-4,0,9,0,506130,0
506139,180,-2051,382,-87,34,137,6502,0,-5,181,48,35665,-35,33,127,0,0,2234,43,0,1121,0,201,25267,-4,0,9,0,506130,0
506149,181,-2046,389,-89,45,140,6501,-1,-3,233,80,35669,-41,33,127,0,0,2232,0,0,1121,0,201,25277,-4,0,9,0,506130,0
506159,170,-2049,379,-89,33,125,6502,3,-3,227,40,35662,-22,33,127,0,0,2232,-10,0,1121,0,201,25287,-4,0,9,0,506130,0
506169,151,-2062,377,-85,43,131,6501,-1,-3,247,64,35655,-3,33,127,0,0,2232,0,0,1121,0,201,25297,-4,0,9,0,506161,0
506179,180,-2034,380,-81,41,129,6501,-23,-3,191,48,35658,-8,34,127,0,0,2232,10,0,1121,0,201,25307,-4,0,9,0,506161,0
506189,181,-2037,386,-86,38,126,6504,10,2,227,32,35658,-3,34,127,0,0,2234,-10,0,1121,0,201,25317,-4,0,9,0,506161,0
506199,156,-2051,380,-84,44,133,6503,2,5,237,32,35667,-21,34,127,0,0,2234,21,0,1121,0,201,25327,-4,0,9,0,506177,0
506209,185,-2054,376,-84,35,128,6502,-1,-6,207,48,35668,-20,33,127,0,0,2232,0,0,1121,0,201,25337,-4,0,9,0,506193,0
506219,170,-2059,380,-85,33,133,6503,5,4,200,40,35668,-43,33,127,0,0,2232,10,0,1121,0,201,25347,-4,0,9,0,506193,0
506229,175,-2040,387,-83,33,128,6501,0,1,207,48,35665,-51,33,127,0,0,2234,32,0,1121,0,201,25357,-4,0,9,0,506208,0
506239,171,-2052,386,-82,40,133,6503,1,2,250,72,35665,-51,33,127,0,0,2234,10,0,1121,0,201,25367,-4,0,9,0,506224,0
506249,174,-2052,385,-84,35,136,6503,2,3,231,40,35662,-39,33,127,0,0,2234,10,0,1121,0,201,25377,-4,0,9,0,506240,0
506259,155,-2058,379,-85,36,136,6504,12,4,292,80,35661,-40,33,127,0,0,2234,0,0,1121,0,201,25387,-4,0,9,0,506240,0
506269,170,-2036,381,-85,35,126,6506,-9,5,254,48,35657,-42,33,127,0,0,2234,-10,0,1121,0,201,25397,-4,0,9,0,506240,0
506279,169,-2036,388,-81,33,126,6505,0,-10,272,112,35662,-48,33,127,0,0,2236,21,0,1121,0,201,25407,-4,0,9,0,506255,0
506289,172,-2035,384,-79,41,131,6509,-5,5,275,72,35664,-55,34,127,0,0,2234,-21,0,1121,0,201,25417,-4,0,9,0,506286,0
506299,174,-2051,379,-81,36,134,6507,0,-5,240,112,35666,-45,34,127,0,0,2236,32,0,1121,0,201,25427,-4,0,9,0,506286,0
506309,172,-2037,379,-81,33,134,6509,-1,0,253,80,35665,-41,33,127,0,0,2236,10,0,1121,0,201,25437,-4,0,9,0,506286,0
506319,175,-2049,377,-85,29,136,6509,-1,-5,280,104,35664,-25,33,127,0,0,2239,43,0,1121,0,201,25447,-4,0,9,0,506286,0
506329,159,-2040,381,-82,38,125,6516,21,6,318,80,35664,-16,33,127,0,0,2236,-10,0,1121,0,201,25457,-4,0,9,0,506302,0
506339,183,-2051,376,-83,31,130,6526,19,21,176,24,35662,-16,33,127,0,0,2239,10,0,1121,0,201,25467,-4,0,9,0,506333,0
506349,170,-2044,382,-81,39,130,6538,27,11,158,24,35661,-20,33,127,0,0,2241,21,0,1121,0,201,25477,-4,0,9,0,506333,0
506359,170,-2046,382,-79,41,131,6556,30,12,46,-16,35654,-11,33,127,0,0,2239,-32,0,1121,0,201,25487,-4,0,9,0,506333,0
506369,144,-2061,382,-80,31,140,6556,10,-24,53,24,35659,6,33,127,0,0,2239,-21,0,1121,0,201,25497,-4,0,9,0,506349,0
506380,164,-2031,397,-87,31,135,6555,1,-22,38,16,35655,10,33,127,0,0,2241,32,0,1121,0,201,25508,-4,0,9,0,506365,0
506390,177,-2041,389,-88,33,139,6555,-11,-1,48,16,35659,-1,33,127,0,0,2241,27,0,1121,0,201,25518,-4,0,9,0,506381,0
506400,177,-2058,380,-86,33,135,6557,-1,0,56,16,35661,-15,33,127,0,0,2241,0,0,1121,0,201,25528,-4,0,9,0,506381,0
506410,172,-2051,379,-82,36,137,6557,6,3,71,16,35660,-32,33,127,0,0,2241,0,0,1121,0,201,25538,-4,0,9,0,506396,0
506420,162,-2044,377,-76,32,129,6556,3,1,80,8,35651,-18,33,127,0,0,2247,38,0,1121,0,201,25548,-4,0,9,0,506396,0
506430,160,-2054,379,-82,35,125,6558,7,3,136,8,35649,-12,34,127,0,0,2244,16,0,1121,0,201,25558,-4,0,9,0,506412,0
506440,152,-2039,382,-80,34,118,6560,6,2,178,24,35656,-28,33,127,0,0,2243,-32,0,1121,0,201,25568,-4,0,9,0,506427,0
506450,147,-2039,390,-83,24,121,6561,-2,-1,97,24,35657,-28,33,127,0,0,2243,5,0,1121,0,201,25578,-4,0,9,0,506427,0
506460,152,-2045,395,-86,34,110,6562,4,-5,144,24,35651,-22,34,127,0,0,2246,-10,0,1121,0,201,25588,-4,0,9,0,506443,0
506470,171,-2058,387,-87,27,115,6561,-4,-1,151,24,35649,-22,34,127,0,0,2243,5,0,1121,0,201,25598,-4,0,9,0,506443,0
506480,180,-2048,391,-89,29,105,6562,-1,-3,112,24,35653,-17,34,127,0,0,2243,-21,0,1121,0,201,25608,-4,0,9,0,506459,0
506490,176,-2055,382,-93,29,111,6564,14,5,129,24,35654,-7,34,127,0,0,2243,-38,0,1121,0,201,25618,-4,0,9,0,506474,0
506500,151,-2057,381,-85,29,114,6565,16,7,139,16,35654,-12,33,127,0,0,2243,-43,0,1121,0,201,25628,-4,0,9,0,506490,0
506510,141,-2067,373,-88,33,116,6565,19,1,121,40,35639,-3,33,127,0,0,2242,-32,0,1121,0,201,25638,-4,0,9,0,506490,0
506520,154,-2049,381,-88,34,113,6563,0,2,119,16,35636,-23,33,127,0,0,2243,-16,0,1121,0,201,25648,-4,0,9,0,506490,0
506530,161,-2062,378,-87,36,105,6566,10,5,150,24,35635,-32,33,127,0,0,2246,10,0,1121,0,201,25658,-4,0,9,0,506521,0
506540,153,-2050,379,-87,35,109,6564,0,1,136,16,35647,-42,33,127,0,0,2243,-5,0,1121,0,201,25668,-4,0,9,0,506521,0
506550,168,-2054,389,-83,30,106,6563,-1,-1,129,16,35651,-34,33,127,0,0,2243,-5,0,1121,0,201,25678,-4,0,9,0,506521,0
506560,170,-2042,392,-89,32,105,6564,8,0,123,40,35658,-31,34,127,0,0,2242,5,0,1121,0,201,25688,-4,0,9,0,506537,0
506570,165,-2047,395,-93,31,112,6563,-4,0,122,16,35656,-32,33,127,0,0,2240,-60,0,1121,0,201,25698,-4,0,9,0,506537,0
506580,177,-2046,385,-96,38,107,6564,-1,0,74,16,35665,-27,33,127,0,0,2243,-5,0,1121,0,201,25708,-4,0,9,0,506568,0
506590,177,-2058,380,-97,24,116,6563,-7,-2,76,24,35665,-26,33,127,0,0,2243,16,0,1121,0,201,25718,-4,0,9,0,506568,0
506600,185,-2056,377,-100,29,117,6564,-1,-2,85,24,35656,-16,33,127,0,0,2246,60,0,1121,0,201,25728,-4,0,9,0,506568,0
506610,185,-2044,375,-94,30,118,6563,-9,4,62,24,35642,-7,33,127,0,0,2240,0,0,1121,0,201,25738,-4,0,9,0,506599,0
506620,184,-2056,366,-97,33,122,6563,-3,-3,39,24,35634,-8,33,127,0,0,2240,-21,0,1121,0,201,25748,-4,0,9,0,506599,0
506631,177,-2049,371,-90,39,119,6563,0,-2,92,32,35630,-1,33,127,0,0,2243,10,0,1121,0,201,25759,-4,0,9,0,506615,0
506641,184,-2036,382,-91,37,121,6562,-9,-7,43,0,35633,-8,33,127,0,0,2241,0,0,1121,0,201,25769,-4,0,9,0,506627,0
506651,180,-2052,377,-95,40,119,6564,4,1,59,-8,35647,-24,33,127,0,0,2241,10,0,1121,0,201,25779,-4,0,9,0,506627,0
506661,174,-2039,388,-83,41,116,6563,-2,0,73,24,35642,-29,33,127,0,0,2241,-10,0,1121,0,201,25789,-4,0,9,0,506643,0
506671,180,-2031,390,-88,39,116,6563,0,-4,90,24,35648,-25,33,127,0,0,2243,0,0,1121,0,201,25799,-4,0,9,0,506659,0
506681,165,-2049,375,-86,28,122,6562,-6,-4,100,64,35636,-20,33,127,0,0,2245,21,0,1121,0,201,25809,-4,0,9,0,506659,0
506691,171,-2044,382,-86,33,123,6563,-1,0,119,16,35635,-28,33,127,0,0,2243,-10,0,1121,0,201,25819,-4,0,9,0,506659,0
506701,154,-2048,380,-88,34,130,6565,9,5,109,-8,35632,-27,33,127,0,0,2243,-21,0,1121,0,201,25829,-4,0,9,0,506690,0
506711,151,-2058,382,-84,37,129,6564,12,4,94,-8,35635,-41,33,127,0,0,2243,-10,0,1121,0,201,25839,-4,0,9,0,506690,0
506721,169,-2069,376,-95,32,132,6563,7,2,99,32,35638,-32,33,127,0,0,2243,10,0,1121,0,201,25849,-4,0,9,0,506690,0
506731,167,-2055,375,-92,30,130,6562,0,0,126,48,35653,-51,33,127,0,0,2243,0,0,1121,0,201,25859,-4,0,9,0,506737,0
506741,159,-2047,382,-97,30,126,6563,-3,-1,90,32,35654,-51,33,127,0,0,2241,-21,0,1121,0,201,25869,-4,0,9,0,506737,0
506751,157,-2043,374,-87,39,119,6564,4,3,68,24,35659,-47,33,127,0,0,2243,10,0,1121,0,201,25879,-4,0,9,0,506737,0
506761,147,-2059,372,-83,41,123,6564,-3,3,129,48,35645,-40,34,127,0,0,2245,21,0,1121,0,201,25889,-4,0,9,0,506737,0
506771,157,-2045,377,-87,36,116,6564,-1,-3,121,16,35638,-26,34,127,0,0,2245,10,0,1121,0,201,25899,-4,0,9,0,506752,0
506781,161,-2054,376,-90,35,109,6563,-4,-1,104,56,35637,-32,34,127,0,0,2245,43,0,1121,0,201,25909,-4,0,9,0,506768,0
506791,174,-2060,378,-90,38,109,6565,-1,4,113,16,35632,-29,34,127,0,0,2243,-21,0,1121,0,201,25919,-4,0,9,0,506784,0
506801,168,-2057,382,-85,33,114,6566,13,1,116,16,35635,-31,33,127,0,0,2243,-32,0,1121,0,201,25929,-4,0,9,0,506784,0
506811,143,-2055,382,-85,39,114,6565,15,4,107,-16,35641,-28,33,127,0,0,2241,-32,0,1121,0,201,25939,-4,0,9,0,506784,0
506821,149,-2067,366,-87,27,116,6564,8,2,95,16,35637,-15,34,127,0,0,2243,0,0,1121,0,201,25949,-4,0,9,0,506862,0
506831,166,-2048,376,-87,38,116,6564,0,6,88,24,35633,-6,34,127,0,0,2241,0,0,1121,0,201,25959,-4,0,9,0,506877,0
506841,143,-2039,384,-87,37,110,6564,1,1,83,24,35634,-13,34,127,0,0,2243,-10,0,1121,0,201,25969,-4,0,9,0,506877,0
506851,147,-2029,389,-89,39,112,6565,1,6,112,16,35636,-21,33,127,0,0,2243,-32,0,1121,0,201,25979,-4,0,9,0,506877,0
506861,170,-2069,377,-86,34,119,6565,13,3,120,8,35635,-21,33,127,0,0,2245,10,0,1121,0,201,25989,-4,0,9,0,506877,0
506871,157,-2042,384,-84,42,126,6564,-9,3,115,16,35629,-20,33,127,0,0,2245,21,0,1121,0,201,25999,-4,0,9,0,506877,0
506881,197,-2044,377,-99,34,126,6564,-11,-1,91,-8,35630,-15,33,127,0,0,2243,0,0,1121,0,201,26009,-4,0,9,0,506877,0
506891,167,-2060,374,-97,42,131,6564,-1,-1,79,16,35633,-26,33,127,0,0,2245,10,0,1121,0,201,26019,-4,0,9,0,506877,0
506902,172,-2061,377,-102,33,129,6563,-5,0,73,40,35636,-23,33,127,0,0,2242,21,0,1121,0,201,26030,-4,0,9,0,506893,0
506912,175,-2057,378,-99,33,131,6564,2,-1,121,16,35640,-45,33,127,0,0,2243,-32,0,1121,0,201,26040,-4,0,9,0,506893,0
506922,152,-2054,379,-97,34,139,6564,-3,4,88,16,35650,-35,33,127,0,0,2240,-43,0,1121,0,201,26050,-4,0,9,0,506893,0
506932,165,-2066,380,-96,33,129,6564,5,2,55,16,35670,-38,33,127,0,0,2243,5,0,1121,0,201,26060,-4,0,9,0,506909,0
506942,165,-2059,377,-104,31,128,6565,0,3,108,16,35669,-28,33,127,0,0,2246,-5,0,1121,0,201,26070,-4,0,9,0,506940,0
506952,144,-2055,375,-93,29,137,6565,-3,-1,90,16,35665,-30,33,127,0,0,2246,43,0,1121,0,201,26080,-4,0,9,0,506940,0
506962,178,-2057,379,-97,32,131,6565,4,-7,154,16,35641,-15,33,127,0,0,2246,16,0,1121,0,201,26090,-4,0,9,0,506940,0
506972,161,-2034,380,-97,30,131,6565,-4,0,141,16,35640,-23,33,127,0,0,2246,0,0,1121,0,201,26100,-4,0,9,0,506940,0
506982,150,-2056,374,-99,35,133,6568,23,0,163,32,35653,-31,33,127,0,0,2242,-21,0,1121,0,201,26110,-4,0,9,0,506955,0
506992,152,-2029,380,-94,29,122,6566,3,4,111,16,35658,-25,33,127,0,0,2243,-43,0,1121,0,201,26120,-4,0,9,0,506987,0
507002,142,-2043,376,-95,36,113,6566,-1,-2,50,16,35655,-10,33,127,0,0,2246,32,0,1121,0,201,26130,-4,0,9,0,506987,0
507012,131,-2041,374,-94,28,109,6567,4,7,107,16,35639,-1,33,127,0,0,2246,38,0,1121,0,201,26140,-4,0,9,0,506987,0
507022,167,-2042,368,-92,34,95,6566,-4,3,143,56,35637,-1,33,127,0,0,2244,32,0,1121,0,201,26150,-4,0,9,0,507002,0
507032,167,-2053,374,-89,36,96,6566,-6,5,125,8,35643,-5,33,127,0,0,2243,-60,0,1121,0,201,26160,-4,0,9,0,507002,0
507042,146,-2049,378,-88,36,103,6569,20,-1,156,16,35641,-19,33,127,0,0,2243,-54,0,1121,0,201,26170,-4,0,9,0,507018,0
507052,178,-2036,381,-88,37,92,6568,12,6,158,32,35635,-16,33,127,0,0,2242,-60,0,1121,0,201,26180,-4,0,9,0,507033,0
507062,172,-2050,379,-83,34,98,6567,-5,-2,110,16,35641,-28,33,127,0,0,2243,-21,0,1121,0,201,26190,-4,0,9,0,507033,0
507072,183,-2027,391,-88,36,101,6566,0,0,101,16,35642,-17,33,127,0,0,2243,5,0,1121,0,201,26200,-4,0,9,0,507080,0
507082,156,-2037,386,-90,36,108,6567,1,5,82,16,35637,-26,33,127,0,0,2246,16,0,1121,0,201,26210,-4,0,9,0,507080,0
507092,159,-2040,377,-87,37,112,6567,0,2,84,16,35629,-18,33,127,0,0,2243,-16,0,1121,0,201,26220,-4,0,9,0,507080,0
507102,171,-2055,373,-91,30,116,6568,6,8,105,8,35635,-17,33,127,0,0,2240,-54,0,1121,0,201,26230,-4,0,9,0,507080,0
507112,184,-2034,376,-87,33,106,6567,2,0,97,16,35641,-16,33,127,0,0,2243,-43,0,1121,0,201,26240,-4,0,9,0,507080,0
507122,157,-2040,386,-88,33,111,6566,-2,-4,88,16,35661,-21,33,127,0,0,2243,-5,0,1121,0,201,26250,-4,0,9,0,507112,0
507132,187,-2040,378,-89,30,120,6566,-5,3,94,32,35655,-9,33,127,0,0,2242,0,0,1121,0,201,26260,-4,0,9,0,507112,0
507142,178,-2030,377,-87,32,118,6566,-9,-3,53,16,35653,-11,33,127,0,0,2243,0,0,1121,0,201,26270,-4,0,9,0,507112,0
507153,176,-2044,371,-84,44,118,6566,1,1,104,32,35654,-2,33,127,0,0,2243,-10,0,1121,0,201,26281,-4,0,9,0,507158,0
507163,165,-2035,377,-83,37,116,6568,4,3,127,32,35661,-16,33,127,0,0,2245,-10,0,1121,0,201,26291,-4,0,9,0,507158,0
507173,163,-2053,373,-85,37,125,6567,-3,-1,133,0,35659,-25,33,127,0,0,2243,-10,0,1121,0,201,26301,-4,0,9,0,507174,0
507183,187,-2052,382,-83,45,126,6567,-2,2,101,32,35644,-11,33,127,0,0,2245,10,0,1121,0,201,26311,-4,0,9,0,507174,0
507193,153,-2048,382,-87,39,126,6567,1,0,132,64,35637,-21,33,127,0,0,2245,10,0,1121,0,201,26321,-4,0,9,0,507190,0
507203,158,-2033,384,-89,36,125,6568,-3,3,153,32,35642,-20,33,127,0,0,2243,-21,0,1121,0,201,26331,-4,0,9,0,507190,0
507213,154,-2039,376,-86,41,123,6567,-5,-2,107,32,35644,-32,33,127,0,0,2243,10,0,1121,0,201,26341,-4,0,9,0,507205,0
507223,185,-2045,373,-92,37,126,6568,-2,1,131,32,35643,-10,33,127,0,0,2247,-10,0,1121,0,201,26351,-4,0,9,0,507221,0
507233,159,-2052,376,-87,29,144,6569,5,1,154,0,35641,-12,34,127,0,0,2247,10,0,1121,0,201,26361,-4,0,9,0,507221,0
507243,163,-2051,382,-86,25,144,6568,-8,-2,141,64,35638,-10,33,127,0,0,2245,32,0,1121,0,201,26371,-4,0,9,0,507237,0
507253,152,-2039,378,-88,14,133,6571,7,0,191,48,35641,-15,33,127,0,0,2250,10,0,1121,0,201,26381,-4,0,9,0,507237,0
507263,147,-2045,368,-92,30,128,6577,14,11,212,56,35634,-3,33,127,0,0,2250,0,0,1121,0,201,26391,-4,0,9,0,507237,0
507273,148,-2050,372,-88,33,114,6589,32,19,124,32,35638,9,33,127,0,0,2250,0,0,1121,0,201,26401,-4,0,9,0,507283,0
507283,149,-2049,376,-91,32,102,6602,32,14,-13,0,35641,4,33,127,0,0,2250,10,0,1121,0,201,26411,-4,0,9,0,507283,0
507293,160,-2040,380,-92,35,92,6612,8,-4,-56,-16,35644,-5,33,127,0,0,2250,0,0,1121,0,201,26421,-4,0,9,0,507283,0
507303,153,-2052,381,-90,28,94,6613,4,-27,-29,-16,35632,-17,33,127,0,0,2250,0,0,1121,0,201,26431,-4,0,9,0,507283,0
507313,159,-2050,375,-92,23,91,6612,-3,-14,-28,-16,35639,-28,34,127,0,0,2250,0,0,1121,0,201,26441,-4,0,9,0,507299,0
507323,163,-2049,382,-94,24,88,6611,-5,-1,-29,-16,35634,-20,33,127,0,0,2252,21,0,1121,0,201,26451,-4,0,9,0,507299,0
507333,172,-2050,378,-95,26,91,6613,4,1,-11,-32,35636,-1,33,127,0,0,2250,-32,0,1121,0,201,26461,-4,0,9,0,507330,0
507343,172,-2049,376,-95,31,89,6611,-2,2,-30,-16,35627,1,33,127,0,0,2250,-10,0,1121,0,201,26471,-4,0,9,0,507330,0
507353,169,-2061,369,-91,37,96,6613,6,0,-34,-16,35622,6,33,127,0,0,2250,0,0,1121,0,201,26481,-4,0,9,0,507330,0
507363,172,-2051,367,-91,28,94,6612,0,0,-29,-16,35620,-31,33,127,0,0,2250,0,0,1121,0,201,26491,-4,0,9,0,507330,0
507373,185,-2054,369,-87,35,98,6611,-6,-7,-94,0,35637,-43,33,127,0,0,2247,10,0,1121,0,201,26501,-4,0,9,0,507362,0
507383,198,-2062,363,-95,37,96,6611,-5,-1,-128,-72,35638,-54,33,127,0,0,2247,0,0,1121,0,201,26511,-4,0,9,0,507362,0
507394,191,-2045,371,-83,36,100,6610,-5,4,-187,-56,35638,-26,33,127,0,0,2245,-5,0,1121,0,201,26522,-4,0,9,0,507362,0
507404,172,-2051,373,-83,25,99,6611,13,3,-181,-32,35642,-18,33,127,0,0,2244,-27,0,1121,0,201,26532,-4,0,9,0,507393,0
507414,165,-2043,378,-77,24,96,6609,-4,1,-145,-8,35641,-31,33,127,0,0,2243,-10,0,1121,0,201,26542,-4,0,9,0,507393,0
507424,198,-2032,385,-86,31,102,6609,-5,-4,-170,-16,35635,-33,33,127,0,0,2243,-21,0,1121,0,201,26552,-4,0,9,0,507424,0
507434,175,-2037,382,-84,33,100,6609,-4,0,-173,-48,35626,-25,33,127,0,0,2245,-10,0,1121,0,201,26562,-4,0,9,0,507424,0
507444,198,-2053,376,-91,37,98,6610,0,1,-155,-48,35626,-10,33,127,0,0,2248,0,0,1121,0,201,26572,-4,0,9,0,507424,0
507454,178,-2038,374,-87,33,104,6610,0,1,-168,-56,35628,-14,33,127,0,0,2248,27,0,1121,0,201,26582,-4,0,9,0,507424,0
507464,154,-2048,375,-86,34,109,6611,4,4,-120,-56,35626,-9,33,127,0,0,2245,-27,0,1121,0,201,26592,-4,0,9,0,507455,0
507474,144,-2051,374,-92,28,105,6611,16,6,-129,-56,35626,-11,33,127,0,0,2248,-16,0,1121,0,201,26602,-4,0,9,0,507455,0
507484,163,-2034,376,-81,25,103,6610,2,0,-161,-32,35626,-5,34,127,0,0,2244,0,0,1121,0,201,26612,-4,0,9,0,507471,0
507494,179,-2043,367,-84,29,108,6609,-11,1,-242,-72,35626,-36,33,127,0,0,2246,0,0,1121,0,201,26622,-4,0,9,0,507471,0
507504,166,-2053,368,-86,37,116,6610,13,6,-201,-56,35619,-28,33,127,0,0,2245,10,0,1121,0,201,26632,-4,0,9,0,507487,0
507514,162,-2044,375,-81,31,111,6608,4,2,-211,-48,35621,-20,33,127,0,0,2245,-10,0,1121,0,201,26642,-4,0,9,0,507487,0
507524,162,-2048,388,-75,38,114,6609,-1,-4,-210,-32,35618,-3,33,127,0,0,2244,43,0,1121,0,201,26652,-4,0,9,0,507518,0
507534,178,-2027,393,-80,29,109,6608,-12,-1,-218,-48,35625,-18,33,127,0,0,2245,0,0,1121,0,201,26662,-4,0,9,0,507533,0
507544,175,-2046,375,-89,25,122,6609,-3,-1,-219,-48,35631,-15,33,127,0,0,2245,0,0,1121,0,201,26672,-4,0,9,0,507533,0
507554,178,-2048,372,-86,27,118,6609,0,2,-206,-48,35629,-9,33,127,0,0,2245,0,0,1121,0,201,26682,-4,0,9,0,507533,0
507564,155,-2052,361,-91,35,118,6609,2,-3,-211,-48,35620,3,33,127,0,0,2245,0,0,1121,0,201,26692,-4,0,9,0,507549,0
507574,166,-2058,364,-85,33,121,6608,-4,-2,-211,-72,35622,-9,33,127,0,0,2246,-5,0,1121,0,201,26702,-4,0,9,0,507549,0
507584,153,-2051,367,-80,35,117,6608,-5,-3,-238,-48,35628,-26,33,127,0,0,2242,10,0,1121,0,201,26712,-4,0,9,0,507565,0
507594,172,-2042,379,-79,46,108,6608,-3,-3,-277,-48,35635,-32,33,127,0,0,2248,98,0,1121,0,201,26722,-4,0,9,0,507596,0
507604,165,-2060,373,-82,35,116,6609,-4,2,-201,-56,35631,-11,33,127,0,0,2245,10,0,1121,0,201,26732,-4,0,9,0,507596,0
507614,168,-2066,371,-83,42,117,6610,10,3,-176,-56,35624,-9,33,127,0,0,2245,-27,0,1121,0,201,26742,-4,0,9,0,507596,0
507624,159,-2066,372,-82,29,107,6610,5,-1,-190,-48,35625,-10,33,127,0,0,2245,0,0,1121,0,201,26752,-4,0,9,0,507596,0
507634,164,-2043,378,-83,37,110,6607,-8,-6,-232,-72,35637,-17,33,127,0,0,2246,-5,0,1121,0,201,26762,-4,0,9,0,507643,0
507644,166,-2046,384,-85,35,110,6608,3,2,-228,-56,35639,1,33,127,0,0,2245,-5,0,1121,0,201,26772,-4,0,9,0,507643,0
507654,191,-2065,364,-85,29,112,6610,8,7,-227,-72,35634,7,33,127,0,0,2246,0,0,1121,0,201,26782,-4,0,9,0,507643,0
507664,158,-2066,370,-89,39,113,6609,14,1,-217,-56,35628,26,33,127,0,0,2245,5,0,1121,0,201,26792,-4,0,9,0,507643,0
507675,165,-2061,369,-86,28,114,6608,2,-4,-219,-88,35633,20,33,127,0,0,2245,21,0,1121,0,201,26803,-4,0,9,0,507658,0
507685,183,-2049,376,-86,29,113,6609,-4,-1,-195,-16,35632,25,33,127,0,0,2245,0,0,1121,0,201,26813,-4,0,9,0,507674,0
507695,202,-2044,373,-87,35,113,6608,-2,-2,-189,-56,35641,17,33,127,0,0,2245,-10,0,1121,0,201,26823,-4,0,9,0,507690,0
507705,167,-2047,375,-84,36,122,6609,-3,3,-219,-48,35643,29,33,127,0,0,2243,-32,0,1121,0,201,26833,-4,0,9,0,507690,0
507715,169,-2044,376,-85,37,119,6608,-8,-3,-280,-64,35643,24,33,127,0,0,2245,21,0,1121,0,201,26843,-4,0,9,0,507690,0
507725,176,-2052,372,-82,43,121,6609,-1,4,-221,-40,35640,18,33,127,0,0,2245,10,0,1121,0,201,26853,-4,0,9,0,507705,0
507735,176,-2056,366,-83,33,125,6609,5,-2,-156,-32,35644,9,33,127,0,0,2247,10,0,1121,0,201,26863,-4,0,9,0,507736,0
507745,154,-2049,381,-79,35,126,6609,0,-6,-181,-56,35650,4,33,127,0,0,2245,0,0,1121,0,201,26873,-4,0,9,0,507736,0
507755,172,-2049,378,-78,45,120,6609,1,-2,-205,-48,35646,7,33,127,0,0,2245,-10,0,1121,0,201,26883,-4,0,9,0,507736,0
507765,178,-2045,370,-79,31,120,6610,8,5,-186,-24,35643,26,33,127,0,0,2245,0,0,1121,0,201,26893,-4,0,9,0,507736,0
507775,180,-2040,374,-72,37,117,6609,-3,-2,-208,-48,35644,26,33,127,0,0,2245,10,0,1121,0,201,26903,-4,0,9,0,507768,0
507785,183,-2042,377,-71,37,119,6609,-9,-1,-196,-56,35651,24,33,127,0,0,2245,-10,0,1121,0,201,26913,-4,0,9,0,507768,0
507795,156,-2045,379,-76,44,120,6607,-8,1,-217,-48,35650,18,33,127,0,0,2245,0,0,1121,0,201,26923,-4,0,9,0,507768,0
507805,174,-2051,373,-81,38,119,6608,-6,2,-220,-80,35646,33,33,127,0,0,2243,-10,0,1121,0,201,26933,-4,0,9,0,507815,0
507815,195,-2057,357,-78,35,120,6608,-1,-1,-236,-48,35643,34,33,127,0,0,2243,-21,0,1121,0,201,26943,-4,0,9,0,507815,0
507825,145,-2040,363,-69,42,118,6609,3,-2,-229,-48,35644,29,33,127,0,0,2245,0,0,1121,0,201,26953,-4,0,9,0,507815,0
507835,147,-2040,378,-71,42,118,6609,4,-1,-215,-48,35642,24,33,127,0,0,2245,-10,0,1121,0,201,26963,-4,0,9,0,507830,0
507845,164,-2052,379,-69,35,122,6609,4,3,-221,-40,35641,14,33,127,0,0,2245,10,0,1121,0,201,26973,-4,0,9,0,507830,0
507855,174,-2052,377,-74,38,119,6608,-2,1,-226,-56,35642,10,33,127,0,0,2245,10,0,1121,0,201,26983,-4,0,9,0,507861,0
507865,180,-2040,381,-74,35,113,6608,-11,-5,-217,-48,35652,10,33,127,0,0,2245,0,0,1121,0,201,26993,-4,0,9,0,507877,0
507875,168,-2057,370,-82,35,117,6610,3,-2,-156,-32,35659,12,33,127,0,0,2245,0,0,1121,0,201,27003,-4,0,9,0,507877,0
507885,153,-2036,375,-75,37,112,6607,-11,-8,-206,-48,35664,10,33,127,0,0,2245,0,0,1121,0,201,27013,-4,0,9,0,507877,0
507895,166,-2051,368,-80,27,114,6608,0,-5,-210,-56,35663,10,34,127,0,0,2245,10,0,1121,0,201,27023,-4,0,9,0,507877,0
507906,186,-2049,374,-74,24,101,6609,-9,5,-211,-32,35655,6,33,127,0,0,2244,5,0,1121,0,201,27034,-4,0,9,0,507877,0
507916,191,-2058,367,-75,33,105,6609,-6,-4,-185,-32,35657,24,33,127,0,0,2241,-54,0,1121,0,201,27044,-4,0,9,0,507908,0
507926,166,-2045,378,-80,30,102,6608,5,-7,-209,-56,35657,29,33,127,0,0,2248,21,0,1121,0,201,27054,-4,0,9,0,507908,0
507936,161,-2045,382,-73,43,100,6609,-6,-1,-198,-48,35657,53,33,127,0,0,2245,10,0,1121,0,201,27064,-4,0,9,0,507924,0
507946,184,-2050,371,-80,37,102,6608,-1,-4,-202,-56,35659,39,34,127,0,0,2242,-32,0,1121,0,201,27074,-4,0,9,0,507940,0
507956,176,-2061,368,-73,37,105,6608,2,2,-232,-48,35652,13,33,127,0,0,2245,16,0,1121,0,201,27084,-4,0,9,0,507940,0
507966,162,-2039,379,-74,35,110,6609,0,-1,-188,-48,35652,23,33,127,0,0,2245,-5,0,1121,0,201,27094,-4,0,9,0,507955,0
507976,187,-2038,377,-76,32,108,6608,-1,1,-225,-48,35642,29,33,127,0,0,2242,-16,0,1121,0,201,27104,-4,0,9,0,507971,0
507986,170,-2034,374,-78,37,102,6608,0,3,-220,-48,35637,32,33,127,0,0,2248,21,0,1121,0,201,27114,-4,0,9,0,507971,0
507996,164,-2060,373,-75,32,112,6608,-11,1,-205,-72,35632,14,33,127,0,0,2246,5,0,1121,0,201,27124,-4,0,9,0,507971,0
508006,171,-2063,373,-74,32,115,6611,12,2,-203,-56,35638,1,33,127,0,0,2245,0,0,1121,0,201,27134,-4,0,9,0,508002,0
508016,166,-2049,386,-72,36,110,6608,1,-2,-227,-72,35659,-37,34,127,0,0,2246,21,0,1121,0,201,27144,-4,0,9,0,508002,0
508026,163,-2043,384,-73,36,114,6608,0,-1,-208,-72,35663,-35,33,127,0,0,2243,-38,0,1121,0,201,27154,-4,0,9,0,508002,0
508036,163,-2033,373,-78,36,116,6611,22,1,-185,-48,35664,-25,33,127,0,0,2248,27,0,1121,0,201,27164,-4,0,9,0,508018,0
508046,161,-2039,376,-73,32,117,6610,-3,-1,-165,-48,35655,-22,34,127,0,0,2242,-38,0,1121,0,201,27174,-4,0,9,0,508033,0
508056,178,-2035,376,-73,34,118,6607,1,-4,-243,-48,35656,-21,34,127,0,0,2245,5,0,1121,0,201,27184,-4,0,9,0,508033,0
508066,185,-2028,375,-70,50,112,6610,-2,2,-194,-48,35661,-35,33,127,0,0,2245,10,0,1121,0,201,27194,-4,0,9,0,508033,0
508076,170,-2029,390,-78,42,114,6610,2,2,-162,-56,35664,0,33,127,0,0,2242,-76,0,1121,0,201,27204,-4,0,9,0,508080,0
508086,160,-2053,373,-69,39,123,6607,-2,-6,-230,-48,35667,-8,34,127,0,0,2245,5,0,1121,0,201,27214,-4,0,9,0,508080,0
508096,188,-2036,380,-75,36,121,6608,-10,3,-223,-48,35661,-1,34,127,0,0,2245,16,0,1121,0,201,27224,-4,0,9,0,508080,0
508106,185,-2025,384,-73,43,116,6608,-1,-1,-234,-32,35659,-17,34,127,0,0,2244,49,0,1121,0,201,27234,-4,0,9,0,508080,0
508116,196,-2059,363,-75,38,124,6610,4,3,-195,-56,35654,-3,34,127,0,0,2245,-27,0,1121,0,201,27244,-4,0,9,0,508111,0
508126,161,-2057,375,-78,35,125,6610,16,-1,-193,-56,35661,-6,34,127,0,0,2242,-32,0,1121,0,201,27254,-4,0,9,0,508111,0
508136,171,-2040,375,-66,46,122,6608,0,-2,-202,-48,35663,-3,33,127,0,0,2245,-10,0,1121,0,201,27264,-4,0,9,0,508111,0
508147,160,-2054,379,-72,43,129,6608,-4,-4,-210,-48,35665,-12,33,127,0,0,2245,0,0,1121,0,201,27275,-4,0,9,0,508127,0
508157,176,-2046,377,-72,38,128,6607,-12,-3,-219,-48,35673,-15,33,127,0,0,2243,-21,0,1121,0,201,27285,-4,0,9,0,508143,0
508167,201,-2038,382,-73,41,130,6609,4,0,-220,-48,35677,-12,33,127,0,0,2245,0,0,1121,0,201,27295,-4,0,9,0,508143,0
508177,173,-2047,384,-74,46,136,6608,-1,1,-207,-48,35669,-17,34,127,0,0,2245,-10,0,1121,0,201,27305,-4,0,9,0,508158,0
508187,163,-2040,387,-73,45,140,6609,6,2,-199,-48,35669,-33,33,127,0,0,2245,0,0,1121,0,201,27315,-4,0,9,0,508158,0
508197,177,-2053,378,-72,42,137,6609,4,2,-219,-48,35665,-17,34,127,0,0,2245,0,0,1121,0,201,27325,-4,0,9,0,508189,0
508207,170,-2055,379,-74,37,134,6607,-6,-2,-219,-48,35663,-13,33,127,0,0,2245,0,0,1121,0,201,27335,-4,0,9,0,508189,0
508217,162,-2046,378,-73,39,139,6609,-1,-2,-165,-64,35657,9,33,127,0,0,2245,-10,0,1121,0,201,27345,-4,0,9,0,508189,0
508227,156,-2038,382,-75,43,131,6608,-1,-5,-209,-48,35666,-14,34,127,0,0,2247,21,0,1121,0,201,27355,-4,0,9,0,508221,0
508237,172,-2053,382,-73,34,129,6610,1,3,-128,-64,35665,-18,34,127,0,0,2247,-10,0,1121,0,201,27365,-4,0,9,0,508221,0
508247,135,-2052,382,-75,38,132,6610,15,2,-128,-24,35662,-28,34,127,0,0,2245,-21,0,1121,0,201,27375,-4,0,9,0,508221,0
508257,152,-2056,382,-75,37,126,6608,-5,-6,-200,-48,35655,3,33,127,0,0,2245,0,0,1121,0,201,27385,-4,0,9,0,508236,0
508267,173,-2042,393,-78,39,124,6608,0,-2,-223,-48,35658,6,33,127,0,0,2245,0,0,1121,0,201,27395,-4,0,9,0,508252,0
508277,180,-2043,394,-83,35,120,6610,5,8,-171,-64,35655,0,33,127,0,0,2247,21,0,1121,0,201,27405,-4,0,9,0,508252,0
508287,172,-2053,385,-84,36,137,6609,-1,2,-186,-48,35652,0,33,127,0,0,2245,0,0,1121,0,201,27415,-4,0,9,0,508268,0
508297,175,-2043,379,-80,37,124,6609,-4,-4,-222,-48,35664,0,33,127,0,0,2245,0,0,1121,0,201,27425,-4,0,9,0,508346,0
508307,178,-2050,373,-81,32,123,6608,-3,-3,-221,-48,35668,3,33,127,0,0,2247,10,0,1121,0,201,27435,-4,0,9,0,508346,0
508317,165,-2059,371,-80,33,126,6611,9,4,-136,-64,35665,-10,33,127,0,0,2245,-21,0,1121,0,201,27445,-4,0,9,0,508346,0
508327,161,-2055,370,-78,38,124,6610,7,-3,-149,-64,35653,-12,33,127,0,0,2247,0,0,1121,0,201,27455,-4,0,9,0,508346,0
508337,181,-2059,374,-77,51,121,6609,-4,-4,-147,-64,35651,-11,33,127,0,0,2245,-10,0,1121,0,201,27465,-4,0,9,0,508361,0
508347,174,-2046,377,-75,50,121,6609,-5,-3,-197,-24,35649,-7,33,127,0,0,2245,0,0,1121,0,201,27475,-4,0,9,0,508361,0
508357,157,-2038,385,-74,48,126,6608,-5,-8,-216,-48,35652,-21,34,127,0,0,2245,0,0,1121,0,201,27485,-4,0,9,0,508361,0
508367,179,-2037,386,-74,45,126,6610,0,4,-191,-56,35655,-14,33,127,0,0,2245,-21,0,1121,0,201,27495,-4,0,9,0,508361,0
508377,150,-2059,377,-77,41,138,6611,13,4,-174,-56,35653,-13,33,127,0,0,2247,-21,0,1121,0,201,27505,-4,0,9,0,508361,0
508387,132,-2050,384,-80,43,138,6610,7,3,-128,-32,35665,-16,33,127,0,0,2245,-10,0,1121,0,201,27515,-4,0,9,0,508361,0
508398,147,-2052,376,-76,43,130,6609,3,-5,-174,-48,35681,1,33,127,0,0,2245,-5,0,1121,0,201,27526,-4,0,9,0,508377,0
508408,184,-2029,380,-79,42,121,6609,-3,0,-186,-48,35688,0,33,127,0,0,2245,-27,0,1121,0,201,27536,-4,0,9,0,508408,0
508418,174,-2061,376,-75,40,126,6610,5,7,-164,-72,35675,7,33,127,0,0,2250,5,0,1121,0,201,27546,-4,0,9,0,508408,0
508428,149,-2034,381,-74,43,128,6609,0,3,-158,-56,35656,-9,33,127,0,0,2245,-5,0,1121,0,201,27556,-4,0,9,0,508408,0
508438,151,-2058,380,-77,32,126,6610,4,1,-125,-32,35655,-11,33,127,0,0,2244,-43,0,1121,0,201,27566,-4,0,9,0,508408,0
508448,175,-2036,384,-74,45,123,6611,4,3,-96,-56,35658,4,33,127,0,0,2248,-49,0,1121,0,201,27576,-4,0,9,0,508439,0
508458,155,-2037,382,-80,46,124,6610,5,-1,-99,-32,35660,10,33,127,0,0,2251,38,0,1121,0,201,27586,-4,0,9,0,508439,0
508468,174,-2039,392,-80,39,121,6612,-3,10,-87,-40,35658,9,33,127,0,0,2244,-49,0,1121,0,201,27596,-4,0,9,0,508439,0
508478,155,-2043,386,-86,42,125,6612,17,5,-131,-32,35647,9,33,127,0,0,2244,-60,0,1121,0,201,27606,-4,0,9,0,508471,0
508488,173,-2032,382,-80,34,125,6610,5,4,-110,-32,35650,-10,33,127,0,0,2251,16,0,1121,0,201,27616,-4,0,9,0,508471,0
508498,179,-2047,382,-84,36,130,6610,-11,-2,-92,-32,35649,-2,33,127,0,0,2251,38,0,1121,0,201,27626,-4,0,9,0,508486,0
508508,169,-2045,382,-84,39,135,6613,2,3,-36,-16,35647,2,33,127,0,0,2250,0,0,1121,0,201,27636,-4,0,9,0,508486,0
508518,185,-2051,382,-86,42,136,6611,0,-2,-95,-56,35649,10,33,127,0,0,2245,-43,0,1121,0,201,27646,-4,0,9,0,508486,0
508528,166,-2038,385,-80,40,128,6612,7,0,-94,-16,35652,-2,33,127,0,0,2250,-5,0,1121,0,201,27656,-4,0,9,0,508518,0
508538,170,-2053,382,-87,35,137,6611,-21,4,-63,-16,35655,-3,33,127,0,0,2250,16,0,1121,0,201,27666,-4,0,9,0,508518,0
508548,178,-2063,376,-84,27,138,6614,0,0,-33,-24,35648,0,34,127,0,0,2250,-16,0,1121,0,201,27676,-4,0,9,0,508518,0
508558,162,-2046,382,-87,45,144,6614,5,4,6,-16,35651,23,33,127,0,0,2250,-10,0,1121,0,201,27686,-4,0,9,0,508564,0
508568,174,-2050,378,-92,35,133,6614,4,-3,-5,0,35649,18,33,127,0,0,2252,16,0,1121,0,201,27696,-4,0,9,0,508564,0
508578,159,-2037,377,-87,34,134,6614,0,3,-8,0,35653,9,33,127,0,0,2252,16,0,1121,0,201,27706,-4,0,9,0,508564,0
508588,159,-2047,370,-85,32,134,6615,-4,4,19,16,35644,2,33,127,0,0,2251,-21,0,1121,0,201,27716,-4,0,9,0,508564,0
508598,143,-2051,381,-83,37,132,6617,12,3,44,8,35655,-17,33,127,0,0,2254,-32,0,1121,0,201,27726,-4,0,9,0,508611,0
508608,151,-2048,384,-81,36,133,6617,1,0,76,32,35655,-11,34,127,0,0,2253,0,0,1121,0,201,27736,-4,0,9,0,508611,0
508618,171,-2045,392,-84,34,129,6619,-4,-4,43,8,35655,-21,33,127,0,0,2254,0,0,1121,0,201,27746,-4,0,9,0,508611,0
508628,172,-2043,385,-89,39,132,6619,2,-2,76,8,35649,-14,33,127,0,0,2254,-32,0,1121,0,201,27756,-4,0,9,0,508611,0
508638,166,-2047,379,-86,38,133,6619,0,1,49,8,35641,-15,33,127,0,0,2257,43,0,1121,0,201,27766,-4,0,9,0,508611,0
508649,165,-2051,372,-87,30,130,6620,4,3,74,32,35654,-14,34,127,0,0,2254,-10,0,1121,0,201,27777,-4,0,9,0,508627,0
508659,158,-2039,380,-85,41,125,6621,4,3,88,56,35666,-27,33,127,0,0,2258,43,0,1121,0,201,27787,-4,0,9,0,508705,0
508669,172,-2036,381,-85,35,126,6622,-12,4,72,32,35667,-19,33,127,0,0,2256,21,0,1121,0,201,27797,-4,0,9,0,508705,0
508679,164,-2057,377,-88,34,128,6624,6,-1,92,16,35656,-24,33,127,0,0,2258,10,0,1121,0,201,27807,-4,0,9,0,508705,0
508689,166,-2059,380,-86,33,128,6621,-7,-4,91,32,35644,-17,33,127,0,0,2256,10,0,1121,0,201,27817,-4,0,9,0,508705,0
508699,171,-2058,377,-87,35,122,6623,0,-4,92,16,35647,-13,33,127,0,0,2256,10,0,1121,0,201,27827,-4,0,9,0,508721,0
508709,160,-2042,388,-93,33,123,6624,5,2,134,40,35647,-12,34,127,0,0,2258,0,0,1121,0,201,27837,-4,0,9,0,508721,0
508719,163,-2057,387,-93,28,130,6622,-8,-2,117,48,35643,-3,33,127,0,0,2258,32,0,1121,0,201,27847,-4,0,9,0,508721,0
508729,175,-2037,384,-94,29,121,6623,-7,-3,114,8,35642,-11,33,127,0,0,2256,-10,0,1121,0,201,27857,-4,0,9,0,508721,0
508739,170,-2053,378,-91,34,123,6622,-2,-5,77,32,35639,-6,34,127,0,0,2256,-10,0,1121,0,201,27867,-4,0,9,0,508721,0
508749,172,-2050,364,-92,38,122,6623,-1,0,73,16,35646,-8,34,127,0,0,2256,-10,0,1121,0,201,27877,-4,0,9,0,508721,0
508759,150,-2057,366,-92,36,124,6625,5,4,112,8,35659,0,33,127,0,0,2258,21,0,1121,0,201,27887,-4,0,9,0,508752,0
508769,172,-2050,382,-92,21,122,6623,-3,0,95,16,35663,1,33,127,0,0,2256,0,0,1121,0,201,27897,-4,0,9,0,508752,0
508779,167,-2048,381,-91,29,123,6625,13,0,97,16,35664,-6,33,127,0,0,2256,-21,0,1121,0,201,27907,-4,0,9,0,508752,0
508789,151,-2061,382,-91,35,128,6625,17,5,154,32,35649,-23,34,127,0,0,2256,-43,0,1121,0,201,27917,-4,0,9,0,508767,0
508799,159,-2028,391,-93,33,125,6624,4,2,111,48,35650,-25,33,127,0,0,2258,0,0,1121,0,201,27927,-4,0,9,0,508783,0
508809,165,-2056,396,-97,35,134,6625,-3,-2,113,16,35654,-23,33,127,0,0,2258,10,0,1121,0,201,27937,-4,0,9,0,508783,0
508819,173,-2055,377,-102,26,140,6626,2,5,117,40,35654,-12,33,127,0,0,2258,10,0,1121,0,201,27947,-4,0,9,0,508799,0
508829,172,-2049,369,-97,27,147,6625,-8,-3,130,0,35652,-27,33,127,0,0,2258,0,0,1121,0,201,27957,-4,0,9,0,508814,0
508839,167,-2055,363,-96,35,148,6626,1,-4,145,32,35647,-38,33,127,0,0,2258,0,0,1121,0,201,27967,-4,0,9,0,508814,0
508849,164,-2055,364,-100,28,157,6626,7,1,165,24,35653,-41,33,127,0,0,2260,21,0,1121,0,201,27977,-4,0,9,0,508830,0
508859,160,-2048,371,-85,27,159,6628,-1,7,175,24,35661,-26,33,127,0,0,2260,21,0,1121,0,201,27987,-4,0,9,0,508846,0
508869,155,-2051,376,-90,34,159,6629,8,3,219,48,35655,-21,33,127,0,0,2260,-10,0,1121,0,201,27997,-4,0,9,0,508846,0
508879,152,-2052,378,-88,30,157,6629,5,2,238,64,35643,-2,33,127,0,0,2265,32,0,1121,0,201,28007,-4,0,9,0,508877,0
508889,158,-2057,384,-88,37,159,6632,2,7,257,16,35638,-9,33,127,0,0,2263,-10,0,1121,0,201,28017,-4,0,9,0,508877,0
508899,144,-2053,382,-95,33,155,6633,14,-2,261,48,35642,-9,33,127,0,0,2267,21,0,1121,0,201,28027,-4,0,9,0,508877,0
508910,168,-2061,384,-95,33,150,6635,6,-2,326,72,35647,-25,33,127,0,0,2268,21,0,1121,0,201,28038,-4,0,9,0,508892,0
508920,158,-2053,389,-95,34,149,6636,3,-2,329,96,35653,-33,34,127,0,0,2264,-16,0,1121,0,201,28048,-4,0,9,0,508908,0
508930,151,-2051,379,-91,35,148,6638,6,3,342,112,35657,-34,33,127,0,0,2266,-10,0,1121,0,201,28058,-4,0,9,0,508924,0
508940,165,-2057,373,-98,36,141,6642,17,8,378,80,35657,-29,33,127,0,0,2267,-93,0,1121,0,201,28068,-4,0,9,0,508924,0
508950,149,-2044,373,-96,30,147,6645,6,5,373,120,35647,-26,34,127,0,0,2271,27,0,1121,0,201,28078,-4,0,9,0,508924,0
508960,149,-2049,373,-94,35,149,6648,3,-4,347,104,35638,-24,34,127,0,0,2271,32,0,1121,0,201,28088,-4,0,9,0,508939,0
508970,154,-2047,368,-95,38,139,6655,12,12,356,96,35640,-26,34,127,0,0,2271,0,0,1121,0,201,28098,-4,0,9,0,508955,0
508980,152,-2050,380,-90,32,136,6666,24,5,298,80,35636,-24,33,127,0,0,2271,0,0,1121,0,201,28108,-4,0,9,0,508955,0
508990,159,-2043,385,-91,28,142,6683,37,22,191,40,35641,-20,33,127,0,0,2278,49,0,1121,0,201,28118,-4,0,9,0,508986,0
509000,159,-2039,389,-93,33,150,6686,-7,-10,183,48,35647,-34,34,127,0,0,2270,21,0,1121,0,201,28128,-4,0,9,0,508986,0
509010,163,-2051,378,-102,26,139,6687,1,-40,224,72,35659,-36,34,127,0,0,2273,-10,0,1121,0,201,28138,-4,0,9,0,508986,0
509020,170,-2054,373,-98,25,148,6689,9,1,251,48,35660,-59,34,127,0,0,2274,-49,0,1121,0,201,28148,-4,0,9,0,509096,0
509030,148,-2043,376,-100,36,146,6690,8,-3,260,64,35663,-59,33,127,0,0,2279,5,0,1121,0,201,28158,-4,0,9,0,509096,0
509040,150,-2036,377,-98,26,143,6691,6,1,305,56,35660,-64,34,127,0,0,2276,-38,0,1121,0,201,28168,-4,0,9,0,509096,0
509050,131,-2042,380,-97,31,142,6694,17,3,328,72,35659,-60,34,127,0,0,2281,-21,0,1121,0,201,28178,-4,0,9,0,509111,0
509060,153,-2040,379,-98,21,146,6696,4,0,306,88,35658,-60,33,127,0,0,2280,32,0,1121,0,201,28188,-4,0,9,0,509142,0
509070,156,-2055,377,-96,29,138,6697,-4,-11,320,88,35655,-51,33,127,0,0,2280,0,0,1121,0,201,28198,-4,0,9,0,509158,0
509080,151,-2058,375,-99,31,137,6698,4,-4,320,88,35652,-44,34,127,0,0,2280,16,0,1121,0,201,28208,-4,0,9,0,509158,0
509090,159,-2048,369,-93,40,133,6698,0,-1,330,104,35650,-58,34,127,0,0,2279,5,0,1121,0,201,28218,-4,0,9,0,509158,0
509100,156,-2053,369,-93,22,135,6700,10,4,349,96,35652,-60,34,127,0,0,2282,5,0,1121,0,201,28228,-4,0,9,0,509158,0
509110,146,-2053,378,-99,24,134,6706,18,11,353,88,35654,-57,33,127,0,0,2279,-32,0,1121,0,201,28238,-4,0,9,0,509158,0
509120,150,-2052,380,-94,25,131,6706,-2,-4,327,88,35656,-54,33,127,0,0,2286,49,0,1121,0,201,28248,-4,0,9,0,509174,0
509130,149,-2041,381,-96,34,130,6710,4,-1,336,80,35656,-59,34,127,0,0,2282,10,0,1121,0,201,28258,-4,0,9,0,509174,0
509140,152,-2048,378,-102,31,121,6714,7,3,292,72,35665,-59,34,127,0,0,2282,0,0,1121,0,201,28268,-4,0,9,0,509174,0
509150,152,-2043,378,-99,29,114,6717,9,-2,309,64,35664,-46,33,127,0,0,2286,-5,0,1121,0,201,28278,-4,0,9,0,509174,0
509160,132,-2052,378,-103,35,114,6734,47,27,198,48,35674,-37,33,127,0,0,2281,-32,0,1121,0,201,28288,-4,0,9,0,509174,0
509170,181,-2043,374,-102,24,113,6754,14,27,-44,-8,35662,-40,33,127,0,0,2282,0,0,1121,0,201,28298,-4,0,9,0,509174,0
509181,133,-2054,374,-102,32,116,6752,3,-50,15,24,35664,-35,34,127,0,0,2285,10,0,1121,0,201,28309,-4,0,9,0,509174,0
509191,152,-2053,370,-98,35,109,6753,0,-17,15,24,35669,-37,33,127,0,0,2282,-10,0,1121,0,201,28319,-4,0,9,0,509174,0
509201,147,-2045,374,-92,32,113,6752,-7,-1,7,24,35681,-35,33,127,0,0,2282,-21,0,1121,0,201,28329,-4,0,9,0,509174,0
509211,156,-2046,375,-102,36,110,6753,7,-2,5,24,35699,-52,34,127,0,0,2285,32,0,1121,0,201,28339,-4,0,9,0,509205,0
509221,156,-2048,376,-105,32,116,6753,2,2,27,16,35699,-66,33,127,0,0,2285,-10,0,1121,0,201,28349,-4,0,9,0,509205,0
509231,148,-2050,376,-106,30,115,6753,-1,2,15,24,35686,-64,34,127,0,0,2282,0,0,1121,0,201,28359,-4,0,9,0,509220,0
509241,139,-2041,377,-95,31,120,6752,-4,-2,15,24,35664,-43,34,127,0,0,2285,0,0,1121,0,201,28369,-4,0,9,0,509220,0
509251,144,-2051,369,-102,32,121,6752,7,-1,60,8,35656,-39,34,127,0,0,2285,10,0,1121,0,201,28379,-4,0,9,0,509236,0
509261,148,-2042,372,-98,25,120,6753,-8,2,21,-16,35659,-52,33,127,0,0,2282,10,0,1121,0,201,28389,-4,0,9,0,509236,0
509271,178,-2050,371,-103,32,121,6754,-16,-3,7,-16,35659,-65,33,127,0,0,2285,0,0,1121,0,201,28399,-4,0,9,0,509252,0
509281,164,-2048,378,-100,35,119,6753,1,-3,20,16,35654,-70,33,127,0,0,2285,21,0,1121,0,201,28409,-4,0,9,0,509267,0
509291,150,-2042,371,-104,34,114,6754,0,1,51,8,35652,-73,34,127,0,0,2285,-21,0,1121,0,201,28419,-4,0,9,0,509283,0
509301,160,-2059,366,-108,28,120,6753,8,-3,6,-8,35652,-72,34,127,0,0,2285,10,0,1121,0,201,28429,-4,0,9,0,509283,0
509311,172,-2061,360,-107,22,116,6753,-1,1,10,-16,35658,-54,33,127,0,0,2282,-21,0,1121,0,201,28439,-4,0,9,0,509283,0
509321,148,-2051,367,-105,32,118,6754,3,1,42,-24,35661,-47,33,127,0,0,2287,10,0,1121,0,201,28449,-4,0,9,0,509299,0
509331,139,-2051,367,-102,35,129,6755,0,-1,47,16,35664,-56,34,127,0,0,2287,43,0,1121,0,201,28459,-4,0,9,0,509314,0
509341,195,-2058,369,-104,27,117,6756,0,4,27,-24,35656,-47,34,127,0,0,2287,43,0,1121,0,201,28469,-4,0,9,0,509314,0
509351,140,-2081,365,-100,27,130,6755,-4,3,25,16,35655,-46,33,127,0,0,2285,32,0,1121,0,201,28479,-4,0,9,0,509330,0
509361,158,-2053,365,-104,27,121,6754,0,-12,6,24,35659,-31,33,127,0,0,2287,43,0,1121,0,201,28489,-4,0,9,0,509345,0
509371,161,-2072,368,-100,29,126,6757,-1,3,42,8,35659,-32,33,127,0,0,2285,10,0,1121,0,201,28499,-4,0,9,0,509345,0
509381,160,-2043,367,-98,32,119,6756,0,-4,10,16,35660,-40,34,127,0,0,2285,21,0,1121,0,201,28509,-4,0,9,0,509392,0
509391,176,-2063,366,-101,34,125,6756,-5,1,21,8,35651,-50,33,127,0,0,2287,21,0,1121,0,201,28519,-4,0,9,0,509392,0
509401,159,-2052,369,-96,28,129,6758,7,0,63,8,35656,-58,33,127,0,0,2285,-21,0,1121,0,201,28529,-4,0,9,0,509408,0
509411,144,-2054,367,-99,42,126,6756,0,-1,47,-8,35653,-44,33,127,0,0,2287,0,0,1121,0,201,28539,-4,0,9,0,509408,0
509421,160,-2064,361,-97,30,126,6756,6,-1,91,24,35644,-49,33,127,0,0,2287,10,0,1121,0,201,28549,-4,0,9,0,509424,0
509432,153,-2044,368,-92,35,129,6757,2,2,66,0,35640,-40,33,127,0,0,2285,-5,0,1121,0,201,28560,-4,0,9,0,509439,0
509442,150,-2058,371,-93,25,131,6757,3,0,65,8,35649,-37,33,127,0,0,2288,10,0,1121,0,201,28570,-4,0,9,0,509439,0
509452,155,-2045,374,-96,24,130,6756,-12,0,71,24,35660,-32,33,127,0,0,2287,21,0,1121,0,201,28580,-4,0,9,0,509439,0
509462,168,-2057,369,-94,25,126,6757,-2,-3,80,8,35663,-41,33,127,0,0,2285,-10,0,1121,0,201,28590,-4,0,9,0,509439,0
509472,151,-2050,364,-101,27,126,6756,5,0,107,8,35649,-56,34,127,0,0,2288,-5,0,1121,0,201,28600,-4,0,9,0,509439,0
509482,129,-2050,372,-95,30,129,6758,0,6,157,40,35653,-48,33,127,0,0,2289,5,0,1121,0,201,28610,-4,0,9,0,509486,0
509492,146,-2053,368,-93,32,126,6761,3,2,145,40,35660,-50,33,127,0,0,2289,16,0,1121,0,201,28620,-4,0,9,0,509486,0
509502,158,-2046,363,-88,36,122,6761,0,-7,161,40,35660,-34,33,127,0,0,2289,0,0,1121,0,201,28630,-4,0,9,0,509486,0
509512,162,-2050,362,-92,20,118,6762,3,-3,135,32,35646,-39,34,127,0,0,2289,5,0,1121,0,201,28640,-4,0,9,0,509486,0
509522,154,-2058,364,-95,29,125,6762,4,-2,152,16,35634,-29,34,127,0,0,2290,-5,0,1121,0,201,28650,-4,0,9,0,509502,0
509532,128,-2053,370,-92,38,123,6762,0,0,145,40,35647,-24,33,127,0,0,2286,-16,0,1121,0,201,28660,-4,0,9,0,509533,0
509542,137,-2049,374,-92,37,121,6763,8,-1,134,16,35659,-31,33,127,0,0,2290,-16,0,1121,0,201,28670,-4,0,9,0,509533,0
509552,137,-2048,371,-89,31,117,6764,13,4,170,32,35660,-32,33,127,0,0,2289,0,0,1121,0,201,28680,-4,0,9,0,509533,0
509562,152,-2058,366,-92,29,122,6763,4,6,168,48,35644,-45,33,127,0,0,2288,5,0,1121,0,201,28690,-4,0,9,0,509533,0
509572,160,-2046,363,-91,27,122,6764,8,4,168,32,35647,-39,33,127,0,0,2289,-16,0,1121,0,201,28700,-4,0,9,0,509549,0
509582,151,-2049,362,-90,36,126,6765,1,6,168,32,35651,-23,33,127,0,0,2289,0,0,1121,0,201,28710,-4,0,9,0,509564,0
509592,148,-2051,358,-97,38,128,6763,-7,0,167,32,35647,-21,33,127,0,0,2292,16,0,1121,0,201,28720,-4,0,9,0,509580,0
509602,156,-2064,374,-94,31,131,6765,10,2,188,48,35632,-16,33,127,0,0,2288,-16,0,1121,0,201,28730,-4,0,9,0,509580,0
509612,161,-2064,369,-86,40,126,6765,0,2,168,48,35629,-28,33,127,0,0,2291,16,0,1121,0,201,28740,-4,0,9,0,509580,0
509622,165,-2039,378,-89,28,126,6764,-12,-6,148,32,35639,-29,33,127,0,0,2292,38,0,1121,0,201,28750,-4,0,9,0,509611,0
509632,159,-2048,362,-95,39,126,6768,0,3,202,48,35644,-26,33,127,0,0,2291,0,0,1121,0,201,28760,-4,0,9,0,509611,0
509643,154,-2051,365,-85,27,130,6767,2,6,195,40,35637,-30,33,127,0,0,2291,0,0,1121,0,201,28771,-4,0,9,0,509627,0
509653,144,-2054,365,-94,31,131,6766,-6,-8,188,40,35637,-30,33,127,0,0,2291,0,0,1121,0,201,28781,-4,0,9,0,509642,0
509663,146,-2055,365,-87,25,130,6767,-2,4,200,48,35636,-47,33,127,0,0,2291,0,0,1121,0,201,28791,-4,0,9,0,509642,0
509673,149,-2041,365,-91,35,123,6767,4,0,195,40,35639,-43,33,127,0,0,2293,21,0,1121,0,201,28801,-4,0,9,0,509673,0
509683,138,-2050,364,-86,35,126,6769,3,6,226,32,35626,-23,33,127,0,0,2291,-10,0,1121,0,201,28811,-4,0,9,0,509673,0
509693,145,-2051,364,-89,37,122,6769,5,-3,183,72,35621,-26,34,127,0,0,2291,21,0,1121,0,201,28821,-4,0,9,0,509673,0
509703,171,-2050,358,-87,28,119,6773,8,11,221,8,35624,-27,33,127,0,0,2296,-10,0,1121,0,201,28831,-4,0,9,0,509673,0
509713,167,-2055,368,-86,34,120,6773,-7,-3,183,32,35633,-17,33,127,0,0,2291,0,0,1121,0,201,28841,-4,0,9,0,509720,0
509723,155,-2064,368,-91,44,118,6773,0,-7,164,32,35635,-8,33,127,0,0,2293,32,0,1121,0,201,28851,-4,0,9,0,509720,0
509733,145,-2060,365,-89,24,123,6773,0,0,188,32,35630,-2,33,127,0,0,2296,10,0,1121,0,201,28861,-4,0,9,0,509720,0
509743,136,-2067,355,-91,32,122,6777,16,8,227,8,35632,5,34,127,0,0,2293,10,0,1121,0,201,28871,-4,0,9,0,509720,0
509753,172,-2058,353,-90,35,122,6776,-6,1,156,56,35632,-24,33,127,0,0,2296,32,0,1121,0,201,28881,-4,0,9,0,509720,0
509763,155,-2074,363,-83,39,119,6779,5,-4,195,40,35631,-5,33,127,0,0,2298,21,0,1121,0,201,28891,-4,0,9,0,509736,0
509773,177,-2064,365,-94,37,126,6780,4,1,205,32,35620,-9,33,127,0,0,2293,0,0,1121,0,201,28901,-4,0,9,0,509783,0
509783,160,-2063,364,-92,42,124,6781,3,-6,167,32,35618,-12,33,127,0,0,2293,0,0,1121,0,201,28911,-4,0,9,0,509783,0
509793,153,-2046,370,-93,34,120,6781,3,-3,197,56,35618,-30,33,127,0,0,2293,0,0,1121,0,201,28921,-4,0,9,0,509783,0
509803,164,-2047,366,-91,28,129,6782,0,1,158,32,35629,-42,33,127,0,0,2293,10,0,1121,0,201,28931,-4,0,9,0,509783,0
509813,163,-2047,370,-94,36,131,6784,0,0,166,56,35627,-37,33,127,0,0,2298,54,0,1121,0,201,28941,-4,0,9,0,509798,0
509823,148,-2062,360,-99,31,134,6793,25,19,168,32,35638,-19,33,127,0,0,2296,0,0,1121,0,201,28951,-4,0,9,0,509798,0
509833,156,-2054,363,-93,30,130,6802,21,14,94,0,35646,-20,33,127,0,0,2298,21,0,1121,0,201,28961,-4,0,9,0,509830,0
509843,148,-2051,363,-97,28,133,6809,12,-10,90,24,35653,-10,33,127,0,0,2298,-10,0,1121,0,201,28971,-4,0,9,0,509845,0
509853,133,-2054,361,-91,33,125,6808,-5,-18,91,16,35646,-15,33,127,0,0,2298,0,0,1121,0,201,28981,-4,0,9,0,509923,0
509863,147,-2047,366,-90,30,120,6809,-6,-10,44,32,35634,-7,33,127,0,0,2298,32,0,1121,0,201,28991,-4,0,9,0,509923,0
509873,153,-2046,367,-88,37,121,6812,2,8,85,8,35630,-28,33,127,0,0,2296,-32,0,1121,0,201,29001,-4,0,9,0,509923,0
509883,150,-2040,365,-87,40,120,6811,4,5,71,8,35632,-39,33,127,0,0,2296,-32,0,1121,0,201,29011,-4,0,9,0,509923,0
509893,116,-2042,366,-86,37,118,6812,8,2,97,32,35643,-42,33,127,0,0,2298,-10,0,1121,0,201,29021,-4,0,9,0,509939,0
509903,160,-2027,370,-88,30,122,6812,-4,-1,73,48,35641,-19,33,127,0,0,2298,10,0,1121,0,201,29031,-4,0,9,0,509955,0
509914,155,-2038,369,-85,41,110,6812,-12,-3,43,16,35639,-3,33,127,0,0,2298,0,0,1121,0,201,29042,-4,0,9,0,509955,0
509924,149,-2050,366,-86,35,122,6814,8,4,92,8,35637,-7,33,127,0,0,2298,-21,0,1121,0,201,29052,-4,0,9,0,509955,0
509934,129,-2041,368,-91,35,115,6814,4,2,78,32,35636,-15,33,127,0,0,2297,-10,0,1121,0,201,29062,-4,0,9,0,509955,0
509944,156,-2046,369,-91,33,112,6814,-2,-6,28,16,35631,-20,33,127,0,0,2298,5,0,1121,0,201,29072,-4,0,9,0,509955,0
509954,156,-2050,363,-86,35,112,6815,0,3,65,16,35628,-17,33,127,0,0,2298,-5,0,1121,0,201,29082,-4,0,9,0,509955,0
509964,154,-2048,365,-95,35,108,6813,0,0,106,32,35632,-27,33,127,0,0,2297,-27,0,1121,0,201,29092,-4,0,9,0,509955,0
509974,147,-2042,370,-89,31,106,6812,-6,-1,46,8,35642,-51,33,127,0,0,2298,0,0,1121,0,201,29102,-4,0,9,0,509955,0
509984,150,-2047,363,-91,35,106,6813,-7,-1,28,16,35652,-47,33,127,0,0,2298,27,0,1121,0,201,29112,-4,0,9,0,509970,0
509994,148,-2045,373,-88,27,108,6813,-5,3,42,8,35662,-25,33,127,0,0,2301,32,0,1121,0,201,29122,-4,0,9,0,509970,0
510004,150,-2055,368,-89,34,112,6813,-12,-2,57,8,35665,-11,33,127,0,0,2295,-21,0,1121,0,201,29132,-4,0,9,0,510002,0
510014,146,-2051,361,-88,35,110,6814,5,2,37,8,35660,10,33,127,0,0,2298,-10,0,1121,0,201,29142,-4,0,9,0,510002,0
510024,145,-2048,365,-90,33,110,6813,-1,0,33,8,35648,13,33,127,0,0,2298,16,0,1121,0,201,29152,-4,0,9,0,510002,0
510034,162,-2053,365,-87,36,108,6814,0,0,45,8,35632,15,33,127,0,0,2298,0,0,1121,0,201,29162,-4,0,9,0,510017,0
510044,155,-2048,368,-88,37,112,6814,3,-2,40,8,35633,6,34,127,0,0,2298,0,0,1121,0,201,29172,-4,0,9,0,510033,0
510054,151,-2051,365,-85,36,112,6813,-1,2,37,-16,35650,-15,33,127,0,0,2299,-5,0,1121,0,201,29182,-4,0,9,0,510033,0
510064,136,-2048,367,-84,38,114,6816,6,3,49,8,35656,-23,33,127,0,0,2298,0,0,1121,0,201,29192,-4,0,9,0,510033,0
510074,153,-2053,362,-90,37,114,6812,-5,-2,7,8,35648,-15,33,127,0,0,2298,21,0,1121,0,201,29202,-4,0,9,0,510064,0
510084,163,-2072,364,-86,43,118,6812,-8,-3,33,32,35632,4,33,127,0,0,2297,21,0,1121,0,201,29212,-4,0,9,0,510064,0
510094,153,-2037,376,-95,34,111,6814,-4,0,39,8,35628,-7,33,127,0,0,2298,0,0,1121,0,201,29222,-4,0,9,0,510064,0
510104,145,-2047,372,-92,29,111,6812,-2,-7,40,16,35628,0,33,127,0,0,2298,0,0,1121,0,201,29232,-4,0,9,0,510095,0
510114,149,-2048,359,-96,31,113,6815,0,4,23,8,35627,-4,33,127,0,0,2298,5,0,1121,0,201,29242,-4,0,9,0,510095,0
510124,146,-2065,358,-90,35,118,6814,0,-2,40,8,35626,18,34,127,0,0,2301,32,0,1121,0,201,29252,-4,0,9,0,510095,0
510134,165,-2068,355,-91,27,117,6815,6,3,57,8,35627,7,33,127,0,0,2298,10,0,1121,0,201,29262,-4,0,9,0,510111,0
510145,155,-2045,363,-92,35,114,6814,1,-3,39,8,35647,-21,33,127,0,0,2298,0,0,1121,0,201,29273,-4,0,9,0,510142,0
510155,158,-2049,362,-82,39,116,6814,0,-3,43,8,35643,-1,33,127,0,0,2300,21,0,1121,0,201,29283,-4,0,9,0,510158,0
510165,169,-2056,361,-87,29,115,6814,-3,0,78,40,35641,16,33,127,0,0,2298,0,0,1121,0,201,29293,-4,0,9,0,510173,0
510175,158,-2052,364,-90,29,114,6813,-9,-4,31,8,35636,29,33,127,0,0,2298,10,0,1121,0,201,29303,-4,0,9,0,510173,0
510185,141,-2049,365,-88,30,113,6814,7,0,23,16,35636,5,33,127,0,0,2298,32,0,1121,0,201,29313,-4,0,9,0,510173,0
510195,155,-2049,368,-85,35,111,6814,-1,3,27,-24,35642,-2,33,127,0,0,2298,0,0,1121,0,201,29323,-4,0,9,0,510173,0
510205,174,-2053,358,-91,35,108,6813,-1,-2,4,24,35634,11,33,127,0,0,2296,10,0,1121,0,201,29333,-4,0,9,0,510189,0
510215,167,-2042,359,-89,38,107,6814,0,6,24,8,35646,19,33,127,0,0,2298,0,0,1121,0,201,29343,-4,0,9,0,510189,0
510225,155,-2051,354,-84,34,115,6813,-4,-6,29,8,35650,18,33,127,0,0,2298,10,0,1121,0,201,29353,-4,0,9,0,510236,0
510235,140,-2048,361,-86,38,113,6813,-5,-4,56,0,35657,44,33,127,0,0,2298,10,0,1121,0,201,29363,-4,0,9,0,510236,0
510245,152,-2057,361,-82,30,112,6814,0,-4,46,8,35642,44,33,127,0,0,2298,0,0,1121,0,201,29373,-4,0,9,0,510236,0
510255,151,-2055,376,-84,37,118,6814,-4,-4,44,8,35635,28,33,127,0,0,2296,-21,0,1121,0,201,29383,-4,0,9,0,510236,0
510265,136,-2051,363,-84,37,113,6814,0,-1,51,0,35629,1,33,127,0,0,2298,0,0,1121,0,201,29393,-4,0,9,0,510251,0
510275,156,-2054,369,-86,22,118,6812,-6,-1,61,40,35639,-4,33,127,0,0,2298,21,0,1121,0,201,29403,-4,0,9,0,510251,0
510285,134,-2040,365,-86,37,119,6815,-5,2,40,-24,35647,-9,33,127,0,0,2298,-10,0,1121,0,201,29413,-4,0,9,0,510267,0
510295,130,-2047,366,-82,35,118,6814,-4,2,11,16,35652,-5,33,127,0,0,2298,32,0,1121,0,201,29423,-4,0,9,0,510283,0
510305,156,-2044,371,-78,41,115,6814,4,3,56,40,35651,-6,33,127,0,0,2298,0,0,1121,0,201,29433,-4,0,9,0,510283,0
510315,155,-2045,368,-81,30,108,6815,3,6,89,24,35641,4,33,127,0,0,2298,-10,0,1121,0,201,29443,-4,0,9,0,510298,0
510325,130,-2058,364,-81,33,121,6815,0,-5,84,40,35647,1,33,127,0,0,2298,-10,0,1121,0,201,29453,-4,0,9,0,510314,0
510335,168,-2037,365,-82,30,116,6814,-10,0,70,40,35646,21,33,127,0,0,2298,0,0,1121,0,201,29463,-4,0,9,0,510314,0
510345,131,-2039,362,-79,34,114,6815,-5,-5,68,0,35642,16,33,127,0,0,2298,0,0,1121,0,201,29473,-4,0,9,0,510330,0
510355,143,-2039,355,-76,31,117,6814,3,-1,65,0,35637,7,33,127,0,0,2298,-10,0,1121,0,201,29483,-4,0,9,0,510361,0
510365,149,-2054,359,-77,32,114,6815,4,3,40,8,35638,7,33,127,0,0,2298,0,0,1121,0,201,29493,-4,0,9,0,510361,0
510375,150,-2055,364,-82,40,112,6814,-1,2,39,8,35643,18,33,127,0,0,2298,0,0,1121,0,201,29503,-4,0,9,0,510361,0
510385,166,-2046,359,-82,33,117,6814,-3,-4,30,8,35642,27,34,127,0,0,2298,21,0,1121,0,201,29513,-4,0,9,0,510361,0
510396,156,-2048,374,-82,39,117,6815,11,3,43,8,35646,33,33,127,0,0,2295,-32,0,1121,0,201,29524,-4,0,9,0,510376,0
510406,135,-2057,362,-77,38,118,6814,1,3,36,-8,35654,27,33,127,0,0,2299,-16,0,1121,0,201,29534,-4,0,9,0,510376,0
510416,139,-2042,367,-83,35,123,6816,7,8,87,-16,35653,30,33,127,0,0,2299,-38,0,1121,0,201,29544,-4,0,9,0,510423,0
510426,137,-2067,354,-84,44,123,6814,5,3,41,8,35664,25,33,127,0,0,2301,32,0,1121,0,201,29554,-4,0,9,0,510423,0
510436,135,-2055,357,-81,41,118,6815,-4,4,87,8,35659,37,33,127,0,0,2298,5,0,1121,0,201,29564,-4,0,9,0,510423,0
510446,129,-2049,361,-77,40,115,6814,5,-1,50,24,35657,35,33,127,0,0,2297,5,0,1121,0,201,29574,-4,0,9,0,510439,0
510456,150,-2048,358,-82,32,109,6814,-7,1,40,8,35661,32,34,127,0,0,2295,-32,0,1121,0,201,29584,-4,0,9,0,510439,0
510466,154,-2044,371,-77,40,110,6813,-1,-6,3,8,35662,22,33,127,0,0,2298,32,0,1121,0,201,29594,-4,0,9,0,510439,0
510476,166,-2054,371,-87,33,108,6815,0,3,68,-8,35664,23,33,127,0,0,2299,-10,0,1121,0,201,29604,-4,0,9,0,510470,0
510486,130,-2060,376,-88,31,111,6814,4,0,65,8,35664,14,33,127,0,0,2298,-10,0,1121,0,201,29614,-4,0,9,0,510470,0
510496,158,-2059,362,-90,33,113,6811,-15,-3,-3,-8,35668,19,33,127,0,0,2296,-5,0,1121,0,201,29624,-4,0,9,0,510470,0
510506,139,-2057,362,-87,33,114,6816,9,2,49,8,35663,25,33,127,0,0,2298,-38,0,1121,0,201,29634,-4,0,9,0,510501,0
510516,136,-2057,361,-82,27,109,6815,2,2,40,-8,35661,37,33,127,0,0,2299,-5,0,1121,0,201,29644,-4,0,9,0,510501,0
510526,146,-2051,367,-88,30,107,6811,-8,-6,-21,8,35652,42,33,127,0,0,2298,65,0,1121,0,201,29654,-4,0,9,0,510517,0
510536,149,-2061,362,-86,34,105,6813,-7,0,-28,8,35650,48,33,127,0,0,2291,-27,0,1121,0,201,29664,-4,0,9,0,510533,0
510546,145,-2051,360,-87,37,104,6815,16,1,-18,-8,35636,27,33,127,0,0,2296,-38,0,1121,0,201,29674,-4,0,9,0,510533,0
510556,141,-2053,356,-85,29,98,6812,1,0,-48,-24,35640,26,33,127,0,0,2293,-21,0,1121,0,201,29684,-4,0,9,0,510533,0
510566,148,-2049,356,-83,33,97,6812,3,-2,-86,-8,35642,17,33,127,0,0,2289,-54,0,1121,0,201,29694,-4,0,9,0,510548,0
510576,151,-2047,360,-83,38,94,6814,14,8,-24,-8,35653,45,33,127,0,0,2292,-71,0,1121,0,201,29704,-4,0,9,0,510580,0
510586,140,-2039,361,-83,40,86,6810,-3,0,-95,0,35654,39,33,127,0,0,2289,-27,0,1121,0,201,29714,-4,0,9,0,510595,0
510596,161,-2060,359,-88,37,90,6811,-14,1,-139,-40,35651,40,33,127,0,0,2295,5,0,1121,0,201,29724,-4,0,9,0,510595,0
510606,148,-2060,366,-86,37,85,6809,-6,4,-135,-40,35646,44,33,127,0,0,2288,-10,0,1121,0,201,29734,-4,0,9,0,510595,0
510616,161,-2061,353,-80,50,77,6809,0,3,-198,-56,35638,22,33,127,0,0,2289,-16,0,1121,0,201,29744,-4,0,9,0,510595,0
510626,153,-2054,361,-83,42,80,6810,4,2,-162,-64,35641,18,33,127,0,0,2286,-82,0,1121,0,201,29754,-4,0,9,0,510595,0
510636,169,-2043,370,-80,44,81,6807,-5,-2,-234,-72,35645,24,33,127,0,0,2287,-27,0,1121,0,201,29764,-4,0,9,0,510626,0
510646,176,-2060,374,-87,37,98,6807,-2,0,-264,-72,35655,23,33,127,0,0,2287,27,0,1121,0,201,29774,-4,0,9,0,510626,0
510657,173,-2055,367,-81,41,104,6806,2,2,-264,-104,35658,33,33,127,0,0,2285,-32,0,1121,0,201,29785,-4,0,9,0,510642,0
510667,165,-2047,367,-78,35,112,6804,-3,-1,-262,-72,35650,9,33,127,0,0,2287,0,0,1121,0,201,29795,-4,0,9,0,510642,0
510677,179,-2060,354,-81,43,116,6804,1,1,-282,-96,35648,-1,33,127,0,0,2285,0,0,1121,0,201,29805,-4,0,9,0,510658,0
510687,184,-2052,348,-75,38,125,6805,0,4,-270,-72,35652,-9,33,127,0,0,2287,0,0,1121,0,201,29815,-4,0,9,0,510658,0
510697,172,-2057,356,-71,46,134,6804,7,3,-249,-72,35654,-6,33,127,0,0,2285,-21,0,1121,0,201,29825,-4,0,9,0,510689,0
510707,164,-2044,361,-70,39,133,6804,1,1,-285,-56,35650,11,34,127,0,0,2285,-32,0,1121,0,201,29835,-4,0,9,0,510689,0
510717,140,-2044,371,-72,43,141,6804,0,0,-279,-96,35643,19,33,127,0,0,2285,-21,0,1121,0,201,29845,-4,0,9,0,510704,0
510727,145,-2044,369,-74,38,143,6803,4,1,-274,-104,35635,22,33,127,0,0,2287,-10,0,1121,0,201,29855,-4,0,9,0,510704,0
510737,146,-2063,357,-68,42,149,6806,17,4,-226,-72,35652,16,33,127,0,0,2285,-43,0,1121,0,201,29865,-4,0,9,0,510736,0
510747,151,-2045,362,-68,43,145,6803,-3,0,-253,-64,35658,13,33,127,0,0,2285,-21,0,1121,0,201,29875,-4,0,9,0,510736,0
510757,155,-2045,355,-67,39,144,6803,-11,-5,-271,-72,35657,5,33,127,0,0,2285,-32,0,1121,0,201,29885,-4,0,9,0,510736,0
510767,156,-2044,370,-63,45,145,6804,3,4,-260,-64,35651,-2,33,127,0,0,2289,32,0,1121,0,201,29895,-4,0,9,0,510736,0
510777,156,-2059,368,-67,41,155,6805,-4,7,-200,-56,35651,-18,33,127,0,0,2289,-21,0,1121,0,201,29905,-4,0,9,0,510767,0
510787,136,-2045,366,-72,48,151,6806,14,-1,-191,-40,35664,-4,33,127,0,0,2289,0,0,1121,0,201,29915,-4,0,9,0,510767,0
510797,136,-2057,352,-69,30,148,6807,17,6,-160,-64,35661,11,33,127,0,0,2289,-10,0,1121,0,201,29925,-4,0,9,0,510767,0
510807,149,-2044,361,-69,43,144,6807,4,4,-152,-64,35659,22,33,127,0,0,2291,-10,0,1121,0,201,29935,-4,0,9,0,510798,0
510817,136,-2054,360,-63,51,149,6807,5,1,-104,-32,35659,19,33,127,0,0,2291,-21,0,1121,0,201,29945,-4,0,9,0,510798,0
510827,153,-2051,359,-68,51,144,6807,0,0,-118,-32,35660,25,34,127,0,0,2291,0,0,1121,0,201,29955,-4,0,9,0,510798,0
510837,165,-2050,368,-66,52,142,6806,-4,-3,-128,0,35652,4,34,127,0,0,2293,43,0,1121,0,201,29965,-4,0,9,0,510829,0
510847,169,-2056,381,-63,53,151,6807,-4,-1,-108,-32,35641,7,34,127,0,0,2291,0,0,1121,0,201,29975,-4,0,9,0,510829,0
510857,162,-2052,389,-67,36,166,6808,3,1,-104,24,35641,4,33,127,0,0,2293,43,0,1121,0,201,29985,-4,0,9,0,510829,0
510867,169,-2055,379,-72,37,171,6809,-4,1,-20,16,35645,26,34,127,0,0,2293,10,0,1121,0,201,29995,-4,0,9,0,510845,0
510877,135,-2030,388,-83,37,170,6811,5,-6,13,16,35656,18,34,127,0,0,2298,0,0,1121,0,201,30005,-4,0,9,0,510923,0
510887,143,-2040,372,-82,41,162,6813,1,2,69,8,35658,14,33,127,0,0,2298,-10,0,1121,0,201,30015,-4,0,9,0,510923,0
510897,129,-2050,367,-86,36,157,6812,-6,-7,67,40,35656,29,33,127,0,0,2300,32,0,1121,0,201,30025,-4,0,9,0,510923,0
510907,139,-2056,364,-79,28,154,6816,0,3,125,56,35647,29,33,127,0,0,2302,21,0,1121,0,201,30035,-4,0,9,0,510939,0
510917,148,-2054,362,-80,42,148,6816,-2,-2,123,-16,35646,12,33,127,0,0,2302,10,0,1121,0,201,30045,-4,0,9,0,510943,0
510927,123,-2052,372,-83,40,153,6817,2,-3,151,72,35642,1,33,127,0,0,2300,-10,0,1121,0,201,30055,-4,0,9,0,510943,0
510937,136,-2054,369,-87,35,149,6817,-2,1,135,56,35642,-1,33,127,0,0,2302,10,0,1121,0,201,30065,-4,0,9,0,510943,0
510947,148,-2052,367,-87,30,146,6819,3,4,187,56,35643,0,33,127,0,0,2302,-10,0,1121,0,201,30075,-4,0,9,0,510943,0
510957,134,-2051,370,-83,31,152,6820,5,3,217,56,35647,-4,33,127,0,0,2304,-32,0,1121,0,201,30085,-4,0,9,0,510943,0
510968,140,-2046,373,-91,34,147,6821,-2,-4,210,48,35653,17,33,127,0,0,2308,32,0,1121,0,201,30096,-4,0,9,0,510943,0
510978,156,-2058,372,-88,24,156,6823,9,-1,266,64,35663,20,34,127,0,0,2310,54,0,1121,0,201,30106,-4,0,9,0,510959,0
510988,137,-2054,380,-102,31,163,6826,0,5,261,64,35664,18,34,127,0,0,2310,27,0,1121,0,201,30116,-4,0,9,0,510974,0
510998,131,-2062,379,-97,26,162,6827,2,-12,297,64,35669,11,33,127,0,0,2310,-5,0,1121,0,201,30126,-4,0,9,0,510974,0
511008,142,-2037,372,-104,28,153,6829,3,-4,330,96,35662,18,33,127,0,0,2311,32,0,1121,0,201,30136,-4,0,9,0,511006,0
511018,138,-2052,360,-103,28,158,6834,20,8,341,88,35656,20,33,127,0,0,2311,-43,0,1121,0,201,30146,-4,0,9,0,511006,0
511028,142,-2043,362,-98,24,153,6835,3,6,363,104,35646,18,33,127,0,0,2313,-10,0,1121,0,201,30156,-4,0,9,0,511006,0
511038,126,-2052,365,-99,17,154,6837,8,-6,369,104,35647,-2,33,127,0,0,2317,27,0,1121,0,201,30166,-4,0,9,0,511006,0
511048,130,-2051,376,-96,30,147,6839,6,7,362,96,35653,0,33,127,0,0,2317,43,0,1121,0,201,30176,-4,0,9,0,511052,0
511058,137,-2057,367,-102,27,136,6842,20,6,388,104,35652,8,33,127,0,0,2322,49,0,1121,0,201,30186,-4,0,9,0,511052,0
511068,112,-2054,370,-99,15,140,6854,29,16,343,128,35648,16,33,127,0,0,2313,16,0,1121,0,201,30196,-4,0,9,0,511052,0
511078,117,-2052,359,-103,32,134,6876,77,43,201,80,35645,13,33,127,0,0,2317,-32,0,1121,0,201,30206,-4,0,9,0,511068,0
511088,158,-2051,362,-105,16,139,6901,23,29,83,8,35646,8,34,127,0,0,2318,-38,0,1121,0,201,30216,-4,0,9,0,511068,0
511098,93,-2052,362,-102,25,120,6897,1,-67,127,16,35658,26,33,127,0,0,2318,-43,0,1121,0,201,30226,-4,0,9,0,511084,0
511108,114,-2039,371,-100,32,112,6896,-3,-36,100,40,35656,23,33,127,0,0,2320,32,0,1121,0,201,30236,-4,0,9,0,511084,0
511118,147,-2047,358,-99,28,104,6897,-11,5,81,40,35661,30,34,127,0,0,2320,49,0,1121,0,201,30246,-4,0,9,0,511115,0
511128,146,-2054,347,-99,27,110,6898,-9,-3,86,16,35661,8,34,127,0,0,2321,16,0,1121,0,201,30256,-4,0,9,0,511115,0
511138,149,-2063,355,-104,24,106,6899,5,-4,126,16,35662,3,34,127,0,0,2321,21,0,1121,0,201,30266,-4,0,9,0,511115,0
511148,130,-2052,361,-95,22,102,6899,1,-2,151,32,35659,10,33,127,0,0,2317,-32,0,1121,0,201,30276,-4,0,9,0,511131,0
511159,122,-2053,362,-98,22,107,6898,3,-7,108,16,35659,0,34,127,0,0,2320,10,0,1121,0,201,30287,-4,0,9,0,511131,0
511169,164,-2053,361,-95,29,103,6900,8,8,146,32,35667,10,34,127,0,0,2320,0,0,1121,0,201,30297,-4,0,9,0,511162,0
511179,149,-2065,358,-96,24,107,6899,3,2,130,8,35666,4,34,127,0,0,2320,-10,0,1121,0,201,30307,-4,0,9,0,511162,0
511189,155,-2068,359,-97,25,107,6899,2,0,131,32,35661,10,34,127,0,0,2315,-21,0,1121,0,201,30317,-4,0,9,0,511162,0
511199,169,-2054,362,-92,31,107,6898,-9,1,66,48,35660,14,34,127,0,0,2318,0,0,1121,0,201,30327,-4,0,9,0,511193,0
511209,125,-2053,368,-87,31,114,6897,-7,-2,106,8,35673,15,33,127,0,0,2318,-21,0,1121,0,201,30337,-4,0,9,0,511193,0
511219,149,-2052,362,-91,32,119,6898,1,1,63,16,35676,15,33,127,0,0,2318,0,0,1121,0,201,30347,-4,0,9,0,511193,0
511229,147,-2047,351,-88,32,119,6898,0,1,89,72,35673,13,33,127,0,0,2320,32,0,1121,0,201,30357,-4,0,9,0,511209,0
511239,171,-2058,347,-82,36,117,6900,-8,2,151,32,35671,18,34,127,0,0,2318,-21,0,1121,0,201,30367,-4,0,9,0,511209,0
511249,137,-2045,360,-75,34,125,6899,0,-6,93,-24,35677,10,34,127,0,0,2318,-21,0,1121,0,201,30377,-4,0,9,0,511224,0
511259,133,-2039,363,-81,37,131,6900,11,4,125,32,35676,3,34,127,0,0,2320,-10,0,1121,0,201,30387,-4,0,9,0,511240,0
511269,141,-2066,368,-82,38,136,6897,-12,-4,108,48,35670,2,33,127,0,0,2318,10,0,1121,0,201,30397,-4,0,9,0,511271,0
511279,161,-2055,368,-82,32,130,6899,2,3,135,32,35663,4,33,127,0,0,2320,-32,0,1121,0,201,30407,-4,0,9,0,511271,0
511289,134,-2054,363,-82,35,145,6900,8,5,152,32,35665,-5,33,127,0,0,2320,10,0,1121,0,201,30417,-4,0,9,0,511271,0
511299,148,-2047,357,-82,34,147,6899,-6,-2,156,32,35668,15,33,127,0,0,2322,0,0,1121,0,201,30427,-4,0,9,0,511287,0
511309,156,-2063,356,-78,24,149,6899,-2,-3,185,24,35667,39,33,127,0,0,2322,21,0,1121,0,201,30437,-4,0,9,0,511287,0
511319,131,-2062,355,-79,23,154,6901,4,4,204,48,35664,52,33,127,0,0,2322,0,0,1121,0,201,30447,-4,0,9,0,511318,0
511329,129,-2051,369,-83,28,150,6902,1,-1,237,64,35663,52,34,127,0,0,2324,10,0,1121,0,201,30457,-4,0,9,0,511334,0
511339,132,-2043,367,-82,35,142,6905,10,7,278,80,35662,24,34,127,0,0,2324,-32,0,1121,0,201,30467,-4,0,9,0,511334,0
511349,143,-2042,369,-91,26,147,6914,14,13,220,64,35662,17,34,127,0,0,2324,-10,0,1121,0,201,30477,-4,0,9,0,511334,0
511359,135,-2041,369,-90,27,147,6920,13,4,171,48,35653,16,33,127,0,0,2326,21,0,1121,0,201,30487,-4,0,9,0,511334,0
511369,131,-2047,362,-90,28,140,6934,37,12,119,56,35662,10,33,127,0,0,2326,0,0,1121,0,201,30497,-4,0,9,0,511349,0
511379,148,-2050,367,-91,28,135,6946,16,7,26,56,35668,4,34,127,0,0,2326,10,0,1121,0,201,30507,-4,0,9,0,511365,0
511390,128,-2055,373,-93,31,123,6947,2,-33,18,0,35668,-9,34,127,0,0,2330,16,0,1121,0,201,30518,-4,0,9,0,511365,0
511400,101,-2053,362,-90,32,117,6948,2,-11,80,8,35666,-20,33,127,0,0,2329,0,0,1121,0,201,30528,-4,0,9,0,511380,0
511410,110,-2063,360,-93,26,114,6950,6,-1,81,16,35667,-34,33,127,0,0,2325,-60,0,1121,0,201,30538,-4,0,9,0,511412,0
511420,116,-2062,358,-90,25,105,6951,16,-3,76,16,35673,-29,33,127,0,0,2329,-27,0,1121,0,201,30548,-4,0,9,0,511412,0
511430,99,-2061,346,-90,25,97,6950,1,4,51,16,35668,-28,33,127,0,0,2329,0,0,1121,0,201,30558,-4,0,9,0,511412,0
511440,122,-2056,359,-90,36,91,6949,-1,-3,46,8,35662,-22,33,127,0,0,2325,-32,0,1121,0,201,30568,-4,0,9,0,511412,0
511450,123,-2053,359,-89,31,85,6949,0,1,34,16,35664,-21,33,127,0,0,2329,5,0,1121,0,201,30578,-4,0,9,0,511443,0
511460,137,-2059,369,-94,31,79,6949,-5,-4,27,-8,35668,-25,33,127,0,0,2326,5,0,1121,0,201,30588,-4,0,9,0,511443,0
511470,135,-2051,367,-91,30,60,6949,0,1,6,-8,35670,-28,34,127,0,0,2323,-32,0,1121,0,201,30598,-4,0,9,0,511443,0
511480,148,-2058,360,-89,28,55,6947,-3,-4,-47,-8,35663,-25,34,127,0,0,2326,5,0,1121,0,201,30608,-4,0,9,0,511459,0
511490,147,-2059,359,-89,40,49,6945,-14,-4,-87,-40,35665,-22,34,127,0,0,2325,5,0,1121,0,201,30618,-4,0,9,0,511474,0
511500,130,-2057,355,-90,43,57,6945,-8,-3,-155,-40,35669,-18,34,127,0,0,2319,-21,0,1121,0,201,30628,-4,0,9,0,511490,0
511510,151,-2058,362,-80,37,61,6944,0,2,-206,-80,35670,-11,34,127,0,0,2321,-32,0,1121,0,201,30638,-4,0,9,0,511490,0
511520,161,-2050,368,-88,41,66,6943,4,-1,-234,-72,35668,-18,34,127,0,0,2318,-16,0,1121,0,201,30648,-4,0,9,0,511521,0
511530,159,-2060,356,-92,35,78,6942,-7,0,-293,-88,35663,-26,34,127,0,0,2315,-16,0,1121,0,201,30658,-4,0,9,0,511521,0
511540,154,-2058,353,-83,46,80,6939,4,-5,-303,-64,35662,-32,34,127,0,0,2311,-54,0,1121,0,201,30668,-4,0,9,0,511521,0
511550,162,-2046,355,-84,42,91,6937,-7,6,-347,-104,35653,-17,33,127,0,0,2317,0,0,1121,0,201,30678,-4,0,9,0,511521,0
511560,156,-2061,354,-87,37,103,6935,0,2,-371,-96,35661,0,33,127,0,0,2313,21,0,1121,0,201,30688,-4,0,9,0,511552,0
511570,167,-2057,367,-86,42,117,6934,-3,0,-363,-96,35664,5,33,127,0,0,2313,27,0,1121,0,201,30698,-4,0,9,0,511552,0
511580,155,-2046,371,-87,40,123,6935,0,4,-362,-96,35664,12,33,127,0,0,2313,16,0,1121,0,201,30708,-4,0,9,0,511568,0
511590,152,-2040,371,-91,46,118,6933,-5,-4,-371,-96,35650,-15,33,127,0,0,2310,-10,0,1121,0,201,30718,-4,0,9,0,511568,0
511600,154,-2042,365,-93,31,125,6934,-3,-1,-379,-72,35656,7,33,127,0,0,2309,-5,0,1121,0,201,30728,-4,0,9,0,511691,0
511610,153,-2046,368,-99,32,123,6934,-3,-1,-374,-88,35653,20,33,127,0,0,2310,-38,0,1121,0,201,30738,-4,0,9,0,511691,0
511620,149,-2051,356,-99,37,129,6934,0,3,-373,-96,35655,31,33,127,0,0,2307,-43,0,1121,0,201,30748,-4,0,9,0,511706,0
511630,138,-2050,360,-97,38,129,6931,-5,-6,-390,-88,35639,20,33,127,0,0,2313,16,0,1121,0,201,30758,-4,0,9,0,511706,0
511640,150,-2046,356,-98,34,131,6931,0,-3,-357,-104,35646,-2,34,127,0,0,2311,-21,0,1121,0,201,30768,-4,0,9,0,511706,0
511650,149,-2042,362,-98,39,125,6930,-3,0,-405,-88,35644,-4,34,127,0,0,2313,82,0,1121,0,201,30778,-4,0,9,0,511706,0
511660,146,-2064,360,-93,38,128,6930,1,1,-386,-104,35644,-9,33,127,0,0,2311,0,0,1121,0,201,30788,-4,0,9,0,511706,0
511670,135,-2059,360,-94,39,125,6930,5,5,-372,-104,35640,-13,33,127,0,0,2311,-27,0,1121,0,201,30798,-4,0,9,0,511706,0
511680,138,-2070,359,-96,38,129,6928,-2,0,-386,-104,35640,-14,33,127,0,0,2308,-43,0,1121,0,201,30808,-4,0,9,0,511706,0
511690,136,-2068,353,-92,42,119,6929,10,4,-377,-104,35641,-21,33,127,0,0,2308,-82,0,1121,0,201,30818,-4,0,9,0,511706,0
511700,142,-2061,343,-88,39,126,6928,2,4,-358,-104,35644,-31,34,127,0,0,2308,-71,0,1121,0,201,30828,-4,0,9,0,511722,0
511710,136,-2073,348,-82,40,133,6927,-2,-4,-378,-120,35646,-25,34,127,0,0,2309,-71,0,1121,0,201,30838,-4,0,9,0,511722,0
511720,138,-2058,344,-76,44,126,6925,-5,-2,-352,-96,35649,-23,33,127,0,0,2308,-5,0,1121,0,201,30848,-4,0,9,0,511722,0
511731,121,-2057,353,-70,39,130,6927,3,3,-333,-136,35657,-11,33,127,0,0,2311,0,0,1121,0,201,30859,-4,0,9,0,511722,0
511741,159,-2073,357,-66,51,126,6926,-2,1,-357,-64,35662,-18,33,127,0,0,2313,43,0,1121,0,201,30869,-4,0,9,0,511722,0
511751,149,-2056,367,-69,51,130,6926,0,0,-336,-72,35668,-2,33,127,0,0,2313,32,0,1121,0,201,30879,-4,0,9,0,511722,0
511761,135,-2042,373,-70,46,130,6928,5,4,-321,-80,35667,1,33,127,0,0,2313,0,0,1121,0,201,30889,-4,0,9,0,511753,0
511771,124,-2051,363,-74,43,132,6926,-3,0,-335,-64,35662,-12,33,127,0,0,2313,21,0,1121,0,201,30899,-4,0,9,0,511753,0
511781,135,-2040,367,-76,41,115,6927,3,-1,-325,-80,35653,-14,33,127,0,0,2313,21,0,1121,0,201,30909,-4,0,9,0,511769,0
511791,134,-2043,361,-74,42,115,6925,-14,-3,-350,-64,35649,-26,34,127,0,0,2313,54,0,1121,0,201,30919,-4,0,9,0,511769,0
511801,134,-2031,365,-74,38,106,6927,-10,-3,-338,-72,35652,-17,33,127,0,0,2313,10,0,1121,0,201,30929,-4,0,9,0,511784,0
511811,125,-2041,364,-82,35,101,6928,14,3,-301,-80,35657,-18,33,127,0,0,2313,-10,0,1121,0,201,30939,-4,0,9,0,511784,0
511821,141,-2048,364,-81,30,101,6926,0,3,-340,-136,35660,-19,34,127,0,0,2311,21,0,1121,0,201,30949,-4,0,9,0,511816,0
511831,145,-2046,368,-83,36,100,6927,3,3,-350,-104,35659,-4,34,127,0,0,2313,32,0,1121,0,201,30959,-4,0,9,0,511816,0
511841,152,-2046,365,-77,29,93,6925,-3,4,-363,-120,35653,-10,34,127,0,0,2311,32,0,1121,0,201,30969,-4,0,9,0,511831,0
511851,141,-2059,356,-83,42,97,6926,4,-1,-357,-128,35644,-9,34,127,0,0,2309,-32,0,1121,0,201,30979,-4,0,9,0,511831,0
511861,128,-2054,352,-87,41,93,6924,3,1,-356,-128,35642,11,33,127,0,0,2309,-54,0,1121,0,201,30989,-4,0,9,0,511831,0
511871,135,-2055,364,-82,40,91,6922,-9,-1,-376,-80,35648,6,33,127,0,0,2309,0,0,1121,0,201,30999,-4,0,9,0,511862,0
511881,139,-2055,366,-80,45,85,6921,-3,-2,-404,-136,35658,3,33,127,0,0,2309,0,0,1121,0,201,31009,-4,0,9,0,511862,0
511891,141,-2057,361,-80,43,87,6916,-15,-6,-383,-104,35652,-12,34,127,0,0,2309,-10,0,1121,0,201,31019,-4,0,9,0,511862,0
511902,156,-2070,352,-78,39,87,6908,-20,-10,-358,-88,35654,-27,34,127,0,0,2306,16,0,1121,0,201,31030,-4,0,9,0,511894,0
511912,153,-2058,355,-79,42,90,6901,-5,-4,-307,-88,35651,-27,34,127,0,0,2303,-32,0,1121,0,201,31040,-4,0,9,0,511894,0
511922,152,-2053,358,-78,37,94,6891,-9,7,-314,-104,35654,-27,33,127,0,0,2306,-5,0,1121,0,201,31050,-4,0,9,0,511894,0
511932,146,-2051,361,-75,36,93,6888,0,16,-321,-80,35647,-14,33,127,0,0,2301,-10,0,1121,0,201,31060,-4,0,9,0,511909,0
511942,166,-2048,362,-77,34,105,6888,0,12,-338,-80,35648,-24,33,127,0,0,2301,-10,0,1121,0,201,31070,-4,0,9,0,511925,0
511952,163,-2052,365,-81,35,111,6886,-9,2,-354,-80,35647,-14,33,127,0,0,2301,5,0,1121,0,201,31080,-4,0,9,0,511941,0
511962,160,-2039,362,-83,36,118,6888,1,3,-360,-96,35660,-13,33,127,0,0,2302,5,0,1121,0,201,31090,-4,0,9,0,511956,0
511972,147,-2051,356,-81,34,128,6886,1,2,-333,-80,35653,2,33,127,0,0,2301,5,0,1121,0,201,31100,-4,0,9,0,511956,0
511982,160,-2057,352,-74,40,125,6886,4,0,-338,-96,35649,4,33,127,0,0,2302,0,0,1121,0,201,31110,-4,0,9,0,511972,0
511992,164,-2052,356,-81,40,128,6886,0,5,-335,-96,35642,-6,34,127,0,0,2302,0,0,1121,0,201,31120,-4,0,9,0,511987,0
512002,163,-2048,353,-71,42,140,6887,0,-3,-322,-96,35651,-7,34,127,0,0,2306,27,0,1121,0,201,31130,-4,0,9,0,512003,0
512012,154,-2053,358,-70,43,147,6886,3,3,-311,-96,35656,-10,33,127,0,0,2306,16,0,1121,0,201,31140,-4,0,9,0,512003,0
512022,160,-2062,350,-61,46,163,6887,0,0,-307,-96,35652,-16,33,127,0,0,2306,38,0,1121,0,201,31150,-4,0,9,0,512003,0
512032,142,-2062,361,-64,44,164,6887,3,-2,-311,-80,35646,-17,34,127,0,0,2304,43,0,1121,0,201,31160,-4,0,9,0,512003,0
512042,150,-2045,366,-59,47,173,6886,-4,1,-280,-56,35653,-27,34,127,0,0,2307,38,0,1121,0,201,31170,-4,0,9,0,512019,0
512052,140,-2058,364,-64,39,180,6887,-8,2,-229,-80,35664,-13,33,127,0,0,2304,-16,0,1121,0,201,31180,-4,0,9,0,512050,0
512062,145,-2043,373,-70,31,181,6889,11,-1,-185,-24,35669,-13,33,127,0,0,2308,10,0,1121,0,201,31190,-4,0,9,0,512066,0
512072,161,-2055,361,-74,26,190,6892,0,5,-95,-32,35659,-18,33,127,0,0,2311,-16,0,1121,0,201,31200,-4,0,9,0,512066,0
512082,121,-2044,357,-73,30,182,6893,8,-4,-80,-32,35657,-12,34,127,0,0,2314,27,0,1121,0,201,31210,-4,0,9,0,512066,0
512092,115,-2045,355,-70,35,172,6896,15,2,-17,0,35651,-25,34,127,0,0,2315,21,0,1121,0,201,31220,-4,0,9,0,512066,0
512102,120,-2045,358,-61,42,159,6897,-3,7,-5,0,35662,-18,34,127,0,0,2322,65,0,1121,0,201,31230,-4,0,9,0,512081,0
512112,105,-2057,355,-62,50,156,6900,7,-1,35,-8,35665,-7,33,127,0,0,2322,43,0,1121,0,201,31240,-4,0,9,0,512097,0
512122,114,-2073,360,-65,40,148,6904,20,5,87,8,35664,-2,34,127,0,0,2318,-32,0,1121,0,201,31250,-4,0,9,0,512097,0
512132,123,-2055,369,-64,43,136,6904,-5,-5,25,24,35667,-3,34,127,0,0,2320,38,0,1121,0,201,31260,-4,0,9,0,512112,0
512142,123,-2057,373,-72,39,123,6909,10,-1,69,16,35668,-7,34,127,0,0,2320,0,0,1121,0,201,31270,-4,0,9,0,512128,0
512152,123,-2059,367,-71,38,112,6909,1,2,52,16,35665,-11,34,127,0,0,2317,-32,0,1121,0,201,31280,-4,0,9,0,512128,0
512163,122,-2046,363,-70,38,107,6907,0,-11,6,0,35661,8,34,127,0,0,2318,10,0,1121,0,201,31291,-4,0,9,0,512144,0
512173,135,-2052,355,-71,30,109,6908,0,-1,31,-16,35659,1,33,127,0,0,2318,-21,0,1121,0,201,31301,-4,0,9,0,512159,0
512183,144,-2054,353,-74,33,108,6907,0,-2,31,-8,35668,2,33,127,0,0,2318,-21,0,1121,0,201,31311,-4,0,9,0,512159,0
512193,143,-2051,345,-69,37,109,6907,1,-5,33,56,35660,-15,33,127,0,0,2318,10,0,1121,0,201,31321,-4,0,9,0,512191,0
512203,165,-2051,348,-62,39,101,6909,-3,3,15,-16,35658,-31,34,127,0,0,2320,21,0,1121,0,201,31331,-4,0,9,0,512191,0
512213,156,-2046,364,-61,40,110,6909,0,1,15,-8,35650,-31,33,127,0,0,2315,-21,0,1121,0,201,31341,-4,0,9,0,512206,0
512223,158,-2047,367,-57,43,114,6908,7,-2,-2,-40,35653,-40,33,127,0,0,2320,0,0,1121,0,201,31351,-4,0,9,0,512206,0
512233,167,-2057,366,-64,37,121,6909,-1,3,37,16,35648,-23,34,127,0,0,2320,21,0,1121,0,201,31361,-4,0,9,0,512206,0
512243,153,-2055,365,-67,43,125,6909,-2,0,31,-16,35648,-32,33,127,0,0,2318,-10,0,1121,0,201,31371,-4,0,9,0,512237,0
512253,119,-2057,366,-66,47,128,6908,1,-3,-20,-24,35652,-33,33,127,0,0,2318,-10,0,1121,0,201,31381,-4,0,9,0,512237,0
512263,121,-2060,357,-61,43,125,6909,3,3,22,16,35653,-27,34,127,0,0,2318,-10,0,1121,0,201,31391,-4,0,9,0,512237,0
512273,144,-2049,358,-60,45,113,6908,-9,-3,-5,0,35647,-3,33,127,0,0,2320,43,0,1121,0,201,31401,-4,0,9,0,512253,0
512283,137,-2038,365,-66,51,122,6909,2,1,-2,-32,35644,7,33,127,0,0,2318,0,0,1121,0,201,31411,-4,0,9,0,512300,0
512293,148,-2053,358,-68,42,129,6908,7,-2,11,0,35642,4,33,127,0,0,2318,-21,0,1121,0,201,31421,-4,0,9,0,512315,0
512303,145,-2052,368,-67,45,133,6909,5,1,33,-16,35646,-8,33,127,0,0,2320,0,0,1121,0,201,31431,-4,0,9,0,512315,0
512313,154,-2056,370,-66,49,148,6909,-3,2,37,24,35649,-10,33,127,0,0,2320,0,0,1121,0,201,31441,-4,0,9,0,512315,0
512323,154,-2063,372,-61,47,151,6908,-2,-1,38,24,35647,-18,33,127,0,0,2320,0,0,1121,0,201,31451,-4,0,9,0,512362,0
512333,150,-2052,372,-65,42,154,6908,-5,-1,29,-16,35642,-11,33,127,0,0,2318,0,0,1121,0,201,31461,-4,0,9,0,512362,0
512343,141,-2064,369,-68,43,156,6909,-2,1,28,-16,35638,-22,34,127,0,0,2322,10,0,1121,0,201,31471,-4,0,9,0,512362,0
512353,141,-2076,354,-64,39,163,6910,7,2,67,-16,35651,-20,33,127,0,0,2320,0,0,1121,0,201,31481,-4,0,9,0,512378,0
512363,147,-2062,353,-57,44,169,6910,0,0,67,40,35653,-23,33,127,0,0,2320,10,0,1121,0,201,31491,-4,0,9,0,512378,0
512373,151,-2047,355,-57,43,183,6915,11,8,65,-8,35654,-15,33,127,0,0,2322,-10,0,1121,0,201,31501,-4,0,9,0,512378,0
512383,135,-2047,360,-60,35,193,6915,3,1,98,48,35644,-20,33,127,0,0,2326,54,0,1121,0,201,31511,-4,0,9,0,512378,0
512393,131,-2044,359,-50,45,201,6935,55,32,108,24,35646,-31,33,127,0,0,2326,-10,0,1121,0,201,31521,-4,0,9,0,512378,0
512404,167,-2033,365,-47,39,204,6950,3,17,5,32,35641,-35,33,127,0,0,2331,49,0,1121,0,201,31532,-4,0,9,0,512378,0
512414,128,-2072,354,-48,38,204,6955,16,-40,149,24,35648,-38,33,127,0,0,2334,10,0,1121,0,201,31542,-4,0,9,0,512394,0
512424,132,-2048,368,-40,43,196,6958,13,-5,181,72,35655,-32,33,127,0,0,2334,43,0,1121,0,201,31552,-4,0,9,0,512425,0
512434,129,-2066,367,-40,44,196,6960,10,-5,215,64,35665,-30,33,127,0,0,2334,10,0,1121,0,201,31562,-4,0,9,0,512425,0
512444,131,-2056,366,-32,48,195,6965,14,7,245,64,35657,-33,33,127,0,0,2337,-10,0,1121,0,201,31572,-4,0,9,0,512425,0
512454,115,-2043,363,-36,54,185,6967,11,-2,305,72,35644,-36,33,127,0,0,2340,-27,0,1121,0,201,31582,-4,0,9,0,512440,0
512464,122,-2045,358,-33,48,184,6977,21,11,320,80,35634,-25,33,127,0,0,2342,-10,0,1121,0,201,31592,-4,0,9,0,512440,0
512474,119,-2036,354,-24,62,174,6993,44,24,250,64,35646,-33,33,127,0,0,2347,49,0,1121,0,201,31602,-4,0,9,0,512456,0
512484,111,-2058,346,-25,65,174,7020,45,34,82,32,35662,-35,33,127,0,0,2346,43,0,1121,0,201,31612,-4,0,9,0,512456,0
512494,119,-2051,349,-13,65,173,7019,-9,-39,148,48,35664,-27,33,127,0,0,2348,10,0,1121,0,201,31622,-4,0,9,0,512503,0
512504,126,-2057,358,1,74,173,7024,13,-37,213,40,35658,-1,33,127,0,0,2352,16,0,1121,0,201,31632,-4,0,9,0,512503,0
512514,141,-2056,381,-1,74,185,7022,0,1,194,40,35644,-6,33,127,0,0,2348,10,0,1121,0,201,31642,-4,0,9,0,512503,0
512524,149,-2041,387,-2,76,194,7025,15,0,253,56,35644,-8,33,127,0,0,2347,-43,0,1121,0,201,31652,-4,0,9,0,512503,0
512534,153,-2032,398,-4,55,223,7025,4,6,230,80,35638,-34,33,127,0,0,2353,27,0,1121,0,201,31662,-4,0,9,0,512503,0
512544,138,-2041,392,-21,42,244,7030,13,8,322,88,35644,-26,33,127,0,0,2355,16,0,1121,0,201,31672,-4,0,9,0,512534,0
512554,120,-2040,389,-22,40,258,7034,1,12,359,96,35637,1,33,127,0,0,2360,65,0,1121,0,201,31682,-4,0,9,0,512534,0
512564,91,-2051,381,-26,45,254,7043,21,8,415,120,35635,-10,33,127,0,0,2362,32,0,1121,0,201,31692,-4,0,9,0,512534,0
512574,82,-2053,388,-25,44,227,7063,52,32,334,120,35641,4,33,127,0,0,2366,54,0,1121,0,201,31702,-4,0,9,0,512565,0
512584,73,-2065,393,-30,45,213,7095,51,45,213,72,35649,-15,33,127,0,0,2368,27,0,1121,0,201,31712,-4,0,9,0,512565,0
512594,50,-2066,403,-33,46,184,7095,3,-51,364,96,35642,3,33,127,0,0,2370,-16,0,1121,0,201,31722,-4,0,9,0,512565,0
512604,72,-2063,410,-41,52,163,7097,8,-46,380,128,35634,7,33,127,0,0,2375,27,0,1121,0,201,31732,-4,0,9,0,512597,0
512614,85,-2055,395,-47,46,143,7096,-5,7,408,128,35638,-4,33,127,0,0,2375,0,0,1121,0,201,31742,-4,0,9,0,512597,0
512624,87,-2063,391,-55,47,137,7097,2,-5,401,128,35639,3,33,127,0,0,2375,5,0,1121,0,201,31752,-4,0,9,0,512597,0
512634,109,-2052,393,-61,33,117,7098,2,-1,410,144,35633,7,33,127,0,0,2377,65,0,1121,0,201,31762,-4,0,9,0,512628,0
512644,92,-2049,395,-64,31,114,7101,2,5,455,120,35627,0,34,127,0,0,2375,0,0,1121,0,201,31772,-4,0,9,0,512628,0
512654,81,-2053,397,-71,30,99,7104,10,0,457,136,35635,0,33,127,0,0,2377,16,0,1121,0,201,31782,-4,0,9,0,512628,0
512665,79,-2051,387,-74,29,72,7105,-1,-4,406,104,35634,-4,33,127,0,0,2377,10,0,1121,0,201,31793,-4,0,9,0,512644,0
512675,91,-2047,379,-73,39,66,7107,8,-2,453,96,35634,-4,33,127,0,0,2375,-54,0,1121,0,201,31803,-4,0,9,0,512659,0
512685,111,-2047,374,-63,36,68,7106,-1,-4,384,104,35634,-12,33,127,0,0,2375,0,0,1121,0,201,31813,-4,0,9,0,512675,0
512695,126,-2038,369,-66,29,67,7107,0,-4,374,80,35641,-15,33,127,0,0,2373,-21,0,1121,0,201,31823,-4,0,9,0,512675,0
512705,135,-2042,372,-63,37,68,7108,-1,4,372,112,35637,-14,33,127,0,0,2375,10,0,1121,0,201,31833,-4,0,9,0,512753,0
512715,132,-2044,370,-63,51,72,7107,-5,-3,362,88,35634,-10,33,127,0,0,2375,10,0,1121,0,201,31843,-4,0,9,0,512753,0
512725,164,-2048,370,-58,60,87,7106,-3,1,327,64,35631,4,33,127,0,0,2373,10,0,1121,0,201,31853,-4,0,9,0,512769,0
512735,164,-2049,381,-55,54,112,7106,-2,0,272,56,35634,-5,33,127,0,0,2370,0,0,1121,0,201,31863,-4,0,9,0,512769,0
512745,181,-2050,384,-56,48,145,7104,5,0,295,72,35630,-7,33,127,0,0,2370,21,0,1121,0,201,31873,-4,0,9,0,512769,0
512755,142,-2046,393,-52,47,153,7105,0,6,298,72,35627,-8,33,127,0,0,2370,10,0,1121,0,201,31883,-4,0,9,0,512769,0
512765,106,-2045,391,-51,58,162,7105,-1,-2,287,72,35620,-5,33,127,0,0,2370,0,0,1121,0,201,31893,-4,0,9,0,512769,0
512775,106,-2053,380,-41,68,163,7104,0,0,306,104,35618,-14,33,127,0,0,2370,10,0,1121,0,201,31903,-4,0,9,0,512769,0
512785,117,-2028,394,-43,70,157,7105,-5,-3,284,104,35620,-27,33,127,0,0,2370,21,0,1121,0,201,31913,-4,0,9,0,512769,0
512795,139,-2051,403,-50,59,161,7105,1,0,320,96,35624,-21,34,127,0,0,2373,21,0,1121,0,201,31923,-4,0,9,0,512784,0
512805,119,-2041,415,-58,52,176,7106,-3,3,345,96,35626,3,33,127,0,0,2373,0,0,1121,0,201,31933,-4,0,9,0,512784,0
512815,101,-2054,410,-65,39,178,7105,8,-3,368,104,35639,6,33,127,0,0,2375,10,0,1121,0,201,31943,-4,0,9,0,512800,0
512825,91,-2054,403,-79,29,166,7107,4,6,387,112,35650,-19,34,127,0,0,2375,0,0,1121,0,201,31953,-4,0,9,0,512815,0
512835,76,-2051,405,-76,38,148,7108,7,1,412,136,35651,-31,33,127,0,0,2375,-21,0,1121,0,201,31963,-4,0,9,0,512815,0
512845,70,-2059,392,-84,35,126,7109,4,3,420,96,35646,-23,33,127,0,0,2375,-21,0,1121,0,201,31973,-4,0,9,0,512831,0
512855,97,-2058,391,-88,42,119,7110,4,4,411,128,35638,4,33,127,0,0,2377,10,0,1121,0,201,31983,-4,0,9,0,512831,0
512865,108,-2053,387,-81,36,113,7111,3,0,405,96,35629,-7,33,127,0,0,2377,0,0,1121,0,201,31993,-4,0,9,0,512831,0
512875,96,-2069,384,-89,37,111,7112,0,0,403,128,35631,-7,33,127,0,0,2375,10,0,1121,0,201,32003,-4,0,9,0,512878,0
512885,104,-2039,394,-88,31,111,7113,0,-5,389,152,35635,-12,33,127,0,0,2375,10,0,1121,0,201,32013,-4,0,9,0,512878,0
512895,121,-2049,392,-92,37,104,7114,-1,1,355,120,35636,-14,33,127,0,0,2377,0,0,1121,0,201,32023,-4,0,9,0,512878,0
512905,104,-2055,397,-92,35,103,7114,-7,-6,362,120,35639,-8,33,127,0,0,2375,0,0,1121,0,201,32033,-4,0,9,0,512878,0
512916,123,-2052,385,-98,25,97,7114,3,-7,350,96,35626,-28,33,127,0,0,2375,0,0,1121,0,201,32044,-4,0,9,0,512893,0
512926,116,-2041,376,-96,30,105,7114,-4,4,329,96,35626,-9,33,127,0,0,2375,0,0,1121,0,201,32054,-4,0,9,0,512940,0
512936,122,-2048,375,-93,30,105,7113,-3,-3,335,88,35632,4,33,127,0,0,2375,0,0,1121,0,201,32064,-4,0,9,0,512987,0
512946,116,-2037,374,-81,32,110,7114,-2,-2,359,96,35633,17,33,127,0,0,2371,-38,0,1121,0,201,32074,-4,0,9,0,512987,0
512956,125,-2032,374,-80,37,100,7114,8,-2,341,96,35631,2,33,127,0,0,2375,-10,0,1121,0,201,32084,-4,0,9,0,512987,0
512966,119,-2042,385,-77,37,111,7114,0,0,331,96,35621,-6,33,127,0,0,2375,16,0,1121,0,201,32094,-4,0,9,0,512987,0
512976,132,-2037,392,-75,43,114,7113,-8,-1,321,96,35620,-2,33,127,0,0,2375,21,0,1121,0,201,32104,-4,0,9,0,513003,0
512986,132,-2048,402,-75,34,119,7114,-4,2,322,96,35617,-7,33,127,0,0,2375,0,0,1121,0,201,32114,-4,0,9,0,513003,0
512996,125,-2048,394,-83,31,126,7114,0,5,353,88,35615,-13,33,127,0,0,2375,0,0,1121,0,201,32124,-4,0,9,0,513003,0
513006,105,-2053,392,-84,37,124,7114,3,-4,331,96,35623,-16,33,127,0,0,2375,27,0,1121,0,201,32134,-4,0,9,0,513003,0
513016,106,-2050,392,-81,39,125,7115,3,-4,320,96,35638,4,33,127,0,0,2375,16,0,1121,0,201,32144,-4,0,9,0,513003,0
513026,109,-2046,384,-85,36,118,7115,-1,3,329,112,35647,24,33,127,0,0,2374,5,0,1121,0,201,32154,-4,0,9,0,513003,0
513036,109,-2056,382,-83,31,118,7113,-6,-2,318,80,35654,30,33,127,0,0,2376,10,0,1121,0,201,32164,-4,0,9,0,513003,0
513046,107,-2048,382,-83,44,110,7116,-1,-2,324,96,35651,26,33,127,0,0,2375,5,0,1121,0,201,32174,-4,0,9,0,513034,0
513056,101,-2064,382,-79,38,113,7115,7,8,326,88,35654,17,33,127,0,0,2375,0,0,1121,0,201,32184,-4,0,9,0,513034,0
513066,118,-2055,382,-81,39,110,7114,-6,-4,318,96,35645,14,33,127,0,0,2375,0,0,1121,0,201,32194,-4,0,9,0,513050,0
513076,115,-2058,382,-76,37,111,7115,7,0,334,112,35636,-7,33,127,0,0,2374,5,0,1121,0,201,32204,-4,0,9,0,513128,0
513086,123,-2047,392,-78,39,113,7115,-1,-1,323,88,35644,-27,33,127,0,0,2375,0,0,1121,0,201,32214,-4,0,9,0,513128,0
513096,122,-2055,390,-81,44,110,7114,-6,-4,314,96,35657,3,33,127,0,0,2375,16,0,1121,0,201,32224,-4,0,9,0,513128,0
513106,129,-2042,389,-82,38,113,7112,-12,-7,302,80,35660,29,33,127,0,0,2376,65,0,1121,0,201,32234,-4,0,9,0,513128,0
513116,129,-2051,385,-82,43,117,7115,0,0,315,72,35648,37,34,127,0,0,2373,-32,0,1121,0,201,32244,-4,0,9,0,513143,0
513126,101,-2047,382,-80,41,119,7115,12,-1,317,88,35636,41,33,127,0,0,2375,-5,0,1121,0,201,32254,-4,0,9,0,513143,0
513136,103,-2048,377,-78,42,124,7114,-7,1,313,96,35641,28,33,127,0,0,2375,16,0,1121,0,201,32264,-4,0,9,0,513143,0
513146,108,-2055,387,-76,38,118,7114,-3,-4,312,96,35648,26,33,127,0,0,2375,16,0,1121,0,201,32274,-4,0,9,0,513143,0
513156,113,-2050,386,-80,32,117,7116,0,3,317,72,35650,20,33,127,0,0,2373,-5,0,1121,0,201,32284,-4,0,9,0,513143,0
513167,95,-2048,395,-77,35,113,7113,0,-4,296,80,35656,32,33,127,0,0,2373,10,0,1121,0,201,32295,-4,0,9,0,513143,0
513177,120,-2053,396,-89,33,111,7114,-6,-2,288,72,35671,31,33,127,0,0,2373,10,0,1121,0,201,32305,-4,0,9,0,513159,0
513187,129,-2051,393,-89,35,112,7114,-4,-4,274,72,35678,26,33,127,0,0,2373,0,0,1121,0,201,32315,-4,0,9,0,513175,0
513197,113,-2051,388,-86,40,112,7114,3,-1,301,72,35673,20,33,127,0,0,2373,-10,0,1121,0,201,32325,-4,0,9,0,513175,0
513207,114,-2064,374,-86,28,115,7115,0,1,301,64,35668,29,33,127,0,0,2373,0,0,1121,0,201,32335,-4,0,9,0,513190,0
513217,110,-2049,387,-84,40,110,7113,-12,-8,291,80,35662,30,33,127,0,0,2375,32,0,1121,0,201,32345,-4,0,9,0,513190,0
513227,119,-2053,387,-88,33,109,7115,-1,-2,303,104,35662,25,33,127,0,0,2373,-10,0,1121,0,201,32355,-4,0,9,0,513206,0
513237,101,-2039,390,-85,31,107,7114,-3,-3,289,104,35662,21,34,127,0,0,2373,10,0,1121,0,201,32365,-4,0,9,0,513237,0
513247,118,-2044,386,-86,37,108,7113,-9,-4,285,80,35665,23,33,127,0,0,2375,32,0,1121,0,201,32375,-4,0,9,0,513237,0
513257,122,-2030,379,-84,30,105,7115,0,0,298,104,35665,35,33,127,0,0,2373,0,0,1121,0,201,32385,-4,0,9,0,513237,0
513267,113,-2042,381,-83,34,105,7115,6,1,298,72,35659,52,33,127,0,0,2373,-21,0,1121,0,201,32395,-4,0,9,0,513237,0
513277,101,-2042,380,-76,45,101,7115,5,2,299,72,35663,46,33,127,0,0,2373,-21,0,1121,0,201,32405,-4,0,9,0,513268,0
513287,109,-2046,381,-77,41,99,7113,-6,-4,277,48,35669,41,34,127,0,0,2373,10,0,1121,0,201,32415,-4,0,9,0,513268,0
513297,120,-2066,382,-78,43,90,7113,-3,0,262,48,35665,58,33,127,0,0,2368,-21,0,1121,0,201,32425,-4,0,9,0,513268,0
513307,130,-2054,388,-79,37,93,7112,-5,-1,253,48,35657,41,33,127,0,0,2370,-43,0,1121,0,201,32435,-4,0,9,0,513284,0
513317,114,-2059,381,-73,46,105,7110,-9,-4,208,72,35655,35,33,127,0,0,2368,10,0,1121,0,201,32445,-4,0,9,0,513284,0
513327,143,-2052,385,-71,39,104,7111,0,-2,187,32,35670,24,33,127,0,0,2370,10,0,1121,0,201,32455,-4,0,9,0,513315,0
513337,118,-2055,389,-76,38,108,7111,0,7,229,64,35671,13,33,127,0,0,2370,-10,0,1121,0,201,32465,-4,0,9,0,513315,0
513347,109,-2061,393,-71,37,111,7109,-14,-7,202,72,35669,11,33,127,0,0,2368,0,0,1121,0,201,32475,-4,0,9,0,513315,0
513357,124,-2044,399,-77,42,110,7110,-1,-8,168,40,35662,15,33,127,0,0,2370,32,0,1121,0,201,32485,-4,0,9,0,513346,0
513367,126,-2060,393,-80,37,118,7110,-14,1,180,32,35650,5,33,127,0,0,2366,0,0,1121,0,201,32495,-4,0,9,0,513346,0
513377,118,-2037,384,-80,37,117,7110,-9,-1,139,16,35650,8,33,127,0,0,2368,-10,0,1121,0,201,32505,-4,0,9,0,513346,0
513387,92,-2045,379,-78,38,116,7112,18,-1,230,32,35652,13,33,127,0,0,2368,-32,0,1121,0,201,32515,-4,0,9,0,513362,0
513398,99,-2062,380,-75,32,116,7107,-12,-13,172,48,35660,30,33,127,0,0,2368,16,0,1121,0,201,32526,-4,0,9,0,513378,0
513408,116,-2054,386,-77,33,113,7110,4,0,216,40,35654,23,33,127,0,0,2368,-32,0,1121,0,201,32536,-4,0,9,0,513393,0
513418,98,-2046,401,-77,36,120,7109,0,6,186,48,35647,19,33,127,0,0,2371,21,0,1121,0,201,32546,-4,0,9,0,513393,0
513428,114,-2068,399,-87,36,108,7110,2,1,188,40,35649,31,33,127,0,0,2368,10,0,1121,0,201,32556,-4,0,9,0,513487,0
513438,209,-1694,480,-111,4,-184,7110,1,1,162,48,35658,24,33,127,0,0,2362,-49,0,1121,0,201,32566,-4,0,9,0,513487,0
513448,839,-1730,261,-179,80,-587,7106,-15,-11,46,-48,35658,24,33,127,0,0,2354,-148,0,1121,0,201,32576,-4,0,9,0,513503,0
513458,125,-1922,401,-178,58,-430,7074,-102,-72,-330,-208,35649,18,33,127,0,0,2326,-225,0,1121,0,201,32586,-4,0,9,0,513503,0
513468,229,-2014,372,-100,-10,-223,7015,-148,-118,-390,-208,35644,14,33,127,0,0,2320,-54,0,1121,0,201,32596,-4,0,9,0,513503,0
513478,525,-1957,344,-133,-44,-389,6967,-86,-17,-392,-168,35643,4,33,127,0,0,2307,-76,0,1121,0,201,32606,-4,0,9,0,513503,0
513488,474,-1849,316,-195,-22,-712,6935,-62,61,-596,-280,35642,-9,33,127,0,0,2287,-203,0,1121,0,201,32616,-4,0,9,0,513503,0
513498,275,-1864,310,-234,47,-843,6880,-168,-30,-693,-432,35638,-15,33,127,0,0,2255,-307,0,1121,0,201,32626,-4,0,9,0,513503,0
513508,351,-1960,294,-199,43,-793,6781,-245,-150,-581,-496,35638,-3,33,127,0,0,2226,-302,0,1121,0,201,32636,-4,0,9,0,513503,0
513518,541,-1957,251,-159,-2,-846,6669,-252,-105,-570,-488,35643,-5,33,127,0,0,2206,-214,0,1121,0,201,32646,-4,0,9,0,513503,0
513528,585,-1856,276,-175,3,-952,6550,-243,-24,-570,-528,35648,-1,34,127,0,0,2175,-302,0,1121,0,201,32656,-4,0,9,0,513518,0
513538,574,-1880,404,-167,68,-899,6430,-270,-9,-564,-552,35655,-15,33,127,0,0,2140,-318,0,1121,0,201,32666,-4,0,9,0,513518,0
513548,665,-2022,408,-165,126,-637,6300,-290,-28,-564,-536,35659,-1,33,127,0,0,2117,-219,0,1121,0,201,32676,-4,0,9,0,513518,0
513558,1207,-1946,338,-109,61,-236,6180,-243,4,-515,-392,35667,2,33,127,0,0,2112,-60,0,1121,0,201,32686,-4,0,9,0,513581,0
513568,1311,-1994,259,-62,14,2,6099,-145,102,-476,-240,35667,18,33,127,0,0,2113,0,0,1121,0,201,32696,-4,0,9,0,513596,0
513578,874,-2071,215,-7,-25,322,6052,-82,142,-338,-96,35657,19,34,127,0,0,2121,71,0,1121,0,201,32706,-4,0,9,0,513596,0
513588,693,-2093,280,0,-24,432,6048,35,142,54,104,35647,20,34,127,0,0,2137,148,0,1121,0,201,32716,-4,0,9,0,513596,0
513598,411,-2155,266,-2,-46,396,6105,166,206,174,120,35643,16,34,127,0,0,2157,148,0,1121,0,201,32726,-4,0,9,0,513612,0
513608,258,-2179,354,19,-33,310,6193,213,178,65,112,35647,15,34,127,0,0,2168,131,0,1121,0,201,32736,-4,0,9,0,513612,0
513618,6,-2200,540,-35,-146,115,6263,115,13,-66,64,35646,15,33,127,0,0,2179,115,0,1121,0,201,32746,-4,0,9,0,513612,0
513628,-327,-2459,664,-91,-193,3,6302,80,-109,37,56,35644,3,34,127,0,0,2198,164,0,1121,0,201,32756,-4,0,9,0,513612,0
513638,-741,-2693,649,-152,226,-92,6332,84,-68,359,200,35651,4,33,127,0,0,2217,247,0,1121,0,201,32766,-4,0,9,0,513612,0
513649,-6,-1773,182,-147,-54,-596,6424,234,108,363,320,35661,1,33,127,0,0,2247,230,0,1121,0,201,32777,-4,0,9,0,513628,0
513659,302,-2012,-102,-110,-164,-713,6553,278,184,184,200,35669,-9,33,127,0,0,2258,76,0,1121,0,201,32787,-4,0,9,0,513659,0
513669,341,-2272,-44,-79,-163,-656,6663,207,23,-22,64,35670,-23,33,127,0,0,2274,142,0,1121,0,201,32797,-4,0,9,0,513659,0
513679,299,-2149,177,-51,-84,-739,6712,79,-168,195,112,35660,-31,33,127,0,0,2291,164,0,1121,0,201,32807,-4,0,9,0,513659,0
513689,223,-2027,344,-92,96,-879,6765,151,-94,258,152,35649,-29,34,127,0,0,2302,109,0,1121,0,201,32817,-4,0,-38,0,513659,0
513699,327,-2066,367,-157,194,-815,6833,139,54,124,104,35650,7,33,127,0,0,2313,120,0,1121,0,201,32827,-4,0,-39,0,513690,0
513709,450,-1955,424,-173,122,-699,6864,66,-59,274,144,35646,26,33,127,0,0,2329,142,0,1121,0,201,32837,-4,0,-39,0,513706,0
513719,436,-1847,467,-138,34,-681,6924,153,1,289,192,35643,35,33,127,0,0,2346,175,0,1121,0,201,32847,-4,0,-39,0,513706,0
513729,386,-1860,518,-108,-56,-705,7010,196,111,243,152,35636,39,33,127,0,0,2362,120,0,1121,0,201,32857,-4,0,-40,0,513706,0
513739,450,-1913,528,-104,-96,-707,7088,164,22,231,128,35642,6,33,127,0,0,2379,164,0,1121,0,201,32867,-4,0,-40,0,513706,0
513749,465,-1920,491,-104,-150,-716,7135,92,-83,375,200,35652,18,34,127,0,0,2392,142,0,1121,0,201,32877,-4,0,-40,0,513737,0
513759,394,-1883,443,-102,-177,-721,7185,115,-44,396,184,35659,-2,33,127,0,0,2406,120,0,1121,0,201,32887,-4,0,-41,0,513737,0
513769,332,-1922,407,-95,-187,-750,7247,134,34,331,200,35656,-4,33,127,0,0,2412,87,0,1121,0,201,32897,-4,0,-41,0,513753,0
513779,326,-1882,367,-113,-167,-804,7295,98,-8,358,168,35649,-26,33,127,0,0,2421,43,0,1121,0,201,32907,-4,0,-41,0,513753,0
513789,312,-1879,236,-137,-160,-857,7326,66,-66,401,144,35646,-18,33,127,0,0,2427,32,0,1121,0,201,32917,-4,0,-42,0,513784,0
513799,295,-1917,181,-119,-139,-883,7372,95,-1,256,120,35654,-12,33,127,0,0,2430,10,0,1121,0,201,32927,-4,0,-42,0,513784,0
513809,270,-1962,215,-128,-82,-949,7399,39,-11,148,24,35652,-1,34,127,0,0,2432,21,0,1121,0,201,32937,-4,0,-42,0,513800,0
513819,263,-2026,276,-124,-26,-969,7406,0,-75,114,16,35653,-5,33,127,0,0,2432,10,0,1121,0,201,32947,-4,0,-42,0,513815,0
513829,407,-2094,345,-130,72,-966,7408,13,-37,175,72,35648,-10,33,127,0,0,2434,10,0,1121,0,201,32957,-4,0,-42,0,513815,0
513839,561,-2037,374,-155,109,-962,7408,2,-4,255,104,35653,-11,33,127,0,0,2436,21,0,1121,0,201,32967,-4,0,-42,0,513831,0
513849,542,-1896,342,-200,38,-934,7412,0,1,303,112,35657,-15,33,127,0,0,2441,32,0,1121,0,201,32977,-4,0,-42,0,513846,0
513859,448,-1933,327,-193,-47,-931,7418,12,2,403,144,35658,-16,33,127,0,0,2445,32,0,1121,0,201,32987,-4,0,-42,0,513846,0
513869,358,-1948,300,-96,-112,-1016,7424,10,-1,482,176,35652,-8,33,127,0,0,2447,0,0,1121,0,201,32997,-4,0,-42,0,513846,0
513879,338,-1948,297,-70,-131,-1081,7427,-5,-8,521,160,35648,-7,33,127,0,0,2449,10,0,1121,0,201,33007,-4,0,-42,0,513846,0
513889,397,-1935,399,-143,-119,-1166,7428,0,-12,490,152,35657,-15,33,127,0,0,2443,-54,0,1121,0,201,33017,-4,0,-42,0,513862,0
513900,351,-1876,418,-212,-122,-1230,7424,-19,-7,358,80,35665,-19,33,127,0,0,2437,-82,0,1121,0,201,33028,-4,0,-42,0,513909,0
513910,256,-1907,231,-253,-13,-1302,7423,-4,-4,197,0,35666,-15,33,127,0,0,2425,-170,0,1121,0,201,33038,-4,0,-42,0,513909,0
513920,372,-1927,140,-213,67,-1333,7406,-37,-30,-64,-24,35652,-7,33,127,0,0,2419,-82,0,1121,0,201,33048,-4,0,-42,0,513909,0
513930,617,-1780,238,-149,152,-1398,7399,-28,-8,-367,-160,35644,-18,33,127,0,0,2403,-175,0,1121,0,201,33058,-4,0,-42,0,513924,0
513940,893,-1819,340,-146,122,-1341,7356,-130,-55,-433,-200,35649,-28,33,127,0,0,2397,-76,0,1121,0,201,33068,-4,0,-42,0,513924,0
513950,1019,-1934,450,-175,63,-1136,7293,-145,-114,-338,-200,35656,-17,34,127,0,0,2384,-54,0,1121,0,201,33078,-4,0,-42,0,513924,0
513960,1093,-2020,559,-212,34,-1060,7217,-165,-57,-199,-144,35663,-17,33,127,0,0,2369,-142,0,1121,0,201,33088,-4,0,-42,0,513940,0
513970,833,-1915,693,-277,-47,-941,7176,-57,51,-258,-112,35667,-7,33,127,0,0,2363,-126,0,1121,0,201,33098,-4,0,-42,0,513956,0
513980,793,-1965,691,-312,-121,-732,7139,-78,90,-253,-80,35663,-9,33,127,0,0,2362,10,0,1121,0,201,33108,-4,0,-42,0,513956,0
513990,818,-2052,572,-309,-177,-627,7136,21,67,-206,-64,35663,-2,33,127,0,0,2365,-10,0,1121,0,201,33118,-4,0,-42,0,513987,0
514000,886,-2006,478,-309,-175,-621,7137,-7,70,-214,-48,35658,1,33,127,0,0,2364,0,0,1121,0,201,33128,-4,0,-42,0,513987,0
514010,939,-1979,303,-336,-188,-368,7140,17,8,-93,8,35655,3,33,127,0,0,2377,131,0,1121,0,201,33138,-4,0,-42,0,513987,0
514020,866,-2080,234,-380,-215,-103,7160,57,39,216,144,35660,1,34,127,0,0,2397,230,0,1121,0,201,33148,-4,0,-42,0,514003,0
514030,743,-2117,192,-378,-286,-17,7213,168,93,465,336,35671,-13,34,127,0,0,2427,252,0,1121,0,201,33158,-4,0,-42,0,514003,0
514040,664,-2169,197,-357,-250,-74,7316,228,162,455,440,35672,-21,33,127,0,0,2464,335,0,1121,0,201,33168,-4,0,-42,0,514018,0
514050,432,-2243,252,-355,-108,-131,7448,300,142,386,472,35674,-12,33,127,0,0,2491,307,0,1121,0,201,33178,-4,0,-42,0,514018,0
514060,446,-2235,308,-391,-57,-90,7571,280,37,517,552,35670,-20,34,127,0,0,2533,368,0,1121,0,201,33188,-4,0,-41,0,514049,0
514070,493,-2178,377,-443,-18,-136,7705,307,10,582,672,35673,-7,34,127,0,0,2571,401,0,1121,0,201,33198,-4,0,-41,0,514049,0
514080,491,-2117,391,-456,13,-216,7845,351,64,541,760,35664,-6,33,127,0,0,2616,411,0,1121,0,201,33208,-4,0,-41,0,514065,0
514090,526,-2014,418,-473,-13,-284,8010,376,60,567,816,35658,16,34,127,0,0,2658,401,0,1121,0,201,33218,-4,0,-41,0,514065,0
514100,551,-1952,414,-467,-58,-305,8181,401,39,561,904,35664,10,33,127,0,0,2708,433,0,1121,0,201,33228,-4,0,-41,0,514081,0
514110,641,-1948,419,-458,-120,-363,8368,425,51,540,896,35674,6,34,127,0,0,2750,472,0,1121,0,201,33238,-4,0,-40,0,514081,0
514120,673,-1918,399,-461,-161,-401,8556,424,29,570,936,35675,2,33,127,0,0,2794,472,0,1121,0,201,33248,-4,0,-40,0,514112,0
514130,721,-1875,328,-453,-233,-406,8758,443,28,501,968,35667,23,34,127,0,0,2831,395,0,1121,0,201,33258,-4,0,-40,0,514128,0
514140,702,-1840,241,-463,-273,-391,8961,458,28,442,968,35652,25,33,127,0,0,2879,510,0,1121,0,201,33268,-4,0,-40,0,514128,0
514150,632,-1842,198,-456,-287,-384,9163,437,6,489,960,35653,20,34,127,0,0,2924,494,0,1121,0,201,33278,-4,0,-39,0,514128,0
514161,621,-1893,180,-425,-248,-445,9394,474,9,487,984,35654,0,33,127,0,0,2968,439,0,1121,0,201,33289,-4,0,-39,0,514143,0
514171,662,-1922,205,-411,-206,-473,9605,461,24,440,936,35668,3,33,127,0,0,3008,395,0,1121,0,201,33299,-4,0,-39,0,514253,0
514181,668,-1897,263,-427,-171,-489,9818,469,6,410,912,35676,6,33,127,0,0,3049,439,0,1121,0,201,33309,-4,0,-39,0,514253,0
514191,706,-1877,274,-450,-161,-506,10021,446,-15,468,912,35673,-5,34,127,0,0,3091,395,0,1121,0,201,33319,-4,0,-38,0,514253,0
514201,674,-1862,229,-451,-182,-526,10230,471,-8,430,928,35667,-7,34,127,0,0,3133,395,0,1121,0,201,33329,-4,0,-38,0,514268,0
514211,704,-1847,183,-417,-190,-549,10440,458,12,418,896,35660,-5,34,127,0,0,3175,395,0,1121,0,201,33339,-4,0,-38,0,514268,0
514221,651,-1864,177,-380,-203,-562,10643,446,-15,416,912,35655,6,34,127,0,0,3214,406,0,1121,0,201,33349,-4,0,-38,0,514268,0
514231,664,-1902,221,-329,-214,-588,10837,422,-29,465,904,35651,0,33,127,0,0,3251,384,0,1121,0,201,33359,-4,0,-38,0,514268,0
514241,681,-1938,279,-338,-257,-646,11036,450,-10,428,912,35655,6,33,127,0,0,3289,373,0,1121,0,201,33369,-4,0,-37,0,514268,0
514251,671,-1946,282,-343,-291,-683,11235,428,13,434,896,35654,1,34,127,0,0,3324,362,0,1121,0,201,33379,-4,0,-37,0,514268,0
514261,566,-1943,254,-357,-313,-718,11428,415,-21,458,904,35650,2,33,127,0,0,3366,384,0,1121,0,201,33389,-4,0,-37,0,514268,0
514271,501,-1930,225,-355,-320,-796,11623,433,-8,463,936,35649,-5,33,127,0,0,3401,362,0,1121,0,201,33399,-4,0,-37,0,514268,0
514281,565,-2014,250,-351,-301,-938,11821,434,9,409,880,35656,-6,33,127,0,0,3438,384,0,1121,0,201,33409,-4,0,-36,0,514268,0
514291,564,-2020,307,-368,-295,-1007,12011,411,-15,443,856,35665,-7,34,127,0,0,3476,395,0,1121,0,201,33419,-4,0,-36,0,514268,0
514301,585,-1985,317,-424,-309,-1072,12194,392,-31,473,840,35675,2,33,127,0,0,3509,351,0,1121,0,201,33429,-4,0,-36,0,514268,0
514311,418,-1973,333,-411,-318,-1076,12371,390,-29,509,880,35683,0,33,127,0,0,3541,340,0,1121,0,201,33439,-4,0,-35,0,514299,0
514321,588,-2121,301,-367,-409,-998,12556,399,4,437,848,35688,15,33,127,0,0,3585,439,0,1121,0,201,33449,-4,0,-35,0,514299,0
514331,1043,-2261,279,-405,-447,-1493,12742,428,13,575,1032,35676,10,33,127,0,0,3629,439,0,1121,0,201,33459,-4,0,-35,0,514315,0
514341,354,-2006,356,-515,-517,-1531,12942,434,35,495,968,35663,16,33,127,0,0,3660,274,0,1121,0,201,33469,-4,0,-34,0,514315,0
514351,252,-2158,357,-633,-503,-1155,13137,421,8,526,992,35656,2,33,127,0,0,3708,483,0,1121,0,201,33479,-4,0,-34,0,514346,0
514361,458,-2417,349,-654,-507,-1383,13348,486,12,586,1208,35664,-1,33,127,0,0,3768,582,0,1121,0,201,33489,-4,0,-34,0,514346,0
514371,649,-2543,263,-656,-361,-1834,13586,553,103,670,1368,35657,-15,33,127,0,0,3821,494,0,1121,0,201,33499,-4,0,-33,0,514346,0
514381,465,-2271,262,-625,-432,-1894,13850,583,103,566,1312,35656,0,34,127,0,0,3864,472,0,1121,0,201,33509,-4,0,-33,0,514362,0
514391,450,-2220,276,-617,-630,-1745,14119,598,47,533,1400,35655,23,34,127,0,0,3926,637,0,1121,0,201,33519,-4,0,-32,0,514378,0
514402,498,-2534,256,-610,-808,-1843,14436,658,46,608,1616,35664,27,34,127,0,0,4011,791,0,1121,0,201,33530,-4,0,-31,0,514378,0
514412,457,-2670,245,-602,-774,-2084,14762,738,113,546,1688,35659,33,33,127,0,0,4081,714,0,1121,0,201,33540,-4,0,-31,0,514393,0
514422,354,-2726,332,-613,-681,-2348,15108,768,107,539,1728,35655,12,33,127,0,0,4150,686,0,1121,0,201,33550,-4,0,-30,0,514409,0
514432,331,-2698,334,-635,-671,-2404,15459,768,39,517,1720,35653,13,34,127,0,0,4225,714,0,1121,0,201,33560,-4,0,-30,0,514409,0
514442,353,-2557,69,-723,-622,-2449,15815,785,17,550,1864,35656,14,34,127,0,0,4306,796,0,1121,0,201,33570,-4,0,-29,0,514424,0
514452,582,-2510,-114,-822,-421,-2602,16184,828,38,609,2016,35659,17,34,127,0,0,4389,834,0,1121,0,201,33580,-4,0,-28,0,514440,0
514462,340,-2982,143,-859,-256,-2541,16576,877,70,591,2120,35656,13,33,127,0,0,4479,867,0,1121,0,201,33590,-4,0,-27,0,514440,0
514472,210,-2923,156,-860,-297,-2482,16984,925,77,683,2296,35657,23,33,127,0,0,4573,966,0,1121,0,201,33600,-4,0,-26,0,514440,0
514482,-9,-2583,1,-777,135,-2716,17426,986,108,636,2448,35647,26,33,127,0,0,4670,950,0,1121,0,201,33610,-4,0,-24,0,514471,0
514492,75,-2465,-20,-755,289,-2787,17895,1043,114,604,2536,35655,21,34,127,0,0,4768,977,0,1121,0,201,33620,-4,0,-23,0,514471,0
514502,172,-2548,158,-772,366,-2657,18382,1078,80,651,2664,35649,20,34,127,0,0,4871,1060,0,1121,0,201,33630,-4,0,-21,0,514471,0
514512,149,-2688,253,-790,306,-2539,18896,1162,91,716,2880,35645,30,34,127,0,0,4991,1148,0,1121,0,201,33640,-4,0,-20,0,514502,0
514522,17,-2491,284,-763,347,-2337,19443,1230,124,760,3184,35640,41,33,127,0,0,5126,1356,0,1121,0,201,33650,-4,0,-18,0,514502,0
514532,-14,-2297,219,-720,323,-2267,20034,1319,151,763,3464,35635,45,33,127,0,0,5271,1483,0,1121,0,201,33660,-4,0,-16,0,514518,0
514542,31,-1988,250,-607,248,-2030,20664,1408,154,771,3824,35628,54,33,127,0,0,5431,1691,0,1121,0,201,33670,-4,0,-14,0,514518,0
514552,120,-1809,254,-536,157,-1804,21354,1545,194,471,2968,35626,65,34,127,0,0,5608,1785,0,1121,0,201,33680,-4,0,-12,0,514596,0
514562,378,-1454,258,-475,-56,-1225,21955,1194,-80,-261,1112,35633,42,33,127,0,0,5806,2032,0,1121,0,201,33690,-4,0,-10,0,514612,0
514572,603,-1268,209,-447,-192,-916,22323,630,-688,-713,-112,35640,11,33,127,0,0,6018,2114,0,1121,0,201,33700,-4,0,-8,0,514612,0
514582,1899,-2020,-8,-320,874,-1681,22305,-235,-1219,-863,-952,35638,-25,33,127,0,0,6149,1159,0,1121,0,201,33710,-4,0,-5,0,514612,0
514592,1088,-2139,12,-22,1427,-2342,22049,-734,-1173,-1376,-2672,35637,-37,34,127,0,0,6111,-505,0,1121,0,201,33720,-4,0,-3,0,514612,0
514602,1442,-2192,384,331,1879,-2757,21450,-1638,-1112,-2620,-5896,35622,5,33,127,0,0,5965,-1582,0,1121,0,201,33730,-4,0,-1,0,514627,0
514612,1547,-1910,416,310,1909,-2929,20324,-2790,-1729,-2339,-8544,35585,142,33,127,0,0,5726,-2427,0,1121,0,201,33740,-4,0,0,0,514627,0
514622,1426,-1611,416,310,1698,-2815,18684,-3978,-2003,-2217,-10984,35534,312,33,127,0,0,5427,-3054,0,1121,0,201,33750,-4,0,2,0,514627,0
514632,1514,-1593,208,306,1692,-2858,16882,-3408,-1200,4038,-1608,35510,365,33,127,0,0,5100,-3229,0,1121,0,201,33760,-4,0,4,0,514627,0
514642,628,-1368,289,471,1026,-2662,16706,828,3353,5217,3464,35578,162,33,127,0,0,4748,-3383,0,1121,0,201,33770,-4,0,7,0,514627,0
514653,1513,-1948,196,399,958,-1230,17426,1486,4517,128,1128,35618,73,34,127,0,0,4427,-2867,0,1121,0,201,33781,-4,0,9,0,514627,0
514663,1334,-2015,334,390,717,-61,17600,-402,-201,-3490,-2160,35682,-84,33,127,0,0,4190,-2263,0,1121,0,201,33791,-4,0,11,0,514643,0
514673,725,-1681,527,618,211,536,17144,-1166,-2394,-1093,-3240,35629,83,33,127,0,0,4001,-1889,0,1121,0,201,33801,-4,0,13,0,514643,0
514683,900,-1558,478,673,-91,785,16504,-1494,-1361,-812,-3864,35644,47,33,127,0,0,3832,-1669,0,1121,0,201,33811,-4,0,15,0,514690,0
514693,1087,-1498,392,741,-184,1166,15760,-1697,-514,-691,-4248,35631,67,33,127,0,0,3656,-1724,0,1121,0,201,33821,-4,0,18,0,514690,0
514703,1202,-1428,259,767,-138,1659,14932,-1860,-342,-557,-4376,35620,57,34,127,0,0,3484,-1724,0,1121,0,201,33831,-4,0,20,0,514690,0
514713,1217,-1276,285,753,-120,2629,14076,-1875,-199,-389,-4312,35610,47,34,127,0,0,3335,-1483,0,1121,0,201,33841,-4,0,23,0,514690,0
514723,1174,-1230,315,772,-161,3233,13257,-1758,43,-255,-3992,35609,26,34,127,0,0,3210,-1241,0,1121,0,201,33851,-4,0,25,0,514721,0
514733,1018,-1147,333,711,-348,3977,12509,-1591,219,-195,-3608,35627,19,33,127,0,0,3106,-1043,0,1121,0,201,33861,-4,0,28,0,514721,0
514743,985,-1167,385,719,-447,4355,11837,-1425,283,-202,-3264,35638,14,33,127,0,0,3008,-966,0,1121,0,201,33871,-4,0,29,0,514721,0
514753,945,-1284,309,758,-515,4914,11224,-1302,259,-206,-2808,35637,18,33,127,0,0,2922,-867,0,1121,0,201,33881,-4,0,32,0,514721,0
514763,918,-1381,268,798,-484,5302,10671,-1175,230,-221,-2512,35631,7,33,127,0,0,2847,-736,0,1121,0,201,33891,-4,0,34,78,514752,0
514773,850,-1478,234,840,-346,5863,10179,-1041,230,-242,-2192,35635,15,33,127,0,0,2779,-681,0,1121,0,201,33901,-4,0,37,71,514752,0
514783,826,-1527,208,824,-197,6157,9748,-911,230,-272,-1832,35641,11,34,127,0,0,2718,-615,0,1121,0,201,33911,-4,0,39,66,514768,0
514793,764,-1614,252,807,110,6504,9368,-813,206,-298,-1688,35638,9,33,127,0,0,2658,-593,0,1121,0,201,33921,-4,0,43,60,514768,0
514803,657,-1763,283,799,272,6730,9030,-725,166,-370,-1544,35634,-18,34,127,0,0,2597,-626,0,1121,0,201,33931,-4,0,45,56,514784,0
514813,599,-1973,312,786,467,7125,8714,-689,114,-343,-1376,35648,-3,33,127,0,0,2555,-428,0,1121,0,201,33941,-4,0,48,51,514799,0
514823,637,-2067,353,807,613,7338,8423,-611,83,-272,-1120,35643,-4,34,127,0,0,2526,-252,0,1121,0,201,33951,-4,0,50,48,514799,0
514833,732,-2063,391,826,828,7554,8171,-522,130,-216,-816,35639,-16,33,127,0,0,2511,-142,0,1121,0,201,33961,-4,0,53,44,514862,0
514843,784,-2006,413,805,938,7670,7958,-449,148,-176,-432,35636,-38,33,127,0,0,2498,-131,0,1121,0,201,33971,-4,0,56,42,514877,0
514853,814,-2006,375,764,987,7838,7786,-345,149,-86,-208,35641,-46,33,127,0,0,2489,-98,0,1121,0,201,33981,-4,0,59,39,514877,0
514863,833,-2033,331,751,962,7953,7693,-150,232,-51,-32,35641,-41,34,127,0,0,2487,10,0,1121,0,201,33991,-4,0,61,37,514877,0
514873,839,-2114,349,823,894,7990,7685,47,316,17,-16,35632,-27,33,127,0,0,2487,-10,0,1121,0,201,34001,-4,0,64,35,514877,0
514883,841,-2178,380,892,800,7998,7686,-8,170,34,48,35629,-18,33,127,0,0,2493,65,0,1121,0,201,34011,-4,0,67,33,514877,0
514893,899,-2213,473,1000,542,8064,7695,26,11,240,104,35628,-13,34,127,0,0,2509,164,0,1121,0,201,34021,-4,0,70,31,514877,0
514904,957,-2193,528,1058,342,8099,7735,124,86,460,296,35635,-16,34,127,0,0,2538,318,0,1121,0,201,34032,-4,0,72,30,514877,0
514914,938,-2150,496,1144,-3,8084,7830,247,179,465,440,35640,-20,34,127,0,0,2570,351,0,1121,0,201,34042,-4,0,75,29,514893,0
514924,906,-2144,461,1186,-251,8051,7950,258,152,488,576,35652,-23,33,127,0,0,2616,417,0,1121,0,201,34052,-4,0,77,29,514924,0
514934,803,-2164,389,1315,-597,7910,8094,333,80,525,704,35659,-24,33,127,0,0,2660,450,0,1121,0,201,34062,-4,0,79,28,514940,0
514944,784,-2189,346,1418,-769,7744,8261,378,97,482,824,35656,-30,34,127,0,0,2712,477,0,1121,0,201,34072,-4,0,81,27,514940,0
514954,779,-2210,354,1568,-917,7396,8447,416,80,482,880,35644,-27,33,127,0,0,2755,444,0,1121,0,201,34082,-4,0,84,27,514940,0
514964,748,-2168,369,1635,-976,7147,8638,432,35,434,808,35634,-30,33,127,0,0,2785,313,0,1121,0,201,34092,-4,0,85,26,514940,0
514974,681,-2133,358,1668,-1040,6784,8823,403,-3,362,680,35634,-21,33,127,0,0,2804,219,0,1121,0,201,34102,-4,0,87,26,514940,0
514984,629,-2086,315,1667,-1053,6517,8998,372,-71,313,496,35641,-30,34,127,0,0,2822,131,0,1121,0,201,34112,-4,0,89,26,514987,0
514994,511,-2049,211,1592,-1053,6120,9145,292,-47,273,344,35659,-34,33,127,0,0,2834,148,0,1121,0,201,34122,-4,0,90,26,514987,0
515004,495,-2070,193,1520,-995,5804,9258,214,-87,216,200,35657,-30,33,127,0,0,2839,49,0,1121,0,201,34132,-4,0,91,26,514987,0
515014,363,-2141,182,1404,-834,5307,9319,119,-161,192,64,35648,-9,33,127,0,0,2839,-60,0,1121,0,201,34142,-4,0,93,25,514987,0
515024,377,-2119,203,1290,-670,4995,9333,0,-184,99,32,35640,-14,34,127,0,0,2839,-43,0,1121,0,201,34152,-4,0,94,25,515002,0
515034,300,-2113,190,1063,-387,4488,9331,1,-129,129,32,35652,-16,33,127,0,0,2839,-16,0,1121,0,201,34162,-4,0,95,25,515018,0
515044,289,-2120,198,909,-181,4113,9333,-7,-20,60,32,35662,-37,33,127,0,0,2843,0,0,1121,0,201,34172,-4,0,96,25,515034,0
515054,262,-2079,141,727,147,3480,9332,3,4,65,8,35657,-41,33,127,0,0,2841,21,0,1121,0,201,34182,-4,0,97,25,515034,0
515064,310,-2021,90,628,380,3028,9329,-11,-4,11,-24,35638,-42,33,127,0,0,2839,-10,0,1121,0,201,34192,-4,0,97,25,515049,0
515074,292,-1953,98,521,638,2305,9321,-29,-12,-107,-56,35635,-50,34,127,0,0,2832,-38,0,1121,0,201,34202,-4,0,98,25,515065,0
515084,314,-1948,126,444,753,1792,9307,-31,-30,-112,-48,35644,-56,33,127,0,0,2833,16,0,1121,0,201,34212,-4,0,98,25,515065,0
515094,348,-1980,191,333,899,979,9304,5,14,-158,-40,35643,-51,33,127,0,0,2826,-16,0,1121,0,201,34222,-4,0,98,25,515080,0
515104,391,-1987,207,241,1005,416,9301,2,33,-201,-72,35650,-41,33,127,0,0,2825,-38,0,1121,0,201,34232,-4,0,98,25,515096,0
515114,425,-1959,248,81,1201,-448,9296,-26,-13,-306,-128,35650,-33,33,127,0,0,2815,-82,0,1121,0,201,34242,-4,0,98,25,515096,0
515124,442,-1941,253,-41,1335,-972,9275,-68,-44,-444,-216,35651,-46,33,127,0,0,2799,-159,0,1121,0,201,34252,-4,0,98,25,515096,0
515134,520,-1951,248,-224,1513,-1635,9210,-179,-124,-327,-232,35653,-48,33,127,0,0,2787,-175,0,1121,0,201,34262,-4,0,98,25,515127,0
515144,416,-2634,212,-373,1596,-2009,9137,-132,-98,-260,-104,35654,-45,33,127,0,0,2794,71,0,1121,0,201,34272,-4,0,98,25,515127,0
515155,302,-4856,967,-697,2064,-2589,9137,143,184,813,848,35653,-25,33,127,0,0,2917,1131,0,1434,271,202,3,1,0,97,25,515127,0
515165,755,-867,1201,-128,1741,-3881,9329,504,554,653,1320,35651,-16,33,127,0,0,2977,505,0,1434,271,202,13,1,0,96,25,515159,0
515175,-241,-2027,539,-708,1153,-4180,9583,538,448,249,632,35657,-1,33,127,0,0,2950,-318,0,1434,271,202,23,1,0,95,25,515159,0
515185,-1148,-2346,728,-429,818,-3830,9776,362,-54,-64,8,35659,-11,33,127,0,0,2928,-241,0,1434,271,202,33,1,0,94,25,515159,0
515195,-1056,-1728,209,-351,290,-3930,9801,-73,-473,-370,-104,35652,-20,33,127,0,0,2917,-109,0,1434,271,202,43,1,0,93,25,515190,0
515205,-788,-1957,-135,-656,421,-4144,9736,-154,-498,-158,-112,35652,-45,33,127,0,0,2913,-65,0,1434,271,202,53,1,0,92,26,515190,0
515215,-358,-1679,-331,-573,767,-4330,9693,-93,-78,-242,-184,35661,-52,33,127,0,0,2882,-318,0,1434,271,202,63,1,0,91,26,515205,0
515225,138,-1209,-276,-525,528,-4250,9632,-169,5,-554,-464,35657,-37,33,127,0,0,2849,-329,0,1434,271,202,73,1,0,90,26,515205,0
515235,532,-1293,4,-594,443,-3855,9507,-309,-177,-335,-304,35652,-33,33,127,0,0,2836,-109,0,1434,271,202,83,1,0,89,26,515237,0
515245,401,-1470,377,-585,377,-3471,9374,-284,-136,-138,-96,35651,-36,33,127,0,0,2834,32,0,1434,271,202,93,1,0,88,26,515237,0
515255,160,-1672,452,-595,195,-3406,9310,-57,142,63,24,35663,-30,33,127,0,0,2834,-32,0,1434,271,202,103,1,0,87,26,515237,0
515265,32,-1989,305,-462,9,-3346,9315,-2,280,-158,-72,35657,-26,33,127,0,0,2827,-54,0,1434,271,202,113,1,0,86,26,515237,0
515275,-61,-2249,267,-360,-234,-3273,9307,-19,68,-231,-64,35644,-24,33,127,0,0,2825,-32,0,1434,271,202,123,1,0,85,26,515252,0
515285,86,-2228,328,1,-456,-3330,9305,-7,-16,-333,-104,35636,-36,33,127,0,0,2825,10,0,1434,271,202,133,1,0,83,26,515268,0
515295,-5,-2024,351,156,-387,-3520,9300,-16,6,-413,-192,35649,-38,33,127,0,0,2808,-153,0,1434,271,202,143,1,0,82,27,515284,0
515305,440,-2030,387,190,24,-3441,9262,-116,-73,-573,-368,35653,-36,34,127,0,0,2777,-307,0,1434,271,202,153,1,0,81,27,515284,0
515315,584,-1864,459,97,131,-3411,9157,-254,-201,-463,-488,35648,-19,33,127,0,0,2735,-395,0,1434,271,202,163,1,0,80,27,515299,0
515325,676,-1670,506,-198,9,-3361,9022,-331,-178,-527,-672,35635,-1,33,127,0,0,2680,-560,0,1434,271,202,173,1,0,79,27,515299,0
515335,714,-1759,465,-338,-110,-3183,8849,-387,-127,-481,-888,35637,-12,33,127,0,0,2623,-571,0,1434,271,202,183,1,0,78,27,515315,0
515345,941,-1987,393,-301,-119,-2836,8646,-462,-127,-439,-1016,35641,-31,33,127,0,0,2566,-560,0,1434,271,202,193,1,0,76,27,515315,0
515355,714,-1990,496,-163,17,-2834,8425,-492,-84,-480,-1240,35643,-31,33,127,0,0,2491,-791,0,1434,271,202,203,1,0,75,27,515346,0
515365,460,-2237,704,-196,1,-2629,8169,-595,-101,-580,-1528,35642,-5,33,127,0,0,2414,-802,0,1434,271,202,213,1,0,75,28,515362,0
515375,501,-2066,751,-256,9,-2480,7860,-715,-181,-418,-1528,35634,-9,33,127,0,0,2344,-681,0,1434,271,202,223,1,0,75,28,515362,0
515385,367,-2125,550,-328,19,-2105,7534,-717,-131,-370,-1560,35637,-21,33,127,0,0,2269,-725,0,1434,271,202,233,1,0,75,28,515362,0
515396,452,-2115,441,-272,8,-1872,7179,-693,-11,-363,-1432,35632,-17,33,127,0,0,2209,-549,0,1434,271,202,244,1,0,75,28,515393,0
515406,470,-1931,243,-178,19,-1641,6888,-613,75,-460,-1336,35647,-13,33,127,0,0,2151,-582,0,1434,271,202,254,1,0,75,28,515393,0
515416,475,-1919,165,-119,52,-1475,6626,-574,121,-585,-1312,35636,6,33,127,0,0,2096,-560,0,1434,271,202,264,1,0,75,28,515393,0
515426,579,-1994,85,26,73,-1256,6372,-550,63,-541,-1224,35634,-12,33,127,0,0,2056,-461,0,1434,271,202,274,1,0,75,28,515409,0
515436,471,-2010,140,107,88,-1081,6136,-502,57,-595,-1152,35629,3,33,127,0,0,2019,-373,0,1434,271,202,284,1,0,75,28,515424,0
515446,388,-2190,308,231,16,-848,5921,-456,73,-528,-1016,35642,1,33,127,0,0,1983,-296,0,1434,271,202,294,1,0,75,28,515440,0
515456,339,-2157,391,289,17,-790,5718,-430,63,-520,-880,35643,6,33,127,0,0,1954,-252,0,1434,271,202,304,1,0,75,28,515440,0
515466,268,-2128,481,329,60,-739,5537,-381,69,-471,-784,35636,-1,33,127,0,0,1929,-230,0,1434,271,202,314,1,0,75,28,515440,0
515476,287,-2076,523,344,86,-675,5383,-322,94,-575,-720,35631,-21,33,127,0,0,1906,-186,0,1434,271,202,324,1,0,75,28,515502,0
515486,434,-1994,667,321,100,-558,5236,-339,59,-525,-608,35641,-19,33,127,0,0,1886,-142,0,1434,271,202,334,1,0,75,28,515533,0
515496,454,-1956,736,273,60,-483,5095,-308,17,-443,-488,35642,-7,33,127,0,0,1872,-115,0,1434,271,202,344,1,0,75,28,515533,0
515506,440,-1920,761,165,12,-326,4982,-227,70,-468,-376,35635,-12,33,127,0,0,1858,-104,0,1434,271,202,354,1,0,75,28,515549,0
515516,473,-1913,736,103,-26,-228,4900,-161,114,-441,-296,35625,-24,33,127,0,0,1850,-76,0,1434,271,202,364,1,0,75,28,515549,0
515526,454,-1936,648,50,-44,-202,4842,-109,102,-447,-216,35626,-35,33,127,0,0,1839,-98,0,1434,271,202,374,1,0,75,28,515549,0
515536,459,-1958,614,10,-37,-246,4798,-86,66,-428,-208,35625,-28,33,127,0,0,1836,-104,0,1434,271,202,384,1,0,75,28,515549,0
515546,336,-2001,611,-53,-24,-280,4779,-47,73,-638,-248,35619,-23,33,127,0,0,1824,-82,0,1434,271,202,394,1,0,75,28,515549,0
515556,338,-1984,591,-85,-44,-286,4736,-114,-10,-528,-272,35626,-20,33,127,0,0,1813,-131,0,1434,271,202,404,1,0,75,28,515549,0
515566,423,-1931,485,-120,-26,-357,4684,-121,-65,-494,-296,35633,-10,33,127,0,0,1803,-148,0,1434,271,202,414,1,0,75,28,515549,0
515576,379,-1908,412,-124,-15,-413,4647,-65,18,-738,-344,35643,0,33,127,0,0,1787,-131,0,1434,271,202,424,1,0,75,28,515549,0
515586,364,-1914,423,-106,-48,-359,4593,-132,-6,-763,-376,35638,-2,33,127,0,0,1770,-82,0,1434,271,202,434,1,0,75,28,515580,0
515596,317,-1969,479,-100,-78,-315,4511,-185,-91,-501,-336,35643,-17,33,127,0,0,1760,-98,0,1434,271,202,444,1,0,75,28,515580,0
515606,314,-1985,571,-112,-67,-390,4436,-149,-28,-450,-312,35647,-18,33,127,0,0,1753,-109,0,1434,271,202,454,1,0,75,28,515580,0
515616,345,-1938,591,-149,-44,-492,4366,-161,28,-461,-312,35637,-8,33,127,0,0,1736,-148,0,1434,271,202,464,1,0,75,28,515596,0
515626,91,-2071,450,-204,-209,-401,4294,-169,-9,-531,-344,35628,-4,33,127,0,0,1719,-164,0,1434,271,202,474,1,0,75,28,515612,0
515636,703,-2126,319,-543,-226,-485,4228,-143,0,-548,-320,35627,-17,34,127,0,0,1711,-115,0,1434,271,202,484,1,0,75,28,515627,0
515646,299,-1885,322,138,4,-1060,4174,-124,34,-640,-440,35638,-47,33,127,0,0,1679,-324,0,1434,271,202,494,1,0,75,28,515643,0
515657,59,-2009,870,-220,35,-974,4070,-247,-76,-696,-640,35632,-27,33,127,0,0,1643,-340,0,1434,271,202,505,1,0,75,28,515674,0
515667,492,-2084,799,-277,-67,-778,3941,-299,-145,-602,-640,35613,-17,33,127,0,0,1617,-241,0,1434,271,202,515,1,0,75,28,515674,0
515677,749,-1906,592,-318,-258,-801,3812,-280,-45,-615,-584,35615,3,33,127,0,0,1599,-175,0,1434,271,202,525,1,0,75,28,515674,0
515687,539,-1796,472,-369,-316,-876,3686,-265,11,-536,-552,35614,3,33,127,0,0,1575,-230,0,1434,271,202,535,1,0,75,28,515674,0
515697,221,-1997,281,-350,-232,-811,3556,-292,-1,-548,-552,35619,7,34,127,0,0,1553,-208,0,1434,271,202,545,1,0,75,28,515674,0
515707,362,-2009,270,-249,-141,-821,3429,-261,-4,-489,-544,35614,-4,33,127,0,0,1533,-219,0,1434,271,202,555,1,0,75,28,515690,0
515717,528,-2008,451,-208,-121,-936,3309,-253,28,-486,-480,35625,-22,33,127,0,0,1511,-230,0,1434,271,202,565,1,0,75,28,515721,0
515727,577,-1952,547,-277,-202,-1008,3197,-253,23,-536,-488,35636,-2,33,127,0,0,1491,-230,0,1434,271,202,575,1,0,75,28,515721,0
515737,361,-2173,551,-406,-365,-834,3091,-225,25,-605,-472,35641,-1,33,127,0,0,1474,-175,0,1434,271,202,585,1,0,75,28,515737,0
515747,452,-2138,595,-375,-441,-741,2981,-245,4,-438,-360,35629,4,33,127,0,0,1469,-43,0,1434,271,202,595,1,0,75,28,515737,0
515757,297,-2089,495,-375,-686,-912,2892,-168,28,-269,-144,35618,-16,33,127,0,0,1474,10,0,1434,271,202,605,1,0,75,28,515737,0
515767,649,-2255,754,-257,-1005,-1076,2871,-5,187,-223,-72,35629,-37,33,127,0,0,1476,10,0,1434,271,202,615,1,0,75,28,515737,0
515777,-111,-2981,905,-196,-886,-848,2876,0,176,-221,-56,35643,-35,33,127,0,0,1487,131,0,1434,271,202,625,1,0,75,28,515768,0
515787,-101,-2523,947,-427,-904,-886,2905,136,81,335,296,35646,-19,33,127,0,0,1520,329,0,1434,271,202,635,1,0,75,28,515768,0
515797,17,-2263,722,-674,-935,-1314,3011,261,219,374,440,35635,-2,33,127,0,0,1555,395,0,1434,271,202,645,1,0,75,28,515768,0
515807,21,-2301,341,-744,-855,-1581,3150,326,197,365,544,35643,13,33,127,0,0,1590,340,0,1434,271,202,655,1,0,75,28,515799,0
515817,59,-2384,150,-758,-695,-1799,3311,341,96,323,560,35640,-1,33,127,0,0,1621,329,0,1434,271,202,665,1,0,75,28,515799,0
515827,78,-2394,254,-741,-642,-1956,3466,333,12,369,592,35635,-8,33,127,0,0,1656,340,0,1434,271,202,675,1,0,75,28,515799,0
515837,259,-2398,592,-816,-585,-2304,3629,356,1,366,584,35625,-9,33,127,0,0,1689,318,0,1434,271,202,685,1,0,3,0,515815,0
515847,231,-2469,935,-859,-777,-2511,3792,367,15,337,568,35633,-9,33,127,0,0,1724,351,0,1434,271,202,695,1,0,4,0,515830,0
515857,136,-2666,890,-1051,-1018,-2470,3964,397,21,373,672,35648,18,33,127,0,0,1773,505,0,1434,271,202,705,1,0,5,0,515830,0
515867,85,-2739,876,-1118,-1076,-2524,4141,406,34,443,936,35651,31,33,127,0,0,1836,637,0,1434,271,202,715,1,0,6,0,515846,0
515877,205,-2604,739,-1172,-1072,-2851,4351,497,85,507,1248,35644,26,33,127,0,0,1911,769,0,1434,271,202,725,1,0,8,0,515877,0
515887,118,-2525,676,-1144,-1126,-3009,4605,582,156,465,1408,35645,26,33,127,0,0,1986,780,0,1434,271,202,735,1,0,9,0,515877,0
515897,279,-2620,650,-1162,-1525,-3050,4897,667,152,520,1656,35649,44,33,127,0,0,2080,966,0,1434,271,202,745,1,0,11,0,515877,0
515908,38,-2746,474,-1154,-1731,-2848,5269,781,161,558,2048,35648,62,34,127,0,0,2215,1301,0,1434,271,202,756,1,0,13,0,515877,0
515918,521,-2767,471,-1410,-1709,-2994,5681,974,235,705,2584,35642,72,33,127,0,0,2365,1576,0,1434,271,202,766,1,0,15,0,515908,0
515928,-434,-2701,518,-1510,-1319,-3216,6188,1149,328,505,2720,35638,70,33,127,0,0,2484,1181,0,1434,271,202,776,1,0,17,0,515908,0
515938,-292,-2808,415,-1736,-1619,-2684,6739,1254,249,529,3152,35635,62,33,127,0,0,2666,1906,0,1434,271,202,786,1,0,20,0,515924,0
515948,56,-2794,197,-1648,-1498,-3340,7375,1453,253,682,3616,35632,59,33,127,0,0,2847,1796,0,1434,271,202,796,1,0,23,0,515924,0
515958,-351,-2963,-24,-1563,-1226,-3831,8069,1551,269,710,3904,35635,72,33,127,0,0,3021,1774,0,1434,271,202,806,1,0,26,0,515940,0
515968,-467,-3013,276,-1451,-973,-4064,8806,1657,181,826,4272,35626,93,33,127,0,0,3213,1911,0,1434,271,202,816,1,0,29,0,515940,0
515978,-473,-2694,496,-1407,-796,-4057,9622,1853,48,813,4720,35629,118,33,127,0,0,3417,2010,0,1434,271,202,826,1,0,33,0,515955,0
515988,158,-3064,433,-1592,-797,-4529,10521,2026,204,734,5016,35632,140,33,127,0,0,3615,1977,0,1434,271,202,836,1,0,37,0,515986,0
515998,56,-4420,533,-1703,-948,-5240,11454,2047,316,540,5040,35633,139,33,127,0,0,3786,1735,0,1434,271,202,846,1,0,42,0,515986,0
516008,-640,-4649,926,-1515,-1180,-5289,12364,1981,5,551,5064,35626,124,33,127,0,0,3963,1779,0,1434,271,202,856,1,0,45,0,515986,0
516018,-765,-3843,824,-1618,-1078,-5362,13282,2035,-40,594,5072,35618,106,33,127,0,0,4148,1862,0,1434,271,202,866,1,0,51,0,516033,0
516028,-651,-3425,860,-1653,-976,-5344,14236,2134,87,670,5168,35620,109,33,127,0,0,4345,1972,0,1434,271,202,876,1,0,55,0,516033,0
516038,-736,-2913,852,-1739,-993,-5092,15239,2223,167,661,5256,35626,128,33,127,0,0,4531,1889,0,1434,271,202,886,1,0,62,0,516033,0
516048,-871,-2691,888,-1663,-690,-4379,16232,2142,81,581,5200,35618,122,33,127,0,0,4724,1928,0,1434,271,202,896,1,0,67,0,516049,0
516058,-888,-2066,909,-1322,-709,-2767,17214,2183,-55,871,5640,35603,128,33,127,0,0,4971,2532,0,1434,271,202,906,1,0,76,0,516049,0
516068,-674,-1189,680,-1125,401,-1669,18315,2568,193,1392,6840,35601,170,33,127,0,0,5306,3433,0,1434,271,202,916,1,0,82,0,516049,0
516078,1227,-1519,-15,-744,3896,-3342,19496,2963,672,906,7008,35599,210,33,127,0,0,5494,1598,0,1434,271,202,926,1,0,92,79,516049,0
516088,454,-1466,-63,-45,5142,-4259,20714,2417,195,-988,4200,35628,136,33,127,0,0,5421,-955,0,1434,271,202,936,1,0,98,75,516096,0
516098,727,-1501,186,489,6293,-4598,21568,1657,-1000,-1282,624,35649,48,33,127,0,0,5182,-2532,0,1434,271,202,946,0,0,107,69,516127,0
516108,1206,-1410,749,599,5272,-3594,21704,-430,-2164,-2997,-2264,35668,-5,33,127,0,0,4940,-2323,0,1434,271,202,956,0,0,113,66,516127,0
516118,746,-1408,755,647,4308,-2174,21243,-1193,-2638,-1301,-3712,35649,46,33,127,0,0,4726,-2131,0,1434,271,202,966,0,0,122,62,516127,0
516128,1013,-1605,844,539,3377,-1085,20560,-1615,-1370,-904,-4360,35625,105,33,127,0,0,4552,-1658,0,1434,271,202,976,0,0,128,59,516127,0
516138,1192,-1895,990,490,1941,300,19767,-1785,-599,-483,-4368,35615,106,34,127,0,0,4397,-1516,0,1434,271,202,986,0,0,137,55,516143,0
516148,1269,-2002,966,513,1072,1150,18933,-1851,-260,-333,-4240,35622,80,33,127,0,0,4260,-1345,0,1434,271,202,996,0,0,143,52,516143,0
516159,1352,-1937,890,567,-27,2342,18024,-1789,-32,-230,-3992,35636,49,33,127,0,0,4108,-1329,0,1434,271,202,1007,0,0,152,49,516143,0
516169,1394,-1558,728,467,-870,3422,17247,-1679,125,-227,-3768,35652,34,33,127,0,0,3972,-1362,0,1434,271,202,1017,0,0,161,46,516143,0
516179,1402,-1332,684,415,-1238,4037,16513,-1599,173,-345,-3824,35659,41,34,127,0,0,3827,-1450,0,1434,271,202,1027,0,0,167,44,516174,0
516189,1338,-1168,493,487,-1664,4799,15770,-1668,52,-510,-4048,35662,69,33,127,0,0,3660,-1691,0,1434,271,202,1037,0,0,176,41,516174,0
