state_time,accelx,accely,accelz,gyrox,gyroy,gyroz,mot_ang,mot_vel,mot_acc,mot_cur,mot_volt,batt_volt,batt_curr,temperature,status_mn,status_ex,status_re,ank_ang,ank_vel,ank_torque,peak_ank_torque,step_energy,step_count,step_time,gait_state,movement,speed,incline,sys_time,eventFlags
601354,142,-2020,348,-42,-11,-51,13952,6,6,-372,-112,35700,-70,34,127,0,0,3739,-32,0,1678,890,242,10322,-4,0,301,-37,601368,0
601364,132,-2022,347,-45,-10,-51,13951,-3,-1,-393,-104,35699,-73,34,127,0,0,3739,0,0,1678,890,242,10332,-4,0,301,-37,601368,0
601374,149,-2024,347,-43,-11,-54,13949,-9,0,-405,-112,35700,-73,34,127,0,0,3743,32,0,1678,890,242,10342,-4,0,301,-37,601368,0
601384,141,-2019,346,-42,-10,-56,13950,-9,3,-374,-112,35703,-89,34,127,0,0,3739,-10,0,1678,890,242,10352,-4,0,301,-37,601368,0
601394,146,-2016,352,-44,-6,-58,13950,-1,-5,-399,-136,35703,-85,34,127,0,0,3740,-5,0,1678,890,242,10362,-4,0,301,-37,601368,0
601404,143,-2019,351,-39,-8,-56,13949,-4,-7,-408,-80,35714,-72,34,127,0,0,3741,38,0,1678,890,242,10372,-4,0,301,-37,601477,0
601414,140,-2022,344,-38,-9,-56,13950,-7,12,-385,-112,35720,-66,34,127,0,0,3739,-16,0,1678,890,242,10382,-4,0,301,-37,601477,0
601424,124,-2018,347,-40,-7,-59,13949,-1,-3,-400,-104,35716,-71,34,127,0,0,3739,0,0,1678,890,242,10392,-4,0,301,-37,601477,0
601434,142,-2023,352,-41,-10,-69,13947,-7,-6,-426,-104,35713,-71,34,127,0,0,3739,27,0,1678,890,242,10402,-4,0,301,-37,601477,0
601444,141,-2026,355,-46,-3,-69,13949,0,6,-408,-128,35707,-75,34,127,0,0,3740,-5,0,1678,890,242,10412,-4,0,301,-37,601477,0
601454,145,-2021,354,-50,0,-75,13946,-10,2,-416,-104,35710,-79,34,127,0,0,3739,27,0,1678,890,242,10422,-4,0,301,-37,601493,0
601464,135,-2016,355,-47,-11,-74,13944,-12,-3,-450,-120,35699,-83,34,127,0,0,3737,10,0,1678,890,242,10432,-4,0,301,-37,601493,0
601474,133,-2028,353,-44,-9,-82,13941,-6,-3,-444,-144,35694,-86,34,127,0,0,3735,-38,0,1678,890,242,10442,-4,0,301,-37,601493,0
601484,143,-2022,348,-53,-11,-88,13930,-34,-15,-461,-104,35690,-80,34,127,0,0,3734,10,0,1678,890,242,10452,-4,0,301,-37,601493,0
601494,145,-2023,358,-51,-8,-98,13908,-70,-43,-333,-120,35694,-77,34,127,0,0,3734,5,0,1678,890,242,10462,-4,0,301,-37,601493,0
601504,127,-2026,355,-49,1,-107,13889,-11,-19,-233,-104,35694,-76,34,127,0,0,3728,-71,0,1678,890,242,10472,-4,0,301,-37,601493,0
601514,164,-2016,352,-50,-7,-108,13889,5,49,-344,-104,35697,-70,34,127,0,0,3728,-21,0,1678,890,242,10482,-4,0,301,-37,601493,0
601524,161,-2022,350,-59,-12,-105,13888,0,27,-360,-104,35696,-54,34,127,0,0,3728,0,0,1678,890,242,10492,-4,0,301,-37,601508,0
601534,149,-2021,348,-49,-1,-101,13885,-3,3,-381,-104,35706,-32,34,127,0,0,3722,-54,0,1678,890,242,10502,-4,0,301,-37,601508,0
601544,165,-2016,343,-47,-10,-100,13877,-28,-13,-430,-128,35714,-33,34,127,0,0,3724,-5,0,1678,890,242,10512,-4,0,301,-37,601540,0
601554,174,-2021,358,-52,-8,-85,13857,-56,-38,-362,-120,35720,-44,34,127,0,0,3725,38,0,1678,890,242,10522,-4,0,301,-37,601540,0
601564,163,-2017,351,-55,-10,-83,13834,-38,-38,-188,-64,35707,-55,34,127,0,0,3722,-16,0,1678,890,242,10532,-4,0,301,-37,601540,0
601574,193,-2021,350,-51,-9,-71,13835,5,42,-275,-64,35704,-60,34,127,0,0,3722,54,0,1678,890,242,10542,-4,0,301,-37,601571,0
601584,183,-2026,349,-54,-11,-64,13833,-9,45,-307,-112,35707,-67,34,127,0,0,3721,0,0,1678,890,242,10552,-4,0,301,-37,601571,0
601594,145,-2026,352,-53,-17,-59,13830,3,-6,-325,-80,35710,-62,34,127,0,0,3716,-16,0,1678,890,242,10562,-4,0,301,-37,601571,0
601604,158,-2020,348,-54,-14,-59,13829,-2,4,-348,-104,35703,-53,34,127,0,0,3717,-16,0,1678,890,242,10572,-4,0,301,-37,601602,0
601614,142,-2017,341,-49,-6,-66,13830,0,2,-364,-104,35693,-51,34,127,0,0,3717,0,0,1678,890,242,10582,-4,0,301,-37,601602,0
601624,144,-2014,344,-55,-9,-69,13829,0,2,-394,-128,35694,-53,34,127,0,0,3718,16,0,1678,890,242,10592,-4,0,301,-37,601602,0
601634,136,-2015,350,-58,-3,-66,13826,-8,-2,-406,-120,35700,-59,34,127,0,0,3715,0,0,1678,890,242,10602,-4,0,301,-37,601618,0
601644,145,-2019,350,-57,-11,-71,13824,-5,-4,-421,-120,35703,-75,34,127,0,0,3715,0,0,1678,890,242,10612,-4,0,301,-37,601618,0
601654,152,-2020,356,-65,-12,-79,13823,-3,5,-429,-136,35709,-68,34,127,0,0,3713,-38,0,1678,890,242,10622,-4,0,301,-37,601649,0
601664,162,-2020,357,-63,-9,-76,13820,-3,-4,-403,-128,35706,-60,34,127,0,0,3716,-16,0,1678,890,242,10632,-4,0,301,-37,601649,0
601674,164,-2018,353,-59,-10,-75,13820,-12,1,-430,-152,35700,-62,34,127,0,0,3714,0,0,1678,890,242,10642,-4,0,301,-37,601649,0
601684,154,-2024,345,-62,-9,-81,13818,-1,-1,-418,-152,35697,-64,34,127,0,0,3711,-38,0,1678,890,242,10652,-4,0,301,-37,601680,0
601694,159,-2011,337,-65,-9,-72,13815,-5,0,-438,-144,35699,-82,34,127,0,0,3711,-43,0,1678,890,242,10662,-4,0,301,-37,601680,0
601704,169,-2011,341,-64,-8,-69,13810,-9,-4,-443,-160,35695,-70,34,127,0,0,3712,-32,0,1678,890,242,10672,-4,0,301,-37,601680,0
601714,158,-2015,339,-60,-15,-68,13797,-36,-16,-399,-160,35693,-69,34,127,0,0,3710,-10,0,1678,890,242,10682,-4,0,301,-37,601680,0
601724,159,-2016,344,-59,-13,-70,13775,-47,-35,-320,-112,35696,-65,34,127,0,0,3706,-32,0,1678,890,242,10692,-4,0,301,-37,601712,0
601734,165,-2018,347,-50,-7,-64,13765,-10,10,-377,-96,35694,-40,34,127,0,0,3706,5,0,1678,890,242,10702,-4,0,301,-37,601712,0
601744,180,-2014,344,-50,-13,-58,13769,13,58,-340,-104,35700,-42,34,127,0,0,3706,-32,0,1678,890,242,10712,-4,0,301,-37,601727,0
601754,161,-2015,336,-52,-7,-52,13766,-5,11,-374,-96,35693,-46,34,127,0,0,3706,0,0,1678,890,242,10722,-4,0,301,-37,601727,0
601764,172,-2018,335,-47,-10,-45,13767,-1,-2,-389,-96,35704,-64,34,127,0,0,3703,-32,0,1678,890,242,10732,-4,0,301,-37,601758,0
601774,166,-2021,345,-44,1,-42,13767,4,6,-396,-120,35700,-43,34,127,0,0,3704,-49,0,1678,890,242,10742,-4,0,301,-37,601758,0
601784,178,-2011,342,-43,-7,-32,13765,-4,-2,-386,-96,35700,-38,34,127,0,0,3703,-43,0,1678,890,242,10752,-4,0,301,-37,601758,0
601794,166,-2016,345,-41,-4,-24,13765,-6,0,-404,-112,35699,-45,34,127,0,0,3707,-10,0,1678,890,242,10762,-4,0,301,-37,601837,0
601804,153,-2016,343,-39,-3,-16,13766,10,4,-346,-96,35706,-51,34,127,0,0,3706,0,0,1678,890,242,10772,-4,0,301,-37,601837,0
601814,168,-2022,335,-39,-4,-8,13763,-12,-3,-414,-64,35708,-54,34,127,0,0,3705,43,0,1678,890,242,10782,-4,0,301,-37,601837,0
601824,165,-2017,344,-38,-3,3,13766,13,2,-369,-96,35706,-53,34,127,0,0,3706,0,0,1678,890,242,10792,-4,0,301,-37,601837,0
601834,156,-2025,342,-37,1,5,13765,1,6,-337,-112,35694,-78,34,127,0,0,3707,-5,0,1678,890,242,10802,-4,0,301,-37,601837,0
601844,158,-2022,342,-37,-5,5,13765,-1,-5,-346,-96,35692,-82,34,127,0,0,3703,-27,0,1678,890,242,10812,-4,0,301,-37,601852,0
601854,166,-2015,342,-37,1,9,13763,-7,-1,-391,-88,35698,-80,34,127,0,0,3706,21,0,1678,890,242,10822,-4,0,301,-37,601852,0
601864,159,-2016,353,-38,1,19,13765,-5,-1,-363,-96,35701,-80,34,127,0,0,3710,38,0,1678,890,242,10832,-4,0,301,-37,601852,0
601874,160,-2017,349,-41,-4,32,13768,16,7,-255,-48,35705,-69,34,127,0,0,3711,16,0,1678,890,242,10842,-4,0,301,-37,601852,0
601884,180,-2026,349,-43,-6,47,13768,-21,3,-199,-48,35712,-59,34,127,0,0,3711,-5,0,1678,890,242,10852,-4,0,301,-37,601883,0
601894,151,-2022,347,-35,-9,50,13771,10,-11,-163,-8,35724,-49,34,127,0,0,3712,-5,0,1678,890,242,10862,-4,0,301,-37,601883,0
601904,145,-2022,350,-41,-15,53,13772,-1,1,-100,8,35721,-47,34,127,0,0,3717,49,0,1678,890,242,10872,-4,0,301,-37,601883,0
601914,150,-2028,346,-44,-13,48,13779,3,2,3,48,35712,-51,34,127,0,0,3718,32,0,1678,890,242,10882,-4,0,301,-37,601883,0
601924,146,-2024,338,-47,-7,40,13785,7,7,66,32,35707,-50,34,127,0,0,3725,38,0,1678,890,242,10892,-4,0,301,-37,601915,0
601934,127,-2019,350,-47,-6,47,13789,10,-8,165,48,35709,-31,34,127,0,0,3724,16,0,1678,890,242,10902,-4,0,301,-37,601915,0
601944,155,-2016,360,-44,-4,42,13791,0,-3,157,64,35708,-41,34,127,0,0,3723,5,0,1678,890,242,10912,-4,0,301,-37,601930,0
601954,146,-2024,367,-56,-6,44,13799,23,-5,238,72,35700,-47,34,127,0,0,3728,5,0,1678,890,242,10922,-4,0,301,-37,601930,0
601964,149,-2017,367,-62,-7,50,13825,72,43,149,24,35702,-56,34,127,0,0,3732,-16,0,1678,890,242,10932,-4,0,301,-37,601946,0
601974,180,-2014,368,-71,-15,49,13837,-12,4,107,72,35706,-53,34,127,0,0,3738,115,0,1678,890,242,10942,-4,0,301,-37,601961,0
601984,86,-2030,353,-81,-10,51,13842,14,-59,246,80,35701,-46,34,127,0,0,3737,60,0,1678,890,242,10952,-4,0,301,-37,601961,0
601994,123,-2018,359,-93,-15,35,13846,5,-3,314,96,35702,-47,34,127,0,0,3736,-27,0,1678,890,242,10962,-4,0,301,-37,601977,0
602004,136,-2017,358,-97,-13,35,13847,-2,-6,315,96,35704,-51,34,127,0,0,3739,16,0,1678,890,242,10972,-4,0,301,-37,601977,0
602014,132,-2024,353,-106,-6,24,13851,12,-3,369,112,35706,-54,34,127,0,0,3741,16,0,1678,890,242,10982,-4,0,301,-37,601993,0
602024,132,-2023,347,-103,-3,17,13860,23,16,390,144,35709,-54,34,127,0,0,3743,10,0,1678,890,242,10992,-4,0,301,-37,602008,0
602034,137,-2022,339,-105,-6,13,13878,49,35,325,80,35703,-36,34,127,0,0,3747,16,0,1678,890,242,11002,-4,0,301,-37,602008,0
602044,141,-2019,341,-103,-12,21,13902,42,29,195,56,35707,-52,34,127,0,0,3749,32,0,1678,890,242,11012,-4,0,301,-37,602040,0
602054,140,-2016,341,-100,-6,16,13901,-8,-40,256,80,35708,-60,34,127,0,0,3748,32,0,1678,890,242,11022,-4,0,301,-37,602055,0
602064,120,-2026,334,-104,-7,15,13902,3,-44,262,104,35707,-75,34,127,0,0,3750,65,0,1678,890,242,11032,-4,0,301,-37,602055,0
602074,136,-2027,333,-95,-2,8,13907,9,11,335,96,35704,-63,34,127,0,0,3750,10,0,1678,890,242,11042,-4,0,301,-37,602055,0
602084,153,-2021,342,-92,-7,5,13910,13,-5,360,88,35701,-56,34,127,0,0,3750,-49,0,1678,890,242,11052,-4,0,301,-37,602055,0
602094,125,-2024,341,-93,-14,3,13911,4,-12,359,88,35710,-57,34,127,0,0,3757,16,0,1678,890,242,11062,-4,0,301,-37,602071,0
602104,119,-2025,333,-96,-12,0,13915,14,-3,405,128,35714,-50,34,127,0,0,3755,16,0,1678,890,242,11072,-4,0,301,-37,602086,0
602114,133,-2022,333,-84,-4,-1,13923,24,16,359,112,35712,-52,34,127,0,0,3758,32,0,1678,890,242,11082,-4,0,301,-37,602086,0
602124,122,-2020,327,-84,-13,-7,13932,20,13,332,112,35705,-46,34,127,0,0,3757,49,0,1678,890,242,11092,-4,0,301,-37,602118,0
602134,132,-2025,322,-72,-8,6,13957,67,34,236,64,35708,-60,34,127,0,0,3754,-32,0,1678,890,242,11102,-4,0,301,-37,602118,0
602144,176,-2019,321,-75,-23,19,13967,2,3,148,72,35711,-66,34,127,0,0,3759,10,0,1678,890,242,11112,-4,0,301,-37,602118,0
602154,127,-2022,320,-77,-19,16,13966,4,-58,201,72,35709,-79,34,127,0,0,3759,32,0,1678,890,242,11122,-4,0,301,-37,602118,0
602164,134,-2026,319,-62,-11,11,13968,3,-8,280,88,35708,-80,34,127,0,0,3761,16,0,1678,890,242,11132,-4,0,301,-37,602165,0
602174,132,-2026,325,-55,-13,17,13973,3,7,289,104,35722,-78,34,127,0,0,3763,32,0,1678,890,242,11142,-4,0,301,-37,602180,0
602184,118,-2019,335,-55,-17,16,13977,5,-1,332,120,35723,-81,34,127,0,0,3766,32,0,1678,890,242,11152,-4,0,301,-37,602211,0
602194,115,-2026,335,-50,-15,19,13985,20,13,345,128,35720,-87,34,127,0,0,3765,-16,0,1678,890,242,11162,-4,0,301,-37,602211,0
602204,121,-2022,319,-47,-12,11,14002,53,19,315,96,35703,-99,34,127,0,0,3768,-10,0,1678,890,242,11172,-4,0,301,-37,602211,0
602214,122,-2027,326,-43,-15,18,14031,59,46,164,56,35703,-109,34,127,0,0,3770,-10,0,1678,890,242,11182,-4,0,301,-37,602211,0
602224,145,-2019,325,-51,-15,11,14029,-26,-40,218,88,35706,-112,34,127,0,0,3769,5,0,1678,890,242,11192,-4,0,301,-37,602211,0
602234,108,-2026,327,-38,-18,12,14033,4,-61,255,104,35708,-110,34,127,0,0,3774,21,0,1678,890,242,11202,-4,0,301,-37,602211,0
602244,122,-2023,321,-37,-9,-2,14036,0,5,384,96,35707,-103,34,127,0,0,3774,-27,0,1678,890,242,11212,-4,0,301,-37,602211,0
602254,125,-2022,334,-31,-9,-7,14037,0,-11,361,120,35713,-105,34,127,0,0,3777,-5,0,1678,890,242,11222,-4,0,301,-37,602274,0
602264,117,-2030,328,-28,-19,-10,14042,19,2,427,104,35719,-107,34,127,0,0,3780,-16,0,1678,890,242,11232,-4,0,301,-37,602274,0
602274,121,-2017,338,-23,-10,-11,14045,4,10,428,120,35723,-117,34,127,0,0,3779,0,0,1678,890,242,11242,-4,0,301,-37,602305,0
602284,117,-2021,340,-26,-16,-16,14048,9,3,431,144,35715,-120,34,127,0,0,3781,21,0,1678,890,242,11252,-4,0,301,-37,602305,0
602294,117,-2025,352,-32,-13,-17,14056,15,6,412,128,35707,-120,34,127,0,0,3781,21,0,1678,890,242,11262,-4,0,301,-37,602305,0
602304,116,-2023,343,-33,-11,-24,14068,35,23,374,104,35707,-119,34,127,0,0,3781,5,0,1678,890,242,11272,-4,0,301,-37,602321,0
602314,133,-2023,335,-32,-14,-19,14085,22,20,232,72,35715,-112,34,127,0,0,3784,60,0,1678,890,242,11282,-4,0,301,-37,602321,0
602324,118,-2016,336,-39,-19,-22,14088,-3,-18,250,56,35721,-98,34,127,0,0,3781,10,0,1678,890,242,11292,-4,0,301,-37,602321,0
602334,104,-2022,333,-39,-10,-33,14088,-1,-33,228,64,35726,-83,34,127,0,0,3788,65,0,1678,890,242,11302,-4,0,301,-37,602321,0
602344,88,-2025,337,-34,-7,-42,14090,-1,3,301,56,35723,-93,34,127,0,0,3788,54,0,1678,890,242,11312,-4,0,301,-37,602321,0
602354,106,-2024,333,-40,-12,-46,14092,5,10,359,48,35734,-98,34,127,0,0,3784,-27,0,1678,890,242,11322,-4,0,301,-37,602321,0
602364,112,-2032,346,-42,-6,-50,14091,0,-12,255,104,35738,-81,34,127,0,0,3779,21,0,1678,890,242,11332,-4,0,301,-37,602352,0
602374,139,-2020,347,-41,-6,-61,14091,-6,-1,211,56,35735,-52,34,127,0,0,3788,65,0,1678,890,242,11342,-4,0,301,-37,602368,0
602384,91,-2024,342,-47,-5,-58,14096,23,13,357,72,35720,-51,34,127,0,0,3783,-38,0,1678,890,242,11352,-4,0,301,-37,602368,0
602394,131,-2023,340,-47,-2,-62,14093,-15,-10,279,80,35707,-69,34,127,0,0,3783,10,0,1678,890,242,11362,-4,0,301,-37,602368,0
602404,130,-2021,340,-48,-12,-57,14097,11,-10,297,48,35714,-91,34,127,0,0,3784,-21,0,1678,890,242,11372,-4,0,301,-37,602399,0
602414,91,-2028,339,-45,-9,-50,14095,6,7,304,48,35717,-76,34,127,0,0,3784,-32,0,1678,890,242,11382,-4,0,301,-37,602399,0
602424,107,-2016,337,-54,-10,-54,14095,8,-4,293,72,35714,-82,34,127,0,0,3783,-10,0,1678,890,242,11392,-4,0,301,-37,602399,0
602434,146,-2032,338,-58,-11,-54,14094,-4,3,255,48,35708,-85,34,127,0,0,3788,60,0,1678,890,242,11402,-4,0,301,-37,602399,0
602444,102,-2027,336,-56,-8,-54,14097,7,1,291,48,35710,-80,34,127,0,0,3784,-5,0,1678,890,242,11412,-4,0,301,-37,602430,0
602454,93,-2028,334,-59,-12,-55,14095,12,2,309,96,35719,-86,34,127,0,0,3782,-21,0,1678,890,242,11422,-4,0,301,-37,602430,0
602464,103,-2018,344,-61,-15,-61,14094,-14,-2,256,48,35712,-84,34,127,0,0,3781,-21,0,1678,890,242,11432,-4,0,301,-37,602430,0
602474,101,-2032,337,-63,-13,-74,14094,9,-2,225,96,35712,-90,34,127,0,0,3782,38,0,1678,890,242,11442,-4,0,301,-37,602477,0
602484,130,-2021,333,-69,-10,-78,14095,-10,12,227,48,35712,-85,34,127,0,0,3781,-16,0,1678,890,242,11452,-4,0,301,-37,602477,0
602494,90,-2032,334,-62,-2,-93,14095,16,-4,221,48,35713,-81,34,127,0,0,3781,0,0,1678,890,242,11462,-4,0,301,-37,602477,0
602504,125,-2023,335,-60,1,-99,14090,-14,-1,156,32,35707,-81,34,127,0,0,3782,27,0,1678,890,242,11472,-4,0,301,-37,602477,0
602514,117,-2021,339,-66,-7,-97,14089,-10,1,85,32,35705,-77,34,127,0,0,3776,0,0,1678,890,242,11482,-4,0,301,-37,602539,0
602524,120,-2018,348,-69,-5,-106,14086,-9,2,0,-8,35708,-73,34,127,0,0,3774,5,0,1678,890,242,11492,-4,0,301,-37,602539,0
602534,144,-2023,341,-67,-9,-99,14084,-1,-3,-35,-48,35711,-78,34,127,0,0,3777,16,0,1678,890,242,11502,-4,0,301,-37,602539,0
602544,128,-2025,328,-68,-6,-100,14080,-14,-6,-128,-40,35706,-84,34,127,0,0,3770,21,0,1678,890,242,11512,-4,0,301,-37,602539,0
602554,124,-2030,331,-65,-6,-101,14075,0,-10,-134,-48,35701,-86,34,127,0,0,3768,-38,0,1678,890,242,11522,-4,0,301,-37,602555,0
602564,150,-2025,331,-65,-11,-99,14072,-3,14,-157,-48,35698,-87,34,127,0,0,3768,-21,0,1678,890,242,11532,-4,0,301,-37,602555,0
602574,139,-2020,337,-64,-10,-90,14067,-22,-5,-244,-40,35695,-86,34,127,0,0,3765,16,0,1678,890,242,11542,-4,0,301,-37,602555,0
602584,127,-2031,335,-65,-7,-99,14059,-11,-11,-155,-48,35702,-107,34,127,0,0,3762,-71,0,1678,890,242,11552,-4,0,301,-37,602555,0
602594,122,-2030,337,-67,-10,-101,14041,-51,-23,-158,-56,35708,-108,34,127,0,0,3765,-21,0,1678,890,242,11562,-4,0,301,-37,602571,0
602604,113,-2026,335,-65,1,-112,14028,-11,-10,-106,-32,35718,-112,34,127,0,0,3761,-16,0,1678,890,242,11572,-4,0,301,-37,602602,0
602614,153,-2025,329,-65,-7,-99,14029,-4,44,-202,-32,35715,-114,34,127,0,0,3761,5,0,1678,890,242,11582,-4,0,301,-37,602618,0
602624,138,-2026,329,-66,-9,-96,14029,-4,16,-199,-56,35707,-115,34,127,0,0,3759,-5,0,1678,890,242,11592,-4,0,301,-37,602618,0
602634,148,-2024,333,-63,-10,-92,14027,-12,-7,-237,-72,35699,-109,34,127,0,0,3760,21,0,1678,890,242,11602,-4,0,301,-37,602618,0
602644,134,-2028,338,-64,-9,-89,14027,0,-1,-241,-72,35693,-118,34,127,0,0,3760,27,0,1678,890,242,11612,-4,0,301,-37,602618,0
602654,167,-2020,335,-66,-9,-77,14023,-14,-4,-292,-88,35700,-123,34,127,0,0,3755,5,0,1678,890,242,11622,-4,0,301,-37,602618,0
602664,144,-2028,339,-65,-7,-76,14019,-11,-10,-366,-80,35709,-110,34,127,0,0,3755,49,0,1678,890,242,11632,-4,0,301,-37,602649,0
602674,151,-2029,328,-68,-6,-66,14019,9,4,-387,-104,35713,-97,34,127,0,0,3752,-16,0,1678,890,242,11642,-4,0,301,-37,602664,0
602684,153,-2027,329,-67,-18,-70,14016,-1,10,-385,-104,35705,-97,34,127,0,0,3752,-27,0,1678,890,242,11652,-4,0,301,-37,602664,0
602694,134,-2018,332,-66,-11,-59,14016,-2,-1,-390,-120,35704,-127,34,127,0,0,3754,-43,0,1678,890,242,11662,-4,0,301,-37,602664,0
602704,139,-2022,332,-70,-7,-58,14015,-3,-3,-419,-144,35708,-123,34,127,0,0,3751,-21,0,1678,890,242,11672,-4,0,301,-37,602696,0
602714,132,-2023,338,-70,-12,-53,14011,-9,-7,-431,-112,35708,-95,34,127,0,0,3747,-43,0,1678,890,242,11682,-4,0,301,-37,602696,0
602724,150,-2024,343,-68,-11,-52,14007,-13,-7,-466,-128,35705,-78,34,127,0,0,3748,-32,0,1678,890,242,11692,-4,0,301,-37,602711,0
602734,147,-2023,336,-72,-7,-47,14002,-12,-8,-453,-120,35695,-84,34,127,0,0,3748,-5,0,1678,890,242,11702,-4,0,301,-37,602711,0
602744,149,-2023,331,-69,-17,-48,13998,-5,-1,-412,-88,35696,-89,34,127,0,0,3750,10,0,1678,890,242,11712,-4,0,301,-37,602727,0
602754,146,-2028,329,-67,-7,-38,13995,-7,6,-351,-80,35698,-106,34,127,0,0,3750,0,0,1678,890,242,11722,-4,0,301,-37,602727,0
602764,142,-2029,325,-71,-8,-44,13997,2,8,-357,-88,35692,-106,34,127,0,0,3750,0,0,1678,890,242,11732,-4,0,301,-37,602743,0
602774,126,-2024,330,-70,-21,-40,13995,-7,0,-349,-80,35699,-112,34,127,0,0,3750,-21,0,1678,890,242,11742,-4,0,301,-37,602774,0
602784,123,-2022,335,-64,-14,-35,13990,-13,-7,-314,-72,35704,-107,34,127,0,0,3747,-10,0,1678,890,242,11752,-4,0,301,-37,602774,0
602794,106,-2023,331,-71,-8,-43,13985,-15,-8,-296,-64,35705,-106,34,127,0,0,3744,-76,0,1678,890,242,11762,-4,0,301,-37,602774,0
602804,143,-2018,326,-71,-16,-46,13979,-15,-3,-252,-48,35700,-106,34,127,0,0,3747,-54,0,1678,890,242,11772,-4,0,301,-37,602789,0
602814,126,-2024,330,-67,-9,-46,13973,-15,-3,-229,-40,35696,-104,34,127,0,0,3750,5,0,1678,890,242,11782,-4,0,301,-37,602789,0
602824,153,-2028,324,-69,-12,-43,13972,-9,8,-224,-56,35707,-94,34,127,0,0,3748,5,0,1678,890,242,11792,-4,0,301,-37,602805,0
602834,121,-2013,322,-65,-9,-38,13972,-1,6,-231,-16,35706,-86,34,127,0,0,3749,38,0,1678,890,242,11802,-4,0,301,-37,602805,0
602844,169,-2025,316,-66,-15,-34,13973,-14,0,-198,-16,35703,-83,34,127,0,0,3749,32,0,1678,890,242,11812,-4,0,301,-37,602821,0
602854,128,-2012,333,-63,-5,-34,13973,0,1,-180,-64,35705,-77,34,127,0,0,3751,-27,0,1678,890,242,11822,-4,0,301,-37,602836,0
602864,105,-2023,328,-61,-12,-27,13971,4,-3,-178,-56,35708,-78,34,127,0,0,3751,10,0,1678,890,242,11832,-4,0,301,-37,602852,0
602874,127,-2025,328,-62,-6,-24,13973,5,5,-164,-40,35711,-84,34,127,0,0,3750,-10,0,1678,890,242,11842,-4,0,301,-37,602852,0
602884,136,-2031,327,-67,-8,-23,13970,-8,2,-200,-32,35701,-79,34,127,0,0,3750,43,0,1678,890,242,11852,-4,0,301,-37,602852,0
602894,136,-2018,323,-64,-9,-27,13972,3,-4,-173,-32,35698,-76,34,127,0,0,3750,10,0,1678,890,242,11862,-4,0,301,-37,602868,0
602904,164,-2036,319,-65,-8,-29,13974,6,8,-110,-40,35705,-77,34,127,0,0,3750,-43,0,1678,890,242,11872,-4,0,301,-37,602914,0
602914,113,-2015,331,-63,-13,-18,13970,0,-5,-154,-8,35711,-81,34,127,0,0,3749,16,0,1678,890,242,11882,-4,0,301,-37,602914,0
602924,156,-2021,328,-66,-10,-19,13973,0,5,-123,-16,35709,-90,34,127,0,0,3752,0,0,1678,890,242,11892,-4,0,301,-37,602914,0
602934,130,-2029,329,-70,-10,-24,13973,0,11,-60,-16,35699,-90,34,127,0,0,3749,-32,0,1678,890,242,11902,-4,0,301,-37,602914,0
602944,141,-2033,334,-67,-9,-22,13971,-13,-16,-161,-8,35694,-94,34,127,0,0,3752,38,0,1678,890,242,11912,-4,0,301,-37,602914,0
602954,132,-2027,320,-69,-10,-24,13977,15,8,-69,-24,35700,-94,34,127,0,0,3752,-5,0,1678,890,242,11922,-4,0,301,-37,602961,0
602964,143,-2026,326,-74,-11,-28,13975,-1,3,-58,8,35710,-80,34,127,0,0,3751,-21,0,1678,890,242,11932,-4,0,301,-37,602977,0
602974,128,-2029,322,-75,-14,-30,13975,-3,-7,-61,8,35708,-83,34,127,0,0,3755,5,0,1678,890,242,11942,-4,0,301,-37,602977,0
602984,121,-2022,312,-74,-15,-31,13976,-1,3,-32,0,35701,-89,34,127,0,0,3755,27,0,1678,890,242,11952,-4,0,301,-37,602977,0
602994,138,-2029,320,-73,-16,-40,13977,0,0,10,0,35694,-114,34,127,0,0,3755,-5,0,1678,890,242,11962,-4,0,301,-37,602977,0
603004,143,-2029,316,-80,-14,-38,13977,-7,1,3,0,35705,-111,34,127,0,0,3755,0,0,1678,890,242,11972,-4,0,301,-37,602977,0
603014,126,-2021,318,-76,-15,-36,13980,12,-3,40,-8,35706,-104,34,127,0,0,3755,-49,0,1678,890,242,11982,-4,0,301,-37,602992,0
603024,127,-2020,321,-72,-18,-49,13977,-4,-1,3,0,35714,-98,34,127,0,0,3758,32,0,1678,890,242,11992,-4,0,301,-37,603024,0
603034,120,-2029,328,-71,-15,-45,13981,3,0,57,16,35714,-106,34,127,0,0,3754,-38,0,1678,890,242,12002,-4,0,301,-37,603024,0
603044,158,-2037,327,-74,-16,-55,13981,-7,2,-6,-8,35712,-106,34,127,0,0,3755,-16,0,1678,890,242,12012,-4,0,301,-37,603024,0
603054,125,-2017,325,-77,-10,-56,13979,4,-6,-23,0,35705,-96,34,127,0,0,3758,32,0,1678,890,242,12022,-4,0,301,-37,603024,0
603064,123,-2024,315,-79,-15,-58,13982,0,4,28,16,35704,-88,34,127,0,0,3757,5,0,1678,890,242,12032,-4,0,301,-37,603055,0
603074,152,-2029,318,-76,-17,-52,13981,-9,3,25,16,35706,-82,34,127,0,0,3757,16,0,1678,890,242,12042,-4,0,301,-37,603055,0
603084,164,-2026,318,-71,-16,-46,13982,5,3,44,-8,35707,-86,34,127,0,0,3758,-5,0,1678,890,242,12052,-4,0,301,-37,603055,0
603094,141,-2015,311,-75,-21,-42,13979,-11,-6,-31,24,35707,-105,34,127,0,0,3750,0,0,1678,890,242,12062,-4,0,301,-37,603071,0
603104,193,-2030,297,-80,-18,-39,13977,-6,-2,-93,0,35707,-101,34,127,0,0,3751,0,0,1678,890,242,12072,-4,0,301,-37,603086,0
603114,114,-2021,299,-66,-21,-50,13981,11,8,-40,-8,35706,-99,34,127,0,0,3755,-10,0,1678,890,242,12082,-4,0,301,-37,603086,0
603124,131,-2019,301,-60,-20,-43,13980,0,3,-3,16,35710,-89,34,127,0,0,3757,10,0,1678,890,242,12092,-4,0,301,-37,603117,0
603134,156,-2026,306,-56,-11,-39,13980,-4,2,-13,-8,35714,-91,34,127,0,0,3758,27,0,1678,890,242,12102,-4,0,301,-37,603117,0
603144,145,-2028,292,-55,-10,-36,13982,4,-2,4,-8,35712,-93,34,127,0,0,3755,5,0,1678,890,242,12112,-4,0,301,-37,603133,0
603154,125,-2023,305,-46,-15,-39,13980,0,-5,-2,-8,35709,-99,34,127,0,0,3755,-5,0,1678,890,242,12122,-4,0,301,-37,603133,0
603164,141,-2024,272,-40,-6,-42,13979,-8,-5,-51,0,35711,-102,34,127,0,0,3758,49,0,1678,890,242,12132,-4,0,301,-37,603149,0
603174,160,-2029,241,-12,-4,-44,13982,9,5,4,-8,35720,-94,34,127,0,0,3758,27,0,1678,890,242,12142,-4,0,301,-37,603149,0
603184,118,-2026,245,15,6,-39,13979,-6,1,5,0,35720,-85,34,127,0,0,3758,43,0,1678,890,242,12152,-4,0,301,-37,603149,0
603194,151,-2024,280,34,20,-34,13981,-2,-7,10,16,35723,-90,34,127,0,0,3754,10,0,1678,890,242,12162,-4,0,301,-37,603180,0
603204,180,-2027,318,39,28,-42,13979,-5,8,2,24,35720,-92,34,127,0,0,3757,5,0,1678,890,242,12172,-4,0,301,-37,603180,0
603214,216,-2027,358,32,37,-10,13983,6,-2,30,16,35718,-79,34,127,0,0,3754,-27,0,1678,890,242,12182,-4,0,301,-37,603180,0
603224,235,-2027,387,11,31,19,13980,6,-2,0,-8,35712,-87,34,127,0,0,3758,5,0,1678,890,242,12192,-4,0,301,-37,603211,0
603234,263,-2030,437,-26,8,138,13982,0,-2,43,64,35707,-65,34,127,0,0,3758,43,0,1678,890,242,12202,-4,0,301,-37,603211,0
603244,273,-2019,444,-61,-20,184,13992,28,18,126,64,35707,-76,34,127,0,0,3767,60,0,1678,890,242,12212,-4,0,301,-37,603211,0
603254,172,-2027,416,-116,-50,254,14023,93,58,173,120,35708,-72,34,127,0,0,3774,131,0,1678,890,242,12222,-4,0,301,-37,603227,0
603264,178,-2024,378,-138,-51,283,14056,51,55,283,128,35715,-91,34,127,0,0,3788,93,0,1678,890,242,12232,-4,0,301,-37,603305,0
603274,52,-2028,331,-153,-24,261,14090,91,-8,401,184,35714,-75,34,127,0,0,3792,71,0,1678,890,242,12242,-4,0,301,-37,603321,0
603284,119,-2023,327,-157,-17,239,14130,87,20,428,192,35714,-78,34,127,0,0,3804,76,0,1678,890,242,12252,-4,0,301,-37,603321,0
603294,78,-2029,312,-158,-15,228,14187,131,39,339,184,35705,-76,34,127,0,0,3813,87,0,1678,890,242,12262,-4,0,301,-37,603321,0
603304,55,-2027,324,-158,-14,203,14240,94,31,293,136,35707,-65,34,127,0,0,3819,54,0,1678,890,242,12272,-4,0,301,-37,603321,0
603314,41,-2032,346,-170,-11,167,14259,42,-85,486,192,35714,-51,34,127,0,0,3828,71,0,1678,890,242,12282,-4,0,301,-37,603336,0
603324,67,-2028,369,-180,-7,160,14294,77,-34,406,176,35711,-54,34,127,0,0,3833,71,0,1678,890,242,12292,-4,0,301,-37,603336,0
603334,54,-2027,392,-222,-17,125,14324,77,23,460,208,35707,-52,34,127,0,0,3841,109,0,1678,890,242,12302,-4,0,301,-37,603336,0
603344,45,-2035,390,-237,-21,125,14380,129,41,331,144,35699,-42,34,127,0,0,3843,38,0,1678,890,242,12312,-4,0,301,-37,603336,0
603354,29,-2025,370,-280,-37,97,14426,84,35,261,72,35700,-21,34,127,0,0,3848,0,0,1678,890,242,12322,-4,0,301,-37,603336,0
603364,74,-2027,347,-298,-40,58,14427,-6,-116,417,136,35714,19,34,127,0,0,3855,38,0,1678,890,242,12332,-4,0,301,-37,603336,0
603374,17,-2035,318,-309,-23,11,14432,18,-82,469,144,35732,36,34,127,0,0,3854,10,0,1678,890,242,12342,-4,0,301,-37,603352,0
603384,8,-2032,302,-311,-12,-38,14435,20,16,530,168,35738,39,34,127,0,0,3852,-38,0,1678,890,242,12352,-4,0,301,-37,603383,0
603394,12,-2034,296,-314,-15,-80,14445,31,11,454,144,35730,7,34,127,0,0,3852,-38,0,1678,890,242,12362,-4,0,301,-37,603383,0
603404,27,-2027,307,-318,-9,-104,14464,50,30,322,88,35720,-2,34,127,0,0,3854,-27,0,1678,890,242,12372,-4,0,301,-37,603383,0
603414,63,-2029,313,-330,-25,-140,14475,3,-2,226,64,35711,-29,34,127,0,0,3854,-5,0,1678,890,242,12382,-4,0,301,-37,603399,0
603424,28,-2021,307,-336,-19,-200,14474,9,-46,214,40,35708,-35,34,127,0,0,3845,-98,0,1678,890,242,12392,-4,0,301,-37,603399,0
603434,36,-2036,298,-344,-2,-251,14465,-23,-30,-19,8,35717,-39,34,127,0,0,3840,-43,0,1678,890,242,12402,-4,0,301,-37,603430,0
603444,5,-2032,282,-346,0,-295,14457,-16,-10,-114,-72,35719,-20,34,127,0,0,3838,-98,0,1678,890,242,12412,-4,0,301,-37,603430,0
603454,65,-2021,278,-349,-14,-344,14432,-77,-20,-260,-120,35720,-8,34,127,0,0,3829,-76,0,1678,890,242,12422,-4,0,301,-37,603430,0
603464,47,-2023,280,-358,-17,-394,14385,-81,-99,-183,-88,35714,-3,34,127,0,0,3819,-98,0,1678,890,242,12432,-4,0,301,-37,603446,0
603474,42,-2022,290,-374,-18,-445,14357,-68,6,-343,-176,35712,-6,34,127,0,0,3806,-115,0,1678,890,242,12442,-4,0,301,-37,603446,0
603484,-27,-2027,303,-386,-26,-527,14313,-96,10,-437,-232,35714,7,34,127,0,0,3790,-153,0,1678,890,242,12452,-4,0,301,-37,603508,0
603494,-37,-2026,316,-415,-71,-645,14244,-181,-77,-439,-264,35717,5,34,127,0,0,3774,-153,0,1678,890,242,12462,-4,0,301,-37,603508,0
603504,-102,-2042,306,-430,-63,-752,14150,-207,-102,-387,-320,35714,-2,34,127,0,0,3752,-192,0,1678,890,242,12472,-4,0,301,-37,603508,0
603514,-148,-2036,328,-469,-54,-945,14056,-218,-40,-446,-368,35714,-29,34,127,0,0,3727,-219,0,1678,890,242,12482,-4,0,301,-37,603524,0
603524,-255,-2023,325,-489,-44,-1124,13950,-239,-25,-510,-488,35707,-48,34,127,0,0,3696,-296,0,1678,890,242,12492,-4,0,301,-37,603524,0
603534,-254,-2034,339,-542,-40,-1412,13826,-301,-61,-538,-616,35697,-63,34,127,0,0,3658,-351,0,1678,890,242,12502,-4,0,301,-37,603524,0
603544,-295,-2034,316,-559,-22,-1612,13676,-333,-88,-574,-840,35694,-71,34,127,0,0,3610,-450,0,1678,890,242,12512,-4,0,301,-37,603524,0
603554,-274,-2017,329,-619,-44,-1925,13502,-395,-87,-613,-1032,35694,-31,34,127,0,0,3559,-505,0,1678,890,242,12522,-4,0,301,-37,603524,0
603564,-284,-2024,297,-644,-59,-2126,13293,-482,-105,-613,-1224,35704,-16,34,127,0,0,3496,-593,0,1678,890,242,12532,-4,0,301,-37,603571,0
603574,-302,-2046,257,-674,-104,-2439,13054,-549,-126,-626,-1416,35701,-11,34,127,0,0,3427,-692,0,1678,890,242,12542,-4,0,301,-37,603586,0
603584,-227,-2215,283,-650,-156,-2612,12781,-620,-125,-616,-1584,35695,-20,34,127,0,0,3357,-719,0,1678,890,242,12552,-4,0,301,-37,603586,0
603594,-1,-2634,490,-683,-394,-2680,12501,-689,-136,-565,-1664,35692,-24,34,127,0,0,3291,-664,0,1678,890,242,12562,-4,0,301,-37,603586,0
603604,-63,-2884,473,-636,-706,-2492,12179,-712,-94,-515,-1576,35696,-23,34,127,0,0,3248,-411,0,1678,890,242,12572,-4,0,301,-37,603586,0
603614,-233,-2807,579,-664,-1225,-2306,11865,-671,-8,-361,-1208,35695,-22,34,127,0,0,3237,-82,0,1678,890,242,12582,-4,0,0,0,603602,0
603624,-212,-2729,575,-627,-1593,-2473,11608,-512,141,-243,-688,35698,-45,34,127,0,0,3234,-38,0,1678,890,242,12592,-4,0,0,0,603602,0
603634,-329,-2853,491,-447,-1966,-2723,11421,-363,253,-253,-320,35700,-53,34,127,0,0,3234,-5,0,1678,890,242,12602,-4,0,1,0,603617,0
603644,-281,-3030,475,-383,-2284,-2818,11306,-217,273,-122,-16,35710,-57,34,127,0,0,3247,153,0,1678,890,242,12612,-4,0,1,0,603633,0
603654,496,-3412,677,-316,-3163,-3170,11326,150,404,147,104,35705,-36,34,127,0,0,3259,142,0,1678,890,242,12622,-4,0,1,0,603649,0
603664,679,-3622,646,-353,-3480,-3217,11387,121,340,17,8,35702,-8,34,127,0,0,3251,-98,0,1678,890,242,12632,-4,0,2,0,603649,0
603674,640,-3495,662,-393,-3621,-3486,11377,-74,-112,-239,-256,35701,-6,34,127,0,0,3218,-455,0,1678,890,242,12642,-4,0,2,0,603649,0
603684,368,-3237,493,-374,-3818,-3602,11294,-257,-288,-745,-720,35703,-7,34,127,0,0,3150,-637,0,1678,890,242,12652,-4,0,2,0,603649,0
603694,482,-3152,470,-423,-4076,-3710,11133,-408,-293,-716,-1168,35706,-4,34,127,0,0,3068,-796,0,1678,890,242,12662,-4,0,2,0,603695,0
603704,588,-3195,469,-449,-4213,-3659,10898,-548,-289,-693,-1440,35699,8,34,127,0,0,3001,-774,0,1678,890,242,12672,-4,0,3,0,603711,0
603714,559,-3124,458,-376,-4415,-3736,10622,-617,-206,-604,-1440,35694,-8,34,127,0,0,2941,-560,0,1678,890,242,12682,-4,0,3,0,603711,0
603724,606,-3074,379,-268,-4464,-3914,10341,-605,-69,-586,-1432,35681,-15,34,127,0,0,2877,-681,0,1678,890,242,12692,-4,0,3,0,603711,0
603734,784,-3051,244,-145,-4421,-4092,10060,-616,1,-591,-1480,35682,-52,34,127,0,0,2820,-681,0,1678,890,242,12702,-4,0,3,0,603711,0
603744,878,-3081,239,-85,-4316,-4133,9775,-634,-13,-635,-1544,35685,-48,34,127,0,0,2750,-631,0,1678,890,242,12712,-4,0,4,0,603711,0
603754,857,-3084,230,-1,-4129,-4236,9475,-667,-40,-610,-1576,35698,-37,34,127,0,0,2679,-664,0,1678,890,242,12722,-4,0,4,0,603758,0
603764,842,-3013,243,47,-4011,-4330,9170,-678,-41,-603,-1600,35705,-42,34,127,0,0,2614,-670,0,1678,890,242,12732,-4,0,5,0,603758,0
603774,930,-2863,181,37,-3847,-4408,8860,-682,-19,-549,-1576,35698,-20,34,127,0,0,2551,-626,0,1678,890,242,12742,-4,0,5,0,603758,0
603784,901,-2827,151,7,-3656,-4419,8552,-663,0,-526,-1528,35689,-28,34,127,0,0,2489,-648,0,1678,890,242,12752,-4,0,6,0,603758,0
603794,735,-2686,110,-48,-3190,-4376,8252,-660,23,-557,-1504,35681,-32,34,127,0,0,2431,-615,0,1678,890,242,12762,-4,0,6,0,603758,0
603804,587,-2559,92,-80,-2709,-4321,7956,-649,20,-532,-1464,35692,-16,34,127,0,0,2371,-631,0,1678,890,242,12772,-4,0,7,0,603789,0
603814,288,-2344,5,-110,-1741,-4145,7668,-625,25,-549,-1400,35698,-37,34,127,0,0,2311,-615,0,1678,890,242,12782,-4,0,8,0,603805,0
603824,132,-2076,-24,-90,-1043,-3946,7383,-618,22,-493,-1360,35698,-25,34,127,0,0,2255,-543,0,1678,890,242,12792,-4,0,9,0,603805,0
603834,-4,-1541,-258,21,18,-3525,7105,-613,22,-524,-1312,35697,-30,34,127,0,0,2198,-538,0,1678,890,242,12802,-4,0,11,0,603820,0
603844,-65,-1252,-348,145,732,-3166,6839,-579,35,-499,-1296,35701,-44,34,127,0,0,2144,-510,0,1678,890,242,12812,-4,0,12,0,603820,0
603854,-4,-938,-313,345,1798,-2513,6572,-581,18,-447,-1248,35705,-28,34,127,0,0,2091,-521,0,1678,890,242,12822,-4,0,15,0,603836,0
603864,-28,-802,-232,504,2317,-2068,6318,-555,26,-446,-1224,35708,-16,34,127,0,0,2035,-615,0,1678,890,242,12832,-4,0,16,0,603852,0
603874,19,-778,-29,802,2693,-1292,6073,-538,41,-482,-1176,35696,-19,34,127,0,0,1984,-554,0,1678,890,242,12842,-4,0,19,0,603852,0
603884,172,-703,66,995,2769,-747,5829,-530,23,-416,-1032,35697,-25,34,127,0,0,1953,-379,0,1678,890,242,12852,-4,0,21,0,603883,0
603894,320,-444,115,1236,2728,74,5612,-456,113,-420,-912,35699,-27,34,127,0,0,1927,-291,0,1678,890,242,12862,-4,0,24,0,603883,0
603904,302,-463,126,1368,2610,620,5419,-407,121,-469,-840,35699,-30,34,127,0,0,1890,-302,0,1678,890,242,12872,-4,0,26,0,603883,0
603914,273,-454,138,1543,2336,1490,5245,-385,26,-452,-776,35693,-29,34,127,0,0,1863,-236,0,1678,890,242,12882,-4,0,30,0,603883,0
603924,228,-367,155,1613,2163,2042,5075,-373,41,-434,-600,35698,-52,34,127,0,0,1845,-115,0,1678,890,242,12892,-4,0,32,0,603899,0
603934,189,-303,70,1640,2019,2778,4927,-298,44,-369,-472,35707,-50,34,127,0,0,1838,-104,0,1678,890,242,12902,-4,0,35,0,603899,0
603944,284,-272,-21,1662,2047,3197,4805,-250,100,-356,-336,35713,-42,34,127,0,0,1823,-98,0,1678,890,242,12912,-4,0,38,0,603930,0
603954,344,-235,-112,1717,2025,3696,4716,-179,112,-322,-216,35709,-38,34,127,0,0,1817,-104,0,1678,890,242,12922,-4,0,41,0,603930,0
603964,419,-372,-62,1744,1926,4021,4649,-122,102,-311,-144,35706,-67,34,127,0,0,1810,-43,0,1678,890,242,12932,-4,0,43,0,603945,0
603974,536,-404,8,1709,1804,4365,4621,-43,121,-286,-88,35707,-84,34,127,0,0,1813,10,0,1678,890,242,12942,-4,0,47,0,603961,0
603984,617,-411,-72,1673,1697,4502,4622,5,134,-309,-72,35711,-104,34,127,0,0,1812,0,0,1678,890,242,12952,-4,0,49,0,603961,0
603994,788,-626,-156,1597,1539,4706,4623,3,51,-219,8,35710,-88,34,127,0,0,1821,120,0,1678,890,242,12962,-4,0,52,104,603961,0
604004,983,-630,-186,1540,1509,4697,4643,55,25,105,112,35708,-79,34,127,0,0,1840,137,0,1678,890,242,12972,-4,0,54,97,604008,0
604014,992,-734,-211,1410,1418,4484,4694,127,103,158,96,35704,-93,34,127,0,0,1845,65,0,1678,890,242,12982,-4,0,58,89,604024,0
604024,1062,-945,-211,1250,1389,4312,4715,25,2,319,136,35702,-109,34,127,0,0,1857,109,0,1678,890,242,12992,-4,0,59,84,604024,0
604034,1097,-1125,-266,1006,1566,3959,4749,99,-44,411,232,35701,-114,34,127,0,0,1881,263,0,1678,890,242,13002,-4,0,62,77,604024,0
604044,1136,-1160,-350,824,1744,3668,4814,179,91,508,416,35699,-96,34,127,0,0,1918,428,0,1678,890,242,13012,-4,0,64,73,604024,0
604054,1254,-1430,-333,482,1927,3236,4926,266,154,502,624,35706,-80,34,127,0,0,1974,554,0,1678,890,242,13022,-4,0,66,68,604039,0
604064,1399,-1673,-226,248,2074,2839,5084,379,176,543,968,35714,-56,34,127,0,0,2044,714,0,1678,890,242,13032,-4,0,68,64,604039,0
604074,1611,-1881,-43,-88,2298,1904,5287,473,180,530,1080,35715,-39,34,127,0,0,2091,483,0,1678,890,242,13042,-4,0,70,60,604070,0
604084,1598,-2052,69,-377,2249,1366,5509,482,128,369,960,35713,-29,34,127,0,0,2123,329,0,1678,890,242,13052,-4,0,71,58,604086,0
604094,1670,-2077,185,-877,2057,802,5719,440,19,351,864,35709,-36,34,127,0,0,2158,362,0,1678,890,242,13062,-4,0,72,55,604086,0
604104,1623,-1956,154,-1194,1944,485,5916,422,-51,404,912,35702,-45,34,127,0,0,2217,538,0,1678,890,242,13072,-4,0,72,55,604086,0
604114,1564,-1532,-87,-1493,1906,-88,6116,445,-24,523,1096,35699,-42,34,127,0,0,2276,626,0,1678,890,242,13082,-4,0,72,55,604086,0
604124,6708,-4683,961,-1023,1910,-3579,6357,562,84,312,536,35704,-48,34,127,0,0,2201,-1093,0,1678,890,242,13092,-4,0,72,55,604148,0
604134,2149,-1793,558,481,2607,-5089,6437,-227,-176,-1758,-1416,35710,-44,34,127,0,0,2003,-1862,0,1678,890,242,13102,-4,0,72,55,604148,0
604144,1817,-1506,198,-458,3643,-4977,6132,-801,-1130,-1057,-2408,35707,-44,34,127,0,0,1835,-1697,0,1678,890,242,13112,-4,0,72,55,604148,0
604154,251,-1716,1565,-1146,1355,-3006,5667,-1076,-1043,-674,-2688,35702,-35,34,127,0,0,1733,-939,0,1678,890,242,13122,-4,0,72,55,604148,0
604164,958,-1586,1194,-1352,-600,-2763,5172,-1080,-365,-483,-2528,35691,-26,34,127,0,0,1655,-714,0,1678,890,242,13132,-4,0,72,55,604148,0
604174,1529,-2909,760,-719,-964,-2894,4702,-1013,0,-437,-2360,35694,-26,34,127,0,0,1577,-763,0,1678,890,242,13142,-4,0,72,55,604148,0
604184,1148,-2584,867,-312,-868,-2639,4255,-971,96,-436,-2208,35704,-20,34,127,0,0,1513,-615,0,1678,890,242,13152,-4,0,72,55,604164,0
604194,1064,-1332,470,-730,-1616,-2103,3838,-901,102,-362,-1816,35720,-12,34,127,0,0,1482,-324,0,1678,890,242,13162,-4,0,72,55,604180,0
604204,1355,-1496,283,-1070,-1506,-2061,3473,-757,148,-217,-1408,35728,-26,34,127,0,0,1447,-379,0,1678,890,242,13172,-4,0,72,55,604180,0
604214,1090,-1199,-464,-1267,-892,-1921,3172,-622,229,-301,-1200,35720,-18,34,127,0,0,1413,-362,0,1678,890,242,13182,-4,0,72,55,604180,0
604224,952,-653,-707,-1265,-509,-1971,2918,-534,215,-367,-1152,35715,-43,34,127,0,0,1368,-521,0,1678,890,242,13192,-4,0,72,55,604227,0
604234,1210,-735,-516,-1132,27,-2169,2677,-545,112,-609,-1432,35716,-47,34,127,0,0,1286,-823,0,1678,890,242,13202,-4,0,72,55,604227,0
604244,1536,-745,-251,-1021,323,-2133,2387,-691,-71,-807,-1952,35715,-38,34,127,0,0,1195,-972,0,1678,890,242,13212,-4,0,72,55,604227,0
604254,1989,-887,59,-1012,340,-1784,2006,-898,-264,-865,-2512,35707,-22,34,127,0,0,1083,-1087,0,1678,890,242,13222,-4,0,72,55,604242,0
604264,2185,-1113,120,-918,232,-1382,1527,-1121,-356,-913,-2936,35689,12,34,127,0,0,968,-1131,0,1678,890,242,13232,-4,0,72,55,604242,0
604274,2091,-1578,210,-726,11,-766,1005,-1097,-283,-240,-2000,35691,11,34,127,0,0,872,-999,0,1678,890,242,13242,-4,0,72,55,604258,0
604284,1886,-2105,232,-838,-230,-280,577,-858,105,-45,-1216,35704,2,34,127,0,0,780,-867,0,1678,890,242,13252,-4,0,72,55,604258,0
604294,1657,-2549,382,-1063,-151,395,267,-581,423,-42,-576,35709,-20,34,127,0,0,722,-499,0,1678,890,242,13262,-4,0,72,55,604273,0
604304,1369,-2956,307,-1134,-412,894,74,-355,454,-84,-168,35722,-26,34,127,0,0,702,-170,0,1678,890,242,13272,-4,0,72,55,604289,0
604314,725,-2330,290,-760,-219,979,-3,-80,431,61,16,35723,-60,34,127,0,0,703,43,0,1678,890,242,13282,-4,0,72,55,604289,0
604324,535,-2309,69,-450,-129,758,19,30,421,-141,-24,35726,-86,34,127,0,0,703,16,0,1678,890,242,13292,-4,0,72,55,604305,0
604334,906,-1884,20,-284,114,573,14,3,121,-62,0,35720,-109,34,127,0,0,705,0,0,1678,890,242,13302,-4,0,72,55,604305,0
604344,1330,-1779,-130,-257,219,674,11,-18,-35,-99,-16,35710,-94,34,127,0,0,708,82,0,1678,890,242,13312,-4,0,72,55,604336,0
604354,1604,-1799,-232,-88,133,1122,14,-2,8,-100,-16,35714,-83,34,127,0,0,720,170,0,1678,890,242,13322,-4,0,72,55,604336,0
604364,1532,-1765,-53,98,41,1380,14,8,3,-60,-24,35714,-75,34,127,0,0,744,247,0,1678,890,242,13332,-4,0,72,55,604336,0
604374,1115,-1912,131,190,39,1642,13,1,-5,-87,-16,35714,-89,34,127,0,0,783,406,0,1678,890,242,13342,-4,0,72,55,604352,0
604384,945,-1926,172,180,65,1734,14,-7,-2,-39,-16,35711,-81,34,127,0,0,823,461,0,1678,890,242,13352,-4,0,72,55,604383,0
604394,882,-1926,79,245,220,1708,13,-7,0,-89,32,35710,-89,34,127,0,0,870,466,0,1678,890,242,13362,-4,0,72,55,604383,0
604404,925,-1934,59,300,287,1727,12,-23,0,-61,24,35710,-102,34,127,0,0,914,466,0,1678,890,242,13372,-4,0,72,55,604383,0
604414,994,-1951,256,316,238,1836,16,2,-5,-58,-16,35707,-122,34,127,0,0,966,538,0,1678,890,242,13382,-4,0,72,55,604383,0
604424,896,-1954,423,300,185,1899,17,18,1,15,0,35713,-122,34,127,0,0,1018,543,0,1678,890,242,13392,-4,0,72,55,604445,0
604434,701,-2076,575,254,89,1927,58,187,63,778,704,35711,-115,34,127,0,0,1081,620,0,1678,890,242,13402,-4,0,72,55,604445,0
604444,730,-2166,607,212,61,1933,233,460,344,629,1160,35706,-105,34,127,0,0,1142,637,0,1678,890,242,13412,-4,0,72,55,604445,0
604454,755,-1972,544,145,42,1936,484,606,410,675,1544,35700,-79,34,127,0,0,1210,642,0,1678,890,242,13422,-4,0,72,55,604445,0
604464,847,-1879,434,61,-25,1975,797,708,267,591,1784,35693,-49,34,127,0,0,1283,719,0,1678,890,242,13432,-4,0,72,55,604445,0
604474,850,-1734,327,10,-110,2032,1146,794,185,579,1928,35691,-35,34,127,0,0,1355,697,0,1678,890,242,13442,-4,0,72,55,604445,0
604484,813,-1717,263,-4,-146,2019,1522,837,118,512,2008,35698,-21,34,127,0,0,1424,697,0,1678,890,242,13452,-4,0,72,55,604461,0
604494,627,-1736,209,13,-159,1941,1910,850,71,442,1936,35706,-25,34,127,0,0,1490,648,0,1678,890,242,13462,-4,0,72,55,604492,0
604504,545,-1791,197,21,-155,1857,2292,832,5,375,1824,35721,4,34,127,0,0,1552,609,0,1678,890,242,13472,-4,0,72,55,604492,0
604514,430,-1851,157,61,-133,1683,2654,769,-47,367,1720,35718,-10,34,127,0,0,1608,560,0,1678,890,242,13482,-4,0,72,55,604492,0
604524,372,-1849,112,91,-121,1547,2996,732,-74,374,1496,35712,-3,34,127,0,0,1661,472,0,1678,890,242,13492,-4,0,72,55,604492,0
604534,250,-1866,215,104,-189,1332,3309,673,-95,387,1368,35712,-30,34,127,0,0,1702,411,0,1678,890,242,13502,-4,0,72,55,604523,0
604544,141,-1938,275,93,-225,1134,3592,597,-122,399,1184,35717,-34,34,127,0,0,1740,351,0,1678,890,242,13512,-4,0,72,55,604523,0
604554,-4,-2064,330,80,-163,769,3839,525,-114,377,1056,35720,-38,34,127,0,0,1770,313,0,1678,890,242,13522,-4,0,72,55,604539,0
604564,2,-2072,379,64,-143,520,4059,460,-122,372,864,35707,-54,34,127,0,0,1791,219,0,1678,890,242,13532,-4,0,72,55,604539,0
604574,63,-2029,391,15,-172,152,4255,413,-102,310,640,35708,-50,34,127,0,0,1812,181,0,1678,890,242,13542,-4,0,72,55,604555,0
604584,82,-2048,411,-37,-188,-59,4422,344,-91,297,416,35706,-38,34,127,0,0,1819,98,0,1678,890,242,13552,-4,0,72,55,604555,0
604594,78,-1991,377,-79,-240,-367,4539,264,-130,231,200,35714,-15,34,127,0,0,1820,43,0,1678,890,242,13562,-4,0,72,55,604586,0
604604,113,-2031,312,-151,-230,-542,4608,115,-199,154,64,35704,10,34,127,0,0,1820,-43,0,1678,890,242,13572,-4,0,72,55,604586,0
604614,273,-2025,345,-225,-231,-716,4619,-26,-239,67,40,35705,-28,34,127,0,0,1823,16,0,1678,890,242,13582,-4,0,72,55,604601,0
604624,322,-2049,313,-287,-274,-795,4619,11,-131,80,0,35697,-59,34,127,0,0,1819,-27,0,1678,890,242,13592,-4,0,72,55,604601,0
604634,315,-2152,481,-315,-322,-951,4616,-5,-7,18,0,35701,-87,34,127,0,0,1819,0,0,1678,890,242,13602,-4,0,72,55,604633,0
604644,408,-2045,507,-342,-363,-1057,4615,0,-5,-16,-16,35700,-79,34,127,0,0,1817,-21,0,1678,890,242,13612,-4,0,72,55,604633,0
604654,614,-2028,413,-425,-418,-1080,4614,-8,4,-65,-56,35703,-76,34,127,0,0,1812,-60,0,1678,890,242,13622,-4,0,72,55,604633,0
604664,859,-1953,279,-450,-416,-1027,4604,-26,-23,-185,-32,35697,-74,34,127,0,0,1816,38,0,1678,890,242,13632,-4,0,72,55,604633,0
604674,987,-1786,173,-459,-424,-894,4606,17,10,-155,-40,35701,-74,34,127,0,0,1816,49,0,1678,890,242,13642,-4,0,72,55,604664,0
604684,943,-1854,174,-484,-453,-802,4607,16,27,-82,-16,35704,-77,34,127,0,0,1818,38,0,1678,890,242,13652,-4,0,72,55,604680,0
604694,795,-2096,231,-504,-479,-574,4607,8,1,-15,0,35699,-79,34,127,0,0,1823,82,0,1678,890,242,13662,-4,0,72,55,604680,0
604704,985,-2380,308,-586,-521,-329,4617,40,17,224,208,35689,-75,34,127,0,0,1847,324,0,1678,890,242,13672,-4,0,72,55,604680,0
604714,871,-2351,413,-555,-726,14,4658,122,92,606,456,35693,-74,34,127,0,0,1889,450,0,1678,890,242,13682,-4,0,0,0,604695,0
604724,768,-2572,279,-622,-851,210,4762,259,185,738,768,35700,-72,34,127,0,0,1951,604,0,1678,890,242,13692,-4,0,0,0,604805,0
604734,426,-2780,307,-650,-936,471,4917,380,219,710,1200,35711,-73,34,127,0,0,2040,911,0,1678,890,242,13702,-4,0,0,0,604805,0
604744,238,-2867,241,-613,-948,521,5149,567,256,840,1664,35701,-50,34,127,0,0,2147,1098,0,1678,890,242,13712,-4,0,0,0,604805,0
604754,188,-2844,136,-541,-823,555,5459,733,296,859,2176,35689,-30,34,127,0,0,2276,1345,0,1678,890,242,13722,-4,0,0,0,604805,0
604764,310,-2678,106,-488,-827,606,5861,941,325,868,2568,35674,-23,34,127,0,0,2413,1340,0,1678,890,242,13732,-4,0,0,0,604805,0
604774,345,-3015,93,-758,-918,827,6337,1089,315,879,2984,35669,-4,34,127,0,0,2567,1571,0,1678,890,242,13742,-4,0,0,0,604820,0
604784,172,-3204,381,-879,-1062,986,6894,1288,296,954,3464,35666,9,34,127,0,0,2745,1867,0,1678,890,242,13752,-4,0,0,0,604820,0
604794,-224,-3367,307,-665,-967,1112,7547,1515,345,988,4008,35664,32,34,127,0,0,2944,2032,0,1678,890,242,13762,-4,0,11,0,604820,0
604804,-275,-3223,109,-572,-866,1162,8310,1750,400,1022,4752,35658,44,34,127,0,0,3199,2570,0,1678,890,242,13772,-4,0,14,0,604820,0
604814,-552,-2979,268,-488,-779,1133,9211,2088,479,1204,5656,35646,65,34,127,0,0,3460,2647,0,1678,890,242,13782,-4,0,18,0,604820,0
604824,-620,-3018,389,-478,-871,1088,10270,2429,583,1078,6360,35637,99,34,127,0,0,3738,2790,0,1678,890,242,13792,-4,0,21,0,604820,0
604834,-871,-3118,638,-399,-1037,859,11477,2739,586,1045,6944,35629,128,34,127,0,0,4026,2883,0,1678,890,242,13802,-4,0,25,0,604820,0
604844,-526,-3133,637,-406,-1024,737,12771,2862,432,904,7424,35634,148,34,127,0,0,4331,3153,0,1678,890,242,13812,-4,0,28,0,604820,0
604854,-449,-3753,607,-548,-1343,666,14117,3027,236,1045,8040,35648,154,34,127,0,0,4635,3114,0,1678,890,242,13822,-4,0,33,0,604883,0
604864,-511,-3572,499,-647,-1515,717,15606,3366,397,883,8288,35656,168,34,127,0,0,4942,3092,0,1678,890,242,13832,-4,0,37,0,604883,0
604874,40,-3696,486,-693,-1335,-162,17162,3421,400,735,8168,35656,160,34,127,0,0,5213,2609,0,1678,890,242,13842,-4,0,42,0,604883,0
604884,112,-3618,863,-808,-1273,-635,18667,3267,-8,417,7632,35658,143,34,127,0,0,5444,2219,0,1678,890,242,13852,-4,0,45,0,604883,0
604894,168,-3597,1208,-1178,-1448,-1215,20088,3018,-582,80,5480,35663,88,34,127,0,0,5643,2026,0,1678,890,242,13862,-4,0,50,0,604883,0
604904,1136,-3519,1586,-1758,-2249,-1828,21208,2163,-866,-1055,2776,35685,2,34,127,0,0,5850,2005,0,1678,890,242,13872,-4,0,53,0,604883,0
604914,1778,-4179,970,-2413,-2547,-4877,21872,1162,-1130,-1374,-416,35704,-89,34,127,0,0,5850,-247,0,1678,890,242,13882,-4,0,56,0,604898,0
604924,2100,-4503,460,-2488,-2971,-6259,21745,-844,-2375,-2932,-4048,35714,-91,34,127,0,0,5682,-1812,0,1678,890,242,13892,-4,0,57,0,604898,0
604934,1560,-3881,228,-2304,-3735,-7618,20921,-2277,-2904,-3099,-7784,35691,32,34,127,0,0,5398,-2922,0,1678,890,242,13902,-4,0,56,0,604930,0
604944,1584,-3682,-33,-2299,-3919,-8310,19757,-2150,-2082,3372,1392,35656,144,34,127,0,0,5087,-3109,0,1678,890,242,13912,-4,0,55,0,604930,0
604954,673,-3327,103,-2165,-4427,-8274,19953,932,2062,1734,-264,35634,163,34,127,0,0,4791,-2916,0,1678,890,242,13922,-4,0,54,0,604930,0
604964,1862,-3920,-97,-2342,-4098,-7844,19873,-672,2240,-2348,-2504,35650,104,34,127,0,0,4573,-2098,0,1678,890,242,13932,-4,0,53,0,604930,0
604974,740,-3869,762,-1984,-4465,-7605,19362,-1293,-1610,-1212,-3576,35686,30,34,127,0,0,4395,-1774,0,1678,890,242,13942,-4,0,52,0,604945,0
604984,1170,-3804,588,-2008,-4339,-7836,18685,-1539,-1111,-700,-3896,35682,71,34,127,0,0,4235,-1691,0,1678,890,242,13952,-4,0,52,0,604961,0
604994,1558,-3344,352,-2108,-3838,-8048,17947,-1654,-415,-699,-4344,35681,62,34,127,0,0,4035,-2070,0,1678,890,242,13962,-4,0,52,0,604961,0
605004,1521,-2912,217,-1886,-3471,-8021,17123,-1891,-267,-874,-5120,35680,59,34,127,0,0,3785,-2576,0,1678,890,242,13972,-4,0,53,0,604992,0
605014,1131,-2202,-190,-1597,-3344,-7503,16137,-2314,-466,-1118,-6016,35679,65,34,127,0,0,3517,-2691,0,1678,890,242,13982,-4,0,53,0,604992,0
605024,772,-1758,-168,-1455,-3511,-7079,14993,-2576,-629,-876,-6424,35662,98,34,127,0,0,3247,-2680,0,1678,890,242,13992,-4,0,54,0,604992,0
605034,516,-1126,-184,-1137,-3589,-6205,13796,-2647,-405,-817,-6640,35647,124,34,127,0,0,2997,-2504,0,1678,890,242,14002,-4,0,56,0,605023,0
605044,145,-767,-294,-845,-3278,-5579,12585,-2675,-115,-448,-6360,35649,103,34,127,0,0,2798,-1988,0,1678,890,242,14012,-4,0,57,0,605023,0
605054,-246,-279,-480,-330,-2481,-4494,11395,-2586,5,-223,-5616,35661,60,34,127,0,0,2634,-1576,0,1678,890,242,14022,-4,0,59,0,605039,0
605064,-319,138,-543,13,-1732,-3835,10297,-2326,215,-99,-4840,35672,24,34,127,0,0,2486,-1439,0,1678,890,242,14032,-4,0,61,0,605039,0
605074,-705,482,-585,474,-634,-2647,9347,-2003,467,-108,-4272,35683,-3,34,127,0,0,2349,-1323,0,1678,890,242,14042,-4,0,63,0,605055,0
605084,-818,535,-499,771,51,-1649,8515,-1759,514,-115,-3600,35703,-20,34,127,0,0,2244,-1027,0,1678,890,242,14052,-4,0,65,0,605055,0
605094,-982,551,-482,1375,1239,-353,7798,-1502,437,-112,-2992,35709,-25,34,127,0,0,2158,-851,0,1678,890,242,14062,-4,0,69,0,605070,0
605104,-1106,688,-395,1768,2002,420,7192,-1269,432,-135,-2464,35711,-36,34,127,0,0,2090,-692,0,1678,890,242,14072,-4,0,71,0,605117,0
605114,-1119,730,-237,2282,3051,1521,6688,-1042,407,-178,-2024,35702,-38,34,127,0,0,2025,-604,0,1678,890,242,14082,-4,0,75,0,605117,0
605124,-1081,658,-146,2563,3658,2327,6266,-881,354,-191,-1664,35701,-42,34,127,0,0,1979,-488,0,1678,890,242,14092,-4,0,78,0,605117,0
605134,-964,525,-11,2952,4306,3536,5918,-724,290,-198,-1296,35699,-44,34,127,0,0,1954,-252,0,1678,890,242,14102,-4,0,82,0,605133,0
605144,-800,511,-19,3181,4649,4208,5642,-550,273,-205,-848,35700,-37,34,127,0,0,1946,-93,0,1678,890,242,14112,-4,0,85,223,605133,0
605154,-574,557,-153,3466,5062,5006,5439,-388,289,-260,-480,35700,-39,34,127,0,0,1942,-54,0,1678,890,242,14122,-4,0,90,207,605133,0
605164,-391,605,-236,3589,5244,5502,5303,-258,271,-277,-256,35713,-44,34,127,0,0,1934,-54,0,1678,890,242,14132,-4,0,93,196,605133,0
605174,-123,522,-197,3628,5449,6116,5213,-157,211,-199,-96,35726,-45,34,127,0,0,1935,0,0,1678,890,242,14142,-4,0,98,180,605164,0
605184,7,398,-120,3565,5626,6358,5192,-4,225,-140,-48,35735,-57,34,127,0,0,1939,10,0,1678,890,242,14152,-4,0,101,170,605179,0
605194,257,280,-108,3339,5884,6534,5196,1,183,-202,-40,35722,-40,34,127,0,0,1941,38,0,1678,890,242,14162,-4,0,106,156,605179,0
605204,672,271,-169,3061,5995,6573,5206,51,51,117,128,35709,-50,34,127,0,0,1964,219,0,1678,890,242,14172,-4,0,110,148,605179,0
605214,1059,404,-510,2673,6211,6317,5270,179,120,343,368,35713,-60,34,127,0,0,2017,499,0,1678,890,242,14182,-4,0,114,136,605179,0
605224,1389,450,-756,2352,6236,5797,5388,309,203,535,656,35720,-56,34,127,0,0,2070,532,0,1678,890,242,14192,-4,0,118,128,605226,0
605234,2183,181,-582,2102,6498,4439,5559,394,210,398,680,35723,-57,34,127,0,0,2097,214,0,1678,890,242,14202,-4,0,122,119,605226,0
605244,2289,-70,-288,1832,6365,3707,5730,346,109,243,336,35713,-53,34,127,0,0,2097,16,0,1678,890,242,14212,-4,0,124,113,605226,0
605254,2584,-157,201,1350,6209,2785,5859,246,-90,132,96,35707,-50,34,127,0,0,2102,65,0,1678,890,242,14222,-4,0,127,106,605226,0
605264,2971,86,190,1001,5966,2302,5908,56,-234,271,160,35710,-30,34,127,0,0,2126,252,0,1678,890,242,14232,-4,0,128,102,605258,0
605274,3077,557,97,527,5279,1568,5960,159,-160,537,344,35720,-19,34,127,0,0,2161,362,0,1678,890,242,14242,-4,0,130,96,605258,0
605284,3211,438,84,285,4643,1180,6060,246,108,572,632,35715,-26,34,127,0,0,2214,554,0,1678,890,242,14252,-4,0,130,93,605258,0
605294,11277,-4554,2447,1296,123,-5808,6236,440,245,216,-280,35714,-51,34,127,0,0,2031,-2356,0,1609,906,243,2,1,3,130,90,605273,0
605304,4505,-1984,1842,2807,1277,-5316,6072,-823,-456,-2454,-3472,35711,-60,34,127,0,0,1682,-3394,0,1609,906,243,12,1,3,130,90,605273,0
605314,2032,-1209,-71,-412,1671,-1901,5385,-1718,-1754,-1557,-4816,35702,12,34,127,0,0,1456,-2230,0,1609,906,243,22,1,3,130,90,605289,0
605324,1359,-1036,1542,-1211,-1899,-320,4507,-1974,-1361,-707,-4816,35689,76,34,127,0,0,1312,-1400,0,1609,906,243,32,1,3,130,90,605289,0
605334,1063,-6452,1741,-327,-2439,-1297,3621,-1949,-362,-601,-4912,35678,104,34,127,0,0,1142,-1768,0,1609,906,243,42,1,3,130,90,605320,0
605344,-1727,-5924,731,-72,-800,-418,2696,-2046,-73,-560,-4528,35687,88,34,127,0,0,1064,-604,0,1609,906,243,52,1,3,130,90,605336,0
605354,162,-2096,-397,-1863,-831,-795,1846,-1759,47,-4,-3048,35691,20,34,127,0,0,1054,-98,0,1609,906,243,62,1,3,130,90,605336,0
605364,583,-3001,-721,-2042,-233,-956,1176,-1352,508,140,-1960,35690,-1,34,127,0,0,1036,-192,0,1609,906,243,72,1,3,130,90,605336,0
605374,1700,-895,-732,-1802,-153,-570,687,-963,687,141,-936,35703,-40,34,127,0,0,1042,131,0,1609,906,243,82,1,3,130,90,605351,0
605384,2003,-836,-249,-1375,-413,-400,364,-602,652,143,-232,35719,-54,34,127,0,0,1041,0,0,1609,906,243,92,1,3,130,90,605383,0
605394,2143,-1273,496,-672,-284,-8,228,-159,673,303,72,35728,-37,34,127,0,0,1034,-65,0,1609,906,243,102,1,3,130,90,605383,0
605404,1861,-1071,538,-585,-407,171,232,19,644,-73,-64,35715,-41,34,127,0,0,1020,-159,0,1609,906,243,112,1,3,130,90,605414,0
605414,1319,-2110,261,-979,-638,614,198,-123,179,-479,-200,35705,-28,34,127,0,0,1018,21,0,1609,906,243,122,1,3,130,90,605414,0
605424,974,-2022,66,-808,-444,646,156,-66,-111,-276,-88,35701,-49,34,127,0,0,1020,16,0,1609,906,243,132,1,3,130,90,605414,0
605434,964,-2023,-185,-548,6,730,153,34,70,-51,72,35703,-56,34,127,0,0,1034,170,0,1609,906,243,142,1,3,130,90,605414,0
605444,1278,-1604,-8,-276,195,700,209,163,185,262,224,35704,-54,34,127,0,0,1048,137,0,1609,906,243,152,1,3,130,90,605414,0
605454,1592,-1559,259,-206,166,976,285,168,160,271,184,35704,-47,34,127,0,0,1063,148,0,1609,906,243,162,1,3,130,90,605445,0
605464,1723,-1571,398,-172,76,1241,363,186,42,384,312,35717,-46,34,127,0,0,1085,192,0,1609,906,243,172,1,3,130,90,605461,0
605474,1539,-1932,430,-283,-180,1751,467,235,63,412,504,35718,-29,34,127,0,0,1119,384,0,1609,906,243,182,1,3,130,90,605461,0
605484,1223,-1944,564,-236,-217,1946,600,334,100,599,784,35711,-19,34,127,0,0,1171,527,0,1609,906,243,192,1,3,130,90,605492,0
605494,822,-1851,471,-178,-188,2005,788,456,166,628,1112,35697,-13,34,127,0,0,1226,532,0,1609,906,243,202,1,3,130,90,605492,0
605504,793,-1718,373,-231,-94,1930,1023,546,200,544,1264,35697,-33,34,127,0,0,1278,582,0,1609,906,243,212,1,3,130,90,605508,0
605514,832,-1795,389,-286,47,1826,1290,600,149,492,1320,35700,-37,34,127,0,0,1322,433,0,1609,906,243,222,1,3,130,90,605508,0
605524,982,-1839,518,-323,73,1863,1561,585,76,395,1288,35702,-41,34,127,0,0,1369,483,0,1609,906,243,232,1,3,130,90,605508,0
605534,1145,-1844,651,-438,-69,1993,1832,593,2,420,1344,35698,-36,34,127,0,0,1419,532,0,1609,906,243,242,1,3,130,90,605508,0
605544,1074,-1869,672,-550,-197,2178,2108,605,14,452,1352,35697,-33,34,127,0,0,1478,598,0,1609,906,243,252,1,3,130,90,605554,0
605554,976,-1785,541,-659,-328,2362,2394,641,36,487,1480,35706,-44,34,127,0,0,1544,642,0,1609,906,243,262,1,3,130,90,605554,0
605564,755,-1836,321,-675,-346,2392,2695,661,41,511,1608,35709,-32,34,127,0,0,1619,758,0,1609,906,243,272,1,3,130,90,605554,0
605574,529,-1865,101,-647,-260,2306,3017,718,69,539,1712,35704,-34,34,127,0,0,1682,714,0,1609,906,243,282,1,3,130,90,605554,0
605584,444,-1902,85,-541,-175,2163,3353,731,67,458,1720,35685,-40,34,127,0,0,1751,697,0,1609,906,243,292,1,3,130,90,605570,0
605594,325,-2024,183,-356,-87,1956,3653,742,17,517,1704,35687,-28,34,127,0,0,1808,587,0,1609,906,243,302,1,3,130,90,605570,0
605604,390,-1922,249,-321,-80,1807,3982,720,-14,463,1600,35699,-45,34,127,0,0,1874,571,0,1609,906,243,312,1,3,130,90,605586,0
605614,352,-1863,243,-345,-144,1613,4302,698,-30,370,1480,35709,-35,34,127,0,0,1929,587,0,1609,906,243,322,1,3,130,90,605586,0
605624,331,-1866,241,-310,-157,1464,4603,662,-49,414,1416,35705,-42,34,127,0,0,1976,477,0,1609,906,243,332,1,3,130,90,605601,0
605634,165,-1947,273,-226,-169,1129,4885,608,-66,391,1264,35701,-50,34,127,0,0,2023,390,0,1609,906,243,342,1,3,130,90,605632,0
605644,82,-1892,265,-230,-126,876,5142,549,-86,369,1112,35706,-35,34,127,0,0,2056,274,0,1609,906,243,352,1,3,130,90,605632,0
605654,35,-1990,350,-233,-79,499,5372,489,-99,357,888,35709,-42,34,127,0,0,2083,197,0,1609,906,243,362,1,3,130,90,605632,0
605664,74,-1959,405,-229,-75,261,5572,419,-111,326,672,35705,-41,34,127,0,0,2102,186,0,1609,906,243,372,1,3,130,90,605632,0
605674,184,-1963,327,-254,-77,-61,5739,343,-121,322,440,35705,-49,34,127,0,0,2110,93,0,1609,906,243,382,1,3,130,90,605664,0
605684,253,-1924,263,-285,-108,-226,5872,258,-127,263,232,35708,-41,34,127,0,0,2113,71,0,1609,906,243,392,1,3,130,90,605679,0
605694,314,-1914,223,-268,-152,-439,5948,134,-179,221,80,35707,-42,34,127,0,0,2113,0,0,1609,906,243,402,1,3,130,90,605679,0
605704,428,-1882,253,-258,-175,-596,5959,-14,-237,143,24,35695,-32,34,127,0,0,2106,-54,0,1609,906,243,412,1,3,130,90,605679,0
605714,71,-2058,368,-313,-231,-918,5939,-49,-174,-34,-104,35691,-47,34,127,0,0,2088,-170,0,1609,906,243,422,1,3,130,90,605679,0
605724,208,-2016,548,-289,-128,-1099,5907,-84,-69,-366,-200,35700,-51,34,127,0,0,2067,-225,0,1609,906,243,432,1,3,130,90,605695,0
605734,435,-2008,513,-395,-123,-1283,5834,-181,-109,-346,-272,35711,-46,34,127,0,0,2043,-247,0,1609,906,243,442,1,3,130,90,605711,0
605744,655,-1999,442,-456,-157,-1299,5748,-179,-101,-390,-344,35709,-30,34,127,0,0,2020,-258,0,1609,906,243,452,1,3,130,90,605711,0
605754,987,-1962,328,-486,-267,-1124,5653,-223,-28,-417,-296,35706,-1,34,127,0,0,1998,-131,0,1609,906,243,462,1,3,130,90,605742,0
605764,1023,-1988,289,-499,-347,-957,5549,-219,-35,-306,-248,35705,-4,34,127,0,0,1990,-142,0,1609,906,243,472,1,3,130,90,605742,0
605774,986,-1977,364,-533,-390,-710,5470,-148,39,-236,-112,35698,-19,34,127,0,0,1988,-21,0,1609,906,243,482,1,3,130,90,605742,0
605784,993,-1966,340,-557,-333,-641,5427,-50,122,-92,-8,35698,-53,34,127,0,0,1990,38,0,1609,906,243,492,1,3,130,90,605773,0
605794,1149,-2113,352,-574,-336,-482,5439,23,182,-177,-32,35696,-65,34,127,0,0,1987,-10,0,1609,906,243,502,1,3,130,90,605773,0
605804,1227,-2817,477,-508,-515,-212,5434,11,56,-40,80,35702,-94,34,127,0,0,2011,263,0,1609,906,243,512,1,3,130,90,605789,0
605814,934,-3440,580,-577,-757,585,5466,92,46,531,440,35699,-99,34,127,0,0,2070,659,0,1609,906,243,522,1,3,130,90,605790,0
605824,592,-3163,661,-728,-907,1043,5581,320,236,785,1176,35699,-110,34,127,0,0,2189,1164,0,1609,906,243,532,1,3,130,90,605868,0
605834,322,-2801,303,-665,-999,1199,5815,607,403,970,1952,35698,-64,34,127,0,0,2331,1422,0,1609,906,243,542,1,3,130,90,605868,0
605844,554,-2844,-127,-482,-951,1163,6181,867,484,931,2512,35688,-25,34,127,0,0,2477,1417,0,1609,906,243,552,1,3,130,90,605868,0
605854,627,-3086,-387,-331,-835,1428,6647,1088,433,974,3000,35673,-11,34,127,0,0,2635,1571,0,1609,906,243,562,1,3,130,90,605884,0
605864,526,-3265,-210,-240,-917,1884,7210,1299,373,986,3568,35665,10,34,127,0,0,2834,2021,0,1609,906,243,572,1,3,130,90,605884,0
605874,267,-3324,173,-71,-1110,2463,7895,1613,421,1184,4416,35661,28,34,127,0,0,3088,2592,0,1609,906,243,582,1,3,130,90,605884,0
605884,-83,-3165,261,38,-1292,2687,8752,2019,579,1385,5712,35651,68,34,127,0,0,3382,2988,0,1609,906,243,592,1,3,130,90,605884,0
605894,-260,-3092,350,291,-1320,2913,9823,2505,504,1376,6736,35639,105,34,127,0,0,3713,3295,0,1609,906,243,602,1,3,130,90,605884,0
605904,-304,-2753,89,282,-1072,2811,11115,2988,667,1306,7712,35623,153,34,127,0,0,4034,3284,0,1609,906,243,612,1,3,130,90,605884,0
605914,-531,-2413,433,-96,-1185,3151,12560,3215,815,1032,8400,35616,188,34,127,0,0,4401,3707,0,1609,906,243,622,1,3,130,90,605884,0
605924,-469,-2905,442,-297,-1473,3184,14090,3479,438,1341,9320,35621,227,34,127,0,0,4775,3647,0,1609,906,243,632,1,3,130,90,605900,0
605934,-913,-3819,410,-411,-1357,2650,15829,3953,563,984,9656,35632,247,34,127,0,0,5130,3471,0,1609,906,243,642,1,3,130,90,605931,0
605944,-757,-3834,765,-464,-1324,1629,17639,3956,561,701,9520,35641,243,34,127,0,0,5445,3164,0,1609,906,243,652,1,3,130,90,605931,0
605954,-473,-3698,1055,-841,-1058,-1235,19401,3824,35,43,6824,35639,192,34,127,0,0,5628,1614,0,1609,906,243,662,1,3,130,90,605947,0
605964,-58,-3028,1654,-1318,-2090,-2106,20771,2477,-786,-2271,2728,35671,16,34,127,0,0,5735,1087,0,1609,906,243,672,1,3,130,90,605947,0
605974,1494,-3891,1054,-1538,-2152,-4491,21414,1000,-2218,-2303,-1000,35708,-123,34,127,0,0,5697,-615,0,1609,906,243,682,1,3,130,90,605947,0
605984,893,-3901,511,-1424,-2730,-5441,21159,-1043,-3101,-2697,-4432,35731,-127,34,127,0,0,5553,-1499,0,1609,906,243,692,0,3,130,90,605962,0
605994,754,-3605,772,-1513,-4530,-6157,20279,-2318,-2922,-2184,-4176,35696,25,34,127,0,0,5398,-1466,0,1609,906,243,702,0,3,130,90,605962,0
606004,989,-4002,1075,-1849,-5327,-6500,19567,-665,-1018,5749,3056,35670,88,34,127,0,0,5292,-1005,0,1609,906,243,712,0,3,130,90,605993,0
606014,1072,-4425,1080,-2489,-5897,-6376,20159,1654,3026,1881,3352,35638,164,34,127,0,0,5239,-422,0,1609,906,243,722,0,3,130,90,605993,0
606024,1014,-4573,997,-2775,-5720,-6946,20822,1339,2675,-134,1616,35654,65,34,127,0,0,5196,-521,0,1609,906,243,732,0,3,130,90,605993,0
606034,582,-4133,681,-2889,-5764,-8024,21271,816,-345,-505,-48,35674,31,34,127,0,0,5110,-889,0,1609,906,243,742,0,3,130,90,606009,0
606044,945,-3944,520,-2997,-5451,-8602,21275,-344,-1263,-1555,-1328,35698,-40,34,127,0,0,4966,-1428,0,1609,906,243,752,0,3,130,90,606009,0
606054,910,-3730,343,-3059,-4730,-9061,20980,-784,-1488,-1084,-2576,35711,-43,34,127,0,0,4790,-1779,0,1609,906,243,762,0,3,130,90,606040,0
606064,951,-3655,359,-3174,-4124,-8998,20482,-1235,-933,-1128,-3608,35706,-8,34,127,0,0,4591,-1988,0,1609,906,243,772,0,3,130,90,606056,0
606074,741,-3518,475,-3243,-3489,-8700,19788,-1642,-774,-939,-4360,35688,19,34,127,0,0,4392,-2081,0,1609,906,243,782,0,3,130,90,606056,0
606084,659,-3317,548,-3202,-3094,-8651,18952,-1906,-653,-791,-4848,35674,42,34,127,0,0,4182,-2070,0,1609,906,243,792,0,3,130,90,606056,0
606094,514,-2759,500,-2929,-2513,-8580,18031,-2082,-422,-796,-5360,35665,53,34,127,0,0,3938,-2438,0,1609,906,243,802,0,3,130,90,606072,0
606104,340,-2297,283,-2693,-2166,-8344,17015,-2326,-346,-891,-6048,35677,64,34,127,0,0,3678,-2631,0,1609,906,243,812,0,3,130,90,606103,0
606114,127,-1559,-16,-2299,-1684,-7641,15856,-2643,-465,-840,-6568,35680,86,34,127,0,0,3404,-2713,0,1609,906,243,822,0,3,130,90,606103,0
606124,-83,-853,-213,-1777,-1257,-7020,14609,-2770,-445,-798,-6928,35672,115,34,127,0,0,3133,-2691,0,1609,906,243,832,0,3,130,90,606103,0
606134,-335,301,-403,-972,-326,-5829,13342,-2802,-199,-731,-7048,35655,123,34,127,0,0,2864,-2609,0,1609,906,243,842,0,3,130,90,606103,0
606144,-508,815,-523,-615,252,-4831,12047,-2854,-90,-344,-6592,35650,101,34,127,0,0,2653,-2147,0,1609,906,243,852,0,3,130,90,606134,0
606154,-565,1049,-416,-326,845,-2981,10778,-2736,-6,-145,-5840,35670,71,34,127,0,0,2478,-1653,0,1609,906,243,862,0,3,130,90,606134,0
606164,-591,757,-338,88,1306,-1732,9634,-2417,290,-28,-4840,35692,33,34,127,0,0,2353,-1159,0,1609,906,243,872,0,3,130,90,606134,0
606174,-766,694,-215,671,2168,-152,8651,-2064,551,60,-3800,35706,-2,34,127,0,0,2250,-961,0,1609,906,243,882,0,3,130,90,606150,0
606184,-1014,602,-158,1183,2721,654,7829,-1697,611,74,-2952,35714,-40,34,127,0,0,2169,-878,0,1609,906,243,892,0,3,130,90,606243,0
606194,-979,646,-21,1784,3470,1708,7169,-1354,618,16,-2336,35721,-60,34,127,0,0,2092,-747,0,1609,906,243,902,0,3,130,90,606243,0
606204,-680,748,-63,2068,4080,2446,6648,-1065,570,-66,-1944,35721,-63,34,127,0,0,2025,-692,0,1609,906,243,912,0,3,130,90,606243,0
606214,-631,856,-142,2379,4698,3710,6225,-874,454,-154,-1640,35713,-48,34,127,0,0,1973,-527,0,1609,906,243,922,0,3,130,90,606243,0
606224,-515,844,-151,2567,4938,4524,5877,-722,332,-199,-1296,35699,-46,34,127,0,0,1942,-285,0,1609,906,243,932,0,3,130,90,606243,0
606234,-171,825,-220,2854,5015,5504,5598,-565,271,-232,-888,35697,-38,34,127,0,0,1927,-137,0,1609,906,243,942,0,3,130,90,606259,0
606244,-7,769,-151,2960,4925,5986,5392,-409,273,-278,-536,35697,-53,34,127,0,0,1927,-32,0,1609,906,243,952,0,3,130,90,606259,0
606254,155,667,-66,2976,4802,6496,5245,-299,252,-250,-264,35701,-59,34,127,0,0,1928,16,0,1609,906,243,962,0,3,130,90,606259,0
606264,306,629,-130,2918,4777,6694,5160,-140,224,-198,-112,35693,-67,34,127,0,0,1925,-21,0,1609,906,243,972,0,3,130,90,606259,0
606274,603,653,-382,2793,4897,6844,5133,-32,232,-176,-40,35695,-70,34,127,0,0,1924,21,0,1609,906,243,982,0,3,130,90,606259,0
606284,673,624,-520,2608,4893,6820,5132,12,165,-148,-16,35705,-53,34,127,0,0,1933,115,0,1609,906,243,992,0,3,130,90,606259,0
606294,1142,645,-555,2184,5009,6524,5145,42,74,163,112,35730,-43,34,127,0,0,1948,159,0,1609,906,243,1002,0,3,130,90,606259,0
606304,1345,512,-618,1854,5188,6127,5194,140,101,304,160,35740,-33,34,127,0,0,1967,164,0,1609,906,243,1012,0,3,130,90,606290,0
606314,1757,251,-601,1335,5578,5259,5274,186,129,299,256,35739,-33,34,127,0,0,1994,247,0,1609,906,243,1022,0,3,130,90,606290,0
606324,2017,210,-686,1019,5898,4633,5364,206,77,354,320,35728,-38,34,127,0,0,2023,368,0,1609,906,243,1032,0,3,130,90,606290,0
606334,2493,296,-659,602,6082,3674,5477,248,61,306,464,35718,-63,34,127,0,0,2066,565,0,1609,906,243,1042,0,3,130,90,606322,0
606344,5528,-1279,-528,544,3970,2129,5622,375,95,435,776,35714,-64,34,127,0,0,2113,521,0,1609,906,243,1052,0,3,130,90,606337,0
606354,10110,-2916,1544,1661,457,-6270,5807,339,171,-935,-1224,35703,-64,34,127,0,0,1847,-3136,0,1613,831,244,2,1,3,130,100,606337,0
606364,6430,432,-290,1719,161,-5465,5490,-1028,-848,-1910,-3520,35695,-22,34,127,0,0,1568,-2664,0,1613,831,244,12,1,3,130,100,606337,0
606374,2092,175,-1101,-796,-525,-1383,4796,-1709,-1732,-1337,-4616,35684,37,34,127,0,0,1380,-1763,0,1613,831,244,22,1,3,130,100,606353,0
606384,2997,-589,-698,-1861,-2201,1039,3950,-1842,-1013,-293,-4040,35686,65,34,127,0,0,1311,-670,0,1613,831,244,32,1,3,130,100,606384,0
606394,822,-3175,1380,-1274,-2251,-86,3192,-1577,-106,-84,-3184,35690,45,34,127,0,0,1232,-812,0,1613,831,244,42,1,3,130,100,606384,0
606404,-2137,-2527,756,-745,-6,-763,2553,-1348,410,-324,-3304,35697,-11,34,127,0,0,1116,-1175,0,1613,831,244,52,1,3,130,100,606384,0
606414,-883,-2948,408,-1163,779,-1883,1922,-1432,259,-868,-3864,35696,-36,34,127,0,0,965,-1483,0,1613,831,244,62,1,3,130,100,606384,0
606424,1667,-2873,-90,-1063,2215,-2416,1251,-1433,-84,-242,-2624,35693,-18,34,127,0,0,815,-1582,0,1613,831,244,72,1,3,130,100,606400,0
606434,2742,-3326,-45,-568,189,-1056,691,-1152,132,84,-1472,35707,11,34,127,0,0,725,-812,0,1613,831,244,82,1,3,130,100,606431,0
606444,3224,-2527,197,-407,-279,72,278,-808,502,152,-616,35717,1,34,127,0,0,713,-104,0,1613,831,244,92,1,3,130,100,606431,0
606454,1566,-1567,449,-398,-666,1262,30,-442,588,138,-80,35727,-13,34,127,0,0,728,236,0,1613,831,244,102,1,3,130,100,606431,0
606464,1207,-1537,428,-667,-832,1581,-33,7,672,310,152,35717,-46,34,127,0,0,770,483,0,1613,831,244,112,1,3,130,100,606431,0
606474,826,-846,122,-492,-607,1086,34,134,636,-35,-48,35713,-59,34,127,0,0,805,274,0,1613,831,244,122,1,3,130,100,606446,0
606484,803,-1746,-401,-202,-98,634,23,-86,77,-195,-40,35713,-86,34,127,0,0,797,-115,0,1613,831,244,132,1,3,130,100,606478,0
606494,819,-2444,-315,350,618,388,11,11,-168,-40,-8,35721,-100,34,127,0,0,773,-263,0,1613,831,244,142,1,3,130,100,606478,0
606504,1364,-1938,54,222,396,590,12,-16,43,-97,-16,35713,-99,34,127,0,0,785,16,0,1613,831,244,152,1,3,130,100,606478,0
606514,1444,-2006,613,118,139,1015,13,-8,11,-95,-16,35701,-104,34,127,0,0,796,153,0,1613,831,244,162,1,3,130,100,606493,0
606524,1731,-1486,706,113,45,1225,14,-2,6,-68,16,35696,-105,34,127,0,0,832,329,0,1613,831,244,172,1,3,130,100,606509,0
606534,1507,-1642,426,-57,-117,1432,13,-4,0,-79,-8,35711,-108,34,127,0,0,866,307,0,1613,831,244,182,1,3,130,100,606509,0
606544,1356,-1748,500,-95,-144,1578,13,4,1,-64,-16,35715,-105,34,127,0,0,897,335,0,1613,831,244,192,1,3,130,100,606509,0
606554,1103,-1811,414,-232,-196,1792,14,9,4,-69,32,35714,-106,34,127,0,0,942,450,0,1613,831,244,202,1,3,130,100,606540,0
606564,992,-1793,480,-292,-197,1835,16,-2,14,4,-16,35700,-104,34,127,0,0,994,494,0,1613,831,244,212,1,3,130,100,606540,0
606574,935,-1714,456,-405,-152,1782,24,54,5,247,360,35699,-113,34,127,0,0,1046,499,0,1613,831,244,222,1,3,130,100,606571,0
606584,1022,-1761,415,-468,-96,1717,134,316,209,688,760,35702,-113,34,127,0,0,1089,439,0,1613,831,244,232,1,3,130,100,606571,0
606594,1259,-1735,448,-572,-167,1813,300,419,354,495,1016,35699,-86,34,127,0,0,1134,433,0,1613,831,244,242,1,3,130,100,606587,0
606604,1296,-1771,413,-632,-248,1968,522,499,210,544,1216,35695,-51,34,127,0,0,1192,521,0,1613,831,244,252,1,3,130,100,606587,0
606614,1268,-1735,343,-694,-317,2251,776,576,130,568,1448,35687,-30,34,127,0,0,1256,697,0,1613,831,244,262,1,3,130,100,606587,0
606624,1162,-1699,204,-701,-353,2371,1064,661,124,578,1616,35691,-28,34,127,0,0,1323,653,0,1613,831,244,272,1,3,130,100,606603,0
606634,956,-1812,57,-675,-314,2435,1386,731,133,552,1760,35698,-33,34,127,0,0,1395,714,0,1613,831,244,282,1,3,130,100,606634,0
606644,789,-1872,14,-596,-269,2401,1736,786,110,540,1856,35693,-28,34,127,0,0,1464,708,0,1613,831,244,292,1,3,130,100,606634,0
606654,554,-1860,73,-456,-182,2277,2104,816,83,452,1864,35681,-19,34,127,0,0,1524,631,0,1613,831,244,302,1,3,130,100,606634,0
606664,506,-1822,126,-388,-128,2148,2475,806,36,397,1816,35682,-33,34,127,0,0,1597,653,0,1613,831,244,312,1,3,130,100,606650,0
606674,457,-1838,147,-327,-93,1950,2838,801,-21,427,1752,35684,-40,34,127,0,0,1654,587,0,1613,831,244,322,1,3,130,100,606650,0
606684,485,-1879,168,-319,-76,1815,3187,743,-40,368,1640,35698,-38,34,127,0,0,1711,587,0,1613,831,244,332,1,3,130,100,606650,0
606694,455,-1957,264,-298,-108,1587,3515,702,-75,396,1528,35702,-22,34,127,0,0,1767,521,0,1613,831,244,342,1,3,130,100,606712,0
606704,438,-1951,306,-301,-149,1432,3823,673,-80,449,1400,35710,-17,34,127,0,0,1816,439,0,1613,831,244,352,1,3,130,100,606712,0
606714,302,-1890,264,-313,-173,1177,4110,617,-76,378,1288,35701,-30,34,127,0,0,1857,439,0,1613,831,244,362,1,3,130,100,606728,0
606724,256,-1914,240,-312,-174,985,4377,570,-72,332,1144,35692,-28,34,127,0,0,1896,351,0,1613,831,244,372,1,3,130,100,606728,0
606734,276,-1867,153,-297,-133,665,4615,504,-89,335,960,35677,-39,34,127,0,0,1927,296,0,1613,831,244,382,1,3,130,100,606743,0
606744,316,-1954,147,-294,-128,470,4824,443,-113,354,768,35676,-48,34,127,0,0,1947,175,0,1613,831,244,392,1,3,130,100,606743,0
606754,331,-1951,144,-265,-137,181,5003,379,-117,354,552,35682,-51,34,127,0,0,1963,131,0,1613,831,244,402,1,3,130,100,606743,0
606764,309,-1972,231,-260,-165,10,5156,307,-107,312,392,35696,-39,34,127,0,0,1975,104,0,1613,831,244,412,1,3,130,100,606790,0
606774,231,-1975,293,-296,-141,-263,5270,228,-126,268,184,35701,-27,34,127,0,0,1977,21,0,1613,831,244,422,1,3,130,100,606790,0
606784,342,-1989,320,-315,-122,-403,5329,84,-184,217,64,35695,-22,34,127,0,0,1984,32,0,1613,831,244,432,1,3,130,100,606790,0
606794,608,-1942,290,-340,-159,-526,5326,-29,-233,318,112,35694,-39,34,127,0,0,1978,54,0,1613,831,244,442,1,3,130,100,606790,0
606804,775,-1938,225,-364,-188,-549,5327,2,-100,281,96,35697,-52,34,127,0,0,1976,0,0,1613,831,244,452,1,3,130,100,606806,0
606814,760,-2049,256,-386,-237,-539,5326,1,10,292,112,35691,-58,34,127,0,0,1978,21,0,1613,831,244,462,1,3,130,100,606806,0
606824,730,-2160,345,-398,-251,-544,5327,-3,-1,286,96,35684,-61,34,127,0,0,1976,0,0,1613,831,244,472,1,3,130,100,606806,0
606834,549,-2170,465,-437,-303,-508,5326,6,-1,313,136,35693,-67,34,127,0,0,1980,27,0,1613,831,244,482,1,3,130,100,606806,0
606844,893,-2520,462,-497,-402,-365,5332,5,11,460,248,35714,-69,34,127,0,0,2003,263,0,1613,831,244,492,1,3,130,100,606837,0
606854,966,-2297,254,-565,-481,-138,5379,156,95,619,432,35725,-66,34,127,0,0,2037,346,0,1613,831,244,502,1,3,130,100,606837,0
606864,925,-2428,159,-648,-457,63,5483,251,207,609,632,35710,-68,34,127,0,0,2091,521,0,1613,831,244,512,1,3,130,100,606837,0
606874,743,-2513,184,-713,-367,293,5627,340,181,612,928,35697,-73,34,127,0,0,2155,675,0,1613,831,244,522,1,3,130,100,606853,0
606884,656,-2606,305,-781,-355,381,5812,447,154,700,1240,35699,-73,34,127,0,0,2240,851,0,1613,831,244,532,1,3,130,100,606853,0
606894,589,-2986,513,-928,-454,604,6055,577,203,795,1592,35709,-38,34,127,0,0,2337,944,0,1613,831,244,542,1,3,130,100,606884,0
606904,622,-3216,448,-868,-511,773,6357,707,183,850,1976,35713,-12,34,127,0,0,2447,1142,0,1613,831,244,552,1,3,130,100,606884,0
606914,710,-2980,-97,-689,-716,988,6730,876,281,915,2480,35696,-5,34,127,0,0,2588,1411,0,1613,831,244,562,1,3,130,100,606884,0
606924,431,-2902,-357,-622,-790,1326,7196,1087,315,983,3000,35692,2,34,127,0,0,2754,1680,0,1613,831,244,572,1,3,130,100,606978,0
606934,99,-3090,-77,-576,-794,1700,7768,1339,378,1022,3632,35692,27,34,127,0,0,2957,2070,0,1613,831,244,582,1,3,130,100,606978,0
606944,-130,-3067,13,-473,-724,1832,8470,1635,444,1115,4560,35688,58,34,127,0,0,3202,2532,0,1613,831,244,592,1,3,130,100,606978,0
606954,-390,-3094,47,-431,-663,1868,9338,2029,567,1238,5552,35671,81,34,127,0,0,3482,2708,0,1613,831,244,602,1,3,130,100,606978,0
606964,-555,-3181,107,-445,-576,1735,10387,2434,675,1123,6264,35646,104,34,127,0,0,3761,2839,0,1613,831,244,612,1,3,130,100,606993,0
606974,-728,-3020,355,-403,-418,1549,11592,2737,650,1061,6976,35638,125,34,127,0,0,4040,2856,0,1613,831,244,622,1,3,130,100,606993,0
606984,-651,-3085,631,-399,-381,1380,12884,2864,471,921,7384,35636,151,34,127,0,0,4352,2993,0,1613,831,244,632,1,3,130,100,606993,0
606994,-351,-3376,759,-731,-226,1121,14229,3037,256,1012,7912,35626,144,34,127,0,0,4650,3048,0,1613,831,244,642,1,3,130,100,606993,0
607004,74,-3914,888,-941,-211,636,15706,3322,355,713,7920,35623,150,34,127,0,0,4904,2532,0,1613,831,244,652,1,3,130,100,606993,0
607014,31,-4228,1138,-994,-315,-402,17185,3185,273,391,7288,35630,126,34,127,0,0,5117,2026,0,1613,831,244,662,1,3,130,100,606993,0
607024,-77,-4018,1075,-993,-246,-1290,18543,2917,-238,180,6400,35658,81,34,127,0,0,5277,1631,0,1613,831,244,672,1,3,130,100,606993,0
607034,976,-3682,661,-1379,-241,-3037,19779,2628,-455,41,5592,35682,36,34,127,0,0,5426,1483,0,1613,831,244,682,1,3,130,100,607024,0
607044,1368,-3597,453,-1817,-461,-5289,20851,2236,-549,-51,3936,35702,-5,34,127,0,0,5419,-340,0,1613,831,244,692,1,3,130,100,607024,0
607054,1803,-4246,614,-1787,-1543,-7369,21677,1578,-774,-932,1144,35709,-43,34,127,0,0,5272,-1516,0,1613,831,244,702,0,3,130,100,607024,0
607064,1686,-4376,732,-1881,-2479,-7954,21958,25,-1483,-2827,-1376,35714,-78,34,127,0,0,5088,-1823,0,1613,831,244,712,0,3,130,100,607040,0
607074,1343,-4302,1011,-1994,-3794,-8607,21655,-834,-2253,-1217,-2712,35712,-65,34,127,0,0,4897,-1889,0,1613,831,244,722,0,3,130,100,607056,0
607084,1442,-4269,797,-2097,-4542,-8709,21137,-1251,-1514,-1010,-3384,35707,-7,34,127,0,0,4753,-1472,0,1613,831,244,732,0,3,130,100,607056,0
607094,1198,-4219,478,-2200,-5222,-8761,20505,-1426,-635,-597,-3512,35690,59,34,127,0,0,4634,-1170,0,1613,831,244,742,0,3,130,100,607071,0
607104,1353,-4177,340,-2295,-5457,-8774,19840,-1466,-267,-302,-3216,35695,43,34,127,0,0,4543,-884,0,1613,831,244,752,0,3,130,100,607087,0
607114,1463,-3930,315,-2440,-5397,-8909,19206,-1358,-2,-209,-3080,35694,8,34,127,0,0,4426,-1219,0,1613,831,244,762,0,3,130,100,607087,0
607124,1541,-3708,339,-2495,-5173,-8901,18602,-1333,122,-475,-3272,35700,-5,34,127,0,0,4279,-1477,0,1613,831,244,772,0,3,130,100,607103,0
607134,1434,-3400,363,-2469,-4892,-8746,17965,-1445,-4,-689,-3784,35695,-9,34,127,0,0,4091,-1917,0,1613,831,244,782,0,3,130,100,607118,0
607144,1360,-3031,306,-2293,-4687,-8620,17234,-1683,-246,-884,-4496,35696,9,34,127,0,0,3871,-2301,0,1613,831,244,792,0,3,130,100,607134,0
607154,866,-2334,191,-2037,-4679,-8074,16358,-2058,-462,-1098,-5488,35686,39,34,127,0,0,3601,-2713,0,1613,831,244,802,0,3,130,100,607134,0
607164,532,-2051,18,-1889,-4711,-7482,15298,-2430,-641,-980,-6120,35662,72,34,127,0,0,3345,-2642,0,1613,831,244,812,0,3,130,100,607134,0
607174,75,-1371,-204,-1508,-4553,-6484,14151,-2543,-525,-821,-6520,35654,88,34,127,0,0,3089,-2587,0,1613,831,244,822,0,3,130,100,607149,0
607184,-170,-810,-393,-1093,-3943,-5771,12969,-2619,-224,-610,-6456,35661,105,34,127,0,0,2861,-2180,0,1613,831,244,832,0,3,130,100,607165,0
607194,-649,119,-600,-416,-2417,-4725,11774,-2618,-92,-336,-6072,35681,77,34,127,0,0,2647,-2136,0,1613,831,244,842,0,3,130,100,607181,0
607204,-1038,562,-780,-107,-1482,-3830,10613,-2503,41,-258,-5616,35691,63,34,127,0,0,2467,-1829,0,1613,831,244,852,0,3,130,100,607181,0
607214,-1271,914,-789,401,-15,-2181,9549,-2266,245,-189,-4848,35694,18,34,127,0,0,2330,-1213,0,1613,831,244,862,0,3,130,100,607196,0
607224,-1341,730,-730,894,1211,-1219,8604,-1996,417,-43,-3896,35701,-4,34,127,0,0,2234,-944,0,1613,831,244,872,0,3,130,100,607196,0
607234,-1522,932,-231,1464,2930,75,7798,-1677,486,10,-3056,35711,-20,34,127,0,0,2155,-752,0,1613,831,244,882,0,3,130,100,607212,0
607244,-1546,925,-152,1900,3981,828,7139,-1355,547,-5,-2360,35720,-20,34,127,0,0,2087,-642,0,1613,831,244,892,0,3,130,100,607228,0
607254,-1386,832,-54,2355,5286,2121,6612,-1074,537,-28,-1768,35722,-26,34,127,0,0,2043,-455,0,1613,831,244,902,0,3,130,100,607228,0
607264,-1251,766,123,2632,5959,3085,6200,-822,473,-43,-1224,35723,-23,34,127,0,0,2025,-148,0,1613,831,244,912,0,3,130,100,607259,0
607274,-900,905,139,2899,6762,4300,5894,-606,416,-38,-632,35726,-30,34,127,0,0,2020,-43,0,1613,831,244,922,0,3,130,100,607259,0
607284,-842,897,86,3038,7055,4940,5693,-368,401,-94,-224,35723,-16,34,127,0,0,2024,10,0,1613,831,244,932,0,3,130,100,607259,0
607294,-376,829,30,3180,7302,5870,5593,-148,392,-23,-24,35706,-22,34,127,0,0,2029,32,0,1613,831,244,942,0,3,130,100,607368,0
607304,-157,867,-30,3207,7240,6581,5603,69,410,-58,32,35702,-25,34,127,0,0,2032,82,0,1613,831,244,952,0,3,130,100,607368,0
607314,315,985,35,2981,6703,7580,5631,73,243,160,224,35701,-36,34,127,0,0,2072,379,0,1613,831,244,962,0,3,130,100,607368,0
607324,492,866,112,2846,6255,7923,5697,198,93,608,528,35702,-45,34,127,0,0,2118,483,0,1613,831,244,972,0,3,130,100,607368,0
607334,762,659,-3,2594,5978,7798,5839,353,226,521,736,35691,-33,34,127,0,0,2174,505,0,1613,831,244,982,0,3,130,100,607384,0
607344,910,629,-113,2388,5923,7497,6012,401,206,478,872,35694,-29,34,127,0,0,2226,560,0,1613,831,244,992,0,3,130,100,607384,0
607354,1530,795,-326,2091,5955,6588,6207,447,100,459,976,35694,-24,34,127,0,0,2278,510,0,1613,831,244,1002,0,3,130,100,607384,0
607364,1962,816,-489,1870,5880,5885,6417,471,76,426,904,35697,-37,34,127,0,0,2311,302,0,1613,831,244,1012,0,3,130,100,607384,0
607374,2460,527,-413,1523,5746,4830,6622,450,19,349,712,35691,-51,34,127,0,0,2332,208,0,1613,831,244,1022,0,3,130,100,607384,0
607384,2707,425,-294,1290,5798,4152,6803,389,-56,324,520,35692,-53,34,127,0,0,2352,159,0,1613,831,244,1032,0,3,130,100,607384,0
607394,2770,339,-3,950,5703,3185,6955,314,-94,287,384,35699,-43,34,127,0,0,2378,252,0,1613,831,244,1042,0,3,130,100,607384,0
607404,4080,-551,144,846,4403,2073,7087,304,-102,348,440,35701,-60,34,127,0,0,2410,379,0,1613,831,244,1052,0,3,130,100,607384,0
607414,10868,-2975,2069,1506,-1398,-5261,7228,247,10,-595,-832,35708,-66,34,127,0,0,2210,-2307,0,1557,551,245,2,1,3,134,99,607415,0
607424,8512,-526,1207,2240,-658,-6651,6968,-874,-718,-1818,-3448,35713,-33,34,127,0,0,1846,-3790,0,1557,551,245,12,1,3,134,99,607431,0
607434,3127,-664,-1290,-32,442,-1448,6239,-1870,-1702,-1676,-4912,35708,46,34,127,0,0,1619,-2021,0,1557,551,245,22,1,3,134,99,607431,0
607444,2668,-233,434,-1372,-1647,999,5331,-1970,-1273,-376,-4440,35697,78,34,127,0,0,1516,-994,0,1557,551,245,32,1,3,134,99,607431,0
607454,727,-2913,65,-1489,-4525,329,4516,-1702,-137,-159,-3808,35693,73,34,127,0,0,1412,-1049,0,1557,551,245,42,1,3,134,99,607431,0
607464,-2797,-3492,301,-676,-1690,-666,3800,-1557,394,-540,-4000,35696,42,34,127,0,0,1257,-1505,0,1557,551,245,52,1,3,134,99,607431,0
607474,-1007,-3629,51,-845,543,-1893,3053,-1684,123,-803,-4392,35713,15,34,127,0,0,1098,-1636,0,1557,551,245,62,1,3,134,99,607462,0
607484,1251,-3248,273,-648,1951,-2490,2224,-1881,-228,-902,-4608,35704,46,34,127,0,0,919,-1856,0,1557,551,245,72,1,3,134,99,607462,0
607494,2175,-3243,-361,-1340,538,-1182,1394,-1742,-180,9,-2928,35692,46,34,127,0,0,802,-1142,0,1557,551,245,82,1,3,134,99,607462,0
607504,3211,-2717,294,-1247,340,-406,725,-1347,318,247,-1560,35690,14,34,127,0,0,744,-565,0,1557,551,245,92,1,3,134,99,607493,0
607514,2673,-1833,638,-1134,-321,903,260,-877,702,322,-576,35700,-36,34,127,0,0,751,27,0,1557,551,245,102,1,3,134,99,607493,0
607524,1365,-1289,773,-903,-711,1302,-3,-443,782,261,-24,35718,-65,34,127,0,0,761,175,0,1557,551,245,112,1,3,134,99,607509,0
607534,1131,-901,51,-816,-636,1275,-36,72,822,348,96,35714,-71,34,127,0,0,783,164,0,1557,551,245,122,1,3,134,99,607509,0
607544,1129,-1582,-410,-568,-443,1057,21,95,629,-144,-24,35708,-65,34,127,0,0,770,-82,0,1557,551,245,132,1,3,134,99,607524,0
607554,927,-2511,-584,46,97,768,2,-58,13,-104,0,35708,-89,34,127,0,0,752,-241,0,1557,551,245,142,1,3,134,99,607524,0
607564,690,-2853,-507,-71,166,1023,11,9,-101,-71,-16,35709,-93,34,127,0,0,751,49,0,1557,551,245,152,1,3,134,99,607556,0
607574,819,-1999,261,83,220,1257,9,4,37,-33,-8,35717,-87,34,127,0,0,789,357,0,1557,551,245,162,1,3,134,99,607556,0
607584,1299,-1356,322,141,261,1201,13,11,-4,64,-24,35704,-109,34,127,0,0,833,390,0,1557,551,245,172,1,3,134,99,607556,0
607594,1466,-1613,-5,292,323,1189,10,0,-6,-15,-8,35700,-113,34,127,0,0,860,280,0,1557,551,245,182,1,3,134,99,607571,0
607604,1547,-1743,-70,362,367,1384,10,-12,-5,-48,-8,35702,-108,34,127,0,0,892,357,0,1557,551,245,192,1,3,134,99,607571,0
607614,1456,-1871,220,503,319,1790,9,-8,0,-32,-8,35703,-104,34,127,0,0,932,444,0,1557,551,245,202,1,3,134,99,607587,0
607624,1305,-1825,371,517,217,2040,11,1,0,20,48,35708,-95,34,127,0,0,989,626,0,1557,551,245,212,1,3,134,99,607602,0
607634,1067,-1663,443,477,142,2162,23,32,22,361,440,35701,-80,34,127,0,0,1056,659,0,1557,551,245,222,1,3,134,99,607602,0
607644,900,-1744,377,476,284,2068,132,350,228,778,984,35699,-86,34,127,0,0,1116,615,0,1557,551,245,232,1,3,134,99,607618,0
607654,1094,-1791,445,433,402,2030,348,517,416,561,1280,35708,-69,34,127,0,0,1173,598,0,1557,551,245,242,1,3,134,99,607634,0
607664,1238,-1791,512,341,333,2156,616,618,272,582,1512,35711,-42,34,127,0,0,1231,609,0,1557,551,245,252,1,3,134,99,607649,0
607674,1304,-1706,672,256,151,2472,915,677,153,562,1632,35704,-22,34,127,0,0,1299,653,0,1557,551,245,262,1,3,134,99,607665,0
607684,1194,-1720,607,195,60,2649,1243,749,114,578,1872,35694,-17,34,127,0,0,1376,769,0,1557,551,245,272,1,3,134,99,607696,0
607694,992,-1794,530,35,-42,2803,1609,827,133,570,2040,35685,-32,34,127,0,0,1457,791,0,1557,551,245,282,1,3,134,99,607696,0
607704,801,-1808,489,6,-50,2780,2009,897,140,494,2128,35685,-31,34,127,0,0,1544,829,0,1557,551,245,292,1,3,134,99,607696,0
607714,561,-1835,458,1,-8,2641,2429,936,92,465,2184,35683,-21,34,127,0,0,1627,895,0,1557,551,245,302,1,3,134,99,607712,0
607724,497,-1799,465,-31,29,2532,2852,940,46,463,2112,35679,-38,34,127,0,0,1705,747,0,1557,551,245,312,1,3,134,99,607712,0
607734,536,-1793,463,-93,46,2403,3272,914,-2,425,2056,35683,-27,34,127,0,0,1775,697,0,1557,551,245,322,1,3,134,99,607712,0
607744,521,-1820,467,-108,-14,2326,3672,862,-56,460,1976,35699,-15,34,127,0,0,1851,752,0,1557,551,245,332,1,3,134,99,607712,0
607754,538,-1930,479,-152,-63,2202,4056,837,-62,457,1888,35706,-11,34,127,0,0,1923,697,0,1557,551,245,342,1,3,134,99,607759,0
607764,459,-1933,528,-195,-153,2107,4426,809,-46,417,1832,35713,-10,34,127,0,0,1992,681,0,1557,551,245,352,1,3,134,99,607759,0
607774,293,-1873,464,-221,-248,1926,4778,762,-61,405,1760,35703,-25,34,127,0,0,2061,697,0,1557,551,245,362,1,3,134,99,607759,0
607784,196,-1849,366,-219,-249,1723,5114,740,-66,451,1712,35693,-27,34,127,0,0,2119,582,0,1557,551,245,372,1,3,134,99,607774,0
607794,163,-1881,244,-202,-173,1385,5437,693,-54,396,1528,35685,-20,34,127,0,0,2179,532,0,1557,551,245,382,1,3,134,99,607774,0
607804,77,-1930,249,-169,-148,1129,5739,643,-68,383,1384,35680,-37,34,127,0,0,2220,439,0,1557,551,245,392,1,3,134,99,607774,0
607814,21,-1962,329,-148,-108,689,6017,586,-93,357,1120,35686,-40,34,127,0,0,2256,357,0,1557,551,245,402,1,3,134,99,607790,0
607824,17,-1971,426,-152,-52,414,6250,490,-138,370,848,35700,-52,34,127,0,0,2278,225,0,1557,551,245,412,1,3,134,99,607821,0
607834,138,-1916,526,-212,12,93,6446,403,-155,347,592,35708,-50,34,127,0,0,2284,71,0,1557,551,245,422,1,3,134,99,607821,0
607844,255,-1873,566,-273,-9,-85,6603,321,-147,317,320,35698,-48,34,127,0,0,2291,60,0,1557,551,245,432,1,3,134,99,607821,0
607854,331,-1957,543,-365,-178,-275,6702,179,-186,284,160,35694,-41,34,127,0,0,2286,0,0,1557,551,245,442,1,3,134,99,607821,0
607864,313,-2042,513,-441,-282,-360,6744,49,-224,223,56,35705,-41,34,127,0,0,2287,-16,0,1557,551,245,452,1,3,134,99,607852,0
607874,257,-1956,500,-509,-331,-592,6743,-24,-192,159,40,35717,-42,34,127,0,0,2285,10,0,1557,551,245,462,1,3,134,99,607852,0
607884,267,-1950,468,-536,-289,-767,6737,-9,-79,46,-48,35709,-56,34,127,0,0,2277,-49,0,1557,551,245,472,1,3,134,99,607852,0
607894,331,-1988,348,-601,-179,-909,6708,-75,-53,-137,-104,35695,-62,34,127,0,0,2254,-159,0,1557,551,245,482,1,3,134,99,607884,0
607904,455,-1960,327,-637,-181,-934,6661,-123,-68,-315,-152,35698,-70,34,127,0,0,2242,-126,0,1557,551,245,492,1,3,134,99,607884,0
607914,658,-2273,282,-663,-369,-824,6595,-143,-72,-212,-136,35705,-65,34,127,0,0,2235,-65,0,1557,551,245,502,1,3,134,99,607884,0
607924,884,-2385,567,-610,-573,-791,6547,-63,-13,-123,-16,35711,-33,34,127,0,0,2231,10,0,1557,551,245,512,1,3,134,99,607931,0
607934,386,-3146,637,-615,-469,-322,6557,33,154,-85,96,35711,-13,34,127,0,0,2259,291,0,1557,551,245,522,1,3,134,99,607931,0
607944,514,-2679,850,-702,-378,-133,6606,137,176,499,472,35717,0,34,127,0,0,2319,598,0,1557,551,245,532,1,3,134,99,607931,0
607954,666,-2138,589,-905,-419,-25,6718,284,187,730,816,35710,-13,34,127,0,0,2386,642,0,1557,551,245,542,1,3,134,99,607931,0
607964,712,-2348,289,-1056,-458,82,6892,410,243,698,1112,35695,-9,34,127,0,0,2459,719,0,1557,551,245,552,1,3,134,99,607931,0
607974,571,-2800,88,-1061,-483,368,7114,533,206,847,1472,35691,-17,34,127,0,0,2552,884,0,1557,551,245,562,1,3,134,99,607962,0
607984,626,-2911,78,-899,-497,600,7409,710,234,814,1920,35695,-20,34,127,0,0,2670,1175,0,1557,551,245,572,1,3,134,99,607962,0
607994,446,-3071,198,-602,-631,794,7781,876,283,870,2328,35696,-5,34,127,0,0,2803,1334,0,1557,551,245,582,1,3,134,99,607962,0
608004,352,-3079,191,-485,-738,1007,8241,1071,321,875,2896,35693,-1,34,127,0,0,2959,1565,0,1557,551,245,592,1,3,134,99,607993,0
608014,-4,-2983,336,-531,-762,1314,8799,1299,344,971,3648,35688,18,34,127,0,0,3172,2164,0,1557,551,245,602,1,3,134,99,607993,0
608024,-179,-2990,512,-478,-937,1483,9498,1645,459,1124,4520,35677,34,34,127,0,0,3404,2334,0,1557,551,245,612,1,3,134,99,608009,0
608034,-128,-3081,430,-180,-1138,1335,10363,2029,603,1142,5352,35671,67,34,127,0,0,3645,2411,0,1557,551,245,622,1,3,134,99,608009,0
608044,-596,-3220,156,-202,-1029,1423,11377,2308,608,1015,5928,35658,86,34,127,0,0,3902,2570,0,1557,551,245,632,1,3,134,99,608056,0
608054,-648,-2973,342,-366,-981,1388,12503,2532,490,1061,6584,35661,111,34,127,0,0,4187,2845,0,1557,551,245,642,1,3,134,99,608056,0
608064,-703,-2682,417,-541,-632,1212,13706,2696,357,1020,7224,35651,119,34,127,0,0,4482,2966,0,1557,551,245,652,1,3,134,99,608056,0
608074,-333,-3488,492,-846,-779,1161,15031,3023,382,973,7720,35641,150,34,127,0,0,4775,2861,0,1557,551,245,662,1,3,134,99,608056,0
608084,-844,-3588,453,-945,-647,850,16482,3225,496,815,7744,35629,167,34,127,0,0,5057,2730,0,1557,551,245,672,1,3,134,99,608071,0
608094,-40,-3889,479,-874,-296,-224,17928,3165,227,671,7680,35634,170,34,127,0,0,5308,2543,0,1557,551,245,682,1,3,134,99,608071,0
608104,-267,-3652,886,-1083,-26,-1303,19345,3074,-69,295,6920,35643,138,34,127,0,0,5479,1697,0,1557,551,245,692,1,3,134,99,608102,0
608114,-335,-3096,1087,-1357,-467,-2246,20622,2625,-302,-345,3784,35680,69,34,127,0,0,5628,1521,0,1557,551,245,702,1,3,134,99,608102,0
608124,1357,-3445,839,-1444,-1020,-3065,21461,1504,-1109,-1297,1216,35712,-32,34,127,0,0,5776,1488,0,1557,551,245,712,1,3,134,99,608102,0
608134,1374,-3620,511,-1546,-1241,-5325,21783,226,-1822,-2584,-1504,35725,-83,34,127,0,0,5789,-38,0,1557,551,245,722,1,3,134,99,608102,0
608144,2108,-4447,497,-1637,-2034,-6823,21436,-1036,-2297,-1980,-4104,35708,-74,34,127,0,0,5688,-1153,0,1557,551,245,732,0,3,134,99,608134,0
608154,1633,-4646,1108,-1834,-3995,-8180,20613,-2163,-2178,-2449,-6816,35676,44,34,127,0,0,5521,-1713,0,1557,551,245,742,0,3,134,99,608134,0
608164,1734,-4727,1130,-2083,-5079,-8496,19318,-3038,-1853,-719,-2768,35636,183,34,127,0,0,5355,-1631,0,1557,551,245,752,0,3,134,99,608134,0
608174,913,-4237,804,-2371,-6014,-9219,18922,581,662,7531,4944,35660,154,34,127,0,0,5213,-1466,0,1557,551,245,762,0,3,134,99,608180,0
608184,1843,-4294,377,-2545,-6325,-8486,19772,1955,4499,762,3184,35638,206,34,127,0,0,5142,-692,0,1557,551,245,772,0,3,134,99,608180,0
608194,1130,-3976,448,-2767,-6105,-8361,20485,1360,2035,-540,1104,35672,63,34,127,0,0,5084,-560,0,1557,551,245,782,0,3,134,99,608180,0
608204,1024,-3815,571,-2845,-6276,-8411,20878,662,-930,-766,-144,35664,80,34,127,0,0,5043,-406,0,1557,551,245,792,0,3,134,99,608180,0
608214,1095,-3574,387,-3042,-6120,-8765,20855,-262,-1416,-843,-696,35711,-83,34,127,0,0,4973,-736,0,1557,551,245,802,0,3,134,99,608196,0
608224,1059,-3346,346,-3064,-5737,-8855,20675,-464,-1118,-690,-1432,35723,-71,34,127,0,0,4850,-1241,0,1557,551,245,812,0,3,134,99,608196,0
608234,1134,-2932,124,-2944,-4858,-8615,20367,-788,-508,-989,-2480,35730,-26,34,127,0,0,4681,-1763,0,1557,551,245,822,0,3,134,99,608212,0
608244,816,-2507,77,-2771,-4328,-8331,19865,-1262,-621,-1172,-3704,35718,1,34,127,0,0,4446,-2395,0,1557,551,245,832,0,3,134,99,608243,0
608254,301,-1704,-35,-2401,-3662,-7960,19121,-1805,-838,-1342,-5112,35704,40,34,127,0,0,4166,-2878,0,1557,551,245,842,0,3,134,99,608243,0
608264,-35,-1255,-236,-2108,-3353,-7524,18138,-2307,-936,-1238,-6192,35668,94,34,127,0,0,3866,-2955,0,1557,551,245,852,0,3,134,99,608243,0
608274,-183,-755,-404,-1675,-2638,-6564,16964,-2696,-829,-1039,-6984,35645,149,34,127,0,0,3571,-2944,0,1557,551,245,862,0,3,134,99,608243,0
608284,-331,-326,-371,-1440,-1920,-5752,15628,-3018,-671,-859,-7504,35632,155,34,127,0,0,3298,-2746,0,1557,551,245,872,0,3,134,99,608274,0
608294,-879,398,-505,-840,-627,-4413,14229,-3052,-440,-595,-7440,35644,146,34,127,0,0,3032,-2625,0,1557,551,245,882,0,3,134,99,608274,0
608304,-1170,799,-745,-441,276,-3441,12876,-2951,-17,-385,-6960,35658,111,34,127,0,0,2824,-1999,0,1557,551,245,892,0,3,134,99,608274,0
608314,-1210,650,-670,158,1589,-1850,11560,-2856,153,-100,-6000,35665,85,34,127,0,0,2656,-1587,0,1557,551,245,902,0,3,134,99,608290,0
608324,-1204,788,-528,435,2432,-696,10349,-2556,262,76,-4840,35680,30,34,127,0,0,2527,-1219,0,1557,551,245,912,0,3,134,99,608321,0
608334,-1394,711,-225,1093,3612,913,9332,-2099,579,152,-3752,35700,-22,34,127,0,0,2432,-955,0,1557,551,245,922,0,3,134,99,608321,0
608344,-1352,624,-99,1528,4241,1808,8502,-1705,736,141,-2792,35719,-46,34,127,0,0,2356,-769,0,1557,551,245,932,0,3,134,99,608321,0
608354,-1269,466,96,2221,5052,3091,7849,-1327,704,97,-2096,35715,-53,34,127,0,0,2290,-675,0,1557,551,245,942,0,3,134,99,608337,0
608364,-1112,473,251,2566,5295,4043,7350,-1018,632,6,-1536,35707,-64,34,127,0,0,2237,-439,0,1557,551,245,952,0,3,134,99,608337,0
608374,-621,581,212,2926,5344,5399,6975,-746,524,-63,-1032,35722,-61,34,127,0,0,2220,-197,0,1557,551,245,962,0,3,134,99,608352,0
608384,-283,730,56,3134,5302,6155,6700,-543,432,-83,-568,35731,-57,34,127,0,0,2209,-170,0,1557,551,245,972,0,3,134,99,608368,0
608394,53,833,-201,3392,5099,7099,6509,-366,352,-127,-328,35724,-39,34,127,0,0,2191,-197,0,1557,551,245,982,0,3,134,99,608368,0
608404,198,783,-128,3379,4779,7696,6378,-263,269,-194,-216,35708,-41,34,127,0,0,2180,-71,0,1557,551,245,992,0,3,134,99,608446,0
608414,510,740,215,3273,4484,8255,6305,-108,223,-131,-56,35708,-34,34,127,0,0,2180,27,0,1557,551,245,1002,0,3,134,99,608462,0
608424,613,633,192,3107,4372,8356,6315,65,270,-137,0,35715,-34,34,127,0,0,2180,21,0,1557,551,245,1012,0,3,134,99,608462,0
608434,957,609,-34,2708,4409,8352,6325,8,156,-10,120,35714,-38,34,127,0,0,2212,307,0,1557,551,245,1022,0,3,134,99,608462,0
608444,1048,723,-353,2483,4619,8012,6370,156,50,497,408,35696,-40,34,127,0,0,2260,532,0,1557,551,245,1032,0,3,134,99,608462,0
608454,1495,764,-728,2082,5006,7180,6491,306,220,599,712,35693,-40,34,127,0,0,2323,615,0,1557,551,245,1042,0,3,134,99,608462,0
608464,2114,634,-620,1840,5334,6427,6671,419,256,528,984,35694,-22,34,127,0,0,2390,664,0,1557,551,245,1052,0,3,134,99,608462,0
608474,2398,328,-436,1413,5663,5115,6889,500,187,493,1104,35696,-25,34,127,0,0,2443,538,0,1557,551,245,1062,0,3,134,99,608462,0
608484,2587,194,-201,1149,5843,4213,7124,515,105,450,1064,35688,-36,34,127,0,0,2489,422,0,1557,551,245,1072,0,3,134,99,608462,0
608494,2870,151,-38,786,5781,2933,7365,535,36,353,928,35688,-56,34,127,0,0,2533,417,0,1557,551,245,1082,0,3,134,99,608462,0
608504,9280,-2609,1159,899,1975,-941,7615,577,29,229,640,35702,-55,34,127,0,0,2499,-532,0,1557,551,245,1092,0,3,134,99,608509,0
608514,9112,-2034,1316,1896,-1580,-6886,7737,-149,-158,-2202,-1792,35715,-59,34,127,0,0,2204,-3180,0,1560,763,246,6,1,3,152,89,608509,0
608524,5555,261,-330,1863,1650,-4985,7289,-1275,-1395,-1796,-3984,35697,-33,34,127,0,0,1895,-3098,0,1560,763,246,16,1,3,152,89,608509,0
608534,1880,-220,-4,-1047,-975,82,6497,-1867,-1795,-804,-4176,35676,17,34,127,0,0,1769,-1082,0,1560,763,246,26,1,3,152,89,608509,0
608544,1248,-516,144,-1587,-2782,1057,5709,-1648,-665,-120,-3480,35665,31,34,127,0,0,1682,-862,0,1560,763,246,36,1,3,152,89,608524,0
608554,-689,-3578,696,-973,-2221,-539,5062,-1339,310,-240,-3152,35683,7,34,127,0,0,1568,-1175,0,1560,763,246,46,1,3,152,89,608524,0
608564,-1814,-3822,272,-196,-4,-1545,4473,-1323,399,-768,-3536,35696,-31,34,127,0,0,1418,-1488,0,1560,763,246,56,1,3,152,89,608540,0
608574,154,-2604,720,-99,1342,-2720,3815,-1520,-36,-971,-4128,35693,-2,34,127,0,0,1239,-1774,0,1560,763,246,66,1,3,152,89,608555,0
608584,1373,-2957,-352,-491,381,-2484,3020,-1844,-398,-960,-4712,35681,35,34,127,0,0,1070,-1582,0,1560,763,246,76,1,3,152,89,608555,0
608594,2896,-3244,-86,-1070,194,-776,2138,-1933,-443,-484,-4392,35675,49,34,127,0,0,981,-845,0,1560,763,246,86,1,3,152,89,608571,0
608604,2417,-2867,-187,-1099,-264,268,1404,-1718,-27,23,-2800,35677,37,34,127,0,0,962,-115,0,1560,763,246,96,1,3,152,89,608618,0
608614,1193,-1712,587,-907,-476,836,750,-1311,478,218,-1488,35685,5,34,127,0,0,968,65,0,1560,763,246,106,1,3,152,89,608618,0
608624,1025,-1684,526,-773,-690,834,296,-864,722,228,-584,35694,-36,34,127,0,0,990,219,0,1560,763,246,116,1,3,152,89,608633,0
608634,841,-968,-34,-569,-207,424,38,-450,762,137,-64,35697,-50,34,127,0,0,992,5,0,1560,763,246,126,1,3,152,89,608633,0
608644,1595,-858,-557,-537,78,264,-26,7,746,242,56,35693,-79,34,127,0,0,968,-236,0,1560,763,246,136,1,3,152,89,608633,0
608654,1760,-1179,-941,-299,298,556,20,71,566,-162,-32,35690,-85,34,127,0,0,937,-340,0,1560,763,246,146,1,3,152,89,608633,0
608664,1639,-1342,-624,-41,452,854,7,-28,31,-22,-8,35691,-116,34,127,0,0,909,-263,0,1560,763,246,156,1,3,152,89,608633,0
608674,1812,-1759,4,243,608,1077,11,-3,-69,-60,-16,35702,-119,34,127,0,0,883,-247,0,1560,763,246,166,1,3,152,89,608696,0
608684,1129,-3194,1119,739,528,994,10,-8,23,-88,-8,35716,-117,34,127,0,0,847,-373,0,1560,763,246,176,1,3,152,89,608712,0
608694,252,-2692,560,586,384,1746,11,6,-6,-57,-16,35705,-116,34,127,0,0,870,225,0,1560,763,246,186,1,3,152,89,608712,0
608704,1173,-1778,978,34,92,2144,14,24,17,58,128,35692,-115,34,127,0,0,942,769,0,1560,763,246,196,1,3,152,89,608712,0
608714,1207,-1428,-364,126,-34,2032,46,103,65,447,232,35692,-115,34,127,0,0,1006,576,0,1560,763,246,206,1,3,152,89,608712,0
608724,1166,-1621,-505,419,275,1983,118,158,144,315,416,35698,-97,34,127,0,0,1063,538,0,1560,763,246,216,1,3,152,89,608712,0
608734,1026,-1915,-307,776,518,2024,242,322,163,547,760,35696,-76,34,127,0,0,1116,488,0,1560,763,246,226,1,3,152,89,608712,0
608744,1168,-1827,345,800,507,2141,428,460,223,613,1176,35686,-48,34,127,0,0,1177,631,0,1560,763,246,236,1,3,152,89,608712,0
608754,1090,-1764,804,714,328,2253,677,590,237,639,1496,35681,-22,34,127,0,0,1243,675,0,1560,763,246,246,1,3,152,89,608743,0
608764,983,-1696,880,541,206,2334,975,684,213,593,1616,35694,-22,34,127,0,0,1308,631,0,1560,763,246,256,1,3,152,89,608743,0
608774,979,-1765,670,255,143,2387,1302,739,144,544,1824,35694,-12,34,127,0,0,1379,675,0,1560,763,246,266,1,3,152,89,608743,0
608784,965,-1780,643,168,119,2442,1656,788,99,473,1880,35685,-17,34,127,0,0,1447,714,0,1560,763,246,276,1,3,152,89,608774,0
608794,1016,-1769,658,69,58,2481,2027,833,76,477,1928,35688,-24,34,127,0,0,1519,714,0,1560,763,246,286,1,3,152,89,608790,0
608804,938,-1781,678,-25,0,2491,2408,835,51,433,1928,35687,-22,34,127,0,0,1598,758,0,1560,763,246,296,1,3,152,89,608805,0
608814,810,-1786,659,-178,-115,2546,2786,832,11,446,1944,35692,-37,34,127,0,0,1669,747,0,1560,763,246,306,1,3,152,89,608805,0
608824,699,-1799,562,-266,-156,2542,3168,843,3,500,1952,35682,-17,34,127,0,0,1747,719,0,1560,763,246,316,1,3,152,89,608805,0
608834,546,-1831,412,-336,-176,2476,3552,840,9,488,1968,35680,-29,34,127,0,0,1824,785,0,1560,763,246,326,1,3,152,89,608805,0
608844,482,-1839,347,-375,-162,2353,3931,830,-5,473,1936,35693,-26,34,127,0,0,1898,736,0,1560,763,246,336,1,3,152,89,608837,0
608854,400,-1919,366,-394,-163,2137,4300,818,-27,428,1856,35703,-42,34,127,0,0,1968,686,0,1560,763,246,346,1,3,152,89,608852,0
608864,306,-1937,355,-412,-223,2011,4655,768,-39,429,1784,35703,-29,34,127,0,0,2033,648,0,1560,763,246,356,1,3,152,89,608852,0
608874,226,-1877,290,-371,-294,1772,4993,726,-65,437,1712,35690,-36,34,127,0,0,2099,675,0,1560,763,246,366,1,3,152,89,608852,0
608884,252,-1881,167,-361,-284,1598,5316,699,-64,423,1592,35686,-35,34,127,0,0,2156,598,0,1560,763,246,376,1,3,152,89,608852,0
608894,307,-1898,88,-262,-234,1272,5624,662,-58,411,1432,35703,-54,34,127,0,0,2207,455,0,1560,763,246,386,1,3,152,89,608868,0
608904,280,-1938,101,-200,-182,1106,5912,626,-136,383,1248,35711,-35,34,127,0,0,2251,455,0,1560,763,246,396,1,3,152,89,608883,0
608914,291,-1861,352,-112,-249,813,6164,530,-67,373,1080,35708,-19,34,127,0,0,2281,384,0,1560,763,246,406,1,3,152,89,608883,0
608924,274,-1926,512,-81,-328,620,6387,469,-64,399,872,35690,-26,34,127,0,0,2301,192,0,1560,763,246,416,1,3,152,89,608930,0
608934,274,-2009,599,-180,-394,445,6575,390,-127,387,648,35699,-36,34,127,0,0,2319,170,0,1560,763,246,426,1,3,152,89,608930,0
608944,412,-1959,593,-266,-438,357,6734,324,-128,415,488,35700,-46,34,127,0,0,2340,137,0,1560,763,246,436,1,3,152,89,608930,0
608954,326,-2071,375,-377,-464,152,6864,264,-113,407,368,35700,-36,34,127,0,0,2352,120,0,1560,763,246,446,1,3,152,89,608930,0
608964,183,-2203,405,-422,-409,47,6964,190,-117,359,280,35683,-53,34,127,0,0,2362,115,0,1560,763,246,456,1,3,152,89,608930,0
608974,15,-2171,427,-449,-259,-208,7032,128,-122,424,208,35693,-83,34,127,0,0,2368,10,0,1560,763,246,466,1,3,152,89,608946,0
608984,153,-2178,463,-544,-193,-346,7079,85,-106,423,168,35708,-85,34,127,0,0,2378,43,0,1560,763,246,476,1,3,152,89,608977,0
608994,344,-2163,403,-669,-162,-496,7116,63,-59,397,176,35715,-71,34,127,0,0,2384,54,0,1560,763,246,486,1,3,152,89,608977,0
609004,493,-2168,378,-701,-260,-480,7141,55,-43,428,224,35707,-60,34,127,0,0,2395,115,0,1560,763,246,496,1,3,152,89,608977,0
609014,627,-2221,171,-733,-347,-343,7188,97,13,451,272,35702,-46,34,127,0,0,2420,230,0,1560,763,246,506,1,3,152,89,608993,0
609024,568,-2343,238,-741,-426,-249,7247,163,63,636,400,35708,-47,34,127,0,0,2449,346,0,1560,763,246,516,1,3,152,89,609013,0
609034,328,-2555,435,-691,-483,-117,7348,260,115,607,608,35715,-36,34,127,0,0,2493,439,0,1560,763,246,526,1,3,152,89,609013,0
609044,409,-2552,468,-734,-427,-48,7492,333,164,650,832,35709,-17,34,127,0,0,2555,598,0,1560,763,246,536,1,3,152,89,609013,0
609054,591,-2446,437,-898,-396,79,7672,422,143,656,1088,35700,-20,34,127,0,0,2621,692,0,1560,763,246,546,1,3,152,89,609028,0
609064,746,-2562,322,-936,-417,166,7900,530,162,654,1368,35704,-36,34,127,0,0,2703,818,0,1560,763,246,556,1,3,152,89,609044,0
609074,560,-2796,213,-962,-508,540,8178,664,185,696,1696,35717,-44,34,127,0,0,2804,994,0,1560,763,246,566,1,3,152,89,609059,0
609084,378,-2949,318,-887,-652,757,8512,779,208,794,2168,35714,-28,34,127,0,0,2936,1307,0,1560,763,246,576,1,3,152,89,609059,0
609094,320,-2969,253,-588,-837,913,8938,1001,286,884,2816,35699,-10,34,127,0,0,3099,1680,0,1560,763,246,586,1,3,152,89,609075,0
609104,17,-2779,30,-625,-803,1099,9478,1271,400,984,3544,35694,10,34,127,0,0,3294,1944,0,1560,763,246,596,1,3,152,89,609091,0
609114,-163,-2947,219,-756,-874,1322,10156,1598,479,1109,4296,35701,25,34,127,0,0,3500,2169,0,1560,763,246,606,1,3,152,89,609091,0
609124,-187,-3091,392,-551,-871,1387,10981,1901,553,1011,4960,35684,63,34,127,0,0,3730,2312,0,1560,763,246,616,1,3,152,89,609106,0
609134,-517,-3044,201,-420,-795,1465,11933,2170,522,1038,5632,35670,75,34,127,0,0,3979,2504,0,1560,763,246,626,1,3,152,89,609106,0
609144,-289,-2791,19,-620,-532,1345,12981,2355,435,1037,6232,35670,85,34,127,0,0,4244,2686,0,1560,763,246,636,1,3,152,89,609200,0
609154,-640,-2813,260,-760,-759,1559,14111,2546,338,1019,6880,35675,104,34,127,0,0,4532,3010,0,1560,763,246,646,1,3,152,89,609200,0
609164,-705,-3132,88,-1053,-875,1415,15396,2949,448,1088,7440,35665,134,34,127,0,0,4817,2796,0,1560,763,246,656,1,3,152,89,609200,0
609174,-1196,-3802,169,-875,-421,902,16802,3114,547,848,7592,35646,150,34,127,0,0,5096,2735,0,1560,763,246,666,1,3,152,89,609200,0
609184,-1068,-3636,546,-782,-384,388,18211,3096,213,723,7552,35636,144,34,127,0,0,5360,2603,0,1560,763,246,676,1,3,152,89,609200,0
609194,-43,-3661,983,-958,-172,-777,19618,3091,0,467,6536,35646,121,34,127,0,0,5586,2180,0,1560,763,246,686,1,3,152,89,609216,0
609204,-81,-3289,1211,-1186,-350,-1026,20852,2479,-301,-629,3512,35669,61,34,127,0,0,5790,2032,0,1560,763,246,696,1,3,152,89,609216,0
609214,375,-3218,797,-1829,-863,-1589,21658,1505,-1176,-772,1816,35696,-24,34,127,0,0,6052,2697,0,1560,763,246,706,1,3,152,89,609216,0
609224,1281,-3683,724,-1991,-1038,-3066,22166,983,-1414,-244,1040,35711,-81,34,127,0,0,6291,2373,0,1560,763,246,716,1,3,152,89,609216,0
609234,1571,-4793,525,-2114,-1296,-6388,22469,469,-920,-1227,-856,35726,-101,34,127,0,0,6366,521,0,1560,763,246,726,1,3,152,89,609216,0
609244,1838,-5210,689,-2185,-1298,-7869,22223,-792,-1421,-1701,-3384,35720,-50,34,127,0,0,6292,-895,0,1560,763,246,736,0,3,152,89,609216,0
609254,1467,-4789,1111,-2401,-1619,-9136,21527,-1877,-1903,-2481,-6208,35703,41,34,127,0,0,6134,-1604,0,1560,763,246,746,0,3,152,89,609247,0
609264,1582,-4543,810,-2537,-1921,-9415,20332,-2910,-1827,-1950,-8080,35660,155,34,127,0,0,5978,-1543,0,1560,763,246,756,0,3,152,89,609247,0
609274,1374,-3881,425,-2780,-2765,-9485,18794,-3535,-1638,-1149,-9032,35624,254,34,127,0,0,5856,-1203,0,1560,763,246,766,0,3,152,89,609247,0
609284,1401,-3548,213,-2946,-3339,-9390,17111,-3758,-927,-860,-9536,35604,274,34,127,0,0,5777,-670,0,1560,763,246,776,0,3,152,89,609263,0
609294,1433,-3339,230,-3094,-4014,-9178,15329,-3943,-458,-456,-9144,35614,234,34,127,0,0,5739,-368,0,1560,763,246,786,0,3,152,89,609263,0
609304,1460,-3301,294,-3128,-4376,-8984,13638,-3597,-19,-236,-8368,35646,156,34,127,0,0,5720,-181,0,1560,763,246,796,0,3,152,89,609278,0
609314,1760,-2962,619,-3045,-4884,-8587,12074,-3400,444,-103,-7520,35679,77,34,127,0,0,5727,65,0,1560,763,246,806,0,3,152,89,609278,0
609324,1887,-3051,32,-3315,-4779,-8309,10589,-3191,374,-100,-7008,35699,25,34,127,0,0,5698,-313,0,1560,763,246,816,0,3,152,89,609341,0
609334,1169,-2672,267,-2956,-4364,-8147,9240,-2904,421,-427,-7192,35703,13,34,127,0,0,5603,-1016,0,1560,763,246,826,0,3,152,89,609341,0
609344,954,-2252,165,-2608,-3968,-7970,7856,-3166,205,-1324,-8344,35679,59,34,127,0,0,5426,-1873,0,1560,763,246,836,0,3,152,89,609341,0
609354,591,-1608,-94,-2252,-3132,-8374,6607,-2016,51,4036,1688,35674,60,34,127,0,0,5167,-2680,0,1560,763,246,846,0,3,152,89,609341,0
609364,-226,-851,12,-1868,-2951,-8165,7041,1767,3580,4679,6096,35651,154,34,127,0,0,4822,-3433,0,1560,763,246,856,0,3,152,89,609341,0
609374,248,-619,-244,-1582,-1806,-7078,8271,3119,4849,3010,9304,35615,261,34,127,0,0,4468,-3592,0,1560,763,246,866,0,3,152,89,609356,0
609384,-493,-233,-31,-1228,-1577,-5949,10083,4361,2545,2772,12432,35568,431,34,127,0,0,4107,-3466,0,1560,763,246,876,0,3,152,89,609356,0
609394,-621,428,-263,-784,-1275,-4172,12205,4376,1807,-1621,5496,35539,495,34,127,0,0,3818,-2839,0,1560,763,246,886,0,3,152,89,609372,0
609404,-547,936,-493,-446,-464,-3403,13299,1644,-1396,-3456,304,35654,152,34,127,0,0,3569,-2669,0,1560,763,246,896,0,3,152,89,609372,0
609414,-1085,1278,-890,350,587,-2471,13318,-608,-4160,-3383,-2728,35719,-53,34,127,0,0,3293,-2691,0,1560,763,246,906,0,3,152,89,609388,0
609424,-1653,1095,-550,786,1284,-1600,12751,-1497,-3230,-1672,-4512,35760,-209,34,127,0,0,3013,-2713,0,1560,763,246,916,0,3,152,89,609403,0
609434,-1336,873,95,1307,2342,174,11883,-2026,-1662,-842,-4848,35690,23,34,127,0,0,2842,-1614,0,1560,763,246,926,0,3,152,89,609403,0
609444,-1660,512,317,1682,2943,1374,10956,-2025,-700,-231,-4264,35674,66,34,127,0,0,2718,-1087,0,1560,763,246,936,0,3,152,89,609419,0
609454,-1502,401,309,2256,4135,2502,10114,-1767,56,-53,-3480,35698,29,34,127,0,0,2625,-922,0,1560,763,246,946,0,3,152,89,609450,0
609464,-1370,450,184,2671,4769,3186,9407,-1474,433,-46,-2816,35715,-10,34,127,0,0,2542,-851,0,1560,763,246,956,0,3,152,89,609450,0
609474,-945,662,73,3058,5301,4326,8820,-1211,492,-60,-2256,35712,-19,34,127,0,0,2484,-664,0,1560,763,246,966,0,3,152,89,609450,0
609484,-623,711,123,3227,5519,5172,8338,-975,430,-72,-1664,35701,-40,34,127,0,0,2452,-335,0,1560,763,246,976,0,3,152,89,609450,0
609494,-103,870,-52,3357,5847,6202,7963,-759,407,-84,-1136,35708,-34,34,127,0,0,2422,-285,0,1560,763,246,986,0,3,152,89,609481,0
609504,-7,823,-83,3343,5848,6753,7684,-553,383,-166,-808,35721,-43,34,127,0,0,2399,-258,0,1560,763,246,996,0,3,152,89,609481,0
609514,216,548,178,3271,5690,7355,7477,-419,321,-260,-552,35716,-46,34,127,0,0,2385,-164,0,1560,763,246,1006,0,3,152,89,609528,0
609524,514,443,298,3188,5646,7597,7314,-338,219,-230,-272,35705,-37,34,127,0,0,2381,-49,0,1560,763,246,1016,0,3,152,89,609528,0
609534,966,360,242,2938,5668,7670,7221,-169,209,-194,-72,35700,-35,34,127,0,0,2378,-10,0,1560,763,246,1026,0,3,152,89,609528,0
609544,1137,512,45,2754,5753,7465,7202,13,281,-153,-32,35704,-25,34,127,0,0,2379,0,0,1560,763,246,1036,0,3,152,89,609528,0
609554,1458,666,-399,2423,5777,6772,7211,11,201,-233,-56,35691,-19,34,127,0,0,2379,-10,0,1560,763,246,1046,0,3,152,89,609544,0
609564,1790,579,-487,2288,5742,6108,7207,-9,29,-240,-48,35684,-53,34,127,0,0,2379,5,0,1560,763,246,1056,0,3,152,89,609544,0
609574,2375,264,-400,2033,5722,5115,7208,-8,-16,-216,-8,35701,-58,34,127,0,0,2387,104,0,1560,763,246,1066,0,3,152,89,609544,0
609584,2589,212,-160,1796,5597,4554,7224,44,37,14,80,35722,-60,34,127,0,0,2407,241,0,1560,763,246,1076,0,3,152,89,609591,0
609594,8610,-2280,496,1596,1224,1502,7279,186,98,340,440,35721,-40,34,127,0,0,2445,521,0,1560,763,246,1086,0,3,152,89,609591,0
609604,12319,-3509,1449,1756,-2266,-3852,7412,320,267,-666,-752,35705,-25,34,127,0,0,2267,-2092,0,1878,1340,247,0,1,3,163,84,609591,0
609614,6974,-170,-488,2552,-561,-5557,7209,-758,-562,-1784,-3168,35687,-4,34,127,0,0,1932,-3438,0,1878,1340,247,10,1,3,163,84,609591,0
609624,2802,925,-1757,1016,1277,-2102,6572,-1654,-1598,-1488,-4312,35677,41,34,127,0,0,1738,-1686,0,1878,1340,247,20,1,3,163,84,609606,0
609634,2048,555,-1076,-1904,-3150,1406,5763,-1762,-1093,-264,-3688,35682,58,34,127,0,0,1661,-703,0,1878,1340,247,30,1,3,163,84,609622,0
609644,441,-1943,-661,-2027,-4208,660,5059,-1447,-8,-143,-3072,35682,43,34,127,0,0,1567,-939,0,1878,1340,247,40,1,3,163,84,609622,0
609654,-1704,-3385,-549,-844,1123,-1243,4473,-1272,451,-623,-3520,35688,-6,34,127,0,0,1394,-1785,0,1878,1340,247,50,1,3,163,84,609637,0
609664,-705,-3748,-287,-1062,1327,-1835,3815,-1535,32,-1077,-4168,35682,-11,34,127,0,0,1220,-1719,0,1878,1340,247,60,1,3,163,84,609637,0
609674,1461,-3259,447,-804,2359,-2469,3031,-1801,-419,-1005,-4784,35677,21,34,127,0,0,1045,-1812,0,1878,1340,247,70,1,3,163,84,609653,0
609684,1990,-3550,685,-711,1193,-1774,2134,-2032,-460,-693,-4256,35670,74,34,127,0,0,901,-1389,0,1878,1340,247,80,1,3,163,84,609653,0
609694,2921,-3224,1222,-369,-141,-394,1292,-1741,-72,127,-2576,35665,57,34,127,0,0,837,-593,0,1878,1340,247,90,1,3,163,84,609684,0
609704,2794,-3009,1152,-288,-823,499,643,-1284,537,343,-1280,35682,5,34,127,0,0,823,-82,0,1878,1340,247,100,1,3,163,84,609684,0
609714,1147,-2421,402,-505,-1245,1500,213,-789,800,272,-416,35689,-41,34,127,0,0,855,324,0,1878,1340,247,110,1,3,163,84,609684,0
609724,1123,-1900,-194,-544,-1020,1548,-18,-370,803,324,48,35699,-45,34,127,0,0,917,620,0,1878,1340,247,120,1,3,163,84,609716,0
609734,532,-816,-821,-408,-725,1094,-19,119,818,312,144,35699,-60,34,127,0,0,976,549,0,1878,1340,247,130,1,3,163,84,609716,0
609744,565,-889,-833,-5,150,561,43,57,520,-277,-80,35702,-74,34,127,0,0,989,131,0,1878,1340,247,140,1,3,163,84,609716,0
609754,1094,-1055,-249,351,1072,146,14,-84,-132,-93,-16,35698,-101,34,127,0,0,977,-153,0,1878,1340,247,150,1,3,163,84,609731,0
609764,1843,-1014,186,367,867,220,14,29,-97,-75,-32,35695,-101,34,127,0,0,952,-280,0,1878,1340,247,160,1,3,163,84,609747,0
609774,2458,-1235,542,332,448,801,10,-9,60,-66,-8,35702,-106,34,127,0,0,927,-225,0,1878,1340,247,170,1,3,163,84,609747,0
609784,2466,-1578,691,313,183,1335,12,0,-8,-68,-24,35700,-119,34,127,0,0,914,-153,0,1878,1340,247,180,1,3,163,84,609762,0
609794,1768,-1392,892,342,-34,1859,13,6,10,-59,-16,35700,-120,34,127,0,0,923,43,0,1878,1340,247,190,1,3,163,84,609778,0
609804,1105,-1454,701,257,-294,1982,12,-3,-2,-37,-16,35696,-114,34,127,0,0,928,109,0,1878,1340,247,200,1,3,163,84,609778,0
609814,1094,-1684,468,71,-150,2022,14,5,-1,-55,-16,35690,-106,34,127,0,0,939,137,0,1878,1340,247,210,1,3,163,84,609778,0
609824,1335,-1972,109,-20,2,1955,12,9,-2,-58,-16,35694,-111,34,127,0,0,943,87,0,1878,1340,247,220,1,3,163,84,609794,0
609834,891,-3110,528,219,219,2045,13,-1,1,-47,-16,35702,-105,34,127,0,0,958,148,0,1878,1340,247,230,1,3,163,84,609825,0
609844,936,-2686,623,116,50,2323,13,-1,-3,-22,-16,35708,-106,34,127,0,0,1009,593,0,1878,1340,247,240,1,3,163,84,609825,0
609854,929,-1902,645,-370,-336,2573,33,101,44,585,672,35700,-97,34,127,0,0,1076,741,0,1878,1340,247,250,1,3,163,84,609825,0
609864,863,-1802,310,-476,-313,2602,196,459,344,783,1360,35691,-88,34,127,0,0,1165,845,0,1878,1340,247,260,1,3,163,84,609841,0
609874,1052,-1435,13,-420,-76,2467,481,707,524,781,1840,35693,-58,34,127,0,0,1245,796,0,1878,1340,247,270,1,3,163,84,609981,0
609884,1134,-1595,-52,-259,37,2392,842,817,363,555,1960,35696,-23,34,127,0,0,1305,626,0,1878,1340,247,280,1,3,163,84,609997,0
609894,1161,-1846,231,-254,47,2554,1222,832,154,457,1984,35688,-2,34,127,0,0,1383,741,0,1878,1340,247,290,1,3,163,84,609997,0
609904,1121,-1836,509,-338,-61,2722,1608,859,-48,513,2040,35681,4,34,127,0,0,1464,840,0,1878,1340,247,300,1,3,163,84,609997,0
609914,972,-1786,733,-439,-224,2855,2013,908,89,512,2160,35681,-4,34,127,0,0,1549,840,0,1878,1340,247,310,1,3,163,84,609997,0
609924,843,-1776,642,-515,-285,2868,2437,949,155,522,2288,35683,-7,34,127,0,0,1641,955,0,1878,1340,247,320,1,3,163,84,610012,0
609934,700,-1736,457,-586,-266,2745,2880,982,73,505,2280,35679,-25,34,127,0,0,1727,823,0,1878,1340,247,330,1,3,163,84,610012,0
609944,659,-1742,354,-528,-259,2584,3325,984,45,473,2272,35676,-16,34,127,0,0,1809,796,0,1878,1340,247,340,1,3,163,84,610012,0
609954,599,-1823,204,-467,-239,2408,3759,936,-17,440,2128,35679,-26,34,127,0,0,1883,714,0,1878,1340,247,350,1,3,163,84,610012,0
609964,582,-1796,288,-425,-283,2320,4165,881,-77,402,2000,35687,-17,34,127,0,0,1955,703,0,1878,1340,247,360,1,3,163,84,610012,0
609974,565,-1719,282,-379,-360,2155,4549,829,-91,398,1872,35684,-19,34,127,0,0,2023,697,0,1878,1340,247,370,1,3,163,84,610012,0
609984,455,-1725,216,-383,-400,2015,4906,770,-90,379,1744,35679,-13,34,127,0,0,2084,653,0,1878,1340,247,380,1,3,163,84,610012,0
609994,294,-1864,99,-379,-381,1756,5237,707,-106,402,1568,35685,-11,34,127,0,0,2133,510,0,1878,1340,247,390,1,3,163,84,610012,0
610004,153,-1932,75,-339,-329,1530,5544,658,-97,374,1416,35694,-37,34,127,0,0,2177,422,0,1878,1340,247,400,1,3,163,84,610012,0
610014,35,-1986,157,-291,-216,1132,5823,599,-100,370,1192,35704,-38,34,127,0,0,2221,324,0,1878,1340,247,410,1,3,163,84,610012,0
610024,3,-2088,301,-332,-187,894,6071,520,-104,373,992,35701,-28,34,127,0,0,2247,252,0,1878,1340,247,420,1,3,163,84,610028,0
610034,91,-2093,391,-384,-107,559,6280,429,-134,377,792,35697,-37,34,127,0,0,2271,230,0,1878,1340,247,430,1,3,163,84,610028,0
610044,193,-1986,297,-457,-25,351,6459,384,-129,386,608,35697,-29,34,127,0,0,2291,181,0,1878,1340,247,440,1,3,163,84,610028,0
610054,247,-1956,276,-527,-79,105,6612,322,-101,377,456,35714,-32,34,127,0,0,2299,104,0,1878,1340,247,450,1,3,163,84,610028,0
610064,315,-2034,324,-593,-161,-20,6725,229,-123,374,272,35722,-20,34,127,0,0,2313,104,0,1878,1340,247,460,1,3,163,84,610059,0
610074,240,-2156,437,-608,-223,-219,6807,147,-136,348,208,35730,-36,34,127,0,0,2318,71,0,1878,1340,247,470,1,3,163,84,610075,0
610084,175,-2218,517,-676,-257,-349,6854,89,-128,380,168,35720,-53,34,127,0,0,2328,71,0,1878,1340,247,480,1,3,163,84,610075,0
610094,315,-2257,511,-753,-272,-496,6878,56,-118,501,184,35714,-66,34,127,0,0,2334,10,0,1878,1340,247,490,1,3,163,84,610075,0
610104,509,-2204,347,-806,-278,-508,6917,97,-10,452,216,35701,-69,34,127,0,0,2351,131,0,1878,1340,247,500,1,3,163,84,610075,0
610114,665,-2166,135,-841,-333,-464,6961,110,39,539,272,35713,-78,34,127,0,0,2366,153,0,1878,1340,247,510,1,3,163,84,610106,0
610124,688,-2292,142,-842,-407,-336,7020,136,36,669,424,35725,-94,34,127,0,0,2400,335,0,1878,1340,247,520,1,3,163,84,610106,0
610134,656,-2538,315,-917,-476,-120,7113,223,88,636,584,35734,-89,34,127,0,0,2434,401,0,1878,1340,247,530,1,3,163,84,610106,0
610144,556,-2621,460,-939,-450,-4,7249,315,142,609,808,35721,-70,34,127,0,0,2497,593,0,1878,1340,247,540,1,3,163,84,610122,0
610154,525,-2646,421,-960,-437,140,7424,427,157,652,1072,35712,-44,34,127,0,0,2566,692,0,1878,1340,247,550,1,3,163,84,610153,0
610164,677,-2724,326,-984,-447,242,7644,525,166,722,1392,35712,-18,34,127,0,0,2654,906,0,1878,1340,247,560,1,3,163,84,610153,0
610174,782,-2762,164,-868,-694,505,7924,653,201,744,1712,35713,-30,34,127,0,0,2758,1010,0,1878,1340,247,570,1,3,163,84,610153,0
610184,472,-2765,37,-874,-837,788,8270,811,245,809,2184,35704,-12,34,127,0,0,2885,1290,0,1878,1340,247,580,1,3,163,84,610153,0
610194,238,-2974,79,-908,-891,1155,8698,1012,284,886,2808,35698,-1,34,127,0,0,3058,1741,0,1878,1340,247,590,1,3,163,84,610184,0
610204,79,-3069,74,-782,-791,1260,9248,1304,387,1097,3616,35693,27,34,127,0,0,3257,1994,0,1878,1340,247,600,1,3,163,84,610184,0
610214,-119,-2990,-11,-645,-648,1412,9940,1625,515,1144,4440,35692,39,34,127,0,0,3474,2202,0,1878,1340,247,610,1,3,163,84,610184,0
610224,-142,-2948,31,-616,-702,1541,10790,1965,580,1015,5104,35685,69,34,127,0,0,3712,2406,0,1878,1340,247,620,1,3,163,84,610200,0
610234,-303,-2962,248,-359,-811,1467,11774,2260,554,1104,5832,35678,97,34,127,0,0,3968,2526,0,1878,1340,247,630,1,3,163,84,610278,0
610244,-540,-2966,213,-262,-922,1437,12860,2430,458,962,6384,35669,128,34,127,0,0,4235,2735,0,1878,1340,247,640,1,3,163,84,610278,0
610254,-619,-3186,446,-395,-948,1351,14019,2615,326,1012,7040,35661,137,34,127,0,0,4517,2878,0,1878,1340,247,650,1,3,163,84,610294,0
610264,-608,-3301,503,-424,-924,1283,15320,2972,406,951,7408,35649,137,34,127,0,0,4799,2730,0,1878,1340,247,660,1,3,163,84,610294,0
610274,-3,-3681,515,-633,-999,959,16717,3087,481,820,7536,35638,144,34,127,0,0,5071,2724,0,1878,1340,247,670,1,3,163,84,610294,0
610284,-68,-3722,646,-746,-1005,635,18115,3056,180,612,7696,35630,141,34,127,0,0,5322,2510,0,1878,1340,247,680,1,3,163,84,610309,0
610294,236,-3385,671,-838,-970,5,19514,3094,-4,608,7232,35629,130,34,127,0,0,5555,2362,0,1878,1340,247,690,1,3,163,84,610309,0
610304,-74,-3034,759,-996,-1128,-531,20806,2650,-168,-371,4064,35650,87,34,127,0,0,5752,1878,0,1878,1340,247,700,1,3,163,84,610309,0
610314,397,-2795,647,-1499,-1747,-972,21685,1622,-1013,-1035,1912,35683,-3,34,127,0,0,5990,2482,0,1878,1340,247,710,1,3,163,84,610309,0
610324,1638,-3681,281,-1986,-1826,-2663,22210,990,-1505,-466,472,35717,-69,34,127,0,0,6172,1669,0,1878,1340,247,720,1,3,163,84,610309,0
610334,1377,-4556,434,-2280,-2392,-5387,22338,-220,-1388,-2498,-1720,35743,-96,34,127,0,0,6209,214,0,1878,1340,247,730,1,3,163,84,610309,0
610344,1478,-5245,614,-2350,-2577,-6932,21949,-1116,-1835,-1993,-4240,35740,-29,34,127,0,0,6114,-1071,0,1878,1340,247,740,0,3,163,84,610325,0
610354,1283,-4986,1008,-2608,-3001,-8067,21102,-2193,-1850,-2325,-6808,35707,89,34,127,0,0,5971,-1571,0,1878,1340,247,750,0,3,163,84,610340,0
610364,1338,-4734,947,-2735,-3195,-8408,19796,-3138,-1782,-1713,-8312,35647,225,34,127,0,0,5832,-1367,0,1878,1340,247,760,0,3,163,84,610340,0
610374,1156,-4084,330,-3130,-3615,-8624,18218,-3559,-1421,-1024,-9080,35610,283,34,127,0,0,5728,-1065,0,1878,1340,247,770,0,3,163,84,610340,0
610384,1279,-3782,119,-3346,-3735,-8666,16527,-3783,-716,-710,-9128,35612,281,34,127,0,0,5662,-637,0,1878,1340,247,780,0,3,163,84,610372,0
610394,1334,-3497,-17,-3475,-3857,-8680,14802,-3749,-296,-373,-8696,35639,197,34,127,0,0,5621,-362,0,1878,1340,247,790,0,3,163,84,610387,0
610404,1372,-3378,41,-3453,-3852,-8624,13209,-3414,198,-287,-8128,35651,125,34,127,0,0,5597,-214,0,1878,1340,247,800,0,3,163,84,610387,0
610414,1436,-3168,184,-3395,-3610,-8572,11685,-3338,402,-249,-7704,35662,67,34,127,0,0,5556,-395,0,1878,1340,247,810,0,3,163,84,610387,0
610424,1316,-2990,256,-3301,-3388,-8556,10214,-3178,217,-384,-7592,35675,33,34,127,0,0,5488,-818,0,1878,1340,247,820,0,3,163,84,610434,0
610434,1327,-2679,257,-3049,-2821,-8623,8833,-2904,248,666,-1592,35687,38,34,127,0,0,5350,-1494,0,1878,1340,247,830,0,3,163,84,610434,0
610444,670,-2167,118,-2701,-2382,-9339,8700,1062,2456,7137,5032,35694,4,34,127,0,0,5120,-2526,0,1878,1340,247,840,0,3,163,84,610434,0
610454,1488,-1689,-180,-2170,-1676,-8519,9742,2730,4934,2932,8576,35638,140,34,127,0,0,4835,-2916,0,1878,1340,247,850,0,3,163,84,610434,0
610464,417,-923,44,-1621,-1377,-7895,11468,4260,3458,3073,12192,35570,329,34,127,0,0,4494,-3389,0,1878,1340,247,860,0,3,163,84,610434,0
610474,-203,-306,173,-1225,-1465,-6134,13599,4478,2187,-659,6312,35508,572,34,127,0,0,4162,-3208,0,1878,1340,247,870,0,3,163,84,610450,0
610484,-56,79,262,-1232,-1370,-4965,14812,1924,-992,-3643,912,35617,218,34,127,0,0,3911,-2471,0,1878,1340,247,880,0,3,163,84,610481,0
610494,-538,783,-18,-656,-997,-4090,14972,-433,-3878,-3584,-2360,35697,-12,34,127,0,0,3647,-2620,0,1878,1340,247,890,0,3,163,84,610481,0
610504,-1108,1173,-724,-20,-34,-3884,14454,-1393,-3406,-1778,-4456,35758,-236,34,127,0,0,3339,-3153,0,1878,1340,247,900,0,3,163,84,610481,0
610514,-1312,1056,-697,814,1410,-2291,13585,-2119,-1935,-1672,-6056,35692,4,34,127,0,0,3017,-3191,0,1878,1340,247,910,0,3,163,84,610481,0
610524,-1505,824,-185,1099,2160,-851,12455,-2592,-1177,-786,-6304,35654,139,34,127,0,0,2799,-2081,0,1878,1340,247,920,0,3,163,84,610543,0
610534,-1770,994,490,1542,3368,950,11266,-2591,-620,-183,-5472,35658,129,34,127,0,0,2657,-1373,0,1878,1340,247,930,0,3,163,84,610559,0
610544,-1573,780,458,1783,4349,1870,10177,-2292,81,49,-4288,35673,78,34,127,0,0,2557,-939,0,1878,1340,247,940,0,3,163,84,610559,0
610554,-1574,474,308,2326,5763,3037,9273,-1872,554,131,-3264,35683,7,34,127,0,0,2476,-807,0,1878,1340,247,950,0,3,163,84,610559,0
610564,-1422,509,272,2691,6527,3744,8548,-1478,699,107,-2392,35690,-34,34,127,0,0,2410,-604,0,1878,1340,247,960,0,3,163,84,610559,0
610574,-900,766,267,2995,7183,4854,7985,-1140,662,60,-1664,35688,-46,34,127,0,0,2374,-379,0,1878,1340,247,970,0,3,163,84,610559,0
610584,-571,839,192,3039,7391,5561,7574,-807,597,8,-1048,35688,-40,34,127,0,0,2357,-175,0,1878,1340,247,980,0,3,163,84,610559,0
610594,-150,819,33,3094,7543,6303,7291,-553,538,-61,-576,35682,-60,34,127,0,0,2341,-164,0,1878,1340,247,990,0,3,163,84,610559,0
