state_time,accelx,accely,accelz,gyrox,gyroy,gyroz,mot_ang,mot_vel,mot_acc,mot_cur,mot_volt,batt_volt,batt_curr,temperature,status_mn,status_ex,status_re,ank_ang,ank_vel,ank_torque,peak_ank_torque,step_energy,step_count,step_time,gait_state,movement,speed,incline,sys_time,eventFlags
317067,174,-2026,320,-48,-9,-39,12688,0,0,49,48,35847,-45,32,127,0,0,3511,0,0,12942,3399,115,13331,-4,0,81,-2,317132,0
317077,171,-2019,317,-40,-5,-45,12687,-3,-8,36,16,35861,-54,32,127,0,0,3511,0,0,12942,3399,115,13341,-4,0,81,-2,317132,0
317087,175,-2019,320,-41,-9,-42,12687,-4,-2,46,40,35869,-51,32,127,0,0,3513,32,0,12942,3399,115,13351,-4,0,81,-2,317132,0
317097,193,-2017,326,-42,-7,-45,12688,-5,4,74,32,35860,-38,32,127,0,0,3513,10,0,12942,3399,115,13361,-4,0,81,-2,317132,0
317107,182,-2026,331,-43,-4,-49,12688,3,1,62,8,35855,-42,32,127,0,0,3511,-21,0,12942,3399,115,13371,-4,0,81,-2,317132,0
317117,172,-2025,325,-47,-13,-45,12689,9,-2,52,48,35866,-55,32,127,0,0,3511,10,0,12942,3399,115,13381,-4,0,81,-2,317132,0
317127,180,-2022,320,-48,-16,-48,12688,-6,5,109,16,35877,-48,32,127,0,0,3511,-32,0,12942,3399,115,13391,-4,0,81,-2,317132,0
317137,134,-2016,315,-42,-16,-53,12688,-4,-2,61,8,35871,-27,31,127,0,0,3513,0,0,12942,3399,115,13401,-4,0,81,-2,317164,0
317147,149,-2015,313,-43,-13,-59,12691,15,3,88,40,35863,-33,31,127,0,0,3511,-32,0,12942,3399,115,13411,-4,0,81,-2,317164,0
317157,191,-2022,314,-41,-5,-70,12688,-3,-6,67,32,35853,-33,32,127,0,0,3511,0,0,12942,3399,115,13421,-4,0,81,-2,317164,0
317167,200,-2023,328,-48,-8,-64,12690,-5,2,76,32,35864,-33,32,127,0,0,3511,-32,0,12942,3399,115,13431,-4,0,81,-2,317164,0
317177,167,-2024,329,-51,-10,-51,12688,-1,-1,41,48,35859,-28,32,127,0,0,3511,-21,0,12942,3399,115,13441,-4,0,81,-2,317164,0
317187,196,-2024,319,-49,-14,-52,12687,-8,-3,-13,-8,35849,-31,31,127,0,0,3511,32,0,12942,3399,115,13451,-4,0,81,-2,317179,0
317197,191,-2022,309,-49,-14,-51,12689,11,6,47,0,35863,-44,32,127,0,0,3511,0,0,12942,3399,115,13461,-4,0,81,-2,317179,0
317207,178,-2022,321,-47,-14,-48,12686,-15,-4,64,-32,35884,-43,32,127,0,0,3513,21,0,12942,3399,115,13471,-4,0,81,-2,317210,0
317217,210,-2017,324,-50,-13,-46,12689,0,-4,83,32,35891,-45,32,127,0,0,3513,10,0,12942,3399,115,13481,-4,0,81,-2,317210,0
317227,174,-2020,316,-41,0,-45,12688,-8,2,51,48,35868,-46,32,127,0,0,3511,0,0,12942,3399,115,13491,-4,0,81,-2,317210,0
317237,174,-2023,313,-49,-6,-37,12689,5,-4,46,8,35856,-52,32,127,0,0,3511,-21,0,12942,3399,115,13501,-4,0,81,-2,317226,0
317247,171,-2019,316,-50,-3,-36,12688,1,5,65,0,35859,-61,32,127,0,0,3513,10,0,12942,3399,115,13511,-4,0,81,-2,317226,0
317257,178,-2016,317,-44,-7,-30,12688,0,-1,56,8,35859,-54,32,127,0,0,3511,10,0,12942,3399,115,13521,-4,0,81,-2,317242,0
317267,194,-2025,317,-42,-10,-33,12688,-3,2,54,32,35856,-47,32,127,0,0,3511,21,0,12942,3399,115,13531,-4,0,81,-2,317273,0
317277,160,-2023,323,-41,-9,-37,12689,2,-1,54,40,35846,-44,32,127,0,0,3511,-21,0,12942,3399,115,13541,-4,0,81,-2,317273,0
317287,178,-2027,315,-46,-9,-20,12687,-12,-11,20,48,35853,-48,32,127,0,0,3513,21,0,12942,3399,115,13551,-4,0,81,-2,317273,0
317297,203,-2019,328,-46,-15,-14,12689,0,-2,35,40,35853,-58,32,127,0,0,3515,54,0,12942,3399,115,13561,-4,0,81,-2,317273,0
317307,174,-2024,317,-44,-13,-9,12691,14,4,149,48,35857,-51,32,127,0,0,3513,-32,0,12942,3399,115,13571,-4,0,81,-2,317304,0
317317,167,-2024,317,-41,-5,-15,12690,-1,-7,140,88,35853,-31,32,127,0,0,3517,32,0,12942,3399,115,13581,-4,0,81,-2,317304,0
317327,188,-2029,320,-47,-10,-6,12695,-2,-2,184,96,35857,-37,32,127,0,0,3517,21,0,12942,3399,115,13591,-4,0,81,-2,317304,0
317337,170,-2034,327,-44,-7,-19,12694,-7,-3,207,96,35856,-48,32,127,0,0,3517,0,0,12942,3399,115,13601,-4,0,81,-2,317320,0
317347,165,-2021,317,-47,-17,-20,12695,-4,-8,239,88,35866,-49,32,127,0,0,3520,21,0,12942,3399,115,13611,-4,0,81,-2,317429,0
317357,174,-2029,315,-46,-8,-29,12696,-8,-3,249,80,35858,-48,32,127,0,0,3517,0,0,12942,3399,115,13621,-4,0,81,-2,317429,0
317367,175,-2031,315,-41,-12,-32,12696,0,-1,273,136,35852,-56,32,127,0,0,3517,-10,0,12942,3399,115,13631,-4,0,81,-2,317429,0
317377,173,-2025,329,-36,-9,-32,12697,-9,-4,245,112,35852,-54,32,127,0,0,3520,-10,0,12942,3399,115,13641,-4,0,81,-2,317429,0
317387,170,-2013,328,-44,-7,-32,12700,6,3,290,128,35844,-51,32,127,0,0,3520,-32,0,12942,3399,115,13651,-4,0,81,-2,317429,0
317397,166,-2015,312,-41,-15,-30,12699,-8,-2,267,112,35837,-40,32,127,0,0,3522,10,0,12942,3399,115,13661,-4,0,81,-2,317445,0
317407,172,-2022,311,-40,-14,-24,12702,8,2,336,120,35838,-52,32,127,0,0,3524,0,0,12942,3399,115,13671,-4,0,81,-2,317445,0
317417,172,-2025,320,-42,-13,-24,12702,-3,4,344,128,35846,-65,32,127,0,0,3524,10,0,12942,3399,115,13681,-4,0,81,-2,317445,0
317427,165,-2022,326,-40,-16,-26,12703,5,-5,362,112,35851,-67,32,127,0,0,3522,-21,0,12942,3399,115,13691,-4,0,81,-2,317445,0
317437,146,-2021,324,-40,-19,-37,12704,11,3,379,176,35848,-56,32,127,0,0,3526,0,0,12942,3399,115,13701,-4,0,81,-2,317445,0
317447,156,-2023,323,-46,-15,-41,12707,5,3,382,128,35840,-55,32,127,0,0,3528,43,0,12942,3399,115,13711,-4,0,81,-2,317445,0
317457,174,-2025,331,-46,-10,-44,12708,3,1,441,112,35852,-54,32,127,0,0,3526,-10,0,12942,3399,115,13721,-4,0,81,-2,317445,0
317467,166,-2021,332,-44,-17,-53,12710,3,1,456,144,35871,-55,32,127,0,0,3528,-10,0,12942,3399,115,13731,-4,0,81,-2,317445,0
317477,146,-2026,325,-50,-14,-53,12714,15,3,456,136,35883,-45,32,127,0,0,3528,-21,0,12942,3399,115,13741,-4,0,81,-2,317460,0
317487,164,-2024,324,-51,-15,-57,12717,14,5,413,128,35883,-54,32,127,0,0,3528,-10,0,12942,3399,115,13751,-4,0,81,-2,317507,0
317497,170,-2038,320,-49,-12,-57,12720,6,-4,396,88,35879,-68,32,127,0,0,3528,0,0,12942,3399,115,13761,-4,0,81,-2,317507,0
317507,171,-2029,333,-50,-19,-61,12725,14,3,378,112,35866,-79,32,127,0,0,3528,0,0,12942,3399,115,13771,-4,0,81,-2,317507,0
317517,182,-2022,317,-53,-10,-56,12735,27,8,335,64,35861,-71,32,127,0,0,3528,0,0,12942,3399,115,13781,-4,0,81,-2,317507,0
317527,159,-2031,319,-51,-16,-55,12746,23,20,249,72,35844,-50,32,127,0,0,3528,21,0,12942,3399,115,13791,-4,0,81,-2,317523,0
317537,178,-2018,310,-50,-15,-52,12752,8,-7,215,64,35846,-51,32,127,0,0,3528,10,0,12942,3399,115,13801,-4,0,81,-2,317523,0
317547,180,-2018,311,-52,-15,-52,12750,-9,-22,204,112,35858,-48,32,127,0,0,3526,10,0,12942,3399,115,13811,-4,0,81,-2,317538,0
317557,170,-2022,307,-47,-9,-50,12752,0,-10,197,24,35864,-57,32,127,0,0,3528,10,0,12942,3399,115,13821,-4,0,81,-2,317538,0
317567,163,-2024,312,-44,-15,-46,12752,-4,-3,238,64,35850,-46,32,127,0,0,3528,0,0,12942,3399,115,13831,-4,0,81,-2,317554,0
317577,180,-2023,315,-39,-2,-42,12753,4,-5,223,56,35844,-36,32,127,0,0,3528,0,0,12942,3399,115,13841,-4,0,81,-2,317554,0
317587,175,-2026,322,-39,-12,-47,12751,3,-2,222,64,35855,-45,32,127,0,0,3528,0,0,12942,3399,115,13851,-4,0,81,-2,317585,0
317597,179,-2021,318,-45,-11,-52,12752,6,-2,224,96,35862,-54,32,127,0,0,3528,10,0,12942,3399,115,13861,-4,0,81,-2,317585,0
317607,198,-2013,321,-42,-5,-53,12753,-4,1,243,48,35853,-46,32,127,0,0,3528,-32,0,12942,3399,115,13871,-4,0,81,-2,317585,0
317617,162,-2014,317,-45,-13,-46,12752,5,-5,224,96,35847,-46,32,127,0,0,3531,21,0,12942,3399,115,13881,-4,0,81,-2,317617,0
317627,174,-2013,325,-40,-7,-52,12753,-8,-5,217,56,35846,-52,32,127,0,0,3528,0,0,12942,3399,115,13891,-4,0,81,-2,317617,0
317637,180,-2016,324,-42,-11,-51,12753,4,5,214,56,35858,-47,32,127,0,0,3528,0,0,12942,3399,115,13901,-4,0,81,-2,317617,0
317647,177,-2016,329,-41,-13,-46,12753,0,1,222,56,35870,-33,32,127,0,0,3528,-21,0,12942,3399,115,13911,-4,0,81,-2,317648,0
317657,176,-2026,326,-43,-9,-49,12753,0,2,215,56,35859,-23,32,127,0,0,3528,0,0,12942,3399,115,13921,-4,0,81,-2,317648,0
317667,171,-2024,325,-48,-16,-52,12753,4,0,215,56,35853,-43,32,127,0,0,3528,0,0,12942,3399,115,13931,-4,0,81,-2,317648,0
317677,181,-2028,316,-47,-11,-49,12752,-3,-1,197,-8,35858,-61,32,127,0,0,3528,10,0,12942,3399,115,13941,-4,0,81,-2,317663,0
317687,150,-2028,315,-50,-14,-49,12752,15,0,228,16,35856,-51,32,127,0,0,3528,-10,0,12942,3399,115,13951,-4,0,81,-2,317679,0
317697,176,-2038,314,-52,-16,-49,12753,-1,1,225,56,35855,-35,32,127,0,0,3528,0,0,12942,3399,115,13961,-4,0,81,-2,317679,0
317707,190,-2024,320,-45,-8,-51,12754,8,3,210,24,35846,-46,32,127,0,0,3528,0,0,12942,3399,115,13971,-4,0,81,-2,317695,0
317717,200,-2028,316,-43,-15,-43,12753,0,3,200,72,35853,-54,32,127,0,0,3528,0,0,12942,3399,115,13981,-4,0,81,-2,317726,0
317727,183,-2033,316,-44,-8,-45,12753,9,-4,197,24,35855,-67,32,127,0,0,3528,0,0,12942,3399,115,13991,-4,0,81,-2,317726,0
317737,198,-2026,313,-39,-10,-30,12754,7,0,216,56,35859,-56,32,127,0,0,3528,0,0,12942,3399,115,14001,-4,0,81,-2,317726,0
317747,203,-2029,314,-35,-9,-25,12752,-1,6,209,-8,35852,-55,32,127,0,0,3528,0,0,12942,3399,115,14011,-4,0,81,-2,317742,0
317757,206,-2021,304,-37,-10,-10,12753,13,2,225,56,35862,-52,32,127,0,0,3526,-21,0,12942,3399,115,14021,-4,0,81,-2,317742,0
317767,205,-2020,314,-30,-5,-12,12751,-9,-2,195,64,35861,-56,32,127,0,0,3528,21,0,12942,3399,115,14031,-4,0,81,-2,317742,0
317777,174,-2014,311,-24,-10,-2,12753,-4,3,204,24,35865,-54,32,127,0,0,3528,0,0,12942,3399,115,14041,-4,0,81,-2,317788,0
317787,154,-2032,306,-19,-3,7,12755,11,-1,243,40,35852,-45,32,127,0,0,3528,0,0,12942,3399,115,14051,-4,0,81,-2,317788,0
317797,233,-2014,319,-12,-18,23,12755,3,-3,309,88,35849,-43,32,127,0,0,3533,10,0,12942,3399,115,14061,-4,0,81,-2,317788,0
317807,197,-2029,309,-15,-21,33,12761,10,11,340,112,35855,-45,32,127,0,0,3535,0,0,12942,3399,115,14071,-4,0,81,-2,317788,0
317817,158,-2013,316,-13,-18,29,12763,6,3,371,104,35865,-45,32,127,0,0,3537,32,0,12942,3399,115,14081,-4,0,81,-2,317820,0
317827,152,-2018,326,-13,-13,16,12769,19,-3,437,136,35869,-42,32,127,0,0,3541,43,0,12942,3399,115,14091,-4,0,81,-2,317820,0
317837,159,-2017,333,-14,-12,13,12778,12,17,386,152,35871,-41,32,127,0,0,3544,54,0,12942,3399,115,14101,-4,0,81,-2,317820,0
317847,141,-2026,330,-17,-15,1,12794,47,16,386,112,35871,-41,32,127,0,0,3541,0,0,12942,3399,115,14111,-4,0,81,-2,317835,0
317857,151,-2030,317,-19,-8,0,12828,76,49,170,48,35873,-25,32,127,0,0,3544,32,0,12942,3399,115,14121,-4,0,81,-2,317851,0
317867,165,-2022,315,-17,-10,-9,12840,10,-4,231,64,35867,-13,32,127,0,0,3544,-21,0,12942,3399,115,14131,-4,0,81,-2,317867,0
317877,130,-2039,309,-11,-8,-26,12839,9,-72,290,88,35861,-21,32,127,0,0,3546,-32,0,12942,3399,115,14141,-4,0,81,-2,317867,0
317887,179,-2044,317,-15,-6,-26,12843,5,-4,266,80,35862,-20,32,127,0,0,3548,21,0,12942,3399,115,14151,-4,0,81,-2,317867,0
317897,177,-2030,313,-5,-7,-28,12847,11,5,275,72,35869,-18,32,127,0,0,3548,0,0,12942,3399,115,14161,-4,0,81,-2,317898,0
317907,172,-2037,308,-5,-11,-24,12851,5,4,205,72,35869,4,32,127,0,0,3546,-10,0,12942,3399,115,14171,-4,0,81,-2,317913,0
317917,165,-2021,312,4,-14,-24,12853,-2,-7,209,24,35861,6,32,127,0,0,3548,-10,0,12942,3399,115,14181,-4,0,81,-2,317913,0
317927,154,-2019,316,12,-5,-15,12853,0,-13,188,56,35856,-5,32,127,0,0,3548,21,0,12942,3399,115,14191,-4,0,81,-2,317913,0
317937,162,-2008,316,16,-11,-9,12861,21,6,183,88,35858,-11,32,127,0,0,3550,21,0,12942,3399,115,14201,-4,0,81,-2,317929,0
317947,171,-2009,318,18,-3,-3,12871,18,22,139,80,35865,-12,32,127,0,0,3550,21,0,12942,3399,115,14211,-4,0,81,-2,317929,0
317957,168,-2007,327,11,-7,0,12879,3,4,126,32,35858,3,32,127,0,0,3552,10,0,12942,3399,115,14221,-4,0,81,-2,317945,0
317967,153,-2003,329,20,-3,1,12878,-1,-27,192,48,35862,4,32,127,0,0,3552,21,0,12942,3399,115,14231,-4,0,81,-2,317960,0
317977,168,-2017,337,8,-4,-6,12881,-1,-10,210,40,35865,2,32,127,0,0,3555,10,0,12942,3399,115,14241,-4,0,81,-2,317960,0
317987,153,-2013,337,6,-6,-9,12884,16,7,292,88,35867,17,32,127,0,0,3557,-10,0,12942,3399,115,14251,-4,0,81,-2,317960,0
317997,161,-2013,338,3,-4,-10,12887,-5,10,254,88,35869,13,32,127,0,0,3559,32,0,12942,3399,115,14261,-4,0,81,-2,317992,0
318007,131,-2034,328,7,-3,-20,12890,6,0,337,96,35862,7,32,127,0,0,3559,0,0,12942,3399,115,14271,-4,0,81,-2,317996,0
318017,146,-2028,335,0,1,-29,12891,0,2,359,96,35874,-10,32,127,0,0,3561,-10,0,12942,3399,115,14281,-4,0,81,-2,318011,0
318027,135,-2040,342,-6,3,-30,12890,1,-15,335,104,35884,-6,32,127,0,0,3557,-21,0,12942,3399,115,14291,-4,0,81,-2,318027,0
318037,143,-2035,347,-5,0,-41,12891,2,-2,311,96,35865,6,32,127,0,0,3561,21,0,12942,3399,115,14301,-4,0,81,-2,318027,0
318047,142,-2034,346,-17,0,-44,12891,-6,4,353,88,35867,11,32,127,0,0,3561,21,0,12942,3399,115,14311,-4,0,81,-2,318043,0
318057,157,-2035,347,-22,-4,-47,12892,3,3,369,88,35857,7,32,127,0,0,3563,21,0,12942,3399,115,14321,-4,0,81,-2,318058,0
318067,133,-2024,348,-30,-12,-44,12893,0,0,372,128,35861,5,32,127,0,0,3559,-10,0,12942,3399,115,14331,-4,0,81,-2,318058,0
318077,135,-2019,344,-40,-8,-57,12891,0,1,325,96,35849,5,32,127,0,0,3559,-10,0,12942,3399,115,14341,-4,0,81,-2,318058,0
318087,146,-2014,346,-47,-12,-56,12892,0,-2,319,96,35851,3,32,127,0,0,3559,10,0,12942,3399,115,14351,-4,0,81,-2,318090,0
318097,152,-2018,332,-37,-8,-56,12892,3,6,351,112,35859,-3,32,127,0,0,3559,-10,0,12942,3399,115,14361,-4,0,81,-2,318105,0
318107,157,-2015,330,-39,-9,-65,12891,-5,5,342,128,35863,1,32,127,0,0,3557,-43,0,12942,3399,115,14371,-4,0,81,-2,318105,0
318117,141,-2016,324,-38,-3,-65,12892,0,-7,312,96,35857,4,32,127,0,0,3561,32,0,12942,3399,115,14381,-4,0,81,-2,318105,0
318127,164,-2017,324,-40,0,-58,12893,-5,4,355,88,35847,26,32,127,0,0,3559,0,0,12942,3399,115,14391,-4,0,81,-2,318121,0
318137,188,-2019,323,-39,-7,-59,12891,0,-5,318,56,35847,27,32,127,0,0,3559,21,0,12942,3399,115,14401,-4,0,81,-2,318121,0
318147,166,-2024,316,-36,-8,-53,12893,6,2,341,120,35870,15,32,127,0,0,3559,-10,0,12942,3399,115,14411,-4,0,81,-2,318152,0
318157,167,-2023,325,-26,-2,-42,12893,7,-4,348,80,35876,17,32,127,0,0,3559,-10,0,12942,3399,115,14421,-4,0,81,-2,318168,0
318167,161,-2022,330,-28,-8,-41,12891,-1,-2,339,96,35885,16,32,127,0,0,3557,-32,0,12942,3399,115,14431,-4,0,81,-2,318168,0
318177,159,-2018,335,-29,-4,-39,12891,2,4,289,104,35880,20,32,127,0,0,3557,-10,0,12942,3399,115,14441,-4,0,81,-2,318168,0
318187,184,-2027,334,-28,-4,-37,12891,-7,2,298,104,35888,5,32,127,0,0,3557,-21,0,12942,3399,115,14451,-4,0,81,-2,318168,0
318197,155,-2022,330,-30,-2,-33,12893,5,1,304,88,35892,5,32,127,0,0,3559,0,0,12942,3399,115,14461,-4,0,81,-2,318183,0
318207,159,-2020,334,-28,-3,-31,12892,-14,1,340,128,35888,-9,32,127,0,0,3559,0,0,12942,3399,115,14471,-4,0,81,-2,318214,0
318217,172,-2026,336,-27,4,-27,12893,-2,-7,326,88,35886,-14,32,127,0,0,3559,0,0,12942,3399,115,14481,-4,0,81,-2,318214,0
318227,170,-2021,333,-24,1,-19,12893,0,1,327,56,35873,-18,32,127,0,0,3557,-32,0,12942,3399,115,14491,-4,0,81,-2,318214,0
318237,152,-2024,334,-32,4,-22,12891,9,-3,311,64,35875,3,32,127,0,0,3557,-32,0,12942,3399,115,14501,-4,0,81,-2,318214,0
318247,161,-2020,332,-28,4,-20,12890,-3,-4,274,104,35873,36,32,127,0,0,3559,32,0,12942,3399,115,14511,-4,0,81,-2,318246,0
318257,191,-2023,340,-34,0,-15,12893,-8,3,285,104,35872,28,32,127,0,0,3559,32,0,12942,3399,115,14521,-4,0,81,-2,318246,0
318267,175,-2027,343,-32,4,-4,12892,7,-1,321,88,35867,-4,32,127,0,0,3561,21,0,12942,3399,115,14531,-4,0,81,-2,318246,0
318277,162,-2027,348,-37,-1,16,12892,0,-6,353,128,35867,-5,32,127,0,0,3559,10,0,12942,3399,115,14541,-4,0,81,-2,318277,0
318287,187,-2009,346,-37,-14,22,12893,-4,-2,341,160,35871,16,32,127,0,0,3561,43,0,12942,3399,115,14551,-4,0,81,-2,318277,0
318297,165,-2025,341,-44,-15,22,12897,10,3,425,128,35862,29,32,127,0,0,3563,10,0,12942,3399,115,14561,-4,0,81,-2,318293,0
318307,157,-2011,332,-47,-13,12,12898,-4,-1,462,160,35855,17,32,127,0,0,3566,21,0,12942,3399,115,14571,-4,0,81,-2,318293,0
318317,147,-2021,343,-50,-11,7,12901,5,-4,508,128,35855,9,32,127,0,0,3566,10,0,12942,3399,115,14581,-4,0,81,-2,318324,0
318327,145,-2016,339,-58,-10,2,12904,0,3,505,192,35854,9,32,127,0,0,3570,32,0,12942,3399,115,14591,-4,0,81,-2,318324,0
318337,135,-2013,338,-51,-5,-9,12910,15,3,471,152,35850,13,32,127,0,0,3570,32,0,12942,3399,115,14601,-4,0,81,-2,318324,0
318347,130,-2027,335,-54,-7,-19,12920,31,14,472,144,35844,4,32,127,0,0,3570,0,0,12942,3399,115,14611,-4,0,81,-2,318324,0
318357,146,-2022,341,-56,-2,-32,12941,46,26,327,104,35858,-3,32,127,0,0,3570,0,0,12942,3399,115,14621,-4,0,81,-2,318355,0
318367,156,-2031,344,-57,-8,-33,12954,8,0,283,80,35870,-15,32,127,0,0,3572,21,0,12942,3399,115,14631,-4,0,81,-2,318355,0
318377,152,-2029,336,-55,-8,-37,12953,8,-46,361,72,35855,-19,32,127,0,0,3572,-10,0,12942,3399,115,14641,-4,0,81,-2,318355,0
318387,133,-2037,338,-62,-5,-47,12953,0,-16,348,112,35851,-26,32,127,0,0,3570,-10,0,12942,3399,115,14651,-4,0,81,-2,318371,0
318397,187,-2035,331,-63,-10,-51,12951,-14,-4,285,120,35849,-31,32,127,0,0,3570,21,0,12942,3399,115,14661,-4,0,81,-2,318371,0
318407,181,-2033,332,-68,-13,-49,12953,2,3,300,72,35859,-30,32,127,0,0,3570,10,0,12942,3399,115,14671,-4,0,81,-2,318402,0
318417,142,-2019,332,-62,-13,-41,12953,0,5,297,112,35856,-21,32,127,0,0,3570,10,0,12942,3399,115,14681,-4,0,81,-2,318418,0
318427,172,-2022,329,-63,-10,-48,12954,-3,-5,294,80,35849,-11,32,127,0,0,3570,0,0,12942,3399,115,14691,-4,0,81,-2,318418,0
318437,155,-2018,334,-63,-15,-43,12953,8,-1,317,112,35855,-15,32,127,0,0,3570,0,0,12942,3399,115,14701,-4,0,81,-2,318418,0
318447,173,-2016,325,-61,-8,-53,12953,0,1,291,80,35861,-26,32,127,0,0,3570,10,0,12942,3399,115,14711,-4,0,81,-2,318511,0
318457,182,-2014,323,-59,-12,-39,12953,-3,-1,275,88,35863,-34,32,127,0,0,3568,-10,0,12942,3399,115,14721,-4,0,81,-2,318511,0
318467,181,-2018,321,-51,-11,-41,12954,8,3,275,80,35861,-34,32,127,0,0,3568,-21,0,12942,3399,115,14731,-4,0,81,-2,318511,0
318477,135,-2022,313,-44,-16,-33,12950,-9,-3,277,88,35851,-37,32,127,0,0,3570,-10,0,12942,3399,115,14741,-4,0,81,-2,318511,0
318487,151,-2023,314,-38,-8,-36,12953,0,-4,282,80,35851,-31,32,127,0,0,3572,21,0,12942,3399,115,14751,-4,0,81,-2,318511,0
318497,209,-2021,308,-35,-5,-25,12953,1,-1,273,128,35846,-20,32,127,0,0,3570,32,0,12942,3399,115,14761,-4,0,81,-2,318527,0
318507,220,-2023,318,-35,-2,-26,12953,-3,1,277,80,35836,-7,32,127,0,0,3572,21,0,12942,3399,115,14771,-4,0,81,-2,318527,0
318517,203,-2026,329,-25,-3,-8,12953,4,6,296,80,35832,-19,32,127,0,0,3570,21,0,12942,3399,115,14781,-4,0,81,-2,318527,0
318527,173,-2036,321,-28,-2,-9,12953,-3,-1,289,80,35835,-22,32,127,0,0,3572,32,0,12942,3399,115,14791,-4,0,81,-2,318527,0
318537,188,-2026,340,-23,-6,-1,12954,2,5,323,112,35846,-23,32,127,0,0,3570,0,0,12942,3399,115,14801,-4,0,81,-2,318527,0
318547,170,-2022,333,-22,2,0,12954,5,-3,291,80,35852,-11,32,127,0,0,3574,54,0,12942,3399,115,14811,-4,0,81,-2,318527,0
318557,168,-2029,317,-21,-8,22,12956,3,3,343,112,35855,-5,32,127,0,0,3572,10,0,12942,3399,115,14821,-4,0,81,-2,318558,0
318567,171,-2014,314,-11,-9,30,12954,-6,3,359,104,35857,-31,32,127,0,0,3572,0,0,12942,3399,115,14831,-4,0,81,-2,318558,0
318577,180,-2016,310,-4,-5,53,12956,4,0,375,120,35854,-35,32,127,0,0,3574,10,0,12942,3399,115,14841,-4,0,81,-2,318558,0
318587,184,-2012,320,-3,-1,64,12958,12,2,422,136,35853,-45,32,127,0,0,3577,10,0,12942,3399,115,14851,-4,0,81,-2,318574,0
318597,173,-2021,338,-2,-11,98,12963,16,14,462,160,35847,-37,32,127,0,0,3583,54,0,12942,3399,115,14861,-4,0,81,-2,318605,0
318607,175,-2019,333,4,-11,116,12979,44,29,510,160,35854,-46,32,127,0,0,3585,21,0,12942,3399,115,14871,-4,0,81,-2,318605,0
318617,173,-2016,326,6,-8,143,13019,109,62,328,144,35860,-60,32,127,0,0,3590,65,0,12942,3399,115,14881,-4,0,81,-2,318605,0
318627,207,-2020,334,13,-10,155,13062,95,57,283,160,35858,-63,32,127,0,0,3596,43,0,12942,3399,115,14891,-4,0,81,-2,318605,0
318637,210,-2030,350,7,-13,185,13092,38,-14,271,136,35854,-51,32,127,0,0,3603,87,0,12942,3399,115,14901,-4,0,81,-2,318636,0
318647,126,-2032,339,9,-12,189,13103,35,-74,497,184,35859,-52,32,127,0,0,3610,43,0,12942,3399,115,14911,-4,0,81,-2,318652,0
318657,134,-2031,343,11,-11,189,13136,89,7,397,192,35866,-61,32,127,0,0,3618,98,0,12942,3399,115,14921,-4,0,81,-2,318652,0
318667,166,-2012,345,4,-16,192,13181,97,74,368,160,35856,-61,32,127,0,0,3625,76,0,12942,3399,115,14931,-4,0,81,-2,318652,0
318677,137,-2023,346,-3,-24,203,13230,98,27,277,144,35854,-51,32,127,0,0,3629,54,0,12942,3399,115,14941,-4,0,81,-2,318652,0
318687,57,-2011,348,-4,-9,168,13276,108,-1,277,112,35855,-63,32,127,0,0,3636,21,0,12942,3399,115,14951,-4,0,81,-2,318714,0
318697,88,-2002,345,-10,-4,137,13297,27,-53,358,112,35863,-98,32,127,0,0,3645,87,0,12942,3399,115,14961,-4,0,81,-2,318714,0
318707,46,-2014,346,-18,1,121,13321,80,-40,462,192,35855,-118,32,127,0,0,3647,21,0,12942,3399,115,14971,-4,0,81,-2,318730,0
318717,112,-2007,351,-20,-6,79,13356,52,34,368,136,35841,-102,32,127,0,0,3651,21,0,12942,3399,115,14981,-4,0,81,-2,318730,0
318727,59,-2025,342,-22,-1,67,13374,40,-16,352,176,35838,-72,32,127,0,0,3654,43,0,12942,3399,115,14991,-4,0,81,-2,318730,0
318737,92,-2025,341,-27,-4,40,13404,47,-5,248,120,35843,-67,32,127,0,0,3656,21,0,12942,3399,115,15001,-4,0,81,-2,318730,0
318747,69,-2031,344,-25,-3,8,13411,-1,-30,318,136,35849,-60,32,127,0,0,3660,32,0,12942,3399,115,15011,-4,0,81,-2,318730,0
318757,74,-2036,348,-35,0,-21,13412,0,-53,330,144,35850,-60,32,127,0,0,3660,43,0,12942,3399,115,15021,-4,0,81,-2,318730,0
318767,84,-2033,356,-36,5,-44,13416,9,-1,352,40,35852,-48,32,127,0,0,3658,-21,0,12942,3399,115,15031,-4,0,81,-2,318761,0
318777,108,-2040,369,-44,-8,-64,13416,0,-2,356,112,35864,-50,32,127,0,0,3660,21,0,12942,3399,115,15041,-4,0,81,-2,318761,0
318787,102,-2043,365,-46,-11,-68,13426,27,7,336,88,35861,-53,32,127,0,0,3660,0,0,12942,3399,115,15051,-4,0,81,-2,318761,0
318797,112,-2029,363,-58,-18,-80,13440,36,31,219,64,35867,-54,32,127,0,0,3660,0,0,12942,3399,115,15061,-4,0,81,-2,318871,0
318807,121,-2036,361,-56,-10,-80,13450,5,5,138,40,35858,-32,32,127,0,0,3660,10,0,12942,3399,115,15071,-4,0,81,-2,318871,0
318817,122,-2029,349,-70,-13,-95,13448,-2,-35,162,48,35857,-43,32,127,0,0,3660,-10,0,12942,3399,115,15081,-4,0,81,-2,318871,0
318827,108,-2020,331,-68,-6,-107,13449,2,-17,84,32,35859,-59,32,127,0,0,3660,0,0,12942,3399,115,15091,-4,0,81,-2,318871,0
318837,113,-2016,319,-54,1,-112,13447,0,8,57,-48,35852,-53,31,127,0,0,3658,10,0,12942,3399,115,15101,-4,0,81,-2,318886,0
318847,128,-2018,326,-46,7,-111,13445,1,0,9,-16,35846,-45,32,127,0,0,3649,-76,0,12942,3399,115,15111,-4,0,81,-2,318886,0
318857,150,-2018,333,-47,0,-97,13436,-29,-17,-134,-24,35846,-43,32,127,0,0,3651,-10,0,12942,3399,115,15121,-4,0,81,-2,318886,0
318867,135,-2021,337,-44,-4,-84,13432,0,-4,-117,-48,35850,-57,32,127,0,0,3649,-10,0,12942,3399,115,15131,-4,0,81,-2,318886,0
318877,156,-2022,351,-45,-5,-72,13428,-10,13,-168,-32,35857,-53,32,127,0,0,3649,21,0,12942,3399,115,15141,-4,0,81,-2,318886,0
318887,126,-2030,342,-51,-11,-67,13425,-11,-4,-120,-56,35854,-41,32,127,0,0,3645,-21,0,12942,3399,115,15151,-4,0,81,-2,318886,0
318897,125,-2025,339,-56,-6,-70,13414,-36,-10,-134,-24,35852,-25,32,127,0,0,3645,-32,0,12942,3399,115,15161,-4,0,81,-2,318886,0
318907,112,-2018,345,-59,-13,-78,13397,-35,-29,-88,-16,35852,-33,32,127,0,0,3645,10,0,12942,3399,115,15171,-4,0,81,-2,318886,0
318917,104,-2024,343,-63,-7,-80,13395,0,21,-93,-40,35865,-41,32,127,0,0,3643,-10,0,12942,3399,115,15181,-4,0,81,-2,318917,0
318927,97,-2020,358,-62,-1,-95,13392,-4,29,-140,-64,35867,-45,32,127,0,0,3640,-10,0,12942,3399,115,15191,-4,0,81,-2,318917,0
318937,116,-2022,361,-76,-2,-118,13388,-3,-16,-176,-48,35861,-34,32,127,0,0,3638,-43,0,12942,3399,115,15201,-4,0,81,-2,318917,0
318947,119,-2021,350,-83,-9,-117,13382,-17,-3,-262,-96,35851,-35,32,127,0,0,3636,-10,0,12942,3399,115,15211,-4,0,81,-2,318933,0
318957,113,-2024,352,-91,-8,-126,13374,-20,-12,-272,-48,35855,-43,32,127,0,0,3634,0,0,12942,3399,115,15221,-4,0,81,-2,318949,0
318967,123,-2025,346,-96,-8,-125,13361,-36,-15,-245,-96,35862,-45,32,127,0,0,3634,-10,0,12942,3399,115,15231,-4,0,81,-2,318964,0
318977,141,-2022,343,-104,-9,-136,13328,-80,-54,-45,-32,35856,-43,32,127,0,0,3627,-65,0,12942,3399,115,15241,-4,0,81,-2,318964,0
318987,137,-2027,338,-102,-2,-124,13317,-1,1,-146,-48,35861,-53,32,127,0,0,3627,-10,0,12942,3399,115,15251,-4,0,81,-2,318964,0
318997,169,-2025,344,-109,-13,-109,13317,-9,67,-188,-80,35863,-73,32,127,0,0,3625,-21,0,12942,3399,115,15261,-4,0,81,-2,318996,0
319007,143,-2013,335,-108,-20,-111,13313,-12,7,-243,-64,35875,-96,32,127,0,0,3623,-32,0,12942,3399,115,15271,-4,0,81,-2,318996,0
319017,142,-2027,330,-110,-12,-104,13302,-26,-21,-276,-32,35862,-97,32,127,0,0,3623,-10,0,12942,3399,115,15281,-4,0,81,-2,318996,0
319027,128,-2033,332,-107,-8,-100,13284,-56,-29,-196,-48,35865,-100,32,127,0,0,3621,0,0,12942,3399,115,15291,-4,0,81,-2,319011,0
319037,81,-2033,334,-109,-6,-115,13267,3,-14,-67,0,35870,-112,32,127,0,0,3618,-32,0,12942,3399,115,15301,-4,0,81,-2,319011,0
319047,168,-2018,339,-108,-13,-103,13266,-32,45,-244,-16,35884,-119,32,127,0,0,3616,10,0,12942,3399,115,15311,-4,0,81,-2,319058,0
319057,117,-2038,336,-106,-13,-110,13265,12,17,-209,-104,35881,-105,32,127,0,0,3612,-65,0,12942,3399,115,15321,-4,0,81,-2,319058,0
319067,149,-2015,341,-113,-10,-117,13256,-31,-8,-352,-56,35863,-96,32,127,0,0,3610,0,0,12942,3399,115,15331,-4,0,81,-2,319058,0
319077,142,-2028,331,-116,-8,-117,13251,-9,-8,-385,-104,35859,-110,32,127,0,0,3610,0,0,12942,3399,115,15341,-4,0,81,-2,319074,0
319087,137,-2023,331,-113,-3,-121,13244,-19,11,-408,-80,35857,-126,32,127,0,0,3607,-10,0,12942,3399,115,15351,-4,0,81,-2,319074,0
319097,148,-2016,327,-118,-11,-118,13238,-27,-8,-382,-136,35866,-125,32,127,0,0,3607,0,0,12942,3399,115,15361,-4,0,81,-2,319074,0
319107,142,-2016,328,-124,-13,-114,13213,-69,-39,-294,-64,35870,-112,32,127,0,0,3601,-43,0,12942,3399,115,15371,-4,0,81,-2,319105,0
319117,111,-2025,318,-117,-5,-130,13188,-27,-36,-222,-80,35875,-97,32,127,0,0,3599,-65,0,12942,3399,115,15381,-4,0,81,-2,319105,0
319127,160,-2015,327,-118,-4,-125,13185,-7,54,-349,-56,35875,-98,32,127,0,0,3596,-21,0,12942,3399,115,15391,-4,0,81,-2,319121,0
319137,163,-2019,321,-124,-10,-122,13183,-17,44,-400,-112,35872,-83,32,127,0,0,3596,0,0,12942,3399,115,15401,-4,0,81,-2,319121,0
319147,147,-2020,323,-121,-11,-116,13170,-42,-22,-373,-144,35862,-48,32,127,0,0,3594,-21,0,12942,3399,115,15411,-4,0,81,-2,319152,0
319157,137,-2016,329,-118,-6,-126,13137,-76,-57,-168,-40,35859,-49,32,127,0,0,3590,-54,0,12942,3399,115,15421,-4,0,81,-2,319167,0
319167,131,-2029,324,-120,3,-121,13129,-8,1,-257,-104,35859,-59,32,127,0,0,3590,0,0,12942,3399,115,15431,-4,0,81,-2,319167,0
319177,160,-2021,328,-120,-2,-117,13127,-5,64,-318,-72,35856,-81,32,127,0,0,3583,-43,0,12942,3399,115,15441,-4,0,81,-2,319199,0
319187,161,-2023,321,-124,-9,-107,13118,-31,-6,-358,-96,35852,-69,32,127,0,0,3583,-10,0,12942,3399,115,15451,-4,0,81,-2,319214,0
319197,157,-2033,309,-116,-14,-105,13098,-60,-39,-255,-72,35848,-56,32,127,0,0,3581,-43,0,12942,3399,115,15461,-4,0,81,-2,319214,0
319207,153,-2030,309,-111,-6,-105,13067,-49,-43,-108,-48,35845,-51,32,127,0,0,3579,-21,0,12942,3399,115,15471,-4,0,81,-2,319214,0
319217,193,-2030,314,-107,-4,-84,13070,1,56,-237,-64,35849,-59,32,127,0,0,3577,-54,0,12942,3399,115,15481,-4,0,81,-2,319230,0
319227,183,-2027,311,-100,-9,-79,13066,0,34,-286,-32,35851,-69,32,127,0,0,3577,0,0,12942,3399,115,15491,-4,0,81,-2,319230,0
319237,181,-2033,298,-94,-16,-63,13066,0,-5,-267,-88,35844,-65,32,127,0,0,3577,-21,0,12942,3399,115,15501,-4,0,81,-2,319230,0
319247,156,-2036,302,-86,-9,-52,13065,0,4,-304,-80,35838,-51,32,127,0,0,3577,-10,0,12942,3399,115,15511,-4,0,81,-2,319230,0
319257,141,-2027,306,-72,-5,-42,13067,14,3,-244,-88,35851,-48,32,127,0,0,3577,-54,0,12942,3399,115,15521,-4,0,81,-2,319261,0
319267,157,-2026,302,-68,-5,-37,13064,-11,-2,-286,-104,35858,-43,32,127,0,0,3577,0,0,12942,3399,115,15531,-4,0,81,-2,319277,0
319277,184,-2023,301,-58,-6,-28,13066,8,-4,-281,-112,35860,-40,32,127,0,0,3574,-21,0,12942,3399,115,15541,-4,0,81,-2,319277,0
319287,154,-2022,298,-49,-7,-27,13062,-1,1,-288,-40,35849,-40,32,127,0,0,3577,32,0,12942,3399,115,15551,-4,0,81,-2,319277,0
319297,153,-2025,305,-44,-4,-29,13065,-6,3,-286,-40,35847,-53,32,127,0,0,3577,-10,0,12942,3399,115,15561,-4,0,81,-2,319292,0
319307,144,-2029,301,-44,-2,-37,13063,3,-4,-283,-104,35854,-62,32,127,0,0,3577,0,0,12942,3399,115,15571,-4,0,81,-2,319308,0
319317,146,-2027,312,-42,-8,-28,13062,-3,-2,-264,-40,35857,-59,32,127,0,0,3574,-21,0,12942,3399,115,15581,-4,0,81,-2,319308,0
319327,177,-2028,307,-35,1,-36,13062,-14,-7,-297,-104,35869,-70,32,127,0,0,3577,0,0,12942,3399,115,15591,-4,0,81,-2,319339,0
319337,156,-2024,297,-28,-12,-27,13064,4,6,-268,-72,35879,-72,32,127,0,0,3574,-32,0,12942,3399,115,15601,-4,0,81,-2,319339,0
319347,162,-2024,295,-25,-3,-38,13062,0,1,-289,-104,35873,-67,32,127,0,0,3574,-21,0,12942,3399,115,15611,-4,0,81,-2,319339,0
319357,169,-2024,308,-20,-6,-28,13062,-9,1,-319,-24,35859,-56,32,127,0,0,3577,21,0,12942,3399,115,15621,-4,0,81,-2,319339,0
319367,175,-2015,314,-18,-3,-25,13064,0,6,-299,-32,35842,-41,32,127,0,0,3574,-10,0,12942,3399,115,15631,-4,0,81,-2,319355,0
319377,127,-2019,326,-23,-12,-24,13063,-1,-1,-277,-40,35844,-52,32,127,0,0,3577,0,0,12942,3399,115,15641,-4,0,81,-2,319386,0
319387,148,-2012,328,-24,-12,-33,13063,-9,-5,-259,-48,35857,-62,32,127,0,0,3577,-10,0,12942,3399,115,15651,-4,0,81,-2,319386,0
319397,142,-2020,314,-24,-2,-30,13063,-7,-3,-275,-72,35855,-62,31,127,0,0,3577,0,0,12942,3399,115,15661,-4,0,81,-2,319402,0
319407,151,-2026,320,-25,-5,-25,13064,0,-1,-241,-56,35857,-52,31,127,0,0,3577,-21,0,12942,3399,115,15671,-4,0,81,-2,319402,0
319417,108,-2017,314,-20,-6,-28,13065,1,-1,-213,-96,35848,-44,32,127,0,0,3574,-54,0,12942,3399,115,15681,-4,0,81,-2,319402,0
319427,152,-2029,316,-16,-12,-30,13063,-10,-7,-252,-40,35866,-58,32,127,0,0,3577,0,0,12942,3399,115,15691,-4,0,81,-2,319449,0
319437,169,-2025,317,-19,-1,-25,13065,-9,0,-271,-40,35879,-63,32,127,0,0,3577,0,0,12942,3399,115,15701,-4,0,81,-2,319449,0
319447,152,-2030,312,-18,-4,-30,13064,8,1,-254,-40,35874,-56,32,127,0,0,3579,10,0,12942,3399,115,15711,-4,0,81,-2,319449,0
319457,149,-2029,319,-21,-9,-26,13064,-7,-1,-188,-16,35862,-56,32,127,0,0,3579,0,0,12942,3399,115,15721,-4,0,81,-2,319449,0
319467,142,-2031,319,-19,-6,-27,13066,0,-3,-195,-56,35849,-57,32,127,0,0,3581,0,0,12942,3399,115,15731,-4,0,81,-2,319464,0
319477,150,-2024,320,-19,-10,-27,13065,0,-2,-181,-24,35861,-63,32,127,0,0,3581,32,0,12942,3399,115,15741,-4,0,81,-2,319464,0
319487,150,-2020,324,-18,-2,-35,13066,0,2,-173,-24,35873,-68,32,127,0,0,3579,-10,0,12942,3399,115,15751,-4,0,81,-2,319464,0
319497,156,-2021,324,-25,-9,-33,13066,3,-1,-160,0,35870,-70,32,127,0,0,3581,10,0,12942,3399,115,15761,-4,0,81,-2,319511,0
319507,158,-2029,325,-31,-12,-20,13067,-11,1,-108,-16,35874,-75,32,127,0,0,3581,-10,0,12942,3399,115,15771,-4,0,81,-2,319511,0
319517,139,-2022,317,-29,-11,-24,13068,1,2,-95,-16,35860,-67,32,127,0,0,3583,-21,0,12942,3399,115,15781,-4,0,81,-2,319511,0
319527,149,-2025,319,-30,-13,-22,13067,0,-5,-98,-16,35861,-61,32,127,0,0,3583,21,0,12942,3399,115,15791,-4,0,81,-2,319527,0
319537,156,-2024,324,-28,-11,-19,13069,0,2,-70,-16,35846,-39,32,127,0,0,3583,0,0,12942,3399,115,15801,-4,0,81,-2,319527,0
319547,145,-2029,316,-26,-4,-15,13070,9,4,-49,-16,35846,-40,32,127,0,0,3585,10,0,12942,3399,115,15811,-4,0,81,-2,319527,0
319557,154,-2029,315,-28,-8,-8,13071,5,2,4,40,35849,-53,32,127,0,0,3585,0,0,12942,3399,115,15821,-4,0,81,-2,319542,0
319567,164,-2023,323,-35,-13,-7,13072,-3,7,-43,-24,35846,-56,32,127,0,0,3585,10,0,12942,3399,115,15831,-4,0,81,-2,319558,0
319577,133,-2025,334,-31,-10,0,13075,23,-2,11,32,35845,-53,32,127,0,0,3588,0,0,12942,3399,115,15841,-4,0,81,-2,319589,0
319587,146,-2023,336,-36,-17,-9,13073,-3,1,40,56,35847,-61,32,127,0,0,3590,54,0,12942,3399,115,15851,-4,0,81,-2,319589,0
319597,132,-2026,331,-43,-9,-2,13082,16,7,129,-8,35845,-74,32,127,0,0,3590,-21,0,12942,3399,115,15861,-4,0,81,-2,319589,0
319607,116,-2019,325,-44,-14,-19,13079,8,-5,151,72,35844,-59,32,127,0,0,3592,32,0,12942,3399,115,15871,-4,0,81,-2,319589,0
319617,130,-2022,325,-47,-10,-20,13084,5,3,192,8,35839,-45,32,127,0,0,3594,0,0,12942,3399,115,15881,-4,0,81,-2,319652,0
319627,103,-2021,327,-48,-6,-29,13085,18,5,245,80,35843,-39,32,127,0,0,3592,-10,0,12942,3399,115,15891,-4,0,81,-2,319652,0
319637,146,-2017,320,-48,-8,-30,13084,-13,-14,220,72,35844,-50,32,127,0,0,3592,0,0,12942,3399,115,15901,-4,0,81,-2,319652,0
319647,157,-2024,325,-46,-9,-22,13085,-9,-1,213,72,35849,-58,32,127,0,0,3594,21,0,12942,3399,115,15911,-4,0,81,-2,319652,0
319657,142,-2026,328,-54,-13,-28,13088,2,4,243,64,35841,-56,32,127,0,0,3594,0,0,12942,3399,115,15921,-4,0,81,-2,319667,0
319667,133,-2026,326,-49,-11,-32,13088,10,4,274,96,35836,-53,32,127,0,0,3594,-21,0,12942,3399,115,15931,-4,0,81,-2,319667,0
319677,130,-2032,323,-61,-13,-41,13087,-4,-3,237,96,35837,-63,32,127,0,0,3594,0,0,12942,3399,115,15941,-4,0,81,-2,319667,0
319687,140,-2036,329,-61,-11,-45,13088,0,-3,230,64,35861,-68,32,127,0,0,3596,21,0,12942,3399,115,15951,-4,0,81,-2,319667,0
319697,139,-2026,320,-65,-19,-47,13091,19,6,296,112,35874,-62,32,127,0,0,3596,32,0,12942,3399,115,15961,-4,0,81,-2,319683,0
319707,161,-2034,320,-62,-10,-52,13092,-8,1,260,88,35873,-55,32,127,0,0,3596,32,0,12942,3399,115,15971,-4,0,81,-2,319699,0
319717,135,-2026,315,-60,-19,-59,13092,0,-10,302,64,35866,-64,32,127,0,0,3596,-10,0,12942,3399,115,15981,-4,0,81,-2,319699,0
319727,124,-2021,322,-64,-22,-56,13093,-4,-14,321,96,35869,-74,32,127,0,0,3599,21,0,12942,3399,115,15991,-4,0,81,-2,319730,0
319737,141,-2024,319,-61,-14,-57,13095,-5,4,266,120,35872,-72,32,127,0,0,3596,10,0,12942,3399,115,16001,-4,0,81,-2,319730,0
319747,149,-2028,316,-65,-19,-64,13094,2,2,253,88,35868,-61,32,127,0,0,3596,10,0,12942,3399,115,16011,-4,0,81,-2,319745,0
319757,169,-2028,326,-62,-13,-63,13095,0,0,270,72,35856,-47,32,127,0,0,3594,-10,0,12942,3399,115,16021,-4,0,81,-2,319745,0
319767,166,-2023,317,-60,-15,-62,13094,0,-3,235,72,35850,-48,32,127,0,0,3596,10,0,12942,3399,115,16031,-4,0,81,-2,319745,0
319777,166,-2020,320,-59,-20,-53,13092,-12,-7,189,16,35853,-50,32,127,0,0,3594,21,0,12942,3399,115,16041,-4,0,81,-2,319777,0
319787,134,-2024,322,-56,-10,-48,13093,18,5,243,40,35851,-52,32,127,0,0,3596,10,0,12942,3399,115,16051,-4,0,81,-2,319777,0
319797,135,-2021,317,-63,-19,-45,13095,0,8,261,80,35846,-50,32,127,0,0,3594,-10,0,12942,3399,115,16061,-4,0,81,-2,319777,0
319807,157,-2034,312,-57,-13,-53,13094,-3,-4,254,40,35858,-56,32,127,0,0,3594,-10,0,12942,3399,115,16071,-4,0,81,-2,319808,0
319817,124,-2022,314,-57,-19,-54,13093,1,-4,232,56,35868,-59,32,127,0,0,3596,21,0,12942,3399,115,16081,-4,0,81,-2,319808,0
319827,127,-2027,322,-56,-16,-54,13095,3,5,237,48,35867,-60,32,127,0,0,3596,21,0,12942,3399,115,16091,-4,0,81,-2,319808,0
319837,148,-2026,311,-63,-21,-55,13095,12,5,249,48,35863,-48,31,127,0,0,3596,0,0,12942,3399,115,16101,-4,0,81,-2,319823,0
319847,126,-2025,322,-56,-16,-55,13094,4,-3,250,48,35850,-45,32,127,0,0,3594,0,0,12942,3399,115,16111,-4,0,81,-2,319839,0
319857,142,-2027,321,-65,-19,-51,13093,4,0,232,48,35854,-44,32,127,0,0,3594,0,0,12942,3399,115,16121,-4,0,81,-2,319839,0
319867,145,-2022,320,-58,-14,-48,13091,-11,-1,199,56,35853,-38,32,127,0,0,3594,21,0,12942,3399,115,16131,-4,0,81,-2,319855,0
319877,146,-2014,319,-61,-12,-55,13095,9,4,224,88,35860,-37,32,127,0,0,3594,10,0,12942,3399,115,16141,-4,0,81,-2,319870,0
319887,153,-2027,322,-70,-18,-50,13094,-9,4,225,128,35861,-51,32,127,0,0,3592,-21,0,12942,3399,115,16151,-4,0,81,-2,319870,0
319897,102,-2020,321,-63,-15,-60,13092,1,-8,199,40,35877,-69,32,127,0,0,3596,10,0,12942,3399,115,16161,-4,0,81,-2,319995,0
319907,110,-2018,319,-64,-21,-56,13094,-5,2,231,48,35868,-63,32,127,0,0,3592,-21,0,12942,3399,115,16171,-4,0,81,-2,320011,0
319917,121,-2024,317,-68,-8,-71,13091,0,-7,193,56,35862,-51,32,127,0,0,3594,0,0,12942,3399,115,16181,-4,0,81,-2,320011,0
319927,137,-2022,312,-71,-14,-72,13093,0,5,209,48,35852,-49,32,127,0,0,3594,-10,0,12942,3399,115,16191,-4,0,81,-2,320011,0
319937,123,-2023,325,-72,-14,-84,13092,10,-1,209,56,35849,-59,32,127,0,0,3592,-21,0,12942,3399,115,16201,-4,0,81,-2,320011,0
319947,140,-2026,318,-70,-13,-90,13090,-18,-8,137,32,35856,-49,32,127,0,0,3592,0,0,12942,3399,115,16211,-4,0,81,-2,320011,0
319957,120,-2026,318,-75,-12,-94,13088,0,2,116,8,35847,-39,32,127,0,0,3590,-21,0,12942,3399,115,16221,-4,0,81,-2,320011,0
319967,130,-2021,320,-77,-10,-103,13082,-17,-1,25,24,35844,-34,32,127,0,0,3585,-21,0,12942,3399,115,16231,-4,0,81,-2,320011,0
319977,149,-2029,318,-77,-11,-115,13080,-14,-3,-88,16,35841,-54,32,127,0,0,3583,-21,0,12942,3399,115,16241,-4,0,81,-2,320011,0
319987,149,-2025,305,-78,-8,-112,13079,-10,7,-118,-40,35851,-67,32,127,0,0,3583,-21,0,12942,3399,115,16251,-4,0,81,-2,320011,0
319997,139,-2024,314,-77,-10,-122,13077,0,0,-100,-40,35848,-64,32,127,0,0,3583,-21,0,12942,3399,115,16261,-4,0,81,-2,320027,0
320007,175,-2021,312,-79,-5,-117,13074,-7,2,-183,-8,35847,-49,32,127,0,0,3581,-10,0,12942,3399,115,16271,-4,0,81,-2,320027,0
320017,178,-2028,315,-79,-23,-107,13071,-6,0,-252,-32,35846,-60,32,127,0,0,3577,-10,0,12942,3399,115,16281,-4,0,81,-2,320027,0
320027,154,-2031,300,-74,-15,-106,13067,-3,-1,-307,-112,35855,-71,32,127,0,0,3577,0,0,12942,3399,115,16291,-4,0,81,-2,320027,0
320037,154,-2032,303,-75,-9,-99,13064,-8,4,-297,-80,35862,-68,32,127,0,0,3577,-10,0,12942,3399,115,16301,-4,0,81,-2,320027,0
320047,169,-2023,309,-69,-10,-98,13065,2,8,-355,-120,35873,-61,32,127,0,0,3572,-21,0,12942,3399,115,16311,-4,0,81,-2,320027,0
320057,154,-2030,306,-70,-15,-93,13056,-13,-12,-352,-104,35894,-52,32,127,0,0,3572,10,0,12942,3399,115,16321,-4,0,81,-2,320058,0
320067,155,-2029,300,-66,-14,-93,13055,-9,4,-357,-104,35892,-56,32,127,0,0,3570,-32,0,12942,3399,115,16331,-4,0,81,-2,320058,0
320077,152,-2028,310,-67,-11,-92,13047,-29,-8,-405,-96,35883,-59,32,127,0,0,3570,21,0,12942,3399,115,16341,-4,0,81,-2,320073,0
320087,151,-2027,304,-59,-5,-97,13031,-31,-22,-264,-80,35861,-53,32,127,0,0,3568,-43,0,12942,3399,115,16351,-4,0,81,-2,320073,0
320097,145,-2028,315,-57,-6,-99,13014,-33,-17,-240,-72,35865,-75,32,127,0,0,3566,-43,0,12942,3399,115,16361,-4,0,81,-2,320089,0
320107,163,-2027,311,-55,-15,-96,13011,0,22,-303,-80,35878,-82,32,127,0,0,3563,-21,0,12942,3399,115,16371,-4,0,81,-2,320089,0
320117,170,-2029,308,-53,-14,-92,13009,-7,29,-345,-104,35882,-79,32,127,0,0,3563,-10,0,12942,3399,115,16381,-4,0,81,-2,320105,0
320127,165,-2031,303,-47,-9,-88,13006,0,3,-341,-88,35875,-64,32,127,0,0,3563,0,0,12942,3399,115,16391,-4,0,81,-2,320120,0
320137,162,-2038,300,-49,-16,-82,13006,-5,7,-359,-112,35860,-52,32,127,0,0,3559,-32,0,12942,3399,115,16401,-4,0,81,-2,320120,0
320147,160,-2029,304,-44,-15,-88,13001,-8,-3,-367,-112,35872,-60,32,127,0,0,3559,-65,0,12942,3399,115,16411,-4,0,81,-2,320152,0
320157,157,-2028,306,-44,-15,-91,12997,-18,-12,-430,-104,35872,-60,32,127,0,0,3559,10,0,12942,3399,115,16421,-4,0,81,-2,320152,0
320167,158,-2025,297,-48,-10,-92,12988,-18,-8,-399,-120,35866,-53,32,127,0,0,3557,-21,0,12942,3399,115,16431,-4,0,81,-2,320167,0
320177,160,-2023,305,-41,-9,-93,12960,-76,-44,-231,-64,35864,-24,32,127,0,0,3555,-32,0,12942,3399,115,16441,-4,0,81,-2,320167,0
320187,139,-2031,307,-36,-7,-90,12939,-20,-17,-167,-80,35858,-25,32,127,0,0,3552,-32,0,12942,3399,115,16451,-4,0,81,-2,320167,0
320197,162,-2020,305,-31,-8,-88,12935,3,52,-203,-72,35861,-16,32,127,0,0,3552,-32,0,12942,3399,115,16461,-4,0,81,-2,320198,0
320207,184,-2023,310,-32,-13,-81,12934,-4,32,-251,-56,35861,-17,32,127,0,0,3550,-32,0,12942,3399,115,16471,-4,0,81,-2,320198,0
320217,167,-2028,300,-31,-11,-72,12930,-7,-5,-286,-40,35854,2,32,127,0,0,3550,-10,0,12942,3399,115,16481,-4,0,81,-2,320214,0
320227,172,-2020,304,-30,-11,-73,12928,-8,2,-266,-72,35858,1,32,127,0,0,3548,-43,0,12942,3399,115,16491,-4,0,81,-2,320214,0
320237,177,-2034,305,-25,-8,-68,12920,-23,-10,-247,-56,35866,-7,32,127,0,0,3550,0,0,12942,3399,115,16501,-4,0,81,-2,320230,0
320247,172,-2020,300,-23,-13,-71,12905,-30,-24,-91,-24,35875,-6,32,127,0,0,3550,-21,0,12942,3399,115,16511,-4,0,81,-2,320230,0
320257,177,-2023,307,-20,-6,-64,12897,-18,2,-44,-16,35874,9,32,127,0,0,3550,10,0,12942,3399,115,16521,-4,0,81,-2,320245,0
320267,180,-2026,306,-19,-12,-59,12899,4,27,-51,-48,35876,5,32,127,0,0,3550,0,0,12942,3399,115,16531,-4,0,81,-2,320339,0
320277,155,-2032,311,-23,-13,-46,12898,11,17,-20,-40,35874,-5,32,127,0,0,3550,-21,0,12942,3399,115,16541,-4,0,81,-2,320339,0
320287,147,-2023,317,-23,-12,-42,12897,0,4,-61,-32,35873,-7,32,127,0,0,3550,10,0,12942,3399,115,16551,-4,0,81,-2,320339,0
320297,183,-2032,311,-24,-7,-48,12897,6,0,-43,-8,35858,11,32,127,0,0,3548,-32,0,12942,3399,115,16561,-4,0,81,-2,320339,0
320307,164,-2036,311,-29,-7,-46,12894,-5,-3,-84,0,35841,29,32,127,0,0,3550,21,0,12942,3399,115,16571,-4,0,81,-2,320339,0
320317,184,-2032,310,-21,-13,-43,12896,-7,0,-86,8,35842,15,32,127,0,0,3548,0,0,12942,3399,115,16581,-4,0,81,-2,320355,0
320327,188,-2036,310,-19,-5,-46,12892,-1,-2,-131,16,35847,-6,32,127,0,0,3548,32,0,12942,3399,115,16591,-4,0,81,-2,320355,0
320337,148,-2017,316,-19,-10,-49,12894,-4,1,-81,-32,35843,1,32,127,0,0,3550,10,0,12942,3399,115,16601,-4,0,81,-2,320355,0
320347,112,-2017,318,-17,-7,-37,12893,2,1,-59,0,35839,17,32,127,0,0,3548,-10,0,12942,3399,115,16611,-4,0,81,-2,320355,0
320357,135,-2018,322,-27,-4,-45,12891,-9,-4,-112,-16,35842,26,32,127,0,0,3548,10,0,12942,3399,115,16621,-4,0,81,-2,320355,0
320367,172,-2014,327,-28,-8,-46,12893,-7,0,-100,-24,35862,15,32,127,0,0,3548,10,0,12942,3399,115,16631,-4,0,81,-2,320355,0
320377,178,-2023,311,-28,-10,-55,12892,-4,4,-98,16,35885,4,32,127,0,0,3550,21,0,12942,3399,115,16641,-4,0,81,-2,320370,0
320387,159,-2022,311,-29,-10,-58,12893,0,-3,-60,0,35888,12,32,127,0,0,3548,-10,0,12942,3399,115,16651,-4,0,81,-2,320370,0
320397,133,-2022,328,-29,-14,-57,12890,-11,-5,-107,16,35876,17,32,127,0,0,3548,10,0,12942,3399,115,16661,-4,0,81,-2,320386,0
320407,189,-2026,315,-35,-12,-60,12892,-8,-1,-106,16,35867,14,32,127,0,0,3546,-10,0,12942,3399,115,16671,-4,0,81,-2,320401,0
320417,168,-2020,309,-37,-12,-72,12892,3,2,-139,-8,35865,10,32,127,0,0,3548,21,0,12942,3399,115,16681,-4,0,81,-2,320401,0
320427,147,-2033,305,-36,-11,-70,12893,8,1,-103,-24,35859,14,32,127,0,0,3548,-10,0,12942,3399,115,16691,-4,0,81,-2,320417,0
320437,160,-2023,309,-31,-4,-76,12891,0,-3,-114,-48,35860,23,32,127,0,0,3546,-10,0,12942,3399,115,16701,-4,0,81,-2,320417,0
320447,171,-2024,313,-27,-9,-78,12889,-3,-4,-184,-32,35853,25,32,127,0,0,3544,-10,0,12942,3399,115,16711,-4,0,81,-2,320433,0
320457,168,-2023,325,-34,-9,-77,12887,1,-1,-212,-96,35861,11,32,127,0,0,3541,-32,0,12942,3399,115,16721,-4,0,81,-2,320448,0
320467,176,-2023,321,-39,-9,-72,12885,-2,2,-234,-48,35861,4,32,127,0,0,3541,-21,0,12942,3399,115,16731,-4,0,81,-2,320448,0
320477,169,-2021,325,-31,-4,-69,12886,0,5,-246,-8,35864,-8,32,127,0,0,3544,10,0,12942,3399,115,16741,-4,0,81,-2,320480,0
320487,174,-2028,320,-37,-12,-69,12884,-9,4,-249,-72,35857,-8,32,127,0,0,3541,0,0,12942,3399,115,16751,-4,0,81,-2,320480,0
320497,165,-2034,325,-39,-11,-64,12883,3,0,-267,-72,35846,-16,32,127,0,0,3544,21,0,12942,3399,115,16761,-4,0,81,-2,320480,0
320507,162,-2024,316,-37,-9,-60,12883,-2,3,-262,-104,35846,-6,32,127,0,0,3544,21,0,12942,3399,115,16771,-4,0,81,-2,320495,0
320517,159,-2032,316,-38,-9,-66,12883,4,1,-258,-72,35850,11,32,127,0,0,3541,0,0,12942,3399,115,16781,-4,0,81,-2,320495,0
320527,163,-2025,307,-40,2,-63,12882,1,-3,-280,-64,35867,0,32,127,0,0,3539,-32,0,12942,3399,115,16791,-4,0,81,-2,320526,0
320537,162,-2026,307,-34,-3,-66,12880,-7,-1,-321,-88,35874,-15,32,127,0,0,3539,0,0,12942,3399,115,16801,-4,0,81,-2,320526,0
320547,181,-2029,310,-32,-4,-62,12880,4,2,-343,-40,35866,-20,32,127,0,0,3541,32,0,12942,3399,115,16811,-4,0,81,-2,320526,0
320557,193,-2025,309,-35,-6,-52,12878,-3,8,-295,-128,35864,7,32,127,0,0,3541,21,0,12942,3399,115,16821,-4,0,81,-2,320558,0
320567,166,-2027,312,-33,-8,-43,12881,11,6,-250,-96,35850,31,32,127,0,0,3541,-21,0,12942,3399,115,16831,-4,0,81,-2,320558,0
320577,179,-2031,310,-32,-4,-39,12878,8,-2,-276,-56,35856,22,32,127,0,0,3541,21,0,12942,3399,115,16841,-4,0,81,-2,320558,0
320587,197,-2025,315,-38,-7,-40,12879,-11,6,-277,-96,35855,21,32,127,0,0,3541,-10,0,12942,3399,115,16851,-4,0,81,-2,320620,0
320597,178,-2024,310,-27,-5,-32,12880,18,7,-258,-96,35851,20,32,127,0,0,3541,-10,0,12942,3399,115,16861,-4,0,81,-2,320620,0
320607,145,-2024,312,-34,-7,-33,12878,0,2,-271,-88,35848,31,32,127,0,0,3541,10,0,12942,3399,115,16871,-4,0,81,-2,320636,0
320617,173,-2020,317,-40,-6,-41,12878,-12,0,-311,-48,35846,18,32,127,0,0,3539,32,0,12942,3399,115,16881,-4,0,81,-2,320636,0
320627,187,-2029,312,-39,-2,-36,12879,-3,7,-304,-48,35843,2,32,127,0,0,3541,21,0,12942,3399,115,16891,-4,0,81,-2,320651,0
320637,148,-2019,317,-28,-12,-44,12878,3,1,-295,-48,35837,1,32,127,0,0,3541,21,0,12942,3399,115,16901,-4,0,81,-2,320667,0
320647,145,-2023,314,-32,-11,-47,12877,-11,-3,-286,-88,35837,4,32,127,0,0,3539,10,0,12942,3399,115,16911,-4,0,81,-2,320667,0
320657,149,-2029,311,-27,-5,-48,12878,2,-4,-319,-80,35849,11,32,127,0,0,3541,21,0,12942,3399,115,16921,-4,0,81,-2,320745,0
320667,157,-2024,315,-26,-7,-45,12879,1,3,-299,-80,35860,4,32,127,0,0,3539,0,0,12942,3399,115,16931,-4,0,81,-2,320745,0
320677,178,-2032,313,-26,-2,-47,12877,0,-2,-335,-64,35859,12,32,127,0,0,3539,0,0,12942,3399,115,16941,-4,0,81,-2,320745,0
320687,173,-2035,319,-32,-2,-46,12878,-3,-1,-343,-72,35853,13,32,127,0,0,3539,10,0,12942,3399,115,16951,-4,0,81,-2,320745,0
320697,181,-2027,321,-33,-9,-41,12878,3,3,-325,-112,35844,21,32,127,0,0,3541,21,0,12942,3399,115,16961,-4,0,81,-2,320761,0
320707,156,-2029,321,-31,-5,-39,12878,4,0,-315,-80,35849,-3,32,127,0,0,3541,43,0,12942,3399,115,16971,-4,0,81,-2,320761,0
320717,172,-2018,312,-37,-5,-44,12879,6,6,-277,-96,35855,-8,32,127,0,0,3539,0,0,12942,3399,115,16981,-4,0,81,-2,320761,0
320727,163,-2030,314,-30,-4,-44,12877,-13,-1,-311,-32,35861,-4,32,127,0,0,3541,32,0,12942,3399,115,16991,-4,0,81,-2,320761,0
320737,177,-2018,310,-28,-2,-47,12879,-9,-2,-312,-112,35864,7,32,127,0,0,3541,21,0,12942,3399,115,17001,-4,0,81,-2,320761,0
320747,149,-2031,318,-37,-5,-38,12880,16,-1,-293,-88,35861,13,32,127,0,0,3537,-32,0,12942,3399,115,17011,-4,0,81,-2,320761,0
320757,155,-2022,327,-28,-3,-43,12874,-6,-6,-349,-64,35852,10,32,127,0,0,3539,21,0,12942,3399,115,17021,-4,0,81,-2,320761,0
320767,186,-2027,317,-35,-9,-38,12877,-7,5,-302,-48,35844,14,32,127,0,0,3541,21,0,12942,3399,115,17031,-4,0,81,-2,320761,0
320777,159,-2030,315,-37,-1,-40,12878,10,2,-246,-56,35854,24,32,127,0,0,3541,0,0,12942,3399,115,17041,-4,0,81,-2,320761,0
320787,165,-2030,317,-35,-8,-40,12877,-13,-5,-279,-32,35870,34,32,127,0,0,3539,-10,0,12942,3399,115,17051,-4,0,81,-2,320776,0
320797,149,-2025,310,-38,-5,-48,12879,13,-4,-266,-64,35893,25,32,127,0,0,3541,0,0,12942,3399,115,17061,-4,0,81,-2,320808,0
320807,156,-2028,308,-35,-7,-44,12877,-7,3,-257,-80,35887,14,32,127,0,0,3539,-21,0,12942,3399,115,17071,-4,0,81,-2,320808,0
320817,164,-2023,322,-28,-3,-47,12875,0,-2,-326,-72,35878,18,32,127,0,0,3537,-21,0,12942,3399,115,17081,-4,0,81,-2,320808,0
320827,166,-2025,330,-36,0,-54,12876,2,6,-329,-80,35859,10,32,127,0,0,3541,21,0,12942,3399,115,17091,-4,0,81,-2,320808,0
320837,147,-2027,313,-35,-5,-53,12879,11,4,-248,-64,35856,10,32,127,0,0,3539,-32,0,12942,3399,115,17101,-4,0,81,-2,320823,0
320847,166,-2020,318,-40,-9,-57,12878,2,0,-258,-56,35855,13,32,127,0,0,3541,0,0,12942,3399,115,17111,-4,0,81,-2,320839,0
320857,174,-2026,312,-35,-19,-52,12877,-11,2,-272,-80,35853,12,32,127,0,0,3539,-21,0,12942,3399,115,17121,-4,0,81,-2,320839,0
320867,164,-2025,315,-40,-10,-56,12875,1,-2,-311,-80,35855,5,32,127,0,0,3539,10,0,12942,3399,115,17131,-4,0,81,-2,320855,0
320877,173,-2024,324,-44,-5,-52,12876,-15,1,-300,-40,35875,-10,32,127,0,0,3539,10,0,12942,3399,115,17141,-4,0,81,-2,320870,0
320887,203,-2025,317,-42,-4,-56,12877,1,7,-310,-72,35883,-2,32,127,0,0,3537,-32,0,12942,3399,115,17151,-4,0,81,-2,320870,0
320897,168,-2020,325,-47,-12,-54,12875,5,0,-303,-88,35877,11,32,127,0,0,3539,-21,0,12942,3399,115,17161,-4,0,81,-2,320901,0
320907,159,-2015,333,-45,-10,-53,12875,-12,-4,-292,-56,35861,25,32,127,0,0,3539,-10,0,12942,3399,115,17171,-4,0,81,-2,320917,0
320917,160,-2015,322,-49,-10,-57,12876,0,6,-288,-88,35846,32,32,127,0,0,3541,10,0,12942,3399,115,17181,-4,0,81,-2,320917,0
320927,139,-2022,320,-47,-7,-54,12878,7,3,-268,-80,35849,25,32,127,0,0,3539,-21,0,12942,3399,115,17191,-4,0,81,-2,320917,0
320937,156,-2027,319,-51,-2,-54,12877,10,-1,-265,-88,35846,24,32,127,0,0,3537,-54,0,12942,3399,115,17201,-4,0,81,-2,320917,0
320947,157,-2023,321,-52,-14,-60,12875,-1,-2,-297,-80,35852,34,32,127,0,0,3537,-43,0,12942,3399,115,17211,-4,0,81,-2,320948,0
320957,152,-2020,317,-51,-8,-63,12875,-8,1,-333,-80,35853,28,32,127,0,0,3539,-10,0,12942,3399,115,17221,-4,0,81,-2,320948,0
320967,143,-2029,316,-54,-12,-64,12877,1,5,-326,-112,35853,7,32,127,0,0,3537,-32,0,12942,3399,115,17231,-4,0,81,-2,320948,0
320977,149,-2031,308,-47,-15,-67,12876,2,-2,-338,-24,35851,1,32,127,0,0,3539,10,0,12942,3399,115,17241,-4,0,81,-2,320964,0
320987,189,-2034,317,-48,-7,-69,12877,-4,3,-315,-40,35862,12,32,127,0,0,3539,0,0,12942,3399,115,17251,-4,0,81,-2,320964,0
320997,167,-2025,325,-48,-9,-77,12875,-8,-2,-341,-96,35871,15,32,127,0,0,3537,-21,0,12942,3399,115,17261,-4,0,81,-2,320992,0
321007,149,-2025,315,-51,-11,-86,12876,3,-4,-356,-96,35879,2,32,127,0,0,3537,-21,0,12942,3399,115,17271,-4,0,81,-2,321007,0
321017,165,-2019,323,-51,-2,-93,12872,-10,-4,-395,-80,35869,1,32,127,0,0,3535,0,0,12942,3399,115,17281,-4,0,81,-2,321023,0
321027,164,-2024,327,-54,-4,-95,12872,-11,-5,-416,-104,35863,-1,32,127,0,0,3537,32,0,12942,3399,115,17291,-4,0,81,-2,321039,0
321037,161,-2029,319,-56,-9,-82,12873,-3,4,-413,-136,35854,10,32,127,0,0,3533,-32,0,12942,3399,115,17301,-4,0,81,-2,321054,0
321047,166,-2022,318,-54,-9,-92,12865,-15,-8,-465,-144,35853,9,32,127,0,0,3531,0,0,12942,3399,115,17311,-4,0,81,-2,321054,0
321057,186,-2019,318,-52,-6,-93,12854,-22,-17,-452,-128,35854,11,32,127,0,0,3531,0,0,12942,3399,115,17321,-4,0,81,-2,321054,0
321067,178,-2019,318,-49,-3,-88,12837,-44,-20,-342,-112,35847,15,32,127,0,0,3528,-21,0,12942,3399,115,17331,-4,0,81,-2,321070,0
321077,169,-2021,316,-55,-1,-89,12819,-23,-19,-273,-72,35850,2,32,127,0,0,3528,0,0,12942,3399,115,17341,-4,0,81,-2,321070,0
321087,178,-2034,314,-56,-9,-69,12821,1,43,-338,-96,35858,-7,32,127,0,0,3526,0,0,12942,3399,115,17351,-4,0,81,-2,321070,0
321097,180,-2031,315,-54,-7,-67,12819,3,29,-365,-112,35868,-17,32,127,0,0,3524,-10,0,12942,3399,115,17361,-4,0,81,-2,321070,0
321107,178,-2022,318,-53,-9,-69,12817,2,0,-379,-112,35873,-22,32,127,0,0,3524,0,0,12942,3399,115,17371,-4,0,81,-2,321117,0
321117,173,-2029,320,-57,-9,-67,12818,3,1,-376,-112,35871,-22,32,127,0,0,3524,10,0,12942,3399,115,17381,-4,0,81,-2,321117,0
321127,181,-2025,324,-58,-11,-65,12814,-12,4,-407,-136,35863,-27,32,127,0,0,3524,-10,0,12942,3399,115,17391,-4,0,81,-2,321117,0
321137,162,-2022,321,-57,-8,-58,12809,-8,-16,-423,-112,35862,-33,32,127,0,0,3522,10,0,12942,3399,115,17401,-4,0,81,-2,321132,0
321147,172,-2025,315,-62,-3,-60,12804,-12,-5,-444,-96,35855,-17,32,127,0,0,3520,21,0,12942,3399,115,17411,-4,0,81,-2,321132,0
321157,173,-2029,308,-60,-9,-60,12799,-19,1,-391,-136,35856,-15,32,127,0,0,3522,-10,0,12942,3399,115,17421,-4,0,81,-2,321164,0
321167,168,-2024,312,-54,-7,-60,12795,-8,0,-374,-96,35853,-27,32,127,0,0,3522,10,0,12942,3399,115,17431,-4,0,81,-2,321164,0
321177,173,-2026,317,-53,-7,-54,12788,-21,-4,-364,-88,35854,-45,32,127,0,0,3520,10,0,12942,3399,115,17441,-4,0,81,-2,321164,0
321187,178,-2027,313,-58,-4,-61,12759,-75,-50,-227,-64,35856,-55,32,127,0,0,3515,-21,0,12942,3399,115,17451,-4,0,81,-2,321164,0
321197,145,-2028,310,-54,-3,-70,12746,0,-7,-160,-8,35864,-50,32,127,0,0,3520,21,0,12942,3399,115,17461,-4,0,81,-2,321195,0
321207,204,-2025,315,-48,-8,-57,12753,-7,74,-186,-88,35864,-41,32,127,0,0,3515,-21,0,12942,3399,115,17471,-4,0,81,-2,321195,0
321217,168,-2021,314,-52,-14,-61,12745,-6,-6,-221,-56,35867,-47,32,127,0,0,3515,0,0,12942,3399,115,17481,-4,0,81,-2,321226,0
321227,176,-2020,309,-54,-6,-62,12746,-3,-1,-250,-64,35877,-46,32,127,0,0,3515,0,0,12942,3399,115,17491,-4,0,81,-2,321226,0
321237,176,-2026,313,-54,-7,-58,12745,3,6,-248,-96,35866,-32,32,127,0,0,3515,0,0,12942,3399,115,17501,-4,0,81,-2,321226,0
321247,158,-2031,316,-50,-6,-65,12746,1,3,-239,-64,35865,-31,32,127,0,0,3513,-21,0,12942,3399,115,17511,-4,0,81,-2,321257,0
321257,170,-2021,320,-51,-14,-66,12742,-23,-11,-284,-56,35859,-30,32,127,0,0,3515,10,0,12942,3399,115,17521,-4,0,81,-2,321257,0
321267,166,-2030,312,-57,-10,-63,12743,2,-4,-316,-80,35863,-51,32,127,0,0,3515,21,0,12942,3399,115,17531,-4,0,81,-2,321257,0
321277,181,-2024,313,-53,-3,-66,12740,2,4,-286,-72,35859,-42,32,127,0,0,3511,0,0,12942,3399,115,17541,-4,0,81,-2,321257,0
321287,179,-2020,310,-51,-4,-72,12738,-9,-2,-318,-88,35863,-42,32,127,0,0,3511,-21,0,12942,3399,115,17551,-4,0,81,-2,321289,0
321297,173,-2031,315,-51,-3,-67,12731,-15,-13,-279,-40,35864,-54,32,127,0,0,3511,-10,0,12942,3399,115,17561,-4,0,81,-2,321289,0
321307,186,-2023,310,-55,-6,-61,12721,-19,-13,-236,-24,35864,-78,32,127,0,0,3509,-32,0,12942,3399,115,17571,-4,0,81,-2,321289,0
321317,187,-2021,316,-55,-10,-65,12705,-42,-16,-180,-56,35854,-72,32,127,0,0,3511,21,0,12942,3399,115,17581,-4,0,81,-2,321304,0
321327,157,-2028,311,-54,-9,-57,12702,3,14,-124,-40,35858,-50,32,127,0,0,3506,-21,0,12942,3399,115,17591,-4,0,81,-2,321320,0
321337,183,-2024,311,-50,-12,-50,12700,-1,30,-177,-32,35858,-34,32,127,0,0,3509,0,0,12942,3399,115,17601,-4,0,81,-2,321335,0
321347,198,-2024,310,-52,-4,-44,12701,0,0,-176,-40,35855,-46,32,127,0,0,3509,0,0,12942,3399,115,17611,-4,0,81,-2,321335,0
321357,186,-2022,311,-47,-3,-35,12700,0,5,-172,-32,35849,-48,32,127,0,0,3506,-21,0,12942,3399,115,17621,-4,0,81,-2,321351,0
321367,194,-2020,309,-50,-4,-33,12697,-9,-5,-222,-16,35852,-41,32,127,0,0,3509,32,0,12942,3399,115,17631,-4,0,81,-2,321351,0
321377,172,-2025,314,-50,-7,-33,12700,2,2,-179,-32,35854,-43,32,127,0,0,3506,-32,0,12942,3399,115,17641,-4,0,81,-2,321367,0
321387,161,-2016,322,-42,-1,-36,12699,14,2,-199,-24,35855,-48,32,127,0,0,3509,10,0,12942,3399,115,17651,-4,0,81,-2,321367,0
321397,189,-2022,317,-57,-4,-36,12698,-3,3,-196,-24,35852,-57,32,127,0,0,3509,21,0,12942,3399,115,17661,-4,0,81,-2,321398,0
321407,213,-2028,317,-50,-6,-34,12700,-2,3,-150,-32,35846,-43,32,127,0,0,3511,21,0,12942,3399,115,17671,-4,0,81,-2,321414,0
321417,192,-2033,324,-58,-9,-35,12700,14,1,-103,-48,35844,-38,32,127,0,0,3509,-10,0,12942,3399,115,17681,-4,0,81,-2,321414,0
321427,159,-2032,319,-56,-17,-37,12699,1,-1,-124,-32,35854,-43,32,127,0,0,3509,-21,0,12942,3399,115,17691,-4,0,81,-2,321429,0
321437,179,-2029,316,-60,-5,-47,12698,-5,-2,-119,24,35865,-63,32,127,0,0,3509,-10,0,12942,3399,115,17701,-4,0,81,-2,321429,0
321447,182,-2022,319,-62,-7,-54,12698,-18,-1,-166,-32,35859,-50,32,127,0,0,3509,0,0,12942,3399,115,17711,-4,0,81,-2,321429,0
321457,204,-2026,313,-59,-10,-44,12700,6,-1,-153,-32,35865,-49,32,127,0,0,3509,0,0,12942,3399,115,17721,-4,0,81,-2,321476,0
321467,179,-2023,312,-61,-7,-43,12698,-3,4,-167,-32,35859,-52,32,127,0,0,3509,0,0,12942,3399,115,17731,-4,0,81,-2,321476,0
321477,180,-2025,325,-63,-8,-47,12697,-8,-7,-169,-32,35862,-67,32,127,0,0,3509,-10,0,12942,3399,115,17741,-4,0,81,-2,321476,0
321487,180,-2019,310,-65,-8,-42,12698,2,0,-177,-64,35851,-55,31,127,0,0,3509,0,0,12942,3399,115,17751,-4,0,81,-2,321476,0
321497,189,-2028,310,-62,-16,-41,12699,3,-1,-151,-32,35843,-31,31,127,0,0,3506,-21,0,12942,3399,115,17761,-4,0,81,-2,321492,0
321507,196,-2022,308,-62,-7,-42,12698,7,-2,-165,-32,35840,-15,32,127,0,0,3511,21,0,12942,3399,115,17771,-4,0,81,-2,321492,0
321517,180,-2020,309,-63,-9,-37,12699,-10,-3,-155,-32,35841,-29,32,127,0,0,3509,21,0,12942,3399,115,17781,-4,0,81,-2,321492,0
321527,188,-2028,306,-67,-7,-37,12698,-1,1,-183,-32,35841,-35,32,127,0,0,3509,21,0,12942,3399,115,17791,-4,0,81,-2,321554,0
321537,148,-2027,306,-57,-15,-34,12699,7,0,-167,-24,35845,-40,32,127,0,0,3509,-10,0,12942,3399,115,17801,-4,0,81,-2,321570,0
321547,166,-2035,303,-52,-5,-37,12698,5,1,-160,-32,35845,-41,32,127,0,0,3509,0,0,12942,3399,115,17811,-4,0,81,-2,321570,0
321557,177,-2037,313,-58,-1,-39,12699,8,-3,-163,-32,35847,-46,32,127,0,0,3509,0,0,12942,3399,115,17821,-4,0,81,-2,321570,0
321567,172,-2035,321,-53,-7,-38,12699,6,3,-130,-32,35841,-53,32,127,0,0,3509,-21,0,12942,3399,115,17831,-4,0,81,-2,321570,0
321577,191,-2035,315,-62,-2,-37,12698,0,-4,-161,-64,35840,-53,32,127,0,0,3506,-10,0,12942,3399,115,17841,-4,0,81,-2,321570,0
321587,193,-2031,309,-52,-2,-26,12699,-5,-2,-166,-32,35844,-42,32,127,0,0,3509,0,0,12942,3399,115,17851,-4,0,81,-2,321570,0
321597,184,-2022,304,-62,-7,-30,12697,-5,1,-178,-32,35845,-26,32,127,0,0,3509,21,0,12942,3399,115,17861,-4,0,81,-2,321585,0
321607,185,-2024,302,-53,-1,-36,12699,0,0,-195,-24,35860,-38,32,127,0,0,3509,10,0,12942,3399,115,17871,-4,0,81,-2,321585,0
321617,184,-2015,302,-51,-4,-37,12701,15,4,-111,-48,35856,-54,32,127,0,0,3506,-21,0,12942,3399,115,17881,-4,0,81,-2,321632,0
321627,177,-2012,295,-50,-7,-39,12696,-14,-1,-150,-24,35861,-56,32,127,0,0,3509,0,0,12942,3399,115,17891,-4,0,81,-2,321648,0
321637,179,-2011,298,-38,-9,-38,12698,-4,1,-157,0,35864,-57,32,127,0,0,3509,10,0,12942,3399,115,17901,-4,0,81,-2,321648,0
321647,205,-2013,296,-46,-6,-44,12697,-12,8,-174,16,35852,-58,32,127,0,0,3509,10,0,12942,3399,115,17911,-4,0,81,-2,321648,0
321657,163,-2010,299,-36,-11,-46,12700,0,-8,-175,-32,35850,-51,32,127,0,0,3509,0,0,12942,3399,115,17921,-4,0,81,-2,321648,0
321667,164,-2015,297,-35,-16,-39,12699,0,0,-159,-32,35844,-41,32,127,0,0,3509,10,0,12942,3399,115,17931,-4,0,81,-2,321648,0
321677,181,-2023,308,-33,-4,-48,12698,-6,-4,-147,-32,35856,-55,32,127,0,0,3511,21,0,12942,3399,115,17941,-4,0,81,-2,321663,0
321687,157,-2024,318,-34,-5,-38,12700,3,3,-95,-16,35871,-74,32,127,0,0,3509,-10,0,12942,3399,115,17951,-4,0,81,-2,321679,0
321697,158,-2019,315,-35,-9,-43,12697,-15,-5,-160,-32,35882,-83,32,127,0,0,3509,0,0,12942,3399,115,17961,-4,0,81,-2,321679,0
321707,190,-2026,315,-37,-10,-44,12699,4,2,-144,-32,35870,-67,32,127,0,0,3509,-21,0,12942,3399,115,17971,-4,0,81,-2,321695,0
321717,208,-2021,318,-35,-2,-38,12697,0,-1,-129,-40,35856,-34,32,127,0,0,3506,-10,0,12942,3399,115,17981,-4,0,81,-2,321710,0
321727,221,-2024,318,-41,-2,-34,12696,-11,-4,-131,-8,35844,-23,32,127,0,0,3506,-32,0,12942,3399,115,17991,-4,0,81,-2,321710,0
321737,166,-2015,313,-38,-9,-26,12696,-11,-1,-170,40,35851,-29,32,127,0,0,3509,10,0,12942,3399,115,18001,-4,0,81,-2,321804,0
321747,212,-2025,313,-41,-3,-11,12698,-18,-6,-179,0,35860,-36,32,127,0,0,3509,43,0,12942,3399,115,18011,-4,0,81,-2,321804,0
321757,205,-2039,310,-39,-8,-10,12699,-7,1,-99,24,35856,-37,32,127,0,0,3511,21,0,12942,3399,115,18021,-4,0,81,-2,321820,0
321767,178,-2024,295,-36,-12,-2,12701,0,-5,-43,16,35856,-40,32,127,0,0,3513,32,0,12942,3399,115,18031,-4,0,81,-2,321820,0
321777,199,-2032,295,-32,-14,6,12700,-3,-8,-54,24,35847,-50,32,127,0,0,3513,54,0,12942,3399,115,18041,-4,0,81,-2,321820,0
321787,177,-2028,288,-25,-10,11,12702,6,4,10,-8,35848,-52,32,127,0,0,3513,0,0,12942,3399,115,18051,-4,0,81,-2,321820,0
321797,180,-2027,307,-27,-8,0,12704,5,4,59,56,35846,-47,32,127,0,0,3515,32,0,12942,3399,115,18061,-4,0,81,-2,321820,0
321807,182,-2029,311,-23,-12,11,12707,1,-5,117,72,35844,-43,32,127,0,0,3520,21,0,12942,3399,115,18071,-4,0,81,-2,321820,0
321817,178,-2022,331,-30,-10,13,12710,1,2,187,56,35844,-47,32,127,0,0,3520,0,0,12942,3399,115,18081,-4,0,81,-2,321820,0
321827,191,-2016,319,-31,-2,7,12711,7,-3,216,88,35848,-59,32,127,0,0,3524,32,0,12942,3399,115,18091,-4,0,81,-2,321820,0
321837,183,-2013,323,-40,-7,21,12715,9,4,275,88,35849,-54,32,127,0,0,3524,32,0,12942,3399,115,18101,-4,0,81,-2,321835,0
321847,174,-2026,320,-44,-11,27,12727,28,15,288,80,35853,-25,32,127,0,0,3528,32,0,12942,3399,115,18111,-4,0,81,-2,321835,0
321857,158,-2022,321,-44,-8,26,12752,69,41,206,32,35864,-20,32,127,0,0,3528,-10,0,12942,3399,115,18121,-4,0,81,-2,321835,0
321867,192,-2020,327,-48,-12,22,12764,3,4,159,72,35879,-27,32,127,0,0,3528,-10,0,12942,3399,115,18131,-4,0,81,-2,321913,0
321877,134,-2031,317,-47,-1,17,12763,6,-60,198,64,35882,-43,32,127,0,0,3533,21,0,12942,3399,115,18141,-4,0,81,-2,321913,0
321887,151,-2030,307,-49,2,2,12765,11,-11,260,112,35872,-45,32,127,0,0,3537,76,0,12942,3399,115,18151,-4,0,81,-2,321913,0
321897,152,-2033,310,-47,-4,-11,12774,25,19,328,88,35856,-37,32,127,0,0,3535,0,0,12942,3399,115,18161,-4,0,81,-2,321929,0
321907,156,-2024,321,-54,-1,-19,12780,4,3,277,72,35851,-39,32,127,0,0,3535,0,0,12942,3399,115,18171,-4,0,81,-2,321929,0
321917,143,-2030,332,-59,5,-40,12782,6,-20,276,96,35851,-35,32,127,0,0,3535,10,0,12942,3399,115,18181,-4,0,81,-2,321929,0
321927,150,-2026,339,-61,5,-46,12791,27,0,282,64,35849,-35,32,127,0,0,3535,-10,0,12942,3399,115,18191,-4,0,81,-2,321929,0
321937,141,-2024,333,-74,-10,-62,12805,33,23,127,48,35848,-27,32,127,0,0,3535,-10,0,12942,3399,115,18201,-4,0,81,-2,321929,0
321947,160,-2013,326,-80,-7,-66,12817,18,14,14,-48,35862,-31,32,127,0,0,3533,-43,0,12942,3399,115,18211,-4,0,81,-2,321929,0
321957,146,-2018,308,-85,-9,-74,12817,5,-40,25,-8,35874,-33,32,127,0,0,3537,21,0,12942,3399,115,18221,-4,0,81,-2,321945,0
321967,149,-2013,314,-92,-13,-78,12816,-8,-20,32,-16,35882,-24,32,127,0,0,3535,0,0,12942,3399,115,18231,-4,0,81,-2,321976,0
321977,158,-2024,313,-99,-19,-87,12817,-1,7,25,-48,35879,-10,32,127,0,0,3535,-32,0,12942,3399,115,18241,-4,0,81,-2,321976,0
321987,139,-2020,302,-95,-15,-98,12819,20,0,30,16,35866,-8,32,127,0,0,3535,-21,0,12942,3399,115,18251,-4,0,81,-2,321976,0
321997,166,-2016,294,-93,-10,-110,12814,-13,4,-14,32,35866,-15,32,127,0,0,3537,21,0,12942,3399,115,18261,-4,0,81,-2,321976,0
322007,144,-2028,294,-86,-4,-119,12817,-11,-1,-23,-40,35870,-31,32,127,0,0,3531,-43,0,12942,3399,115,18271,-4,0,81,-2,321992,0
322017,145,-2029,315,-81,7,-138,12812,-16,-3,-117,-32,35877,-7,32,127,0,0,3531,0,0,12942,3399,115,18281,-4,0,81,-2,322007,0
322027,156,-2026,313,-84,-3,-131,12810,-1,-3,-218,-96,35872,-17,32,127,0,0,3524,-21,0,12942,3399,115,18291,-4,0,81,-2,322007,0
322037,158,-2039,322,-96,-10,-145,12803,-14,-7,-255,-96,35862,-19,32,127,0,0,3522,-54,0,12942,3399,115,18301,-4,0,81,-2,322023,0
322047,174,-2027,325,-95,-11,-140,12791,-35,-20,-334,-72,35865,-52,32,127,0,0,3522,0,0,12942,3399,115,18311,-4,0,81,-2,322054,0
322057,157,-2027,316,-102,-9,-160,12752,-94,-62,-161,-24,35863,-52,32,127,0,0,3515,-43,0,12942,3399,115,18321,-4,0,81,-2,322054,0
322067,138,-2043,317,-108,-1,-159,12736,-15,-10,-196,-40,35870,-40,32,127,0,0,3513,-32,0,12942,3399,115,18331,-4,0,81,-2,322054,0
322077,185,-2027,306,-112,-10,-161,12729,-15,62,-255,-40,35867,-49,32,127,0,0,3511,-21,0,12942,3399,115,18341,-4,0,81,-2,322054,0
322087,189,-2028,302,-111,-12,-159,12713,-43,8,-215,-80,35870,-53,32,127,0,0,3506,-54,0,12942,3399,115,18351,-4,0,81,-2,322085,0
322097,167,-2030,297,-117,-10,-157,12692,-34,-34,-163,-112,35870,-71,32,127,0,0,3502,-76,0,12942,3399,115,18361,-4,0,81,-2,322085,0
322107,201,-2024,294,-111,-11,-147,12687,-15,16,-342,-64,35871,-61,32,127,0,0,3500,0,0,12942,3399,115,18371,-4,0,81,-2,322085,0
322117,199,-2030,295,-115,-19,-139,12684,-2,37,-385,-96,35872,-48,32,127,0,0,3498,-32,0,12942,3399,115,18381,-4,0,81,-2,322148,0
322127,199,-2032,300,-110,-18,-116,12679,-20,-3,-467,-80,35866,-28,32,127,0,0,3493,0,0,12942,3399,115,18391,-4,0,81,-2,322148,0
322137,195,-2027,292,-109,-15,-106,12666,-29,-17,-449,-128,35864,-33,32,127,0,0,3493,-21,0,12942,3399,115,18401,-4,0,81,-2,322163,0
322147,208,-2026,297,-105,-20,-101,12642,-59,-35,-317,-80,35863,-41,32,127,0,0,3493,-10,0,12942,3399,115,18411,-4,0,81,-2,322163,0
322157,193,-2015,292,-104,-18,-85,12628,-8,-14,-188,-112,35859,-51,32,127,0,0,3491,-21,0,12942,3399,115,18421,-4,0,81,-2,322163,0
322167,225,-2021,287,-103,-19,-60,12628,0,53,-260,-72,35860,-48,32,127,0,0,3489,-32,0,12942,3399,115,18431,-4,0,81,-2,322163,0
322177,200,-2020,284,-97,-20,-47,12627,1,27,-315,-56,35856,-47,32,127,0,0,3489,-21,0,12942,3399,115,18441,-4,0,81,-2,322163,0
322187,201,-2027,276,-92,-16,-41,12625,-6,-2,-331,-56,35864,-34,32,127,0,0,3491,21,0,12942,3399,115,18451,-4,0,81,-2,322179,0
322197,203,-2024,293,-89,-14,-27,12626,0,2,-317,-56,35881,-46,32,127,0,0,3489,-21,0,12942,3399,115,18461,-4,0,81,-2,322179,0
322207,214,-2029,289,-81,-11,-25,12625,-8,-3,-331,-56,35888,-57,32,127,0,0,3489,0,0,12942,3399,115,18471,-4,0,81,-2,322226,0
322217,193,-2028,288,-77,-12,-13,12625,0,-2,-318,-96,35878,-67,32,127,0,0,3489,-10,0,12942,3399,115,18481,-4,0,81,-2,322226,0
322227,177,-2034,283,-75,-12,-7,12625,-7,3,-320,-56,35865,-48,32,127,0,0,3489,-10,0,12942,3399,115,18491,-4,0,81,-2,322226,0
322237,170,-2026,285,-65,-6,-7,12623,-10,-5,-333,-48,35850,-35,32,127,0,0,3491,32,0,12942,3399,115,18501,-4,0,81,-2,322226,0
322247,198,-2030,279,-57,-10,-1,12626,-2,2,-279,-64,35852,-41,32,127,0,0,3491,-10,0,12942,3399,115,18511,-4,0,81,-2,322241,0
322257,192,-2034,272,-62,-5,-5,12624,-6,-4,-317,-48,35851,-50,32,127,0,0,3491,32,0,12942,3399,115,18521,-4,0,81,-2,322241,0
322267,203,-2035,273,-51,-5,9,12625,-1,-1,-266,0,35862,-66,32,127,0,0,3491,10,0,12942,3399,115,18531,-4,0,81,-2,322257,0
322277,199,-2028,281,-38,-6,20,12624,-12,1,-270,-24,35869,-76,32,127,0,0,3493,32,0,12942,3399,115,18541,-4,0,81,-2,322273,0
322287,189,-2030,277,-37,-19,41,12628,6,-2,-203,-48,35865,-77,32,127,0,0,3493,0,0,12942,3399,115,18551,-4,0,81,-2,322273,0
322297,164,-2011,281,-33,-19,43,12628,7,0,-135,8,35856,-56,32,127,0,0,3495,-21,0,12942,3399,115,18561,-4,0,81,-2,322288,0
322307,218,-2021,280,-25,-22,51,12632,1,0,-45,8,35847,-52,32,127,0,0,3502,43,0,12942,3399,115,18571,-4,0,81,-2,322288,0
322317,206,-2027,286,-20,-17,58,12640,16,12,88,8,35847,-53,32,127,0,0,3506,54,0,12942,3399,115,18581,-4,0,81,-2,322304,0
322327,153,-2018,277,-19,-14,56,12646,20,7,202,48,35850,-42,32,127,0,0,3509,32,0,12942,3399,115,18591,-4,0,81,-2,322320,0
322337,177,-2016,288,-6,-11,46,12658,28,8,205,72,35856,-40,32,127,0,0,3511,21,0,12942,3399,115,18601,-4,0,81,-2,322320,0
322347,160,-2032,285,-8,-13,47,12688,75,42,63,32,35852,-20,32,127,0,0,3513,21,0,12942,3399,115,18611,-4,0,81,-2,322320,0
322357,178,-2017,291,-7,-18,33,12697,-9,-13,58,72,35856,-46,32,127,0,0,3515,32,0,12942,3399,115,18621,-4,0,81,-2,322351,0
322367,126,-2031,285,-3,-12,38,12699,0,-64,139,88,35856,-51,32,127,0,0,3520,43,0,12942,3399,115,18631,-4,0,81,-2,322366,0
322377,155,-2025,295,-7,-13,13,12702,7,-5,222,104,35859,-61,32,127,0,0,3522,32,0,12942,3399,115,18641,-4,0,81,-2,322366,0
322387,153,-2023,297,1,-14,3,12705,5,3,233,96,35862,-53,32,127,0,0,3522,43,0,12942,3399,115,18651,-4,0,81,-2,322366,0
322397,152,-2022,308,-10,-9,-4,12708,6,-3,299,112,35861,-49,32,127,0,0,3522,-10,0,12942,3399,115,18661,-4,0,81,-2,322398,0
322407,161,-2027,315,-15,-9,-23,12714,4,4,277,72,35862,-51,32,127,0,0,3524,10,0,12942,3399,115,18671,-4,0,81,-2,322398,0
322417,147,-2032,311,-19,-3,-39,12714,13,-7,358,104,35854,-62,32,127,0,0,3526,21,0,12942,3399,115,18681,-4,0,81,-2,322398,0
322427,151,-2032,311,-25,-7,-44,12727,34,21,343,112,35856,-63,32,127,0,0,3526,-32,0,12942,3399,115,18691,-4,0,81,-2,322429,0
322437,153,-2020,302,-25,-8,-54,12747,44,29,171,48,35855,-59,32,127,0,0,3528,21,0,12942,3399,115,18701,-4,0,81,-2,322429,0
322447,153,-2033,309,-31,-10,-55,12757,7,-13,169,-16,35857,-57,32,127,0,0,3526,-54,0,12942,3399,115,18711,-4,0,81,-2,322445,0
322457,156,-2033,311,-44,-11,-60,12750,-9,-52,136,64,35851,-56,32,127,0,0,3524,0,0,12942,3399,115,18721,-4,0,81,-2,322445,0
322467,214,-2026,314,-45,-7,-68,12755,-4,-1,124,24,35850,-52,32,127,0,0,3524,-21,0,12942,3399,115,18731,-4,0,81,-2,322445,0
322477,174,-2021,322,-50,-14,-61,12754,0,6,136,56,35853,-46,32,127,0,0,3528,0,0,12942,3399,115,18741,-4,0,81,-2,322570,0
322487,153,-2019,317,-61,-17,-62,12753,-14,-5,100,48,35856,-43,32,127,0,0,3526,0,0,12942,3399,115,18751,-4,0,81,-2,322570,0
322497,174,-2030,309,-67,-9,-49,12755,12,1,87,40,35852,-55,32,127,0,0,3526,10,0,12942,3399,115,18761,-4,0,81,-2,322570,0
322507,176,-2029,310,-76,-7,-55,12754,-4,3,124,24,35850,-53,32,127,0,0,3524,-21,0,12942,3399,115,18771,-4,0,81,-2,322585,0
322517,154,-2025,304,-75,-14,-52,12753,-8,-1,77,0,35847,-27,32,127,0,0,3528,32,0,12942,3399,115,18781,-4,0,81,-2,322585,0
322527,147,-2026,302,-79,-28,-49,12755,7,6,104,0,35845,-31,32,127,0,0,3526,0,0,12942,3399,115,18791,-4,0,81,-2,322585,0
322537,176,-2022,293,-80,-6,-48,12753,10,0,92,40,35841,-31,32,127,0,0,3524,-10,0,12942,3399,115,18801,-4,0,81,-2,322585,0
322547,182,-2014,302,-85,-8,-52,12754,-3,0,99,64,35840,-46,32,127,0,0,3524,-32,0,12942,3399,115,18811,-4,0,81,-2,322585,0
322557,154,-2027,297,-88,-11,-40,12755,0,-5,94,64,35839,-32,32,127,0,0,3526,-10,0,12942,3399,115,18821,-4,0,81,-2,322585,0
322567,163,-2030,307,-93,-9,-39,12753,-9,0,81,0,35838,-26,32,127,0,0,3524,-10,0,12942,3399,115,18831,-4,0,81,-2,322585,0
322577,187,-2027,293,-97,-12,-31,12752,0,-5,75,40,35840,-33,32,127,0,0,3524,0,0,12942,3399,115,18841,-4,0,81,-2,322585,0
322587,200,-2032,289,-94,-14,-28,12751,-18,3,78,8,35840,-59,32,127,0,0,3526,10,0,12942,3399,115,18851,-4,0,81,-2,322585,0
322597,165,-2027,279,-90,-13,-25,12755,11,2,121,64,35844,-59,32,127,0,0,3528,21,0,12942,3399,115,18861,-4,0,81,-2,322585,0
322607,173,-2027,281,-89,-8,-24,12755,-4,6,174,56,35852,-61,32,127,0,0,3526,-43,0,12942,3399,115,18871,-4,0,81,-2,322601,0
322617,148,-2034,291,-87,-12,-19,12754,0,-8,137,56,35862,-37,32,127,0,0,3526,-21,0,12942,3399,115,18881,-4,0,81,-2,322601,0
322627,165,-2026,288,-86,-12,-22,12755,-6,3,111,32,35876,-31,32,127,0,0,3526,10,0,12942,3399,115,18891,-4,0,81,-2,322648,0
322637,184,-2021,288,-86,-7,-16,12755,-4,0,92,8,35869,-34,32,127,0,0,3524,-21,0,12942,3399,115,18901,-4,0,81,-2,322648,0
322647,170,-2022,286,-78,-11,-13,12754,8,-6,105,56,35862,-39,32,127,0,0,3526,21,0,12942,3399,115,18911,-4,0,81,-2,322648,0
322657,225,-2034,287,-82,-14,8,12756,-13,11,165,40,35855,-47,32,127,0,0,3526,0,0,12942,3399,115,18921,-4,0,81,-2,322648,0
322667,198,-2030,282,-79,-18,19,12758,3,-5,201,72,35846,-37,32,127,0,0,3531,21,0,12942,3399,115,18931,-4,0,81,-2,322663,0
322677,172,-2028,272,-71,-19,28,12760,7,0,237,64,35846,-45,32,127,0,0,3531,0,0,12942,3399,115,18941,-4,0,81,-2,322663,0
322687,162,-2030,274,-66,-15,22,12760,3,-4,280,112,35848,-32,32,127,0,0,3535,43,0,12942,3399,115,18951,-4,0,81,-2,322663,0
322697,179,-2029,275,-61,-12,25,12770,21,16,317,128,35850,-33,32,127,0,0,3537,32,0,12942,3399,115,18961,-4,0,81,-2,322694,0
322707,158,-2032,272,-57,-6,30,12777,21,15,359,136,35859,-32,32,127,0,0,3537,0,0,12942,3399,115,18971,-4,0,81,-2,322694,0
322717,167,-2027,270,-46,-4,23,12787,28,-3,353,136,35856,-41,32,127,0,0,3541,0,0,12942,3399,115,18981,-4,0,81,-2,322694,0
322727,171,-2033,271,-40,-2,19,12821,97,44,241,48,35857,-41,32,127,0,0,3541,-21,0,12942,3399,115,18991,-4,0,81,-2,322726,0
322737,210,-2017,292,-37,-8,36,12844,19,32,90,64,35857,-28,31,127,0,0,3546,32,0,12942,3399,115,19001,-4,0,81,-2,322741,0
322747,145,-2034,287,-35,-10,43,12845,7,-71,235,88,35861,-15,31,127,0,0,3546,10,0,12942,3399,115,19011,-4,0,81,-2,322741,0
322757,177,-2022,286,-34,-12,45,12851,10,-34,173,104,35860,-10,32,127,0,0,3550,65,0,12942,3399,115,19021,-4,0,81,-2,322741,0
322767,152,-2025,280,-38,-15,44,12867,51,24,227,40,35856,-7,32,127,0,0,3552,21,0,12942,3399,115,19031,-4,0,81,-2,322773,0
322777,182,-2028,287,-28,-15,52,12888,27,36,158,56,35853,13,32,127,0,0,3557,32,0,12942,3399,115,19041,-4,0,81,-2,322773,0
322787,144,-2029,276,-24,-5,35,12887,0,-41,257,112,35855,18,32,127,0,0,3555,-21,0,12942,3399,115,19051,-4,0,81,-2,322773,0
322797,158,-2031,284,-22,-1,26,12889,-7,-36,287,128,35854,17,32,127,0,0,3559,21,0,12942,3399,115,19061,-4,0,81,-2,322788,0
322807,148,-2029,284,-24,-2,24,12892,0,3,320,128,35857,11,32,127,0,0,3561,43,0,12942,3399,115,19071,-4,0,81,-2,322788,0
322817,143,-2029,285,-25,-2,18,12899,22,10,427,120,35857,6,32,127,0,0,3563,0,0,12942,3399,115,19081,-4,0,81,-2,322804,0
322827,156,-2035,287,-21,-8,4,12902,7,5,422,152,35861,16,32,127,0,0,3568,10,0,12942,3399,115,19091,-4,0,81,-2,322819,0
322837,138,-2031,283,-15,-10,1,12904,3,-8,449,136,35860,9,32,127,0,0,3568,21,0,12942,3399,115,19101,-4,0,81,-2,322835,0
322847,134,-2029,281,-17,2,-16,12907,10,-2,486,184,35857,13,32,127,0,0,3568,10,0,12942,3399,115,19111,-4,0,81,-2,322835,0
322857,158,-2036,291,-13,-3,-25,12920,29,22,475,104,35856,17,32,127,0,0,3568,-21,0,12942,3399,115,19121,-4,0,81,-2,322835,0
322867,156,-2027,292,-11,1,-22,12944,62,44,313,104,35858,6,32,127,0,0,3570,0,0,12942,3399,115,19131,-4,0,81,-2,322851,0
322877,177,-2021,294,-22,1,-20,12959,12,-2,301,96,35865,-19,32,127,0,0,3570,-21,0,12942,3399,115,19141,-4,0,81,-2,322882,0
322887,168,-2031,285,-10,-1,-16,12956,-5,-59,309,112,35860,-40,32,127,0,0,3572,0,0,12942,3399,115,19151,-4,0,81,-2,322898,0
322897,175,-2024,291,-7,8,0,12958,8,-23,293,72,35856,-40,32,127,0,0,3572,10,0,12942,3399,115,19161,-4,0,81,-2,322898,0
322907,173,-2020,290,-8,5,14,12957,0,6,303,104,35849,-26,32,127,0,0,3574,54,0,12942,3399,115,19171,-4,0,81,-2,322898,0
322917,202,-2030,274,-4,3,41,12958,4,2,343,80,35859,-22,32,127,0,0,3574,43,0,12942,3399,115,19181,-4,0,81,-2,322898,0
322927,195,-2027,285,3,5,48,12961,12,-1,411,144,35875,-31,32,127,0,0,3577,10,0,12942,3399,115,19191,-4,0,81,-2,322944,0
322937,191,-2028,282,6,1,71,12965,7,11,420,152,35880,-45,32,127,0,0,3579,32,0,12942,3399,115,19201,-4,0,81,-2,322944,0
322947,183,-2027,294,12,6,93,12976,25,14,428,160,35872,-29,32,127,0,0,3583,43,0,12942,3399,115,19211,-4,0,81,-2,322944,0
322957,148,-2028,293,12,3,99,13002,80,35,397,152,35864,-31,32,127,0,0,3585,21,0,12942,3399,115,19221,-4,0,81,-2,322944,0
322967,198,-2032,303,4,5,126,13045,77,70,239,120,35857,-34,32,127,0,0,3592,76,0,12942,3399,115,19231,-4,0,81,-2,322944,0
322977,131,-2030,296,5,-5,127,13081,83,11,203,64,35869,-65,32,127,0,0,3594,32,0,12942,3399,115,19241,-4,0,81,-2,322976,0
322987,160,-2025,304,8,3,103,13083,-11,-73,305,176,35871,-72,32,127,0,0,3601,65,0,12942,3399,115,19251,-4,0,81,-2,322976,0
322997,134,-2027,303,7,6,109,13090,15,-63,406,144,35869,-70,32,127,0,0,3601,21,0,12942,3399,115,19261,-4,0,81,-2,322991,0
323007,122,-2020,292,8,5,96,13098,15,14,483,112,35860,-46,32,127,0,0,3603,0,0,12942,3399,115,19271,-4,0,81,-2,323007,0
323017,109,-2033,305,7,9,78,13123,64,26,409,152,35855,-43,32,127,0,0,3607,10,0,12942,3399,115,19281,-4,0,81,-2,323007,0
323027,130,-2028,297,4,-1,87,13156,50,49,262,136,35858,-38,32,127,0,0,3610,32,0,12942,3399,115,19291,-4,0,81,-2,323007,0
323037,95,-2035,301,-2,2,62,13166,12,-31,326,136,35861,-57,32,127,0,0,3612,0,0,12942,3399,115,19301,-4,0,81,-2,323038,0
323047,95,-2035,303,-3,0,46,13177,31,-50,307,136,35863,-57,32,127,0,0,3616,54,0,12942,3399,115,19311,-4,0,81,-2,323038,0
323057,98,-2027,315,-5,0,30,13203,64,36,208,104,35862,-75,32,127,0,0,3618,54,0,12942,3399,115,19321,-4,0,81,-2,323038,0
323067,122,-2025,318,-10,-4,19,13216,3,8,194,72,35865,-88,32,127,0,0,3618,10,0,12942,3399,115,19331,-4,0,81,-2,323069,0
323077,98,-2031,311,-18,0,7,13213,4,-63,265,104,35863,-91,32,127,0,0,3621,21,0,12942,3399,115,19341,-4,0,81,-2,323069,0
323087,120,-2028,313,-18,-2,0,13216,-1,-10,303,88,35862,-104,32,127,0,0,3621,10,0,12942,3399,115,19351,-4,0,81,-2,323085,0
323097,127,-2025,306,-20,1,-1,13215,-7,4,325,120,35858,-93,32,127,0,0,3621,0,0,12942,3399,115,19361,-4,0,81,-2,323085,0
323107,131,-2026,303,-19,-1,-9,13217,3,-5,319,120,35858,-91,32,127,0,0,3623,10,0,12942,3399,115,19371,-4,0,81,-2,323085,0
323117,122,-2030,305,-29,-4,-10,13221,11,6,375,96,35861,-85,32,127,0,0,3625,21,0,12942,3399,115,19381,-4,0,81,-2,323116,0
323127,118,-2034,311,-25,8,-8,13230,19,15,359,112,35866,-104,32,127,0,0,3623,-21,0,12942,3399,115,19391,-4,0,81,-2,323116,0
323137,128,-2043,307,-26,-1,-10,13246,39,23,217,88,35865,-123,32,127,0,0,3625,21,0,12942,3399,115,19401,-4,0,81,-2,323116,0
323147,131,-2035,304,-28,-1,-9,13265,40,23,118,88,35864,-120,32,127,0,0,3623,0,0,12942,3399,115,19411,-4,0,81,-2,323148,0
323157,116,-2037,305,-27,6,-6,13265,-5,-30,183,56,35854,-83,32,127,0,0,3627,-32,0,12942,3399,115,19421,-4,0,81,-2,323163,0
323167,131,-2036,314,-33,3,-4,13267,3,-37,203,24,35846,-82,32,127,0,0,3627,0,0,12942,3399,115,19431,-4,0,81,-2,323179,0
323177,124,-2035,323,-36,-3,1,13266,3,3,223,56,35842,-83,32,127,0,0,3627,10,0,12942,3399,115,19441,-4,0,81,-2,323179,0
323187,130,-2032,315,-35,-1,6,13269,9,5,261,112,35847,-103,32,127,0,0,3629,-10,0,12942,3399,115,19451,-4,0,81,-2,323179,0
323197,127,-2029,306,-43,-6,0,13269,0,4,248,80,35852,-99,32,127,0,0,3629,0,0,12942,3399,115,19461,-4,0,81,-2,323179,0
323207,125,-2033,299,-35,-13,2,13269,-1,-3,290,136,35868,-103,32,127,0,0,3634,32,0,12942,3399,115,19471,-4,0,81,-2,323288,0
323217,117,-2025,304,-42,-2,5,13276,20,11,346,112,35869,-90,32,127,0,0,3634,-10,0,12942,3399,115,19481,-4,0,81,-2,323288,0
323227,128,-2017,309,-42,-8,0,13277,-3,4,372,144,35868,-96,32,127,0,0,3634,0,0,12942,3399,115,19491,-4,0,81,-2,323288,0
323237,118,-2021,305,-46,-8,2,13279,-3,-10,389,104,35856,-105,32,127,0,0,3634,-21,0,12942,3399,115,19501,-4,0,81,-2,323288,0
323247,118,-2027,298,-40,-2,5,13280,-7,-3,390,128,35855,-106,32,127,0,0,3636,21,0,12942,3399,115,19511,-4,0,81,-2,323304,0
323257,123,-2021,300,-45,-7,5,13285,17,5,410,152,35854,-102,32,127,0,0,3638,21,0,12942,3399,115,19521,-4,0,81,-2,323304,0
323267,121,-2022,296,-39,-5,-4,13287,5,8,409,184,35851,-92,32,127,0,0,3640,54,0,12942,3399,115,19531,-4,0,81,-2,323304,0
323277,108,-2020,302,-34,2,-6,13297,34,10,480,176,35856,-117,32,127,0,0,3640,0,0,12942,3399,115,19541,-4,0,81,-2,323304,0
323287,119,-2026,296,-34,2,-6,13322,66,51,292,120,35866,-116,32,127,0,0,3640,21,0,12942,3399,115,19551,-4,0,81,-2,323304,0
323297,131,-2029,312,-40,-2,-7,13336,11,6,288,80,35871,-99,32,127,0,0,3643,-21,0,12942,3399,115,19561,-4,0,81,-2,323304,0
323307,107,-2028,311,-42,-3,-15,13335,0,-60,370,112,35866,-92,32,127,0,0,3643,-21,0,12942,3399,115,19571,-4,0,81,-2,323304,0
323317,124,-2027,312,-45,-5,-21,13336,-11,-25,313,80,35855,-80,32,127,0,0,3643,21,0,12942,3399,115,19581,-4,0,81,-2,323304,0
323327,119,-2030,321,-46,-4,-23,13339,8,7,353,80,35850,-78,32,127,0,0,3643,-32,0,12942,3399,115,19591,-4,0,81,-2,323304,0
323337,105,-2030,307,-53,-7,-34,13337,-1,-3,371,104,35870,-91,32,127,0,0,3645,0,0,12942,3399,115,19601,-4,0,81,-2,323335,0
323347,114,-2033,317,-53,-5,-35,13339,-14,-2,333,112,35867,-83,32,127,0,0,3645,32,0,12942,3399,115,19611,-4,0,81,-2,323335,0
323357,121,-2023,308,-57,-5,-38,13341,13,5,380,96,35864,-82,32,127,0,0,3645,0,0,12942,3399,115,19621,-4,0,81,-2,323335,0
323367,106,-2038,305,-57,-6,-41,13339,-9,-1,396,88,35844,-78,32,127,0,0,3645,-10,0,12942,3399,115,19631,-4,0,81,-2,323351,0
323377,108,-2026,303,-57,-11,-40,13339,-7,-12,366,104,35855,-85,32,127,0,0,3645,0,0,12942,3399,115,19641,-4,0,81,-2,323382,0
323387,127,-2028,298,-57,-13,-38,13340,-3,2,333,112,35859,-86,32,127,0,0,3645,10,0,12942,3399,115,19651,-4,0,81,-2,323382,0
323397,132,-2037,294,-59,-5,-40,13341,12,3,354,112,35860,-84,32,127,0,0,3645,10,0,12942,3399,115,19661,-4,0,81,-2,323382,0
323407,131,-2027,297,-55,0,-44,13340,10,0,345,144,35856,-83,32,127,0,0,3643,-10,0,12942,3399,115,19671,-4,0,81,-2,323413,0
323417,99,-2029,298,-44,-5,-48,13338,-8,-6,375,88,35856,-75,32,127,0,0,3645,-32,0,12942,3399,115,19681,-4,0,81,-2,323413,0
323427,72,-2024,302,-49,-10,-42,13340,6,0,324,112,35856,-78,32,127,0,0,3643,-10,0,12942,3399,115,19691,-4,0,81,-2,323413,0
323437,123,-2029,303,-51,3,-39,13338,-11,-1,297,128,35857,-80,32,127,0,0,3645,21,0,12942,3399,115,19701,-4,0,81,-2,323413,0
323447,130,-2030,295,-53,3,-39,13342,15,7,369,96,35866,-78,32,127,0,0,3645,0,0,12942,3399,115,19711,-4,0,81,-2,323444,0
323457,116,-2025,287,-51,0,-42,13340,0,-2,337,112,35866,-80,32,127,0,0,3645,0,0,12942,3399,115,19721,-4,0,81,-2,323444,0
323467,121,-2031,296,-48,0,-37,13341,14,-6,351,64,35863,-91,32,127,0,0,3643,-32,0,12942,3399,115,19731,-4,0,81,-2,323444,0
323477,115,-2023,298,-48,-6,-33,13338,4,0,308,80,35857,-86,32,127,0,0,3643,10,0,12942,3399,115,19741,-4,0,81,-2,323476,0
323487,134,-2029,294,-49,-5,-39,13339,3,8,292,40,35850,-70,32,127,0,0,3640,-10,0,12942,3399,115,19751,-4,0,81,-2,323491,0
323497,111,-2035,304,-59,-6,-49,13339,10,0,297,112,35846,-75,32,127,0,0,3643,0,0,12942,3399,115,19761,-4,0,81,-2,323491,0
323507,124,-2029,307,-61,-9,-55,13340,2,2,348,96,35842,-71,32,127,0,0,3643,-21,0,12942,3399,115,19771,-4,0,81,-2,323491,0
323517,96,-2036,300,-63,-3,-63,13338,-4,1,309,112,35848,-67,32,127,0,0,3643,0,0,12942,3399,115,19781,-4,0,81,-2,323522,0
323527,119,-2032,302,-62,-11,-62,13338,-11,-2,255,88,35848,-65,32,127,0,0,3640,0,0,12942,3399,115,19791,-4,0,81,-2,323522,0
323537,103,-2037,307,-56,-1,-67,13339,9,1,291,32,35842,-68,32,127,0,0,3643,-21,0,12942,3399,115,19801,-4,0,81,-2,323522,0
323547,104,-2030,309,-63,-15,-74,13335,-9,-1,227,72,35840,-74,32,127,0,0,3640,10,0,12942,3399,115,19811,-4,0,81,-2,323538,0
323557,121,-2029,303,-61,-3,-85,13337,2,-3,207,56,35856,-74,32,127,0,0,3640,10,0,12942,3399,115,19821,-4,0,81,-2,323538,0
323567,109,-2032,297,-57,1,-94,13334,-7,6,199,32,35854,-76,32,127,0,0,3638,0,0,12942,3399,115,19831,-4,0,81,-2,323554,0
323577,145,-2030,291,-63,-2,-83,13333,-13,-3,94,64,35848,-80,32,127,0,0,3636,10,0,12942,3399,115,19841,-4,0,81,-2,323569,0
323587,118,-2034,301,-59,4,-82,13331,11,-11,87,24,35840,-60,32,127,0,0,3636,0,0,12942,3399,115,19851,-4,0,81,-2,323569,0
323597,138,-2027,310,-69,5,-78,13328,-14,-2,-2,16,35841,-66,32,127,0,0,3634,10,0,12942,3399,115,19861,-4,0,81,-2,323569,0
323607,116,-2034,320,-63,-6,-73,13327,12,-5,-17,16,35847,-80,32,127,0,0,3632,-21,0,12942,3399,115,19871,-4,0,81,-2,323601,0
323617,125,-2026,305,-74,-8,-78,13322,-13,6,-70,-8,35846,-92,32,127,0,0,3629,0,0,12942,3399,115,19881,-4,0,81,-2,323601,0
323627,101,-2037,304,-87,-8,-88,13322,-7,0,-92,-40,35844,-90,32,127,0,0,3627,-43,0,12942,3399,115,19891,-4,0,81,-2,323632,0
323637,95,-2020,303,-80,1,-112,13315,-19,-7,-177,-40,35853,-102,32,127,0,0,3627,0,0,12942,3399,115,19901,-4,0,81,-2,323632,0
323647,100,-2036,306,-82,5,-120,13309,-7,-1,-164,-48,35850,-100,32,127,0,0,3623,-54,0,12942,3399,115,19911,-4,0,81,-2,323632,0
323657,108,-2032,318,-90,2,-122,13295,-36,-10,-207,-32,35854,-107,32,127,0,0,3621,-43,0,12942,3399,115,19921,-4,0,81,-2,323679,0
323667,142,-2029,314,-94,-3,-128,13264,-72,-51,-107,-32,35852,-98,32,127,0,0,3614,-54,0,12942,3399,115,19931,-4,0,81,-2,323679,0
323677,127,-2023,312,-103,-5,-115,13258,1,12,-226,-64,35851,-101,32,127,0,0,3612,-76,0,12942,3399,115,19941,-4,0,81,-2,323679,0
323687,160,-2027,309,-104,-10,-112,13253,-23,55,-340,-48,35848,-103,32,127,0,0,3610,-10,0,12942,3399,115,19951,-4,0,81,-2,323679,0
323697,156,-2028,292,-109,-12,-95,13251,-18,5,-374,-96,35849,-114,32,127,0,0,3610,0,0,12942,3399,115,19961,-4,0,81,-2,323694,0
323707,138,-2037,287,-97,-19,-84,13243,-18,-5,-372,-72,35847,-99,32,127,0,0,3605,-43,0,12942,3399,115,19971,-4,0,81,-2,323694,0
323717,158,-2030,271,-84,-9,-72,13226,-53,-33,-363,-64,35858,-92,32,127,0,0,3607,10,0,12942,3399,115,19981,-4,0,81,-2,323741,0
323727,144,-2036,264,-79,-6,-68,13202,-33,-36,-101,-24,35858,-90,32,127,0,0,3605,-43,0,12942,3399,115,19991,-4,0,81,-2,323741,0
323737,181,-2032,255,-67,-13,-45,13200,-9,37,-269,0,35857,-81,32,127,0,0,3603,-10,0,12942,3399,115,20001,-4,0,81,-2,323757,0
323747,176,-2038,261,-62,-12,-39,13202,13,40,-226,-80,35846,-74,32,127,0,0,3603,-54,0,12942,3399,115,20011,-4,0,81,-2,323757,0
323757,111,-2034,274,-44,-16,-11,13199,-1,-11,-232,-104,35844,-76,32,127,0,0,3605,-32,0,12942,3399,115,20021,-4,0,81,-2,323757,0
323767,95,-2032,281,-32,-5,-8,13200,15,2,-192,-112,35847,-83,32,127,0,0,3607,10,0,12942,3399,115,20031,-4,0,81,-2,323757,0
323777,188,-2036,287,-37,3,-2,13198,-2,11,-217,-96,35854,-82,32,127,0,0,3603,0,0,12942,3399,115,20041,-4,0,81,-2,323757,0
323787,158,-2031,285,-32,2,3,13197,8,0,-235,-64,35855,-74,32,127,0,0,3601,-32,0,12942,3399,115,20051,-4,0,81,-2,323772,0
323797,90,-2031,284,-25,-14,16,13196,4,4,-255,-56,35859,-64,32,127,0,0,3603,-32,0,12942,3399,115,20061,-4,0,81,-2,323835,0
323807,97,-2025,285,-21,-11,10,13197,5,0,-270,-48,35852,-73,32,127,0,0,3605,10,0,12942,3399,115,20071,-4,0,81,-2,323835,0
323817,130,-2027,289,-22,-1,13,13198,9,10,-205,-112,35854,-83,32,127,0,0,3603,0,0,12942,3399,115,20081,-4,0,81,-2,323835,0
323827,107,-2024,285,-15,-1,14,13198,5,-2,-195,-40,35851,-92,32,127,0,0,3607,54,0,12942,3399,115,20091,-4,0,81,-2,323835,0
323837,130,-2028,296,-15,-14,22,13201,3,6,-113,-24,35851,-86,32,127,0,0,3607,10,0,12942,3399,115,20101,-4,0,81,-2,323835,0
323847,136,-2023,294,-15,-16,28,13202,1,3,-37,-40,35853,-77,32,127,0,0,3610,0,0,12942,3399,115,20111,-4,0,81,-2,323835,0
323857,125,-2025,294,-15,-22,22,13204,16,3,12,-16,35855,-74,32,127,0,0,3612,21,0,12942,3399,115,20121,-4,0,81,-2,323835,0
323867,115,-2032,297,-20,-17,25,13207,9,5,82,0,35870,-96,32,127,0,0,3614,21,0,12942,3399,115,20131,-4,0,81,-2,323850,0
323877,130,-2020,295,-21,-16,19,13208,-5,5,101,64,35880,-109,32,127,0,0,3616,43,0,12942,3399,115,20141,-4,0,81,-2,323850,0
323887,112,-2032,294,-20,-17,16,13212,6,1,131,24,35887,-112,32,127,0,0,3616,21,0,12942,3399,115,20151,-4,0,81,-2,323897,0
323897,100,-2028,299,-21,-11,4,13215,10,6,192,80,35876,-114,32,127,0,0,3621,32,0,12942,3399,115,20161,-4,0,81,-2,323897,0
323907,90,-2033,302,-25,-15,-8,13219,11,0,218,64,35865,-102,32,127,0,0,3618,10,0,12942,3399,115,20171,-4,0,81,-2,323897,0
323917,160,-2015,311,-26,50,-13,13221,1,4,214,56,35854,-103,32,127,0,0,3618,0,0,12942,3399,115,20181,-4,0,81,-2,323897,0
323927,118,-2030,313,-27,15,-23,13222,15,-4,251,80,35864,-80,32,127,0,0,3621,0,0,12942,3399,115,20191,-4,0,81,-2,323929,0
323937,139,-2026,298,-21,-11,-25,13225,-2,0,187,48,35874,-80,32,127,0,0,3621,32,0,12942,3399,115,20201,-4,0,81,-2,323929,0
323947,134,-2029,298,-21,-5,-20,13226,2,-6,175,96,35877,-91,32,127,0,0,3618,10,0,12942,3399,115,20211,-4,0,81,-2,323929,0
323957,138,-2028,297,-19,-7,-20,13223,-6,-5,178,88,35875,-104,32,127,0,0,3616,-10,0,12942,3399,115,20221,-4,0,81,-2,324007,0
323967,168,-2029,290,-20,-9,-18,13226,-4,4,203,72,35872,-100,31,127,0,0,3621,0,0,12942,3399,115,20231,-4,0,81,-2,324022,0
323977,132,-2030,296,-12,-14,0,13228,2,1,186,80,35873,-97,31,127,0,0,3621,32,0,12942,3399,115,20241,-4,0,81,-2,324022,0
323987,132,-2033,302,-13,-7,17,13228,3,-3,214,64,35866,-98,32,127,0,0,3623,21,0,12942,3399,115,20251,-4,0,81,-2,324022,0
323997,130,-2026,305,-12,-19,34,13234,23,12,245,48,35858,-96,32,127,0,0,3621,-21,0,12942,3399,115,20261,-4,0,81,-2,324022,0
324007,131,-2032,303,-16,-16,32,13247,33,24,189,80,35858,-96,32,127,0,0,3625,21,0,12942,3399,115,20271,-4,0,81,-2,324038,0
324017,128,-2029,312,-18,-25,46,13273,39,42,78,56,35860,-102,32,127,0,0,3627,32,0,12942,3399,115,20281,-4,0,81,-2,324038,0
324027,125,-2008,326,-22,-19,29,13271,-13,-32,204,48,35862,-122,32,127,0,0,3627,0,0,12942,3399,115,20291,-4,0,81,-2,324038,0
324037,85,-2032,299,-15,-25,20,13274,4,-49,254,96,35864,-131,32,127,0,0,3634,54,0,12942,3399,115,20301,-4,0,81,-2,324038,0
324047,97,-2030,305,-21,-18,11,13282,14,26,355,64,35873,-131,32,127,0,0,3636,10,0,12942,3399,115,20311,-4,0,81,-2,324038,0
324057,95,-2030,299,-24,-14,6,13283,3,-6,360,96,35875,-120,32,127,0,0,3634,10,0,12942,3399,115,20321,-4,0,81,-2,324038,0
324067,106,-2022,303,-26,-19,-6,13284,6,-4,377,128,35885,-101,32,127,0,0,3636,10,0,12942,3399,115,20331,-4,0,81,-2,324069,0
324077,105,-2033,300,-31,-14,-18,13288,7,5,399,104,35880,-84,32,127,0,0,3636,-10,0,12942,3399,115,20341,-4,0,81,-2,324069,0
324087,99,-2039,299,-27,-20,-19,13293,8,5,346,112,35875,-86,32,127,0,0,3636,10,0,12942,3399,115,20351,-4,0,81,-2,324069,0
324097,97,-2037,305,-30,-22,-23,13296,17,-1,347,56,35874,-103,32,127,0,0,3636,10,0,12942,3399,115,20361,-4,0,81,-2,324100,0
324107,119,-2009,329,-35,-27,-27,13298,7,-3,347,88,35872,-107,32,127,0,0,3636,-10,0,12942,3399,115,20371,-4,0,81,-2,324100,0
324117,76,-2038,319,-36,-29,-31,13304,17,7,261,88,35871,-119,32,127,0,0,3636,21,0,12942,3399,115,20381,-4,0,81,-2,324100,0
324127,116,-2027,315,-45,-35,-36,13313,29,11,250,56,35859,-117,32,127,0,0,3636,0,0,12942,3399,115,20391,-4,0,81,-2,324100,0
324137,89,-2042,327,-50,-15,-49,13319,4,6,193,48,35864,-96,32,127,0,0,3634,-21,0,12942,3399,115,20401,-4,0,81,-2,324147,0
324147,88,-2041,331,-59,-20,-54,13315,-12,-25,152,56,35867,-88,32,127,0,0,3636,21,0,12942,3399,115,20411,-4,0,81,-2,324147,0
324157,87,-2030,326,-64,-19,-69,13320,-3,-1,181,80,35870,-89,32,127,0,0,3636,0,0,12942,3399,115,20421,-4,0,81,-2,324163,0
324167,116,-2032,309,-67,-16,-76,13318,-2,1,137,56,35860,-96,32,127,0,0,3636,0,0,12942,3399,115,20431,-4,0,81,-2,324163,0
324177,114,-2034,311,-72,-17,-68,13320,15,-6,157,48,35855,-97,32,127,0,0,3636,0,0,12942,3399,115,20441,-4,0,81,-2,324163,0
324187,105,-2030,305,-75,-25,-67,13319,-4,4,144,56,35866,-84,31,127,0,0,3634,-10,0,12942,3399,115,20451,-4,0,81,-2,324194,0
324197,132,-2026,311,-72,-9,-73,13318,-1,-3,118,48,35873,-67,32,127,0,0,3636,21,0,12942,3399,115,20461,-4,0,81,-2,324194,0
324207,126,-2022,300,-75,-12,-68,13320,-5,3,172,48,35873,-72,32,127,0,0,3634,-21,0,12942,3399,115,20471,-4,0,81,-2,324194,0
324217,119,-2030,282,-68,-11,-61,13319,4,-5,125,56,35860,-78,32,127,0,0,3634,-10,0,12942,3399,115,20481,-4,0,81,-2,324194,0
324227,156,-2016,289,-64,-6,-59,13318,-5,-5,150,48,35857,-86,32,127,0,0,3634,-32,0,12942,3399,115,20491,-4,0,81,-2,324225,0
324237,109,-2025,287,-61,-20,-51,13317,-4,-7,111,48,35862,-102,32,127,0,0,3636,21,0,12942,3399,115,20501,-4,0,81,-2,324225,0
324247,134,-2030,289,-66,-15,-42,13321,0,8,162,40,35867,-98,32,127,0,0,3636,0,0,12942,3399,115,20511,-4,0,81,-2,324225,0
324257,122,-2027,295,-62,-11,-35,13319,-4,-1,138,56,35865,-107,32,127,0,0,3636,10,0,12942,3399,115,20521,-4,0,81,-2,324241,0
324267,124,-2023,307,-67,-10,-39,13321,5,-2,167,40,35863,-95,32,127,0,0,3636,0,0,12942,3399,115,20531,-4,0,81,-2,324257,0
324277,116,-2027,311,-70,-18,-42,13319,-10,-1,151,48,35866,-100,32,127,0,0,3634,-10,0,12942,3399,115,20541,-4,0,81,-2,324257,0
324287,101,-2034,309,-73,-6,-49,13319,1,-4,127,48,35872,-110,32,127,0,0,3636,0,0,12942,3399,115,20551,-4,0,81,-2,324288,0
324297,109,-2031,305,-76,-3,-48,13320,-12,1,175,48,35873,-110,32,127,0,0,3636,0,0,12942,3399,115,20561,-4,0,81,-2,324303,0
324307,107,-2034,303,-73,-3,-51,13320,5,-4,177,48,35871,-108,32,127,0,0,3636,0,0,12942,3399,115,20571,-4,0,81,-2,324303,0
324317,108,-2036,297,-72,-9,-57,13320,3,3,174,48,35866,-98,32,127,0,0,3636,0,0,12942,3399,115,20581,-4,0,81,-2,324303,0
324327,109,-2034,292,-75,-9,-64,13320,0,-2,176,48,35858,-78,32,127,0,0,3636,-10,0,12942,3399,115,20591,-4,0,81,-2,324303,0
324337,112,-2031,290,-73,-9,-54,13318,-3,-6,136,16,35854,-70,32,127,0,0,3636,21,0,12942,3399,115,20601,-4,0,81,-2,324335,0
324347,111,-2036,282,-70,-9,-53,13321,8,5,171,8,35852,-73,32,127,0,0,3636,-10,0,12942,3399,115,20611,-4,0,81,-2,324350,0
324357,87,-2027,291,-64,-18,-54,13319,9,0,136,56,35848,-87,32,127,0,0,3634,-10,0,12942,3399,115,20621,-4,0,81,-2,324350,0
324367,136,-2031,287,-69,-12,-59,13320,-6,2,106,24,35852,-109,32,127,0,0,3634,-21,0,12942,3399,115,20631,-4,0,81,-2,324366,0
324377,103,-2033,286,-58,-19,-61,13318,7,-4,95,64,35854,-106,32,127,0,0,3636,21,0,12942,3399,115,20641,-4,0,81,-2,324366,0
324387,108,-2025,287,-59,-19,-59,13320,-7,10,123,48,35853,-106,32,127,0,0,3632,-21,0,12942,3399,115,20651,-4,0,81,-2,324366,0
324397,114,-2031,290,-55,-14,-72,13317,-14,-5,80,64,35856,-101,32,127,0,0,3634,10,0,12942,3399,115,20661,-4,0,81,-2,324413,0
324407,133,-2031,298,-61,-17,-65,13319,-10,2,57,24,35862,-100,32,127,0,0,3634,0,0,12942,3399,115,20671,-4,0,81,-2,324413,0
324417,124,-2030,280,-52,-8,-69,13320,16,-2,127,48,35861,-101,32,127,0,0,3634,-21,0,12942,3399,115,20681,-4,0,81,-2,324413,0
324427,131,-2031,278,-54,-8,-65,13317,-18,-4,50,72,35857,-108,32,127,0,0,3634,21,0,12942,3399,115,20691,-4,0,81,-2,324413,0
324437,166,-2035,300,-51,-3,-60,13318,-9,-2,31,0,35849,-100,32,127,0,0,3632,0,0,12942,3399,115,20701,-4,0,81,-2,324413,0
324447,132,-2037,301,-57,-19,-66,13315,10,0,17,16,35862,-95,32,127,0,0,3632,0,0,12942,3399,115,20711,-4,0,81,-2,324491,0
324457,175,-2027,309,-59,-33,-73,13314,-13,-4,-11,-24,35865,-76,32,127,0,0,3627,10,0,12942,3399,115,20721,-4,0,81,-2,324491,0
324467,461,-2092,207,-122,-6,-243,13313,-10,0,-72,-48,35863,-77,32,127,0,0,3627,10,0,12942,3399,115,20731,-4,0,81,-2,324491,0
324477,507,-1941,163,-163,50,-853,13311,5,-2,-97,-64,35849,-80,32,127,0,0,3612,-208,0,12942,3399,115,20741,-4,0,81,-2,324491,0
324487,112,-1963,206,-175,57,-503,13275,-134,-64,-461,-312,35850,-98,32,127,0,0,3590,-208,0,12942,3399,115,20751,-4,0,81,-2,324491,0
324497,342,-2154,454,-100,-70,-55,13174,-222,-197,-312,-208,35853,-91,32,127,0,0,3585,-43,0,12942,3399,115,20761,-4,0,81,-2,324507,0
324507,282,-2089,213,-125,-97,-194,13092,-147,-78,-58,-16,35851,-85,32,127,0,0,3585,-10,0,12942,3399,115,20771,-4,0,81,-2,324507,0
324517,468,-1931,73,-145,25,-775,13078,25,158,-10,-16,35850,-67,32,127,0,0,3577,-142,0,12942,3399,115,20781,-4,0,81,-2,324507,0
324527,283,-1928,189,-146,83,-720,13066,-63,146,-404,-256,35858,-54,32,127,0,0,3552,-263,0,12942,3399,115,20791,-4,0,81,-2,324507,0
324537,511,-2061,358,-153,-13,-333,13003,-174,-108,-508,-328,35866,-42,32,127,0,0,3541,-98,0,12942,3399,115,20801,-4,0,81,-2,324538,0
324547,611,-2074,258,-139,-99,-312,12910,-209,-158,-304,-192,35861,-26,32,127,0,0,3531,-76,0,12942,3399,115,20811,-4,0,81,-2,324538,0
324557,384,-2041,66,-153,-70,-627,12834,-128,-30,-216,-136,35856,-2,32,127,0,0,3520,-131,0,12942,3399,115,20821,-4,0,81,-2,324538,0
324567,277,-1983,122,-123,42,-711,12797,-64,112,-466,-232,35856,-10,32,127,0,0,3502,-186,0,12942,3399,115,20831,-4,0,81,-2,324569,0
324577,470,-2006,355,-104,34,-492,12727,-187,23,-443,-280,35857,-10,32,127,0,0,3484,-142,0,12942,3399,115,20841,-4,0,81,-2,324569,0
324587,587,-2012,369,-135,-61,-346,12635,-192,-121,-314,-216,35853,-30,32,127,0,0,3478,-65,0,12942,3399,115,20851,-4,0,81,-2,324569,0
324597,528,-2052,175,-156,-110,-363,12565,-140,8,-227,-112,35846,-45,32,127,0,0,3476,-32,0,12942,3399,115,20861,-4,0,81,-2,324585,0
324607,342,-1958,112,-133,-78,-474,12539,-34,121,-230,-136,35844,-56,32,127,0,0,3467,-87,0,12942,3399,115,20871,-4,0,81,-2,324600,0
324617,295,-2024,193,-89,-19,-451,12511,-83,89,-346,-168,35850,-85,32,127,0,0,3458,-76,0,12942,3399,115,20881,-4,0,81,-2,324616,0
324627,351,-2039,213,-76,-47,-403,12472,-65,-32,-355,-144,35853,-98,32,127,0,0,3451,-54,0,12942,3399,115,20891,-4,0,81,-2,324616,0
324637,345,-2077,117,-42,-111,-410,12439,-85,-7,-352,-112,35857,-102,32,127,0,0,3447,-43,0,12942,3399,115,20901,-4,0,81,-2,324647,0
324647,244,-2072,94,-1,-67,-503,12418,-26,33,-378,-112,35849,-82,32,127,0,0,3443,-65,0,12942,3399,115,20911,-4,0,81,-2,324647,0
324657,287,-2033,243,48,-2,-543,12405,-37,46,-523,-216,35850,-85,32,127,0,0,3434,-76,0,12942,3399,115,20921,-4,0,81,-2,324647,0
324667,434,-2043,400,28,-11,-502,12362,-115,-50,-387,-192,35846,-70,32,127,0,0,3425,-65,0,12942,3399,115,20931,-4,0,81,-2,324663,0
324677,510,-2052,410,-85,-99,-372,12311,-120,-71,-317,-128,35850,-68,32,127,0,0,3423,-21,0,12942,3399,115,20941,-4,0,81,-2,324663,0
324687,420,-2019,334,-110,-125,-369,12285,-7,26,-279,-96,35857,-65,32,127,0,0,3418,-43,0,12942,3399,115,20951,-4,0,81,-2,324663,0
324697,272,-2024,236,-111,-106,-382,12286,-11,108,-429,-152,35871,-60,32,127,0,0,3414,-65,0,12942,3399,115,20961,-4,0,81,-2,324757,0
324707,210,-2055,258,-88,-84,-416,12277,-29,26,-507,-136,35880,-76,32,127,0,0,3410,-43,0,12942,3399,115,20971,-4,0,81,-2,324757,0
324717,196,-2060,312,-79,-99,-443,12253,-62,-51,-438,-208,35877,-69,32,127,0,0,3403,-87,0,12942,3399,115,20981,-4,0,81,-2,324757,0
324727,157,-2025,310,-104,-103,-503,12222,-60,-45,-462,-168,35862,-80,32,127,0,0,3399,-43,0,12942,3399,115,20991,-4,0,81,-2,324757,0
324737,123,-2081,328,-122,-108,-600,12191,-86,-5,-466,-208,35853,-61,32,127,0,0,3388,-87,0,12942,3399,115,21001,-4,0,81,-2,324772,0
324747,111,-2089,335,-109,-113,-635,12134,-122,-52,-364,-184,35853,-38,32,127,0,0,3379,-87,0,12942,3399,115,21011,-4,0,81,-2,324772,0
324757,119,-2172,435,-130,-173,-647,12081,-90,-41,-340,-200,35850,-18,32,127,0,0,3370,-109,0,12942,3399,115,21021,-4,0,81,-2,324772,0
324767,189,-2134,415,-186,-259,-611,12042,-99,35,-375,-112,35850,-7,32,127,0,0,3370,0,0,12942,3399,115,21031,-4,0,81,-2,324772,0
324777,245,-2139,263,-243,-202,-632,12022,-13,51,-285,-96,35846,-14,32,127,0,0,3370,-21,0,12942,3399,115,21041,-4,0,81,-2,324772,0
324787,220,-2038,255,-251,-139,-660,12024,8,86,-367,-80,35857,-21,32,127,0,0,3372,43,0,12942,3399,115,21051,-4,0,81,-2,324772,0
324797,353,-2005,197,-257,-102,-682,12026,0,36,-322,-128,35874,-38,32,127,0,0,3372,21,0,12942,3399,115,21061,-4,0,81,-2,324772,0
324807,379,-2020,201,-253,-104,-646,12024,4,-6,-312,-88,35886,-47,32,127,0,0,3370,10,0,12942,3399,115,21071,-4,0,81,-2,324803,0
324817,389,-2030,188,-247,-101,-591,12025,-5,-1,-290,-32,35875,-50,32,127,0,0,3375,43,0,12942,3399,115,21081,-4,0,81,-2,324803,0
324827,388,-2076,197,-246,-105,-546,12029,3,11,-257,-8,35873,-42,32,127,0,0,3375,10,0,12942,3399,115,21091,-4,0,81,-2,324803,0
324837,407,-2065,241,-245,-109,-488,12034,23,10,-132,16,35865,-47,32,127,0,0,3385,76,0,12942,3399,115,21101,-4,0,81,-2,324835,0
324847,395,-2068,231,-251,-110,-444,12053,53,33,17,112,35863,-23,32,127,0,0,3394,109,0,12942,3399,115,21111,-4,0,81,-2,324835,0
324857,371,-2048,214,-244,-73,-401,12082,69,41,222,120,35856,-15,32,127,0,0,3405,131,0,12942,3399,115,21121,-4,0,81,-2,324835,0
324867,373,-2034,214,-240,-48,-378,12144,136,82,204,120,35857,-2,32,127,0,0,3416,109,0,12942,3399,115,21131,-4,0,81,-2,324850,0
324877,362,-1974,253,-244,-18,-357,12198,113,55,198,152,35862,-18,32,127,0,0,3429,142,0,12942,3399,115,21141,-4,0,81,-2,324866,0
324887,413,-1978,265,-237,-42,-389,12254,151,-21,281,136,35872,-20,32,127,0,0,3443,120,0,12942,3399,115,21151,-4,0,81,-2,324866,0
324897,418,-2037,320,-236,-105,-360,12328,164,45,194,168,35870,-41,32,127,0,0,3454,131,0,12942,3399,115,21161,-4,0,81,-2,324897,0
324907,392,-2028,361,-244,-147,-350,12387,132,9,215,120,35867,-55,32,127,0,0,3465,109,0,12942,3399,115,21171,-4,0,81,-2,324897,0
324917,379,-1998,320,-242,-199,-358,12440,136,-34,274,176,35861,-67,32,127,0,0,3478,98,0,12942,3399,115,21181,-4,0,81,-2,324897,0
324927,408,-1989,269,-236,-222,-347,12506,151,22,251,152,35869,-77,32,127,0,0,3489,76,0,12942,3399,115,21191,-4,0,81,-2,324913,0
324937,420,-1936,217,-238,-214,-377,12557,111,-8,321,152,35872,-84,32,127,0,0,3502,87,0,12942,3399,115,21201,-4,0,81,-2,324928,0
324947,435,-1930,166,-246,-213,-369,12606,90,-30,319,176,35872,-80,32,127,0,0,3509,98,0,12942,3399,115,21211,-4,0,81,-2,324928,0
324957,435,-1919,131,-241,-176,-382,12661,111,3,234,160,35867,-72,32,127,0,0,3520,87,0,12942,3399,115,21221,-4,0,81,-2,324944,0
324967,421,-1915,129,-231,-157,-408,12709,108,-3,190,120,35871,-27,32,127,0,0,3524,32,0,12942,3399,115,21231,-4,0,81,-2,324960,0
324977,452,-1942,154,-233,-147,-397,12730,25,-54,269,104,35870,-15,32,127,0,0,3531,76,0,12942,3399,115,21241,-4,0,81,-2,324960,0
324987,399,-1952,166,-221,-157,-393,12754,66,-51,277,80,35872,-13,32,127,0,0,3531,10,0,12942,3399,115,21251,-4,0,81,-2,324991,0
324997,424,-1986,180,-216,-132,-381,12768,12,-4,283,128,35871,-31,32,127,0,0,3537,32,0,12942,3399,115,21261,-4,0,81,-2,324991,0
325007,429,-1970,193,-208,-125,-354,12775,18,-49,395,168,35865,-29,32,127,0,0,3541,43,0,12942,3399,115,21271,-4,0,81,-2,324991,0
325017,450,-1954,205,-198,-136,-322,12793,48,13,421,200,35861,-17,32,127,0,0,3548,65,0,12942,3399,115,21281,-4,0,81,-2,325022,0
325027,439,-1982,219,-194,-155,-302,12852,137,107,248,128,35848,-21,32,127,0,0,3555,43,0,12942,3399,115,21291,-4,0,81,-2,325022,0
325037,429,-2017,242,-203,-202,-298,12900,80,53,143,96,35852,-13,32,127,0,0,3563,98,0,12942,3399,115,21301,-4,0,81,-2,325022,0
325047,412,-2005,230,-209,-207,-345,12904,0,-108,382,112,35857,-9,32,127,0,0,3566,32,0,12942,3399,115,21311,-4,0,81,-2,325022,0
325057,360,-2021,215,-218,-201,-409,12906,18,-87,490,144,35873,6,32,127,0,0,3570,21,0,12942,3399,115,21321,-4,0,81,-2,325147,0
325067,350,-2020,221,-231,-193,-438,12922,44,31,477,144,35867,13,32,127,0,0,3570,10,0,12942,3399,115,21331,-4,0,81,-2,325147,0
325077,356,-2024,188,-243,-206,-469,12953,75,54,335,112,35863,14,32,127,0,0,3572,0,0,12942,3399,115,21341,-4,0,81,-2,325147,0
325087,367,-2012,166,-255,-191,-482,12965,12,1,295,80,35856,-9,32,127,0,0,3572,0,0,12942,3399,115,21351,-4,0,81,-2,325147,0
325097,336,-2012,172,-264,-168,-528,12961,1,-72,334,88,35861,-30,32,127,0,0,3574,21,0,12942,3399,115,21361,-4,0,81,-2,325163,0
325107,362,-2034,184,-271,-164,-539,12963,-2,-15,330,120,35861,-35,32,127,0,0,3574,21,0,12942,3399,115,21371,-4,0,81,-2,325163,0
325117,377,-2061,216,-288,-154,-549,12964,15,4,364,104,35859,-29,32,127,0,0,3574,10,0,12942,3399,115,21381,-4,0,81,-2,325163,0
325127,392,-2068,222,-307,-162,-561,12967,8,3,403,120,35858,-31,32,127,0,0,3577,21,0,12942,3399,115,21391,-4,0,81,-2,325163,0
325137,391,-2032,217,-326,-161,-632,12975,29,8,464,152,35862,-29,32,127,0,0,3581,0,0,12942,3399,115,21401,-4,0,81,-2,325163,0
325147,376,-1996,198,-342,-166,-679,13004,75,46,328,136,35858,-36,32,127,0,0,3583,21,0,12942,3399,115,21411,-4,0,81,-2,325163,0
325157,392,-2021,199,-372,-184,-719,13033,29,42,129,72,35858,-38,32,127,0,0,3581,-10,0,12942,3399,115,21421,-4,0,81,-2,325178,0
325167,370,-2059,197,-360,-213,-751,13026,-13,-80,156,32,35859,-49,32,127,0,0,3581,10,0,12942,3399,115,21431,-4,0,81,-2,325178,0
325177,415,-2128,123,-312,-225,-801,13028,4,-52,106,56,35868,-62,32,127,0,0,3581,21,0,12942,3399,115,21441,-4,0,81,-2,325178,0
325187,380,-2083,163,-313,-202,-831,13029,16,17,143,48,35869,-53,32,127,0,0,3581,0,0,12942,3399,115,21451,-4,0,81,-2,325178,0
325197,392,-2065,210,-372,-213,-900,13031,6,4,227,96,35888,-67,32,127,0,0,3585,32,0,12942,3399,115,21461,-4,0,81,-2,325178,0
325207,350,-2011,225,-394,-194,-981,13036,15,6,256,80,35889,-56,32,127,0,0,3585,10,0,12942,3399,115,21471,-4,0,81,-2,325225,0
325217,562,-1649,115,-615,5,-1051,13038,2,1,235,32,35890,-62,32,127,0,0,3585,21,0,12942,3399,115,21481,-4,0,81,-2,325225,0
325227,629,-1966,206,-775,-149,-984,13039,5,-8,222,80,35877,-54,32,127,0,0,3583,0,0,12942,3399,115,21491,-4,0,81,-2,325225,0
325237,218,-2046,181,-719,-407,-1141,13036,-3,-1,179,80,35863,-60,32,127,0,0,3583,0,0,12942,3399,115,21501,-4,0,81,-2,325225,0
325247,86,-2088,26,-596,-301,-1465,13039,7,7,179,8,35858,-62,32,127,0,0,3572,-186,0,12942,3399,115,21511,-4,0,81,-2,325241,0
325257,-71,-2157,107,-456,-162,-1832,13013,-91,-54,-210,-184,35862,-63,32,127,0,0,3550,-241,0,12942,3399,115,21521,-4,0,81,-2,325241,0
325267,5,-2169,243,-457,-109,-2012,12957,-145,-119,-398,-280,35876,-69,32,127,0,0,3524,-285,0,12942,3399,115,21531,-4,0,81,-2,325272,0
325277,245,-2254,333,-546,-107,-2187,12851,-248,-149,-360,-360,35877,-50,32,127,0,0,3500,-241,0,12942,3399,115,21541,-4,0,81,-2,325272,0
325287,262,-2256,311,-596,-172,-2259,12740,-244,-96,-392,-408,35870,-35,32,127,0,0,3473,-230,0,12942,3399,115,21551,-4,0,-25,0,325272,0
325297,338,-2171,185,-610,-216,-2445,12615,-275,-32,-380,-424,35863,-24,32,127,0,0,3445,-241,0,12942,3399,115,21561,-4,0,-25,0,325288,0
325307,375,-2139,128,-585,-252,-2545,12485,-274,-32,-361,-360,35859,-54,32,127,0,0,3421,-241,0,12942,3399,115,21571,-4,0,-25,0,325288,0
325317,454,-2150,193,-585,-299,-2627,12359,-268,9,-408,-440,35869,-81,32,127,0,0,3392,-285,0,12942,3399,115,21581,-4,0,-24,0,325319,0
325327,552,-2176,234,-586,-348,-2624,12232,-273,5,-425,-456,35867,-90,32,127,0,0,3370,-208,0,12942,3399,115,21591,-4,0,-24,0,325319,0
325337,613,-2233,277,-584,-482,-2649,12106,-293,-5,-394,-384,35864,-61,32,127,0,0,3353,-186,0,12942,3399,115,21601,-4,0,-24,0,325319,0
325347,638,-2206,257,-530,-566,-2670,11991,-245,12,-360,-312,35863,-52,32,127,0,0,3337,-131,0,12942,3399,115,21611,-4,0,-24,0,325334,0
325357,636,-1993,279,-454,-677,-2559,11881,-230,34,-326,-256,35868,-38,32,127,0,0,3324,-142,0,12942,3399,115,21621,-4,0,-23,0,325350,0
325367,376,-1716,414,-330,-667,-2233,11794,-182,59,-360,-280,35871,-57,32,127,0,0,3300,-219,0,12942,3399,115,21631,-4,0,-23,0,325366,0
325377,386,-1745,316,-232,-629,-1783,11703,-216,32,-502,-464,35866,-73,32,127,0,0,3260,-439,0,12942,3399,115,21641,-4,0,-23,0,325366,0
325387,247,-1637,347,-82,-698,-1325,11580,-304,-83,-625,-696,35865,-90,32,127,0,0,3212,-461,0,12942,3399,115,21651,-4,0,-23,0,325381,0
325397,162,-1584,282,124,-750,-541,11410,-377,-163,-512,-880,35857,-77,32,127,0,0,3168,-450,0,12942,3399,115,21661,-4,0,-23,0,325397,0
325407,198,-1512,273,266,-753,-70,11214,-432,-124,-412,-744,35854,-46,32,127,0,0,3135,-329,0,12942,3399,115,21671,-4,0,-21,0,325397,0
325417,196,-1509,236,460,-742,565,11019,-420,-35,-380,-672,35847,-19,32,127,0,0,3104,-296,0,12942,3399,115,21681,-4,0,-20,0,325397,0
325427,176,-1612,288,596,-722,965,10838,-394,34,-425,-672,35849,-34,32,127,0,0,3071,-329,0,12942,3399,115,21691,-4,0,-19,0,325491,0
325437,161,-1783,356,786,-673,1575,10658,-389,26,-413,-656,35849,-41,32,127,0,0,3041,-274,0,12942,3399,115,21701,-4,0,-18,0,325506,0
325447,152,-1871,409,884,-638,1939,10488,-372,22,-405,-584,35858,-46,32,127,0,0,3012,-274,0,12942,3399,115,21711,-4,0,-17,0,325506,0
325457,123,-1963,425,1028,-579,2321,10338,-323,51,-428,-496,35850,-30,32,127,0,0,2992,-197,0,12942,3399,115,21721,-4,0,-15,0,325506,0
325467,122,-2016,398,1118,-541,2506,10203,-278,71,-405,-448,35850,-27,32,127,0,0,2970,-186,0,12942,3399,115,21731,-4,0,-14,0,325506,0
325477,134,-2102,374,1262,-489,2751,10086,-246,88,-386,-360,35849,-48,32,127,0,0,2955,-175,0,12942,3399,115,21741,-4,0,-13,0,325522,0
325487,106,-2119,379,1358,-478,2912,9995,-192,98,-440,-264,35845,-66,32,127,0,0,2946,-87,0,12942,3399,115,21751,-4,0,-11,0,325522,0
325497,164,-2102,367,1498,-420,3064,9920,-159,69,-337,-144,35843,-73,32,127,0,0,2946,0,0,12942,3399,115,21761,-4,0,-10,0,325522,0
325507,125,-2142,358,1611,-379,3087,9898,0,122,-345,-104,35845,-64,32,127,0,0,2946,0,0,12942,3399,115,21771,-4,0,-8,0,325522,0
325517,157,-2194,359,1711,-295,3124,9905,13,166,-400,-80,35846,-61,32,127,0,0,2950,43,0,12942,3399,115,21781,-4,0,-6,0,325522,0
325527,139,-2222,398,1750,-247,3182,9906,-2,37,-334,-72,35851,-65,32,127,0,0,2950,54,0,12942,3399,115,21791,-4,0,-5,0,325522,0
325537,132,-2218,422,1800,-178,3225,9914,13,0,-189,-8,35851,-57,32,127,0,0,2959,65,0,12942,3399,115,21801,-4,0,-3,0,325522,0
325547,142,-2202,380,1862,-142,3251,9931,19,30,-44,56,35853,-46,32,127,0,0,2972,109,0,12942,3399,115,21811,-4,0,-2,0,325538,0
325557,191,-2113,268,1960,-68,3270,9952,59,19,262,144,35861,-37,32,127,0,0,2986,131,0,12942,3399,115,21821,-4,0,0,0,325553,0
325567,197,-2085,282,1989,-13,3318,10010,148,69,210,152,35862,-57,32,127,0,0,2994,98,0,12942,3399,115,21831,-4,0,0,0,325553,0
325577,160,-2086,360,1988,71,3437,10073,154,89,131,112,35860,-89,32,127,0,0,3005,98,0,12942,3399,115,21841,-4,0,2,0,325569,0
325587,144,-2078,392,1966,116,3524,10136,119,24,-24,48,35856,-110,32,127,0,0,3014,120,0,12942,3399,115,21851,-4,0,4,0,325569,0
325597,111,-2042,351,1961,213,3662,10150,22,-103,299,160,35858,-121,32,127,0,0,3030,175,0,12942,3399,115,21861,-4,0,6,0,325600,0
325607,143,-2039,291,1963,282,3789,10187,124,-59,452,232,35858,-127,32,127,0,0,3041,142,0,12942,3399,115,21871,-4,0,7,0,325600,0
325617,173,-1995,285,1961,383,4055,10264,189,128,315,216,35851,-96,32,127,0,0,3065,241,0,12942,3399,115,21881,-4,0,9,0,325600,0
325627,116,-1971,290,1963,439,4249,10362,209,122,274,256,35849,-72,32,127,0,0,3091,296,0,12942,3399,115,21891,-4,0,10,0,325631,0
325637,75,-1975,295,1944,503,4473,10476,274,68,320,384,35854,-44,32,127,0,0,3120,296,0,12942,3399,115,21901,-4,0,13,0,325647,0
325647,93,-2023,316,1921,507,4653,10613,296,70,294,416,35859,-21,32,127,0,0,3164,417,0,12942,3399,115,21911,-4,0,14,0,325647,0
325657,61,-2076,346,1903,557,4922,10761,341,62,390,552,35859,-18,32,127,0,0,3210,461,0,12942,3399,115,21921,-4,0,16,0,325647,0
325667,91,-2087,300,1874,569,5071,10931,399,59,432,840,35847,-28,32,127,0,0,3265,516,0,12942,3399,115,21931,-4,0,17,0,325647,0
325677,180,-2066,262,1810,575,5155,11133,466,110,456,984,35855,-42,32,127,0,0,3320,538,0,12942,3399,115,21941,-4,0,19,0,325694,0
325687,153,-2029,232,1778,600,5097,11360,515,111,420,1016,35856,-48,32,127,0,0,3353,307,0,12942,3399,115,21951,-4,0,21,0,325694,0
325697,58,-2094,265,1755,585,5037,11595,511,72,270,712,35857,-43,32,127,0,0,3372,186,0,12942,3399,115,21961,-4,0,23,0,325694,0
325707,-5,-2149,334,1771,522,5061,11805,443,-35,209,464,35848,-49,32,127,0,0,3381,87,0,12942,3399,115,21971,-4,0,24,0,325694,0
325717,98,-2191,370,1796,412,5091,11972,333,-136,147,280,35850,-56,32,127,0,0,3401,175,0,12942,3399,115,21981,-4,0,26,0,325694,0
325727,81,-2159,359,1806,327,5013,12095,254,-166,202,208,35865,-49,32,127,0,0,3421,164,0,12942,3399,115,21991,-4,0,27,0,325756,0
325737,73,-2078,307,1821,140,4760,12197,216,-119,273,192,35868,-25,32,127,0,0,3438,142,0,12942,3399,115,22001,-4,0,29,0,325756,0
325747,42,-2050,311,1801,-16,4506,12287,205,-60,220,136,35864,-18,32,127,0,0,3449,76,0,12942,3399,115,22011,-4,0,30,0,325756,0
325757,78,-2038,309,1743,-214,4081,12354,113,-64,161,88,35857,-34,32,127,0,0,3451,21,0,12942,3399,115,22021,-4,0,31,0,325756,0
325767,34,-2030,312,1660,-342,3763,12388,47,-120,158,80,35858,-57,32,127,0,0,3462,65,0,12942,3399,115,22031,-4,0,32,0,325756,0
325777,40,-2039,287,1485,-412,3112,12403,46,-103,327,80,35859,-60,32,127,0,0,3462,-10,0,12942,3399,115,22041,-4,0,33,0,325772,0
325787,20,-2014,219,1323,-392,2663,12429,72,-1,158,32,35856,-54,32,127,0,0,3465,10,0,12942,3399,115,22051,-4,0,33,-22,325772,0
325797,99,-1950,131,1002,-195,1999,12441,-5,2,74,8,35849,-51,32,127,0,0,3462,-10,0,12942,3399,115,22061,-4,0,34,-21,325850,0
325807,76,-1888,66,762,21,1490,12437,1,-69,64,-8,35853,-50,32,127,0,0,3460,-32,0,12942,3399,115,22071,-4,0,34,-21,325850,0
325817,100,-1837,-47,382,500,583,12436,-13,-18,-29,-48,35857,-64,32,127,0,0,3449,-153,0,12942,3399,115,22081,-4,0,35,-22,325850,0
325827,159,-1879,-84,111,889,24,12411,-77,-42,-383,-216,35856,-75,32,127,0,0,3425,-241,0,12942,3399,115,22091,-4,0,35,-22,325850,0
325837,264,-1834,-217,-250,1540,-783,12343,-177,-125,-393,-312,35860,-77,32,127,0,0,3407,-230,0,12942,3399,115,22101,-4,0,35,-23,325850,0
325847,274,-1721,-286,-458,1962,-1372,12253,-194,-134,-342,-272,35866,-76,32,127,0,0,3396,-87,0,12942,3399,115,22111,-4,0,35,-24,325866,0
325857,255,-1641,-376,-771,2641,-2394,12173,-175,-16,-375,-248,35871,-60,32,127,0,0,3379,-153,0,12942,3399,115,22121,-4,0,35,-25,325866,0
325867,-608,-6226,437,-1048,292,-2337,12084,-197,7,-275,136,35865,-39,32,127,0,0,3458,1043,0,12942,3399,115,22131,-4,0,34,-26,325866,0
325877,-164,-1215,1993,712,1176,-1730,12186,468,317,1391,1768,35853,-26,32,127,0,0,3623,1614,0,12942,3399,115,22141,-4,0,34,-28,325866,0
325887,-520,-1693,1809,517,93,-1201,12546,903,913,994,2712,35856,-13,32,127,0,0,3781,1636,0,12942,3399,115,22151,-4,0,33,-29,325897,0
325897,-398,-2222,2116,238,-616,-256,13067,1267,782,1230,3784,35859,10,32,127,0,0,3992,2120,0,12942,3399,115,22161,-4,0,33,-30,325897,0
325907,-144,-2154,1760,-60,-878,-642,13776,1675,671,1142,4664,35847,30,32,127,0,0,4207,2131,0,12942,3399,115,22171,-4,0,32,-31,325897,0
325917,-495,-2434,782,-399,-1624,-1411,14634,1954,649,769,4960,35831,59,32,127,0,0,4385,1801,0,12942,3399,115,22181,-4,0,32,-32,325897,0
325927,-786,-2811,563,-226,-1989,-1633,15560,2055,410,506,4832,35818,60,32,127,0,0,4546,1560,0,12942,3399,115,22191,-4,0,31,-33,325912,0
325937,-993,-2019,102,-66,-1867,-1813,16467,1946,94,346,4376,35839,39,32,127,0,0,4673,1285,0,12942,3399,115,22201,-4,0,30,-34,325928,0
325947,-781,-1938,-92,-404,-1291,-1965,17288,1749,-203,357,4040,35853,23,32,127,0,0,4787,1153,0,12942,3399,115,22211,-4,0,30,-35,325944,0
325957,-458,-2624,287,-432,-387,-2981,18036,1610,-309,325,3528,35856,8,32,127,0,0,4866,714,0,12942,3399,115,22221,-4,0,29,0,325944,0
325967,-576,-2320,222,-524,-191,-3809,18700,1394,-299,108,2456,35854,-5,32,127,0,0,4873,21,0,12942,3399,115,22231,-4,0,28,0,325944,0
325977,47,-2096,646,-910,-128,-4061,19223,1040,-432,-73,1216,35868,-26,32,127,0,0,4847,-285,0,12942,3399,115,22241,-4,0,27,0,325975,0
325987,288,-1969,731,-1085,-295,-3935,19562,609,-626,-206,88,35879,-46,32,127,0,0,4807,-395,0,12942,3399,115,22251,-4,0,26,0,325975,0
325997,953,-2747,731,-1090,-547,-3836,19589,-204,-942,-1057,-520,35878,-51,32,127,0,0,4757,-494,0,12942,3399,115,22261,-4,0,25,0,325975,0
326007,-36,-1697,623,-960,-135,-4172,19420,-417,-1026,-469,-1120,35860,-51,32,127,0,0,4664,-966,0,12942,3399,115,22271,-4,0,24,0,326006,0
326017,17,-1894,851,-872,145,-4219,19159,-651,-525,-599,-1704,35853,-58,32,127,0,0,4557,-1087,0,12942,3399,115,22281,-4,0,23,0,326006,0
326027,325,-1638,805,-923,144,-4097,18803,-843,-361,-634,-2168,35853,-41,32,127,0,0,4440,-1186,0,12942,3399,115,22291,-4,0,22,0,326006,0
326037,643,-1584,529,-1045,55,-3670,18361,-1017,-345,-577,-2552,35858,-31,32,127,0,0,4328,-1131,0,12942,3399,115,22301,-4,0,21,0,326022,0
326047,781,-1657,308,-984,-43,-3240,17860,-1131,-277,-465,-2648,35852,1,32,127,0,0,4229,-966,0,12942,3399,115,22311,-4,0,20,0,326037,0
326057,581,-1803,359,-847,-143,-2680,17342,-1142,-148,-304,-2472,35847,0,32,127,0,0,4146,-834,0,12942,3399,115,22321,-4,0,19,0,326053,0
326067,400,-1852,376,-755,-174,-2372,16840,-1092,-8,-213,-2224,35846,-23,32,127,0,0,4075,-703,0,12942,3399,115,22331,-4,0,18,0,326053,0
326077,342,-1975,387,-669,-116,-2134,16373,-990,93,-196,-1944,35858,-53,32,127,0,0,4010,-659,0,12942,3399,115,22341,-4,0,17,0,326053,0
326087,345,-2002,394,-624,-94,-2019,15943,-911,147,-171,-1712,35866,-40,32,127,0,0,3952,-571,0,12942,3399,115,22351,-4,0,17,0,326100,0
326097,259,-2041,412,-543,-109,-1777,15559,-823,161,-231,-1576,35856,-17,32,127,0,0,3891,-560,0,12942,3399,115,22361,-4,0,17,0,326100,0
326107,227,-2053,463,-501,-133,-1617,15210,-737,151,-263,-1432,35854,-21,32,127,0,0,3843,-505,0,12942,3399,115,22371,-4,0,17,0,326100,0
326117,163,-2000,499,-462,-135,-1510,14898,-667,139,-287,-1304,35850,-12,32,127,0,0,3801,-428,0,12942,3399,115,22381,-4,0,17,0,326100,0
326127,181,-2006,545,-453,-107,-1481,14618,-604,131,-341,-1160,35864,-51,32,127,0,0,3757,-395,0,12942,3399,115,22391,-4,0,17,0,326100,0
326137,263,-1917,550,-453,-67,-1473,14360,-557,96,-356,-1120,35865,-41,32,127,0,0,3713,-417,0,12942,3399,115,22401,-4,0,17,0,326162,0
326147,345,-1920,544,-478,-80,-1401,14114,-536,69,-378,-1080,35863,-33,32,127,0,0,3671,-417,0,12942,3399,115,22411,-4,0,17,0,326194,0
326157,398,-1927,578,-503,-116,-1260,13881,-511,36,-379,-968,35864,-41,32,127,0,0,3634,-351,0,12942,3399,115,22421,-4,0,17,0,326194,0
326167,369,-1950,575,-511,-126,-1175,13653,-489,32,-341,-960,35856,-32,32,127,0,0,3599,-329,0,12942,3399,115,22431,-4,0,17,0,326194,0
326177,358,-1984,609,-530,-119,-1144,13457,-472,34,-338,-824,35855,-45,32,127,0,0,3566,-307,0,12942,3399,115,22441,-4,0,17,0,326194,0
326187,337,-1982,635,-565,-100,-1157,13251,-447,45,-304,-792,35851,-36,32,127,0,0,3531,-351,0,12942,3399,115,22451,-4,0,17,0,326209,0
326197,336,-2025,612,-640,-107,-1125,13054,-425,36,-341,-744,35857,-39,32,127,0,0,3495,-340,0,12942,3399,115,22461,-4,0,17,0,326209,0
326207,343,-1995,570,-665,-119,-1090,12866,-416,36,-350,-744,35860,-41,32,127,0,0,3467,-307,0,12942,3399,115,22471,-4,0,17,0,326209,0
326217,345,-1959,422,-710,-136,-1094,12685,-405,26,-382,-696,35863,-37,32,127,0,0,3432,-362,0,12942,3399,115,22481,-4,0,17,0,326209,0
326227,338,-1944,368,-707,-126,-1103,12504,-395,4,-363,-696,35865,-33,32,127,0,0,3401,-307,0,12942,3399,115,22491,-4,0,17,0,326209,0
326237,347,-1953,335,-688,-101,-1130,12331,-369,19,-365,-608,35873,-48,32,127,0,0,3366,-329,0,12942,3399,115,22501,-4,0,17,0,326241,0
326247,352,-1955,366,-697,-101,-1126,12169,-351,42,-442,-680,35874,-55,32,127,0,0,3337,-285,0,12942,3399,115,22511,-4,0,17,0,326241,0
326257,374,-1974,343,-691,-112,-1130,12002,-359,10,-434,-648,35868,-33,32,127,0,0,3302,-318,0,12942,3399,115,22521,-4,0,17,0,326241,0
326267,414,-1985,347,-674,-119,-1150,11827,-386,-25,-419,-656,35858,-22,32,127,0,0,3269,-340,0,12942,3399,115,22531,-4,0,17,0,326256,0
326277,421,-1971,385,-649,-108,-1228,11658,-371,-1,-470,-688,35860,-26,32,127,0,0,3232,-384,0,12942,3399,115,22541,-4,0,17,0,326256,0
326287,403,-1944,407,-647,-115,-1243,11485,-386,4,-443,-736,35867,-59,32,127,0,0,3194,-373,0,12942,3399,115,22551,-4,0,17,0,326287,0
326297,429,-1944,358,-654,-129,-1228,11308,-400,-15,-473,-792,35868,-31,32,127,0,0,3157,-351,0,12942,3399,115,22561,-4,0,17,0,326287,0
326307,375,-1943,290,-642,-151,-1212,11127,-409,-19,-428,-792,35858,-13,32,127,0,0,3120,-362,0,12942,3399,115,22571,-4,0,17,0,326287,0
326317,353,-1945,262,-600,-161,-1254,10940,-386,-21,-416,-704,35849,-11,32,127,0,0,3082,-340,0,12942,3399,115,22581,-4,0,17,0,326303,0
326327,322,-1953,272,-582,-166,-1320,10761,-390,19,-452,-752,35854,-56,32,127,0,0,3041,-439,0,12942,3399,115,22591,-4,0,17,0,326319,0
326337,378,-1987,382,-553,-122,-1440,10582,-397,7,-514,-856,35858,-56,32,127,0,0,2999,-373,0,12942,3399,115,22601,-4,0,17,0,326319,0
326347,398,-1977,461,-568,-100,-1512,10400,-391,-16,-528,-880,35858,-38,32,127,0,0,2953,-461,0,12942,3399,115,22611,-4,0,17,0,326334,0
326357,514,-1938,552,-613,-126,-1552,10207,-426,-22,-506,-928,35853,-11,32,127,0,0,2913,-406,0,12942,3399,115,22621,-4,0,17,0,326397,0
326367,543,-1954,500,-640,-181,-1518,10013,-424,-24,-561,-968,35857,-30,32,127,0,0,2869,-384,0,12942,3399,115,22631,-4,0,17,0,326397,0
326377,511,-1938,392,-626,-267,-1495,9815,-429,-6,-523,-920,35853,-54,32,127,0,0,2827,-417,0,12942,3399,115,22641,-4,0,17,0,326397,0
326387,481,-1922,343,-609,-273,-1538,9613,-441,-9,-483,-912,35853,-40,32,127,0,0,2788,-439,0,12942,3399,115,22651,-4,0,17,0,326397,0
326397,406,-1931,332,-606,-240,-1603,9411,-450,-4,-502,-952,35846,-27,32,127,0,0,2746,-395,0,12942,3399,115,22661,-4,0,17,0,326397,0
326407,431,-1962,336,-595,-238,-1604,9214,-421,8,-483,-912,35850,-30,32,127,0,0,2707,-395,0,12942,3399,115,22671,-4,0,17,0,326412,0
326417,576,-1999,368,-556,-286,-1594,9019,-430,17,-480,-888,35847,-38,32,127,0,0,2667,-384,0,12942,3399,115,22681,-4,0,17,0,326412,0
326427,649,-1969,392,-543,-321,-1646,8826,-413,4,-465,-872,35846,-20,32,127,0,0,2627,-395,0,12942,3399,115,22691,-4,0,17,0,326412,0
326437,565,-2032,486,-560,-367,-1642,8631,-420,0,-481,-872,35847,5,32,127,0,0,2586,-417,0,12942,3399,115,22701,-4,0,17,0,326444,0
326447,643,-2014,516,-594,-377,-1599,8441,-408,15,-480,-824,35855,3,32,127,0,0,2553,-307,0,12942,3399,115,22711,-4,0,17,0,326444,0
326457,638,-2052,494,-626,-495,-1510,8257,-402,27,-454,-728,35855,-27,32,127,0,0,2520,-296,0,12942,3399,115,22721,-4,0,17,0,326444,0
326467,631,-2001,414,-608,-570,-1528,8080,-371,29,-432,-696,35858,-32,32,127,0,0,2489,-285,0,12942,3399,115,22731,-4,0,17,0,326444,0
326477,524,-1974,315,-570,-610,-1612,7912,-364,36,-451,-600,35849,-30,32,127,0,0,2460,-296,0,12942,3399,115,22741,-4,0,17,0,326475,0
326487,603,-2008,387,-530,-690,-1642,7753,-348,46,-456,-592,35844,-32,32,127,0,0,2430,-307,0,12942,3399,115,22751,-4,0,17,0,326490,0
326497,714,-2071,414,-535,-844,-1655,7605,-320,18,-447,-568,35851,-55,32,127,0,0,2406,-219,0,12942,3399,115,22761,-4,0,17,0,326490,0
326507,589,-1999,451,-577,-942,-1665,7461,-314,33,-405,-480,35845,-70,32,127,0,0,2379,-241,0,12942,3399,115,22771,-4,0,17,0,326490,0
326517,708,-1875,510,-529,-1198,-1710,7325,-298,15,-376,-400,35847,-44,32,127,0,0,2359,-219,0,12942,3399,115,22781,-4,0,17,0,326584,0
326527,696,-2306,372,-590,-1297,-1634,7210,-244,52,-386,-320,35836,-15,32,127,0,0,2346,-142,0,12942,3399,115,22791,-4,0,17,0,326600,0
326537,699,-2251,495,-755,-1311,-1509,7106,-200,73,-314,-152,35839,-14,32,127,0,0,2342,-21,0,12942,3399,115,22801,-4,0,0,0,326600,0
