state_time,accelx,accely,accelz,gyrox,gyroy,gyroz,mot_ang,mot_vel,mot_acc,mot_cur,mot_volt,batt_volt,batt_curr,temperature,status_mn,status_ex,status_re,ank_ang,ank_vel,ank_torque,peak_ank_torque,step_energy,step_count,step_time,gait_state,movement,speed,incline,sys_time,eventFlags
438997,84,-2022,317,-37,-10,-35,11061,-7,-3,284,136,35836,-51,32,127,0,0,3208,32,0,12929,5530,172,48281,-4,0,-20,0,439078,0
439007,75,-2028,317,-40,-6,-38,11066,13,4,325,88,35841,-51,32,127,0,0,3205,10,0,12929,5530,172,48291,-4,0,-20,0,439078,0
439017,88,-2030,318,-37,-5,-41,11064,-1,3,337,128,35841,-53,32,127,0,0,3205,0,0,12929,5530,172,48301,-4,0,-20,0,439078,0
439027,97,-2032,315,-37,0,-40,11062,-20,1,311,96,35834,-49,32,127,0,0,3205,21,0,12929,5530,172,48311,-4,0,-20,0,439078,0
439037,74,-2035,314,-36,-5,-45,11066,17,2,327,24,35833,-49,32,127,0,0,3205,-32,0,12929,5530,172,48321,-4,0,-20,0,439094,0
439047,45,-2029,316,-36,-8,-46,11066,12,-3,324,128,35836,-46,32,127,0,0,3205,-10,0,12929,5530,172,48331,-4,0,-20,0,439094,0
439057,80,-2033,310,-44,-17,-46,11065,-5,1,307,56,35836,-44,32,127,0,0,3208,32,0,12929,5530,172,48341,-4,0,-20,0,439094,0
439067,81,-2037,307,-44,-7,-44,11068,6,0,340,80,35836,-48,32,127,0,0,3205,0,0,12929,5530,172,48351,-4,0,-20,0,439094,0
439077,86,-2029,302,-38,-10,-44,11065,1,1,302,88,35833,-43,32,127,0,0,3208,43,0,12929,5530,172,48361,-4,0,-20,0,439094,0
439087,85,-2035,310,-42,-12,-45,11068,7,7,337,120,35837,-45,32,127,0,0,3205,10,0,12929,5530,172,48371,-4,0,-20,0,439094,0
439097,102,-2029,303,-37,-5,-43,11066,-11,-3,281,64,35840,-52,32,127,0,0,3208,65,0,12929,5530,172,48381,-4,0,-20,0,439094,0
439107,100,-2039,311,-26,-6,-39,11072,24,8,362,104,35840,-53,33,127,0,0,3205,-21,0,12929,5530,172,48391,-4,0,-20,0,439094,0
439117,94,-2023,317,-40,-6,-39,11072,-12,10,297,80,35847,-53,32,127,0,0,3208,10,0,12929,5530,172,48401,-4,0,-20,0,439094,0
439127,66,-2027,317,-37,-8,-39,11072,14,-15,334,72,35857,-53,33,127,0,0,3208,-21,0,12929,5530,172,48411,-4,0,-20,0,439110,0
439137,79,-2032,317,-42,-14,-31,11073,6,3,313,80,35874,-62,32,127,0,0,3205,-10,0,12929,5530,172,48421,-4,0,-20,0,439125,0
439147,92,-2030,327,-42,-14,-27,11073,-1,3,338,64,35871,-57,32,127,0,0,3208,-10,0,12929,5530,172,48431,-4,0,-20,0,439125,0
439157,70,-2032,313,-41,-11,-31,11073,1,0,359,104,35863,-52,32,127,0,0,3208,-10,0,12929,5530,172,48441,-4,0,-20,0,439172,0
439167,78,-2024,314,-40,-13,-35,11075,2,3,331,96,35847,-25,32,127,0,0,3210,21,0,12929,5530,172,48451,-4,0,-20,0,439172,0
439177,65,-2029,317,-41,-13,-38,11076,4,0,358,160,35851,-27,32,127,0,0,3208,0,0,12929,5530,172,48461,-4,0,-20,0,439172,0
439187,77,-2024,305,-48,-8,-55,11080,7,8,337,112,35847,-21,32,127,0,0,3208,-10,0,12929,5530,172,48471,-4,0,-20,0,439172,0
439197,71,-2025,315,-38,-2,-63,11086,8,5,306,64,35844,-54,33,127,0,0,3212,43,0,12929,5530,172,48481,-4,0,-20,0,439172,0
439207,55,-2026,312,-37,-13,-68,11097,47,14,335,32,35845,-52,32,127,0,0,3208,-65,0,12929,5530,172,48491,-4,0,-20,0,439203,0
439217,90,-2036,307,-41,-6,-63,11104,3,8,164,80,35851,-56,32,127,0,0,3208,-10,0,12929,5530,172,48501,-4,0,-20,0,439203,0
439227,115,-2025,317,-40,-8,-61,11106,5,-20,209,80,35851,-46,33,127,0,0,3208,-43,0,12929,5530,172,48511,-4,0,-20,0,439203,0
439237,72,-2024,324,-41,-17,-51,11107,-9,-15,95,40,35849,-48,32,127,0,0,3208,0,0,12929,5530,172,48521,-4,0,-20,0,439219,0
439247,93,-2028,324,-47,-11,-54,11106,6,-3,140,24,35845,-22,32,127,0,0,3208,-10,0,12929,5530,172,48531,-4,0,-20,0,439235,0
439257,91,-2027,316,-46,-6,-48,11104,-5,-5,124,112,35837,-16,32,127,0,0,3208,21,0,12929,5530,172,48541,-4,0,-20,0,439250,0
439267,150,-2028,312,-44,-8,-51,11109,-12,-3,95,32,35838,-22,32,127,0,0,3208,10,0,12929,5530,172,48551,-4,0,-20,0,439250,0
439277,97,-2028,308,-38,-10,-51,11108,-3,-1,125,24,35830,-21,32,127,0,0,3208,0,0,12929,5530,172,48561,-4,0,-20,0,439266,0
439287,93,-2030,308,-37,-9,-48,11109,2,1,134,64,35841,-44,32,127,0,0,3208,0,0,12929,5530,172,48571,-4,0,-20,0,439266,0
439297,94,-2033,312,-39,-7,-51,11110,4,1,159,16,35844,-41,32,127,0,0,3208,-32,0,12929,5530,172,48581,-4,0,-20,0,439282,0
439307,70,-2025,309,-41,-5,-45,11110,6,-5,185,8,35849,-48,32,127,0,0,3208,-65,0,12929,5530,172,48591,-4,0,-20,0,439297,0
439317,94,-2032,314,-34,0,-38,11107,-5,-11,107,32,35851,-54,32,127,0,0,3208,0,0,12929,5530,172,48601,-4,0,-20,0,439313,0
439327,109,-2027,316,-36,1,-40,11108,0,-2,93,104,35851,-58,32,127,0,0,3208,0,0,12929,5530,172,48611,-4,0,-20,0,439313,0
439337,55,-2030,323,-40,-10,-39,11110,6,7,139,56,35853,-51,32,127,0,0,3212,10,0,12929,5530,172,48621,-4,0,-20,0,439313,0
439347,53,-2017,319,-38,-9,-42,11112,12,-4,211,0,35852,-56,32,127,0,0,3208,-54,0,12929,5530,172,48631,-4,0,-20,0,439407,0
439357,83,-2034,313,-36,-3,-38,11110,1,-4,150,64,35859,-58,32,127,0,0,3208,-43,0,12929,5530,172,48641,-4,0,-20,0,439407,0
439367,100,-2031,316,-37,-5,-43,11109,2,-1,126,88,35855,-57,32,127,0,0,3208,10,0,12929,5530,172,48651,-4,0,-20,0,439422,0
439377,94,-2012,324,-39,-11,-48,11110,-22,6,117,16,35850,-50,32,127,0,0,3210,32,0,12929,5530,172,48661,-4,0,-20,0,439422,0
439387,67,-2038,320,-49,-13,-41,11112,5,-4,124,24,35842,-44,32,127,0,0,3208,0,0,12929,5530,172,48671,-4,0,-20,0,439422,0
439397,77,-2027,316,-51,-8,-51,11109,8,-5,127,120,35842,-43,32,127,0,0,3208,0,0,12929,5530,172,48681,-4,0,-20,0,439422,0
439407,135,-2030,307,-49,-7,-63,11112,-17,1,145,72,35839,-45,32,127,0,0,3212,10,0,12929,5530,172,48691,-4,0,-20,0,439422,0
439417,85,-2027,325,-42,-12,-49,11114,5,-1,198,64,35835,-43,32,127,0,0,3212,-21,0,12929,5530,172,48701,-4,0,-20,0,439422,0
439427,65,-2025,317,-42,-1,-53,11113,4,0,183,0,35835,-59,32,127,0,0,3212,10,0,12929,5530,172,48711,-4,0,-20,0,439422,0
439437,106,-2032,310,-48,-17,-57,11112,-8,-3,158,48,35832,-67,32,127,0,0,3208,-10,0,12929,5530,172,48721,-4,0,-20,0,439422,0
439447,114,-2028,313,-49,-13,-61,11112,8,1,95,8,35832,-56,32,127,0,0,3210,10,0,12929,5530,172,48731,-4,0,-20,0,439422,0
439457,107,-2025,317,-47,-17,-58,11111,2,6,110,96,35836,-64,32,127,0,0,3210,32,0,12929,5530,172,48741,-4,0,-20,0,439438,0
439467,130,-2024,318,-51,-6,-53,11112,-7,3,124,8,35845,-61,32,127,0,0,3210,10,0,12929,5530,172,48751,-4,0,-20,0,439469,0
439477,103,-2025,316,-48,-11,-50,11113,10,1,126,48,35859,-66,32,127,0,0,3210,10,0,12929,5530,172,48761,-4,0,-20,0,439469,0
439487,87,-2021,320,-47,-10,-47,11110,-4,-4,105,24,35851,-49,32,127,0,0,3208,0,0,12929,5530,172,48771,-4,0,-20,0,439469,0
439497,91,-2027,318,-51,-14,-51,11112,0,1,107,8,35840,-51,32,127,0,0,3208,0,0,12929,5530,172,48781,-4,0,-20,0,439485,0
439507,87,-2032,307,-47,-14,-53,11111,-3,1,118,16,35834,-55,32,127,0,0,3212,43,0,12929,5530,172,48791,-4,0,-20,0,439500,0
439517,132,-2034,309,-47,-10,-54,11113,-4,1,122,24,35842,-55,32,127,0,0,3212,43,0,12929,5530,172,48801,-4,0,-20,0,439500,0
439527,80,-2034,312,-51,-13,-49,11113,7,-2,138,8,35849,-55,32,127,0,0,3208,-10,0,12929,5530,172,48811,-4,0,-20,0,439516,0
439537,78,-2034,310,-51,-7,-57,11111,-4,-5,101,24,35843,-51,32,127,0,0,3208,-21,0,12929,5530,172,48821,-4,0,-20,0,439516,0
439547,96,-2028,310,-45,-6,-50,11112,2,2,121,8,35837,-30,32,127,0,0,3208,-32,0,12929,5530,172,48831,-4,0,-20,0,439532,0
439557,100,-2039,316,-49,-9,-49,11111,2,4,93,56,35836,-20,32,127,0,0,3210,21,0,12929,5530,172,48841,-4,0,-20,0,439532,0
439567,100,-2030,326,-47,-10,-48,11114,3,12,128,16,35837,-23,32,127,0,0,3208,-43,0,12929,5530,172,48851,-4,0,-20,0,439578,0
439577,103,-2038,317,-54,-13,-41,11110,6,-4,89,64,35838,-28,32,127,0,0,3208,0,0,12929,5530,172,48861,-4,0,-20,0,439578,0
439587,110,-2033,312,-52,-3,-43,11110,-4,-2,78,24,35831,-59,32,127,0,0,3208,0,0,12929,5530,172,48871,-4,0,-20,0,439578,0
439597,99,-2029,307,-53,-16,-43,11111,2,1,81,-8,35832,-52,32,127,0,0,3212,43,0,12929,5530,172,48881,-4,0,-20,0,439578,0
439607,56,-2035,307,-47,-6,-38,11113,8,7,136,24,35830,-53,32,127,0,0,3208,-21,0,12929,5530,172,48891,-4,0,-20,0,439578,0
439617,81,-2032,305,-46,-8,-44,11110,7,-1,121,64,35838,-37,32,127,0,0,3208,-32,0,12929,5530,172,48901,-4,0,-20,0,439610,0
439627,92,-2033,308,-44,-10,-52,11111,3,-2,93,96,35841,-37,32,127,0,0,3208,0,0,12929,5530,172,48911,-4,0,-20,0,439625,0
439637,98,-2026,312,-46,-9,-44,11111,-18,-2,117,24,35838,-33,32,127,0,0,3210,-32,0,12929,5530,172,48921,-4,0,-20,0,439625,0
439647,57,-2027,309,-46,-12,-37,11111,17,-6,96,24,35833,-59,32,127,0,0,3208,0,0,12929,5530,172,48931,-4,0,-20,0,439641,0
439657,104,-2018,305,-46,-4,-38,11110,-2,1,93,96,35828,-66,32,127,0,0,3210,21,0,12929,5530,172,48941,-4,0,-20,0,439656,0
439667,115,-2018,312,-43,-7,-41,11114,7,1,127,88,35831,-54,32,127,0,0,3210,-10,0,12929,5530,172,48951,-4,0,-20,0,439656,0
439677,120,-2012,310,-42,0,-34,11112,-7,-3,146,72,35832,-44,32,127,0,0,3208,-21,0,12929,5530,172,48961,-4,0,-20,0,439656,0
439687,111,-2014,320,-44,0,-32,11110,-17,-8,101,48,35838,-45,32,127,0,0,3208,-10,0,12929,5530,172,48971,-4,0,-20,0,439656,0
439697,73,-2025,315,-45,-2,-30,11111,-1,-2,123,72,35843,-50,32,127,0,0,3212,21,0,12929,5530,172,48981,-4,0,-20,0,439781,0
439707,68,-2021,319,-40,-3,-28,11113,-5,2,102,24,35848,-43,32,127,0,0,3208,0,0,12929,5530,172,48991,-4,0,-20,0,439781,0
439717,63,-2038,315,-38,-5,-26,11111,11,-7,113,24,35840,-31,32,127,0,0,3208,-21,0,12929,5530,172,49001,-4,0,-20,0,439781,0
439727,95,-2028,311,-40,-7,-28,11111,-3,8,153,0,35837,-39,32,127,0,0,3208,-21,0,12929,5530,172,49011,-4,0,-20,0,439781,0
439737,67,-2036,319,-39,-9,-34,11110,-8,-5,76,24,35823,-58,32,127,0,0,3208,21,0,12929,5530,172,49021,-4,0,-20,0,439797,0
439747,103,-2040,309,-38,-9,-31,11111,-7,4,90,24,35820,-55,32,127,0,0,3208,21,0,12929,5530,172,49031,-4,0,-20,0,439797,0
439757,95,-2030,318,-42,-6,-42,11112,0,5,111,24,35827,-60,32,127,0,0,3208,0,0,12929,5530,172,49041,-4,0,-20,0,439797,0
439767,89,-2035,306,-43,-13,-43,11115,13,-7,184,-8,35835,-58,32,127,0,0,3208,-65,0,12929,5530,172,49051,-4,0,-20,0,439797,0
439777,62,-2030,316,-41,-10,-47,11109,-4,-14,100,96,35835,-63,32,127,0,0,3212,43,0,12929,5530,172,49061,-4,0,-20,0,439797,0
439787,85,-2028,324,-36,-2,-54,11114,0,15,173,64,35836,-57,32,127,0,0,3210,-21,0,12929,5530,172,49071,-4,0,-20,0,439797,0
439797,76,-2028,311,-42,-11,-52,11113,6,5,152,88,35828,-61,32,127,0,0,3212,21,0,12929,5530,172,49081,-4,0,-20,0,439797,0
439807,110,-2029,309,-41,-9,-57,11116,3,-1,190,-8,35832,-62,32,127,0,0,3212,0,0,12929,5530,172,49091,-4,0,-20,0,439797,0
439817,85,-2035,304,-40,-13,-49,11117,22,11,241,24,35841,-57,32,127,0,0,3212,-43,0,12929,5530,172,49101,-4,0,-20,0,439797,0
439827,59,-2029,325,-36,-11,-51,11113,6,-7,192,64,35854,-60,32,127,0,0,3212,0,0,12929,5530,172,49111,-4,0,-20,0,439813,0
439837,58,-2036,322,-44,-13,-50,11114,-2,2,186,64,35869,-47,33,127,0,0,3212,0,0,12929,5530,172,49121,-4,0,-20,0,439844,0
439847,86,-2019,313,-42,-13,-47,11111,-24,3,173,48,35871,-32,32,127,0,0,3212,21,0,12929,5530,172,49131,-4,0,-20,0,439844,0
439857,100,-2034,311,-39,-12,-47,11114,6,2,184,-8,35860,-27,33,127,0,0,3208,-43,0,12929,5530,172,49141,-4,0,-20,0,439844,0
439867,91,-2041,315,-43,-16,-39,11110,-12,-8,127,16,35841,-26,33,127,0,0,3210,32,0,12929,5530,172,49151,-4,0,-20,0,439844,0
439877,93,-2028,328,-41,-6,-41,11115,-1,8,187,32,35827,-39,32,127,0,0,3210,-43,0,12929,5530,172,49161,-4,0,-20,0,439860,0
439887,44,-2035,326,-45,-10,-48,11113,11,0,169,48,35839,-29,32,127,0,0,3212,10,0,12929,5530,172,49171,-4,0,-20,0,439875,0
439897,112,-2034,315,-47,2,-47,11116,-11,-5,212,64,35842,-18,32,127,0,0,3208,-43,0,12929,5530,172,49181,-4,0,-20,0,439875,0
439907,130,-2028,305,-48,-1,-53,11115,1,1,171,64,35842,-28,32,127,0,0,3212,0,0,12929,5530,172,49191,-4,0,-20,0,439891,0
439917,123,-2022,317,-50,-3,-48,11112,-24,-4,167,0,35835,-32,32,127,0,0,3212,21,0,12929,5530,172,49201,-4,0,-20,0,439891,0
439927,65,-2024,322,-44,-2,-48,11114,5,-4,143,120,35843,-64,32,127,0,0,3212,10,0,12929,5530,172,49211,-4,0,-20,0,439969,0
439937,75,-2028,308,-49,-3,-50,11114,-3,5,195,64,35852,-34,33,127,0,0,3212,0,0,12929,5530,172,49221,-4,0,-20,0,439969,0
439947,87,-2030,316,-48,-8,-46,11114,-2,-1,206,64,35853,-37,32,127,0,0,3212,-10,0,12929,5530,172,49231,-4,0,-20,0,439969,0
439957,94,-2026,315,-49,-5,-38,11117,9,-1,170,40,35842,-40,32,127,0,0,3210,-10,0,12929,5530,172,49241,-4,0,-20,0,439969,0
439967,109,-2031,311,-52,-8,-31,11112,-3,-2,141,80,35834,-72,32,127,0,0,3210,32,0,12929,5530,172,49251,-4,0,-20,0,439969,0
439977,76,-2014,319,-48,-10,-43,11113,-10,3,168,32,35835,-69,32,127,0,0,3208,-21,0,12929,5530,172,49261,-4,0,-20,0,439985,0
439987,94,-2009,322,-57,-10,-43,11115,4,-6,202,48,35839,-72,32,127,0,0,3212,-10,0,12929,5530,172,49271,-4,0,-20,0,439985,0
439997,87,-2022,316,-57,-7,-36,11115,-9,-6,231,48,35839,-60,32,127,0,0,3212,-10,0,12929,5530,172,49281,-4,0,-20,0,439985,0
440007,93,-2022,316,-50,-8,-35,11116,-1,-3,232,48,35848,-52,32,127,0,0,3212,-10,0,12929,5530,172,49291,-4,0,-20,0,439985,0
440017,81,-2032,312,-56,-13,-25,11115,3,3,226,64,35859,-46,32,127,0,0,3212,-21,0,12929,5530,172,49301,-4,0,-20,0,440000,0
440027,94,-2026,311,-52,-9,-25,11119,22,3,292,64,35871,-40,32,127,0,0,3212,-65,0,12929,5530,172,49311,-4,0,-20,0,440000,0
440037,101,-2032,308,-45,-8,-27,11118,-2,-2,264,72,35866,-30,32,127,0,0,3216,21,0,12929,5530,172,49321,-4,0,-20,0,440016,0
440047,103,-2032,300,-42,-9,-19,11121,16,3,291,104,35856,-31,32,127,0,0,3214,-21,0,12929,5530,172,49331,-4,0,-20,0,440047,0
440057,94,-2037,298,-39,-6,-7,11120,5,3,243,56,35849,-19,32,127,0,0,3214,10,0,12929,5530,172,49341,-4,0,-20,0,440063,0
440067,106,-2035,300,-31,2,3,11120,2,2,297,64,35850,-30,32,127,0,0,3218,21,0,12929,5530,172,49351,-4,0,-20,0,440063,0
440077,108,-2038,300,-21,-8,18,11122,14,-4,337,120,35846,-37,32,127,0,0,3218,43,0,12929,5530,172,49361,-4,0,-20,0,440063,0
440087,119,-2032,309,-14,-3,25,11126,4,3,358,144,35834,-51,32,127,0,0,3221,32,0,12929,5530,172,49371,-4,0,-20,0,440063,0
440097,91,-2042,313,-10,-14,33,11128,5,2,431,120,35838,-49,32,127,0,0,3223,10,0,12929,5530,172,49381,-4,0,-20,0,440078,0
440107,87,-2024,312,-5,-12,29,11134,19,1,466,144,35844,-19,32,127,0,0,3225,10,0,12929,5530,172,49391,-4,0,-20,0,440125,0
440117,76,-2022,322,-8,-5,27,11143,23,7,506,176,35851,-27,32,127,0,0,3227,0,0,12929,5530,172,49401,-4,0,-20,0,440125,0
440127,74,-2020,312,-7,-7,23,11157,31,22,450,168,35854,-22,32,127,0,0,3227,-10,0,12929,5530,172,49411,-4,0,-20,0,440125,0
440137,74,-2024,314,-8,-2,15,11191,64,38,320,128,35850,-54,32,127,0,0,3232,21,0,12929,5530,172,49421,-4,0,-20,0,440125,0
440147,79,-2021,322,-10,-6,7,11209,23,7,335,112,35847,-51,32,127,0,0,3234,21,0,12929,5530,172,49431,-4,0,-20,0,440125,0
440157,50,-2020,328,-16,-2,-5,11212,7,-58,381,104,35850,-53,32,127,0,0,3236,32,0,12929,5530,172,49441,-4,0,-20,0,440141,0
440167,57,-2019,339,-24,-5,-20,11227,44,-4,360,96,35852,-63,32,127,0,0,3238,21,0,12929,5530,172,49451,-4,0,-20,0,440188,0
440177,73,-2029,334,-34,-10,-31,11254,56,41,196,80,35857,-57,32,127,0,0,3236,10,0,12929,5530,172,49461,-4,0,-20,0,440188,0
440187,81,-2026,333,-42,-18,-41,11255,-18,-24,154,40,35856,-41,32,127,0,0,3236,-21,0,12929,5530,172,49471,-4,0,-20,0,440188,0
440197,66,-2028,324,-44,-7,-58,11255,9,-58,186,24,35852,-23,32,127,0,0,3236,-10,0,12929,5530,172,49481,-4,0,-20,0,440188,0
440207,40,-2025,328,-48,-14,-67,11251,-17,-1,115,56,35842,-21,32,127,0,0,3238,54,0,12929,5530,172,49491,-4,0,-20,0,440188,0
440217,107,-2035,313,-53,-11,-68,11256,4,5,144,0,35837,-26,32,127,0,0,3238,32,0,12929,5530,172,49501,-4,0,-20,0,440188,0
440227,80,-2049,308,-50,-14,-65,11254,0,7,157,48,35842,-19,33,127,0,0,3234,-21,0,12929,5530,172,49511,-4,0,-20,0,440219,0
440237,54,-2039,320,-39,-12,-70,11254,8,-8,120,40,35848,-20,32,127,0,0,3236,10,0,12929,5530,172,49521,-4,0,-20,0,440234,0
440247,89,-2032,320,-39,-16,-65,11255,-12,6,139,40,35849,-25,32,127,0,0,3236,0,0,12929,5530,172,49531,-4,0,-20,0,440234,0
440257,105,-2031,327,-42,-6,-67,11256,9,-8,117,16,35841,-26,32,127,0,0,3236,10,0,12929,5530,172,49541,-4,0,-20,0,440234,0
440267,74,-2033,320,-37,-11,-61,11256,12,5,178,32,35840,-33,32,127,0,0,3234,-43,0,12929,5530,172,49551,-4,0,-20,0,440250,0
440277,84,-2026,306,-43,-7,-54,11254,3,0,146,40,35843,-6,32,127,0,0,3236,-10,0,12929,5530,172,49561,-4,0,-20,0,440250,0
440287,94,-2023,306,-38,-14,-53,11254,0,4,144,40,35848,-6,32,127,0,0,3234,-32,0,12929,5530,172,49571,-4,0,-20,0,440313,0
440297,88,-2025,307,-36,-9,-44,11251,-12,5,58,56,35855,-1,32,127,0,0,3234,0,0,12929,5530,172,49581,-4,0,-20,0,440313,0
440307,122,-2024,307,-25,-2,-46,11254,9,5,107,40,35851,-29,32,127,0,0,3236,-10,0,12929,5530,172,49591,-4,0,-20,0,440313,0
440317,82,-2034,310,-28,-6,-26,11253,-12,3,86,24,35847,-32,32,127,0,0,3236,32,0,12929,5530,172,49601,-4,0,-20,0,440313,0
440327,94,-2035,311,-22,4,-28,11255,5,0,152,0,35839,-34,32,127,0,0,3234,-32,0,12929,5530,172,49611,-4,0,-20,0,440313,0
440337,32,-2036,314,-20,-5,-32,11253,14,0,116,56,35839,-22,32,127,0,0,3236,-10,0,12929,5530,172,49621,-4,0,-20,0,440313,0
440347,86,-2033,325,-23,-16,-34,11254,-12,2,132,8,35852,-8,32,127,0,0,3236,0,0,12929,5530,172,49631,-4,0,-20,0,440328,0
440357,81,-2045,328,-23,-6,-39,11256,13,7,167,32,35856,-6,33,127,0,0,3236,0,0,12929,5530,172,49641,-4,0,-20,0,440359,0
440367,53,-2032,339,-28,-9,-46,11251,-19,-8,138,48,35862,-3,32,127,0,0,3236,21,0,12929,5530,172,49651,-4,0,-20,0,440359,0
440377,67,-2025,338,-38,-7,-49,11256,2,4,140,32,35854,-11,32,127,0,0,3236,0,0,12929,5530,172,49661,-4,0,-20,0,440359,0
440387,70,-2038,330,-39,-11,-49,11256,12,12,159,32,35844,-8,32,127,0,0,3236,-10,0,12929,5530,172,49671,-4,0,-20,0,440359,0
440397,72,-2034,327,-38,-13,-57,11253,2,-4,155,40,35838,-14,32,127,0,0,3236,0,0,12929,5530,172,49681,-4,0,-20,0,440406,0
440407,77,-2034,330,-48,-13,-58,11255,-1,4,171,0,35842,22,32,127,0,0,3234,-43,0,12929,5530,172,49691,-4,0,-20,0,440406,0
440417,96,-2025,322,-47,-8,-70,11251,-11,-10,120,48,35842,15,32,127,0,0,3236,21,0,12929,5530,172,49701,-4,0,-20,0,440406,0
440427,80,-2024,324,-45,-15,-69,11256,0,10,179,24,35837,21,32,127,0,0,3236,-10,0,12929,5530,172,49711,-4,0,-20,0,440406,0
440437,68,-2025,325,-47,-16,-68,11254,-5,-2,164,40,35830,-23,32,127,0,0,3236,-10,0,12929,5530,172,49721,-4,0,-20,0,440500,0
440447,60,-2027,322,-48,-17,-84,11252,-2,-10,107,56,35840,-30,33,127,0,0,3236,0,0,12929,5530,172,49731,-4,0,-20,0,440500,0
440457,89,-2020,325,-50,-17,-80,11254,6,7,76,16,35841,-24,32,127,0,0,3234,0,0,12929,5530,172,49741,-4,0,-20,0,440516,0
440467,77,-2024,320,-55,-16,-87,11254,19,3,70,16,35850,-29,32,127,0,0,3234,-21,0,12929,5530,172,49751,-4,0,-20,0,440516,0
440477,68,-2012,319,-55,-9,-100,11249,-16,-5,40,24,35847,-21,32,127,0,0,3234,-10,0,12929,5530,172,49761,-4,0,-20,0,440516,0
440487,71,-2025,325,-50,-6,-107,11252,0,0,5,0,35846,-16,32,127,0,0,3232,0,0,12929,5530,172,49771,-4,0,-20,0,440547,0
440497,78,-2029,318,-57,-7,-117,11252,1,5,-12,0,35836,-21,32,127,0,0,3229,-43,0,12929,5530,172,49781,-4,0,-20,0,440547,0
440507,92,-2022,312,-54,-7,-115,11246,-17,-4,-97,-48,35829,-26,32,127,0,0,3227,-10,0,12929,5530,172,49791,-4,0,-20,0,440547,0
440517,88,-2030,313,-50,-8,-113,11243,-14,-2,-156,-64,35826,-32,32,127,0,0,3227,-10,0,12929,5530,172,49801,-4,0,-20,0,440547,0
440527,93,-2029,319,-47,-3,-106,11241,-7,2,-185,-16,35823,-29,33,127,0,0,3225,0,0,12929,5530,172,49811,-4,0,-20,0,440547,0
440537,109,-2037,331,-50,-14,-101,11239,-8,-6,-239,-72,35825,-29,32,127,0,0,3223,-10,0,12929,5530,172,49821,-4,0,-20,0,440547,0
440547,91,-2031,322,-49,-11,-102,11231,-17,-16,-289,-64,35834,-36,32,127,0,0,3218,-32,0,12929,5530,172,49831,-4,0,-20,0,440547,0
440557,106,-2029,315,-50,-6,-91,11213,-48,-31,-268,-64,35843,-36,32,127,0,0,3218,32,0,12929,5530,172,49841,-4,0,-20,0,440563,0
440567,95,-2031,313,-48,-4,-91,11188,-46,-30,-89,0,35861,-40,32,127,0,0,3218,0,0,12929,5530,172,49851,-4,0,-20,0,440563,0
440577,94,-2043,316,-41,-5,-81,11188,20,45,-120,-40,35879,-44,32,127,0,0,3214,-54,0,12929,5530,172,49861,-4,0,-20,0,440563,0
440587,108,-2028,309,-39,-5,-85,11183,-3,35,-127,-104,35881,-48,32,127,0,0,3214,-54,0,12929,5530,172,49871,-4,0,-20,0,440563,0
440597,91,-2026,323,-40,0,-80,11180,-7,-5,-159,-104,35874,-46,33,127,0,0,3216,-10,0,12929,5530,172,49881,-4,0,-20,0,440578,0
440607,81,-2025,329,-38,-5,-81,11183,12,13,-176,-88,35858,-43,32,127,0,0,3212,-32,0,12929,5530,172,49891,-4,0,-20,0,440672,0
440617,104,-2036,328,-49,-6,-76,11177,-9,4,-244,-64,35854,-33,32,127,0,0,3212,0,0,12929,5530,172,49901,-4,0,-20,0,440672,0
440627,101,-2033,321,-44,-10,-71,11176,7,-5,-259,-48,35850,-42,32,127,0,0,3212,10,0,12929,5530,172,49911,-4,0,-20,0,440672,0
440637,89,-2026,317,-55,-18,-62,11175,1,13,-279,-32,35842,-36,32,127,0,0,3208,-21,0,12929,5530,172,49921,-4,0,-20,0,440672,0
440647,98,-2027,315,-54,-8,-69,11170,-17,-12,-281,-80,35829,-53,32,127,0,0,3205,-65,0,12929,5530,172,49931,-4,0,-20,0,440672,0
440657,72,-2018,328,-51,-12,-77,11165,-14,-10,-316,-48,35825,-43,32,127,0,0,3208,-21,0,12929,5530,172,49941,-4,0,-20,0,440672,0
440667,87,-2024,331,-51,-10,-82,11158,-25,-14,-286,-72,35825,-43,32,127,0,0,3205,-21,0,12929,5530,172,49951,-4,0,-20,0,440672,0
440677,101,-2018,317,-55,-6,-83,11138,-50,-20,-236,-56,35828,-35,32,127,0,0,3205,0,0,12929,5530,172,49961,-4,0,-20,0,440672,0
440687,82,-2022,309,-61,-9,-92,11118,-22,-32,-65,-48,35826,-36,32,127,0,0,3205,0,0,12929,5530,172,49971,-4,0,-20,0,440672,0
440697,101,-2018,324,-53,-7,-69,11123,15,58,-104,-80,35822,-34,32,127,0,0,3203,-43,0,12929,5530,172,49981,-4,0,-20,0,440687,0
440707,101,-2015,325,-52,-11,-78,11119,3,30,-117,-40,35826,-45,32,127,0,0,3201,-54,0,12929,5530,172,49991,-4,0,-20,0,440687,0
440717,95,-2022,317,-54,-21,-59,11114,-17,-4,-258,-72,35847,-51,32,127,0,0,3203,32,0,12929,5530,172,50001,-4,0,-20,0,440719,0
440727,84,-2027,310,-49,-10,-53,11117,16,12,-160,-72,35859,-43,32,127,0,0,3201,-21,0,12929,5530,172,50011,-4,0,-20,0,440734,0
440737,91,-2030,309,-47,-14,-47,11112,-7,4,-216,-8,35854,-49,32,127,0,0,3199,-21,0,12929,5530,172,50021,-4,0,-20,0,440734,0
440747,140,-2033,310,-51,-14,-47,11111,-16,-5,-286,-32,35835,-49,32,127,0,0,3199,10,0,12929,5530,172,50031,-4,0,-20,0,440734,0
440757,114,-2031,314,-41,-7,-41,11112,4,0,-255,-80,35825,-67,32,127,0,0,3199,-10,0,12929,5530,172,50041,-4,0,-20,0,440734,0
440767,88,-2027,316,-38,-9,-34,11112,7,-4,-254,-48,35835,-52,32,127,0,0,3199,-10,0,12929,5530,172,50051,-4,0,-20,0,440750,0
440777,91,-2026,319,-41,-6,-28,11112,-4,-10,-238,-96,35850,-51,32,127,0,0,3199,-21,0,12929,5530,172,50061,-4,0,-20,0,440766,0
440787,74,-2029,324,-37,-13,-25,11110,1,-2,-295,-64,35856,-27,32,127,0,0,3199,21,0,12929,5530,172,50071,-4,0,-20,0,440766,0
440797,98,-2032,316,-42,-8,-27,11109,-4,-4,-290,-64,35850,-41,32,127,0,0,3199,0,0,12929,5530,172,50081,-4,0,-20,0,440781,0
440807,82,-2036,317,-39,-5,-28,11109,3,1,-259,-112,35850,-40,32,127,0,0,3199,-10,0,12929,5530,172,50091,-4,0,-20,0,440812,0
440817,74,-2040,320,-43,-8,-29,11109,4,-2,-241,-32,35850,-48,32,127,0,0,3201,21,0,12929,5530,172,50101,-4,0,-20,0,440812,0
440827,122,-2028,316,-39,-6,-31,11112,-6,4,-206,-80,35848,-37,32,127,0,0,3199,-32,0,12929,5530,172,50111,-4,0,-20,0,440844,0
440837,77,-2029,312,-38,-2,-38,11109,9,-11,-253,-64,35842,-38,32,127,0,0,3201,32,0,12929,5530,172,50121,-4,0,-20,0,440844,0
440847,93,-2024,313,-39,-11,-34,11110,-9,2,-213,-8,35834,-47,32,127,0,0,3203,43,0,12929,5530,172,50131,-4,0,-20,0,440859,0
440857,91,-2022,318,-41,-11,-39,11110,-9,11,-205,-40,35838,-46,32,127,0,0,3199,0,0,12929,5530,172,50141,-4,0,-20,0,440859,0
440867,95,-2019,324,-37,-6,-43,11109,0,-10,-235,-32,35834,-41,33,127,0,0,3199,-21,0,12929,5530,172,50151,-4,0,-20,0,440859,0
440877,62,-2028,322,-38,-6,-42,11110,10,0,-225,-40,35831,-48,32,127,0,0,3201,-10,0,12929,5530,172,50161,-4,0,-20,0,440859,0
440887,71,-2028,328,-38,-10,-46,11108,-13,2,-238,-40,35829,-57,32,127,0,0,3203,32,0,12929,5530,172,50171,-4,0,-20,0,440859,0
440897,121,-2032,323,-41,-10,-28,11112,5,2,-208,-48,35835,-48,32,127,0,0,3201,-10,0,12929,5530,172,50181,-4,0,-20,0,440953,0
440907,99,-2028,314,-41,-7,-30,11109,4,-1,-201,-40,35849,-53,32,127,0,0,3199,-32,0,12929,5530,172,50191,-4,0,-20,0,440953,0
440917,82,-2029,311,-36,-8,-26,11109,-10,-5,-198,-88,35845,-63,33,127,0,0,3199,-32,0,12929,5530,172,50201,-4,0,-20,0,440953,0
440927,95,-2025,310,-30,-7,-22,11109,-3,-1,-221,-40,35843,-62,32,127,0,0,3201,10,0,12929,5530,172,50211,-4,0,-20,0,440953,0
440937,93,-2022,307,-20,2,-16,11111,4,5,-208,24,35832,-60,32,127,0,0,3201,10,0,12929,5530,172,50221,-4,0,-20,0,440953,0
440947,133,-2030,300,-15,5,-7,11109,-29,6,-211,-40,35832,-54,32,127,0,0,3201,10,0,12929,5530,172,50231,-4,0,-20,0,440953,0
440957,127,-2031,318,-17,5,-3,11111,-6,1,-155,16,35831,-57,32,127,0,0,3205,32,0,12929,5530,172,50241,-4,0,-20,0,440953,0
440967,106,-2032,321,-16,0,11,11116,8,5,-61,24,35833,-61,32,127,0,0,3205,10,0,12929,5530,172,50251,-4,0,-20,0,440953,0
440977,117,-2024,336,-21,-9,29,11117,-6,-1,-20,24,35839,-53,32,127,0,0,3208,0,0,12929,5530,172,50261,-4,0,-20,0,440953,0
440987,89,-2028,328,-22,-10,33,11117,-1,-6,46,0,35849,-43,32,127,0,0,3214,76,0,12929,5530,172,50271,-4,0,-20,0,440969,0
440997,85,-2027,327,-27,-11,40,11126,9,10,166,40,35858,-39,33,127,0,0,3212,0,0,12929,5530,172,50281,-4,0,-20,0,440984,0
441007,75,-2023,329,-22,-3,27,11126,5,-7,228,72,35863,-43,32,127,0,0,3218,43,0,12929,5530,172,50291,-4,0,-20,0,440984,0
441017,96,-2025,327,-21,-8,29,11132,11,6,251,64,35862,-51,32,127,0,0,3218,32,0,12929,5530,172,50301,-4,0,-20,0,441000,0
441027,69,-2033,325,-21,-6,20,11135,18,-2,292,104,35851,-43,32,127,0,0,3221,32,0,12929,5530,172,50311,-4,0,-20,0,441031,0
441037,53,-2037,328,-27,-5,13,11139,20,-1,343,88,35850,-42,32,127,0,0,3223,21,0,12929,5530,172,50321,-4,0,-20,0,441031,0
441047,71,-2031,328,-21,-10,2,11147,25,23,388,120,35857,-35,32,127,0,0,3223,0,0,12929,5530,172,50331,-4,0,-20,0,441031,0
441057,74,-2025,332,-29,-4,-14,11165,36,24,267,80,35870,-49,32,127,0,0,3223,21,0,12929,5530,172,50341,-4,0,-20,0,441031,0
441067,76,-2026,332,-31,-12,-20,11188,48,26,187,56,35864,-52,32,127,0,0,3225,0,0,12929,5530,172,50351,-4,0,-20,0,441062,0
441077,67,-2019,333,-33,-8,-31,11185,-16,-39,197,56,35860,-48,32,127,0,0,3225,21,0,12929,5530,172,50361,-4,0,-20,0,441062,0
441087,60,-2021,331,-39,-2,-38,11189,6,-37,209,56,35856,-49,32,127,0,0,3225,0,0,12929,5530,172,50371,-4,0,-20,0,441062,0
441097,53,-2032,329,-36,-11,-52,11188,3,2,232,56,35860,-56,32,127,0,0,3225,-10,0,12929,5530,172,50381,-4,0,-20,0,441094,0
441107,68,-2036,327,-41,-16,-60,11189,3,1,244,56,35868,-70,32,127,0,0,3225,-21,0,12929,5530,172,50391,-4,0,-20,0,441094,0
441117,65,-2051,329,-44,-14,-70,11187,-7,-1,221,24,35866,-63,32,127,0,0,3225,0,0,12929,5530,172,50401,-4,0,-20,0,441094,0
441127,43,-2050,333,-43,-18,-77,11188,5,-2,234,88,35862,-47,32,127,0,0,3225,-21,0,12929,5530,172,50411,-4,0,-20,0,441125,0
441137,60,-2050,333,-49,-19,-91,11188,-16,-1,214,24,35855,-41,32,127,0,0,3225,0,0,12929,5530,172,50421,-4,0,-20,0,441125,0
441147,43,-2040,342,-45,-23,-99,11189,10,3,232,40,35857,-36,32,127,0,0,3223,-43,0,12929,5530,172,50431,-4,0,-20,0,441125,0
441157,54,-2031,332,-52,-24,-117,11185,-12,-3,146,40,35855,-31,32,127,0,0,3225,32,0,12929,5530,172,50441,-4,0,-20,0,441156,0
441167,70,-2025,330,-47,-23,-120,11188,-6,5,158,16,35851,-27,33,127,0,0,3223,10,0,12929,5530,172,50451,-4,0,-20,0,441156,0
441177,29,-2019,328,-56,-20,-162,11188,9,3,159,32,35849,-20,33,127,0,0,3218,-54,0,12929,5530,172,50461,-4,0,-20,0,441172,0
441187,65,-2007,343,-61,-9,-179,11180,-24,-21,6,0,35851,-29,33,127,0,0,3216,-21,0,12929,5530,172,50471,-4,0,-20,0,441172,0
441197,79,-2019,349,-67,-12,-200,11175,-25,-10,-158,-72,35847,-25,33,127,0,0,3214,0,0,12929,5530,172,50481,-4,0,-20,0,441172,0
441207,45,-2007,329,-74,-8,-228,11165,-16,-6,-187,-128,35848,-41,32,127,0,0,3203,-109,0,12929,5530,172,50491,-4,0,-20,0,441187,0
441217,83,-2013,330,-77,-10,-234,11132,-94,-48,-258,-96,35848,-54,32,127,0,0,3201,-65,0,12929,5530,172,50501,-4,0,-20,0,441203,0
441227,52,-2018,337,-74,-4,-256,11097,-40,-44,-188,-64,35852,-48,32,127,0,0,3192,-76,0,12929,5530,172,50511,-4,0,-20,0,441203,0
441237,130,-2018,345,-81,-10,-240,11088,-32,52,-391,-96,35846,-48,32,127,0,0,3186,-87,0,12929,5530,172,50521,-4,0,-20,0,441219,0
441247,123,-2025,337,-95,-17,-230,11062,-79,4,-383,-128,35846,-49,32,127,0,0,3183,-32,0,12929,5530,172,50531,-4,0,-20,0,441234,0
441257,85,-2033,309,-81,-16,-230,11035,-29,-46,-319,-128,35844,-62,32,127,0,0,3177,-54,0,12929,5530,172,50541,-4,0,-20,0,441234,0
441267,130,-2024,311,-82,-12,-232,11026,-18,43,-459,-176,35850,-61,32,127,0,0,3172,-54,0,12929,5530,172,50551,-4,0,-20,0,441265,0
441277,140,-2025,312,-83,-6,-217,10997,-82,-7,-407,-128,35854,-63,32,127,0,0,3170,-32,0,12929,5530,172,50561,-4,0,-20,0,441265,0
441287,107,-2035,303,-76,-11,-210,10965,-36,-40,-295,-128,35847,-62,32,127,0,0,3164,-76,0,12929,5530,172,50571,-4,0,-20,0,441265,0
441297,184,-2024,307,-67,-7,-177,10947,-58,32,-446,-152,35844,-74,32,127,0,0,3159,0,0,12929,5530,172,50581,-4,0,-20,0,441281,0
441307,159,-2023,309,-69,-6,-157,10913,-68,-21,-276,-120,35835,-94,32,127,0,0,3157,-43,0,12929,5530,172,50591,-4,0,-20,0,441297,0
441317,150,-2029,309,-59,-9,-121,10908,21,39,-377,-120,35840,-96,32,127,0,0,3150,-65,0,12929,5530,172,50601,-4,0,-20,0,441312,0
441327,185,-2013,311,-55,-16,-117,10904,-15,72,-456,-144,35838,-101,32,127,0,0,3148,-43,0,12929,5530,172,50611,-4,0,-20,0,441312,0
441337,144,-2024,305,-49,-5,-78,10905,12,5,-500,-168,35836,-95,32,127,0,0,3148,-32,0,12929,5530,172,50621,-4,0,-20,0,441312,0
441347,144,-2016,297,-37,-9,-58,10900,-10,2,-507,-152,35839,-98,32,127,0,0,3148,-10,0,12929,5530,172,50631,-4,0,-20,0,441344,0
441357,142,-2025,292,-28,0,-45,10894,-33,-12,-546,-168,35854,-101,32,127,0,0,3148,32,0,12929,5530,172,50641,-4,0,-20,0,441359,0
441367,125,-2033,291,-25,2,-38,10885,-26,-19,-469,-136,35853,-103,32,127,0,0,3146,10,0,12929,5530,172,50651,-4,0,-20,0,441359,0
441377,138,-2033,308,-23,7,-33,10868,-45,-16,-362,-112,35843,-105,32,127,0,0,3148,21,0,12929,5530,172,50661,-4,0,-20,0,441359,0
441387,98,-2033,327,-16,-1,-23,10859,2,8,-294,-96,35833,-110,32,127,0,0,3148,10,0,12929,5530,172,50671,-4,0,-20,0,441359,0
441397,93,-2045,322,-17,3,-25,10861,6,44,-324,-88,35849,-102,32,127,0,0,3148,10,0,12929,5530,172,50681,-4,0,-20,0,441406,0
441407,97,-2040,313,-16,5,-29,10860,6,12,-277,-112,35859,-92,32,127,0,0,3146,-21,0,12929,5530,172,50691,-4,0,-20,0,441406,0
441417,100,-2025,314,-11,4,-33,10858,-10,-2,-303,-64,35855,-82,32,127,0,0,3146,0,0,12929,5530,172,50701,-4,0,-20,0,441406,0
441427,150,-2024,329,-8,7,-29,10858,-1,-8,-311,-64,35841,-86,32,127,0,0,3150,21,0,12929,5530,172,50711,-4,0,-20,0,441406,0
441437,174,-2013,326,-12,9,-4,10859,1,5,-303,-88,35832,-92,32,127,0,0,3146,0,0,12929,5530,172,50721,-4,0,-20,0,441422,0
441447,147,-2012,318,-15,12,12,10858,7,2,-342,-56,35848,-90,32,127,0,0,3146,10,0,12929,5530,172,50731,-4,0,-20,0,441437,0
441457,142,-2020,308,-2,8,31,10856,-6,-1,-342,-80,35852,-88,32,127,0,0,3150,54,0,12929,5530,172,50741,-4,0,-20,0,441437,0
441467,112,-2036,301,5,0,58,10864,38,14,-176,-64,35848,-88,32,127,0,0,3157,32,0,12929,5530,172,50751,-4,0,-20,0,441453,0
441477,133,-2017,297,20,-7,76,10863,-2,4,-58,-16,35844,-85,32,127,0,0,3157,32,0,12929,5530,172,50761,-4,0,-20,0,441453,0
441487,124,-2018,302,30,-3,94,10869,7,-4,-21,32,35843,-85,32,127,0,0,3161,65,0,12929,5530,172,50771,-4,0,-20,0,441469,0
441497,105,-2027,318,30,6,91,10879,24,24,92,48,35854,-86,32,127,0,0,3166,43,0,12929,5530,172,50781,-4,0,-20,0,441500,0
441507,97,-2030,335,27,8,87,10905,64,48,35,16,35843,-91,32,127,0,0,3170,65,0,12929,5530,172,50791,-4,0,-20,0,441500,0
441517,123,-2024,352,20,-6,96,10922,8,8,59,56,35840,-100,32,127,0,0,3172,54,0,12929,5530,172,50801,-4,0,-20,0,441500,0
441527,59,-2029,340,15,3,86,10923,4,-53,206,96,35836,-110,32,127,0,0,3177,54,0,12929,5530,172,50811,-4,0,-20,0,441500,0
441537,77,-2025,347,11,-3,67,10929,7,-8,283,128,35830,-125,32,127,0,0,3181,21,0,12929,5530,172,50821,-4,0,-20,0,441531,0
441547,68,-2024,343,7,2,56,10937,17,4,350,88,35841,-132,32,127,0,0,3186,54,0,12929,5530,172,50831,-4,0,-20,0,441531,0
441557,68,-2030,339,0,4,39,10945,25,0,422,128,35839,-136,32,127,0,0,3188,10,0,12929,5530,172,50841,-4,0,-20,0,441531,0
441567,80,-2026,339,1,2,30,10968,67,35,337,136,35841,-124,32,127,0,0,3190,21,0,12929,5530,172,50851,-4,0,-20,0,441656,0
441577,107,-2036,357,-17,-4,34,11004,55,57,194,56,35841,-117,32,127,0,0,3192,21,0,12929,5530,172,50861,-4,0,-20,0,441656,0
441587,80,-2031,350,-18,-8,23,11005,-1,-62,293,72,35836,-107,32,127,0,0,3194,21,0,12929,5530,172,50871,-4,0,-20,0,441672,0
441597,77,-2039,344,-25,-4,10,11005,2,-58,300,112,35835,-100,32,127,0,0,3192,10,0,12929,5530,172,50881,-4,0,-20,0,441672,0
441607,84,-2026,332,-28,1,3,11009,12,6,367,104,35823,-96,32,127,0,0,3197,10,0,12929,5530,172,50891,-4,0,-20,0,441672,0
441617,71,-2023,331,-25,-2,-4,11029,48,38,326,64,35824,-91,32,127,0,0,3201,21,0,12929,5530,172,50901,-4,0,-20,0,441672,0
441627,88,-2023,333,-27,-13,2,11058,45,46,172,64,35821,-78,32,127,0,0,3201,10,0,12929,5530,172,50911,-4,0,-20,0,441672,0
441637,80,-2028,338,-25,-11,-10,11058,-17,-52,230,88,35819,-59,32,127,0,0,3203,21,0,12929,5530,172,50921,-4,0,-20,0,441672,0
441647,96,-2026,343,-24,-4,1,11062,0,-51,242,80,35820,-58,32,127,0,0,3205,54,0,12929,5530,172,50931,-4,0,-20,0,441672,0
441657,101,-2023,340,-36,-8,3,11064,8,8,323,96,35824,-55,32,127,0,0,3205,0,0,12929,5530,172,50941,-4,0,-20,0,441672,0
441667,85,-2027,339,-29,-13,0,11068,16,2,350,112,35823,-54,32,127,0,0,3208,0,0,12929,5530,172,50951,-4,0,-20,0,441672,0
441677,63,-2025,334,-34,-16,-15,11075,18,1,381,152,35821,-49,32,127,0,0,3212,10,0,12929,5530,172,50961,-4,0,-20,0,441672,0
441687,49,-2036,339,-36,-5,-28,11089,41,27,372,104,35815,-51,32,127,0,0,3210,-32,0,12929,5530,172,50971,-4,0,-20,0,441672,0
441697,72,-2029,341,-36,-17,-37,11118,61,46,175,56,35821,-57,32,127,0,0,3214,21,0,12929,5530,172,50981,-4,0,-20,0,441687,0
441707,69,-2023,340,-38,-12,-51,11118,-8,-24,252,32,35833,-54,32,127,0,0,3216,32,0,12929,5530,172,50991,-4,0,-20,0,441687,0
441717,89,-2032,340,-38,-7,-61,11121,0,-55,237,48,35854,-54,32,127,0,0,3214,21,0,12929,5530,172,51001,-4,0,-20,0,441719,0
441727,68,-2027,343,-46,-8,-69,11121,22,-1,241,48,35854,-37,32,127,0,0,3214,-21,0,12929,5530,172,51011,-4,0,-20,0,441719,0
441737,88,-2030,340,-50,-14,-76,11119,5,0,257,40,35858,-35,32,127,0,0,3214,0,0,12929,5530,172,51021,-4,0,-20,0,441719,0
441747,86,-2027,342,-55,-22,-74,11117,-14,-3,236,128,35841,-39,32,127,0,0,3212,10,0,12929,5530,172,51031,-4,0,-20,0,441719,0
441757,36,-2022,356,-53,-18,-80,11121,-1,1,253,112,35840,-43,32,127,0,0,3214,-21,0,12929,5530,172,51041,-4,0,-20,0,441765,0
441767,69,-2025,354,-64,-25,-84,11120,-10,-6,254,64,35846,-55,32,127,0,0,3212,-21,0,12929,5530,172,51051,-4,0,-20,0,441765,0
441777,75,-2018,345,-69,-25,-89,11121,-1,-8,249,64,35848,-56,32,127,0,0,3212,-21,0,12929,5530,172,51061,-4,0,-20,0,441765,0
441787,76,-2013,340,-69,-27,-93,11120,-7,-2,247,32,35841,-55,32,127,0,0,3212,-32,0,12929,5530,172,51071,-4,0,-20,0,441765,0
441797,54,-2016,331,-68,-27,-93,11119,5,-4,225,32,35831,-44,32,127,0,0,3212,-21,0,12929,5530,172,51081,-4,0,-20,0,441781,0
441807,75,-2016,344,-68,-28,-99,11119,-7,3,231,80,35832,-39,33,127,0,0,3212,-10,0,12929,5530,172,51091,-4,0,-20,0,441812,0
441817,74,-2032,359,-69,-30,-104,11120,-3,-3,240,32,35845,-23,32,127,0,0,3216,43,0,12929,5530,172,51101,-4,0,-20,0,441812,0
441827,66,-2031,382,-81,-35,-103,11119,-19,5,203,32,35844,-30,32,127,0,0,3212,0,0,12929,5530,172,51111,-4,0,-20,0,441812,0
441837,98,-2039,361,-98,-29,-111,11118,14,-5,140,0,35839,-31,32,127,0,0,3210,0,0,12929,5530,172,51121,-4,0,-20,0,441812,0
441847,80,-2020,335,-99,-32,-123,11117,4,11,132,0,35830,-56,32,127,0,0,3208,-32,0,12929,5530,172,51131,-4,0,-20,0,441843,0
441857,94,-2027,314,-100,-19,-146,11117,1,-3,86,40,35842,-43,32,127,0,0,3208,-10,0,12929,5530,172,51141,-4,0,-20,0,441843,0
441867,93,-2040,325,-99,-18,-142,11113,-18,-1,9,0,35849,-45,32,127,0,0,3205,0,0,12929,5530,172,51151,-4,0,-20,0,441843,0
441877,100,-2046,336,-99,-10,-142,11113,4,-2,-50,-24,35849,-32,32,127,0,0,3203,-21,0,12929,5530,172,51161,-4,0,-20,0,441875,0
441887,107,-2035,334,-96,-19,-135,11106,-28,-3,-147,-32,35846,-46,32,127,0,0,3199,-32,0,12929,5530,172,51171,-4,0,-20,0,441875,0
441897,103,-2029,334,-100,-28,-134,11099,-18,-13,-213,-40,35842,-44,32,127,0,0,3194,-43,0,12929,5530,172,51181,-4,0,-20,0,441875,0
441907,111,-2030,332,-107,-24,-124,11092,-25,-4,-307,-72,35848,-52,32,127,0,0,3197,21,0,12929,5530,172,51191,-4,0,-20,0,441906,0
441917,115,-2024,326,-105,-25,-128,11077,-37,-19,-192,-48,35842,-72,32,127,0,0,3192,-10,0,12929,5530,172,51201,-4,0,-20,0,441922,0
441927,115,-2019,331,-108,-22,-132,11059,-27,-17,-105,-48,35846,-67,32,127,0,0,3192,-10,0,12929,5530,172,51211,-4,0,-20,0,441922,0
441937,113,-2026,327,-107,-16,-130,11059,0,22,-190,-24,35840,-61,32,127,0,0,3190,10,0,12929,5530,172,51221,-4,0,-20,0,441937,0
441947,125,-2025,315,-107,-23,-119,11055,-18,35,-226,-80,35835,-52,32,127,0,0,3186,-32,0,12929,5530,172,51231,-4,0,-20,0,441937,0
441957,124,-2011,308,-97,-20,-123,11048,-18,-17,-275,-56,35829,-46,32,127,0,0,3183,-43,0,12929,5530,172,51241,-4,0,-20,0,441953,0
441967,137,-2022,317,-103,-29,-109,11043,-18,-15,-371,-56,35835,-43,32,127,0,0,3183,10,0,12929,5530,172,51251,-4,0,-20,0,441953,0
441977,122,-2025,312,-103,-21,-97,11043,3,12,-338,-96,35838,-38,33,127,0,0,3181,-43,0,12929,5530,172,51261,-4,0,-20,0,441968,0
441987,122,-2026,310,-99,-18,-93,11041,-2,4,-361,-120,35842,-47,32,127,0,0,3183,-10,0,12929,5530,172,51271,-4,0,-20,0,441968,0
441997,128,-2023,314,-94,-19,-88,11038,-3,-7,-406,-112,35846,-47,32,127,0,0,3179,10,0,12929,5530,172,51281,-4,0,-20,0,441984,0
442007,124,-2027,307,-91,-12,-84,11031,-5,-8,-374,-144,35846,-45,32,127,0,0,3177,-32,0,12929,5530,172,51291,-4,0,-20,0,442015,0
442017,143,-2030,314,-86,-17,-66,11016,-27,-13,-352,-112,35850,-46,32,127,0,0,3177,-10,0,12929,5530,172,51301,-4,0,-20,0,442015,0
442027,146,-2040,315,-84,-22,-56,10996,-48,-26,-239,-80,35847,-58,32,127,0,0,3175,-32,0,12929,5530,172,51311,-4,0,-20,0,442031,0
442037,130,-2029,318,-82,-13,-54,10986,0,8,-174,-88,35844,-84,32,127,0,0,3177,0,0,12929,5530,172,51321,-4,0,-20,0,442031,0
442047,98,-2023,326,-74,-17,-48,10986,1,50,-227,-32,35840,-97,33,127,0,0,3177,21,0,12929,5530,172,51331,-4,0,-20,0,442031,0
442057,130,-2030,309,-78,-10,-52,10986,2,12,-190,-16,35836,-92,32,127,0,0,3179,21,0,12929,5530,172,51341,-4,0,-20,0,442031,0
442067,112,-2036,304,-82,-8,-47,10987,-4,-3,-178,-32,35849,-80,32,127,0,0,3175,-43,0,12929,5530,172,51351,-4,0,-20,0,442062,0
442077,107,-2037,301,-71,-10,-41,10987,15,-8,-224,-24,35867,-51,32,127,0,0,3177,10,0,12929,5530,172,51361,-4,0,-20,0,442062,0
442087,131,-2020,308,-65,-11,-39,10985,-5,4,-192,-48,35876,-49,32,127,0,0,3177,10,0,12929,5530,172,51371,-4,0,-20,0,442062,0
442097,136,-2024,323,-67,-5,-40,10986,-9,5,-189,-48,35860,-50,32,127,0,0,3177,0,0,12929,5530,172,51381,-4,0,-20,0,442078,0
442107,121,-2030,311,-65,-8,-35,10986,1,-1,-194,-40,35848,-82,32,127,0,0,3179,43,0,12929,5530,172,51391,-4,0,-20,0,442078,0
442117,115,-2021,308,-65,-9,-30,10985,-14,-1,-175,-16,35852,-91,32,127,0,0,3179,21,0,12929,5530,172,51401,-4,0,-20,0,442109,0
442127,124,-2023,300,-63,-1,-34,10989,1,0,-150,-8,35864,-99,32,127,0,0,3177,-21,0,12929,5530,172,51411,-4,0,-20,0,442109,0
442137,100,-2026,309,-59,-10,-32,10988,11,-3,-136,-56,35860,-98,32,127,0,0,3179,-10,0,12929,5530,172,51421,-4,0,-20,0,442109,0
442147,82,-2025,319,-53,-19,-28,10987,5,0,-149,-48,35856,-98,33,127,0,0,3179,0,0,12929,5530,172,51431,-4,0,-20,0,442156,0
442157,113,-2041,303,-57,-7,-29,10988,10,2,-142,-16,35849,-95,32,127,0,0,3179,0,0,12929,5530,172,51441,-4,0,-20,0,442156,0
442167,102,-2034,311,-57,-9,-31,10987,-5,1,-161,-8,35856,-89,33,127,0,0,3177,10,0,12929,5530,172,51451,-4,0,-20,0,442156,0
442177,89,-2024,314,-51,-12,-36,10988,7,0,-131,-24,35859,-82,33,127,0,0,3179,0,0,12929,5530,172,51461,-4,0,-20,0,442156,0
442187,99,-2038,325,-50,-13,-35,10989,2,6,-102,-56,35847,-74,32,127,0,0,3179,0,0,12929,5530,172,51471,-4,0,-20,0,442172,0
442197,132,-2036,312,-52,-8,-41,10989,3,-2,-110,40,35847,-76,32,127,0,0,3181,43,0,12929,5530,172,51481,-4,0,-20,0,442172,0
442207,120,-2031,316,-52,-7,-41,10988,-16,-3,-161,-16,35862,-81,32,127,0,0,3179,21,0,12929,5530,172,51491,-4,0,-20,0,442203,0
442217,86,-2037,324,-52,-16,-38,10989,11,2,-110,0,35868,-82,32,127,0,0,3181,0,0,12929,5530,172,51501,-4,0,-20,0,442203,0
442227,81,-2021,321,-56,-15,-57,10989,3,10,-62,-32,35861,-88,32,127,0,0,3179,-43,0,12929,5530,172,51511,-4,0,-20,0,442218,0
442237,99,-2037,312,-54,-7,-61,10987,-4,-5,-141,-48,35836,-91,32,127,0,0,3181,32,0,12929,5530,172,51521,-4,0,-20,0,442218,0
442247,94,-2038,320,-55,-17,-60,10989,3,11,-93,-32,35838,-97,32,127,0,0,3179,10,0,12929,5530,172,51531,-4,0,-20,0,442234,0
442257,104,-2035,327,-68,-19,-62,10988,1,10,-109,-16,35858,-111,32,127,0,0,3179,-21,0,12929,5530,172,51541,-4,0,-20,0,442250,0
442267,102,-2036,318,-71,-22,-62,10992,17,-8,-120,-24,35861,-100,32,127,0,0,3179,-10,0,12929,5530,172,51551,-4,0,-20,0,442250,0
442277,113,-2032,317,-76,-21,-55,10987,-12,4,-165,-16,35853,-96,32,127,0,0,3177,10,0,12929,5530,172,51561,-4,0,-20,0,442265,0
442287,149,-2034,316,-79,-19,-67,10989,0,12,-126,-32,35843,-94,32,127,0,0,3177,-21,0,12929,5530,172,51571,-4,0,-20,0,442265,0
442297,109,-2027,314,-74,-26,-70,10986,-3,-3,-150,-56,35851,-91,32,127,0,0,3175,-21,0,12929,5530,172,51581,-4,0,-20,0,442312,0
442307,121,-2025,311,-81,-23,-64,10987,-1,-8,-202,-40,35858,-84,32,127,0,0,3179,32,0,12929,5530,172,51591,-4,0,-20,0,442312,0
442317,108,-2022,304,-72,-20,-70,10990,7,10,-114,-32,35854,-73,32,127,0,0,3177,-32,0,12929,5530,172,51601,-4,0,-20,0,442328,0
442327,102,-2024,310,-68,-15,-76,10988,7,-7,-161,-40,35850,-76,32,127,0,0,3177,-10,0,12929,5530,172,51611,-4,0,-20,0,442328,0
442337,141,-2016,317,-68,-19,-73,10987,-10,-10,-182,-8,35852,-90,32,127,0,0,3179,21,0,12929,5530,172,51621,-4,0,-20,0,442328,0
442347,126,-2036,318,-73,-12,-64,10986,-10,5,-184,-48,35847,-79,32,127,0,0,3177,0,0,12929,5530,172,51631,-4,0,-20,0,442328,0
442357,127,-2037,312,-72,-21,-61,10986,3,-3,-210,-32,35839,-79,32,127,0,0,3179,21,0,12929,5530,172,51641,-4,0,-20,0,442328,0
442367,104,-2034,315,-67,-22,-65,10988,7,4,-144,-24,35846,-77,32,127,0,0,3175,-43,0,12929,5530,172,51651,-4,0,-20,0,442375,0
442377,88,-2017,312,-65,-19,-81,10984,-22,-7,-202,-8,35856,-90,32,127,0,0,3175,-21,0,12929,5530,172,51661,-4,0,-20,0,442375,0
442387,123,-2032,313,-70,-10,-73,10986,-11,-1,-251,-64,35860,-89,32,127,0,0,3177,21,0,12929,5530,172,51671,-4,0,-20,0,442375,0
442397,105,-2037,300,-62,-8,-76,10986,8,1,-217,-64,35852,-88,32,127,0,0,3175,0,0,12929,5530,172,51681,-4,0,-20,0,442375,0
442407,108,-2030,309,-63,-12,-80,10982,-8,-7,-254,-48,35835,-90,32,127,0,0,3172,-10,0,12929,5530,172,51691,-4,0,-20,0,442406,0
442417,115,-2027,317,-68,-14,-78,10983,-3,-3,-311,-80,35834,-106,32,127,0,0,3170,-32,0,12929,5530,172,51701,-4,0,-20,0,442421,0
442427,105,-2026,322,-71,-15,-87,10978,-11,-4,-315,-136,35846,-112,32,127,0,0,3172,-10,0,12929,5530,172,51711,-4,0,-20,0,442421,0
442437,105,-2030,327,-72,-18,-82,10981,11,6,-289,-136,35846,-107,32,127,0,0,3170,-32,0,12929,5530,172,51721,-4,0,-20,0,442421,0
442447,94,-2018,327,-77,-22,-93,10976,-12,0,-322,-128,35839,-102,32,127,0,0,3166,-43,0,12929,5530,172,51731,-4,0,-20,0,442421,0
442457,119,-2026,314,-76,-11,-102,10973,-15,-10,-410,-104,35842,-102,32,127,0,0,3164,-21,0,12929,5530,172,51741,-4,0,-20,0,442453,0
442467,121,-2028,306,-77,-12,-102,10968,-13,-5,-446,-104,35861,-110,32,127,0,0,3161,-43,0,12929,5530,172,51751,-4,0,-20,0,442453,0
442477,119,-2028,310,-78,-12,-96,10953,-44,-23,-426,-128,35858,-106,32,127,0,0,3164,0,0,12929,5530,172,51761,-4,0,-20,0,442453,0
442487,128,-2015,318,-79,-17,-94,10923,-75,-53,-225,-64,35847,-105,33,127,0,0,3161,0,0,12929,5530,172,51771,-4,0,-20,0,442468,0
442497,120,-2040,307,-84,-12,-92,10916,12,23,-277,-104,35839,-99,32,127,0,0,3159,-10,0,12929,5530,172,51781,-4,0,-20,0,442484,0
442507,130,-2014,305,-80,-18,-97,10914,-2,61,-315,-104,35853,-96,32,127,0,0,3157,0,0,12929,5530,172,51791,-4,0,-20,0,442484,0
442517,125,-2029,302,-79,-15,-91,10915,-8,0,-376,-144,35851,-99,32,127,0,0,3155,-21,0,12929,5530,172,51801,-4,0,-20,0,442500,0
442527,99,-2031,297,-73,-6,-99,10911,-9,2,-375,-144,35850,-100,32,127,0,0,3153,-54,0,12929,5530,172,51811,-4,0,-20,0,442500,0
442537,115,-2024,315,-70,-12,-102,10906,-17,-12,-471,-136,35833,-98,33,127,0,0,3150,-21,0,12929,5530,172,51821,-4,0,-20,0,442531,0
442547,123,-2023,312,-76,-11,-96,10904,-3,0,-487,-136,35845,-101,32,127,0,0,3148,-21,0,12929,5530,172,51831,-4,0,-20,0,442531,0
442557,125,-2024,301,-72,-14,-96,10900,-18,2,-506,-112,35839,-117,32,127,0,0,3148,0,0,12929,5530,172,51841,-4,0,-20,0,442531,0
442567,131,-2029,299,-69,-4,-97,10900,-4,-2,-523,-144,35836,-120,32,127,0,0,3144,-65,0,12929,5530,172,51851,-4,0,-20,0,442546,0
442577,136,-2024,307,-67,-9,-88,10890,-31,-21,-564,-168,35832,-112,32,127,0,0,3146,-21,0,12929,5530,172,51861,-4,0,-20,0,442562,0
442587,140,-2025,308,-72,-11,-77,10863,-71,-52,-445,-128,35828,-107,32,127,0,0,3142,10,0,12929,5530,172,51871,-4,0,-20,0,442578,0
442597,114,-2028,296,-70,-12,-71,10842,-9,-17,-385,-152,35841,-101,32,127,0,0,3142,0,0,12929,5530,172,51881,-4,0,-20,0,442578,0
442607,123,-2019,303,-67,-19,-69,10844,6,71,-443,-152,35832,-97,32,127,0,0,3139,-10,0,12929,5530,172,51891,-4,0,-20,0,442578,0
442617,120,-2024,282,-56,-10,-59,10841,0,21,-493,-136,35834,-86,32,127,0,0,3139,21,0,12929,5530,172,51901,-4,0,-20,0,442609,0
442627,106,-2027,290,-56,-10,-61,10839,-8,-4,-501,-128,35839,-67,32,127,0,0,3137,0,0,12929,5530,172,51911,-4,0,-20,0,442609,0
442637,125,-2042,303,-51,-4,-67,10838,-1,-3,-519,-184,35838,-69,32,127,0,0,3135,-21,0,12929,5530,172,51921,-4,0,-20,0,442609,0
442647,127,-2024,314,-48,-11,-63,10834,-2,-8,-516,-168,35836,-59,32,127,0,0,3133,-32,0,12929,5530,172,51931,-4,0,-20,0,442718,0
442657,122,-2035,302,-56,-11,-51,10826,-17,-12,-501,-120,35832,-69,32,127,0,0,3135,21,0,12929,5530,172,51941,-4,0,-20,0,442718,0
442667,116,-2033,299,-53,-19,-51,10819,-18,3,-459,-136,35832,-74,32,127,0,0,3131,-21,0,12929,5530,172,51951,-4,0,-20,0,442718,0
442677,115,-2027,291,-44,-10,-57,10794,-74,-36,-324,-88,35833,-84,32,127,0,0,3135,21,0,12929,5530,172,51961,-4,0,-20,0,442718,0
442687,104,-2030,305,-39,-8,-67,10782,4,-21,-226,-48,35826,-75,33,127,0,0,3133,10,0,12929,5530,172,51971,-4,0,-20,0,442718,0
442697,154,-2033,300,-37,-10,-57,10782,-6,64,-288,-48,35823,-73,32,127,0,0,3133,21,0,12929,5530,172,51981,-4,0,-20,0,442734,0
442707,136,-2039,297,-34,-9,-56,10783,13,33,-277,-48,35820,-65,32,127,0,0,3131,-21,0,12929,5530,172,51991,-4,0,-20,0,442734,0
442717,139,-2026,304,-38,-6,-41,10781,5,-2,-285,-80,35815,-69,32,127,0,0,3131,-32,0,12929,5530,172,52001,-4,0,-20,0,442734,0
442727,134,-2023,307,-32,-5,-29,10781,4,-8,-342,-104,35819,-75,32,127,0,0,3131,21,0,12929,5530,172,52011,-4,0,-20,0,442734,0
442737,142,-2036,302,-32,-6,-16,10781,11,0,-296,-112,35820,-78,32,127,0,0,3131,0,0,12929,5530,172,52021,-4,0,-20,0,442734,0
442747,117,-2028,300,-28,-6,-10,10780,7,10,-278,-112,35824,-78,32,127,0,0,3133,21,0,12929,5530,172,52031,-4,0,-20,0,442734,0
442757,126,-2029,284,-32,-2,-15,10780,8,10,-235,-88,35831,-67,32,127,0,0,3131,-32,0,12929,5530,172,52041,-4,0,-20,0,442734,0
442767,117,-2021,289,-30,-2,-20,10779,0,-2,-251,-56,35849,-71,32,127,0,0,3131,-32,0,12929,5530,172,52051,-4,0,-20,0,442765,0
442777,113,-2019,300,-21,-5,-24,10779,-9,-3,-290,-72,35857,-73,32,127,0,0,3133,32,0,12929,5530,172,52061,-4,0,-20,0,442765,0
442787,120,-2040,311,-30,-5,-17,10780,-1,10,-268,-80,35854,-71,32,127,0,0,3133,21,0,12929,5530,172,52071,-4,0,-20,0,442765,0
442797,121,-2039,316,-31,4,-21,10781,18,11,-231,-88,35836,-66,32,127,0,0,3133,-10,0,12929,5530,172,52081,-4,0,-20,0,442781,0
442807,99,-2025,311,-33,-7,-24,10779,-2,0,-261,-40,35826,-64,32,127,0,0,3133,32,0,12929,5530,172,52091,-4,0,-20,0,442812,0
442817,121,-2027,306,-40,-1,-27,10781,0,7,-227,-56,35842,-64,32,127,0,0,3131,-21,0,12929,5530,172,52101,-4,0,-20,0,442812,0
442827,116,-2031,310,-39,-8,-28,10779,-2,0,-265,-72,35847,-62,32,127,0,0,3133,0,0,12929,5530,172,52111,-4,0,-20,0,442812,0
442837,114,-2036,319,-37,-3,-33,10781,6,-3,-245,-88,35840,-63,32,127,0,0,3131,-21,0,12929,5530,172,52121,-4,0,-20,0,442812,0
442847,111,-2026,314,-41,-8,-37,10781,9,5,-241,-88,35831,-69,32,127,0,0,3131,-32,0,12929,5530,172,52131,-4,0,-20,0,442890,0
442857,112,-2034,313,-42,-3,-43,10779,6,-1,-281,-72,35842,-78,32,127,0,0,3135,54,0,12929,5530,172,52141,-4,0,-20,0,442906,0
442867,115,-2032,300,-37,-10,-45,10782,4,7,-216,-64,35847,-78,32,127,0,0,3133,0,0,12929,5530,172,52151,-4,0,-20,0,442906,0
442877,112,-2026,299,-38,-5,-43,10780,-1,-2,-222,-88,35841,-83,33,127,0,0,3133,0,0,12929,5530,172,52161,-4,0,-20,0,442906,0
442887,102,-2027,303,-39,-9,-40,10778,-9,0,-236,-56,35823,-85,32,127,0,0,3135,43,0,12929,5530,172,52171,-4,0,-20,0,442906,0
442897,132,-2028,309,-38,-5,-41,10782,5,2,-210,-64,35825,-82,32,127,0,0,3133,0,0,12929,5530,172,52181,-4,0,-20,0,442921,0
442907,123,-2033,310,-38,-6,-42,10779,-7,1,-261,-72,35829,-77,32,127,0,0,3133,21,0,12929,5530,172,52191,-4,0,-20,0,442921,0
442917,114,-2024,316,-45,-9,-41,10782,6,0,-232,-64,35829,-76,32,127,0,0,3133,-21,0,12929,5530,172,52201,-4,0,-20,0,442921,0
442927,88,-2034,304,-40,-7,-42,10780,3,-2,-254,-56,35825,-71,32,127,0,0,3133,32,0,12929,5530,172,52211,-4,0,-20,0,442921,0
442937,142,-2025,307,-40,-2,-55,10779,-17,1,-243,-56,35833,-62,32,127,0,0,3131,-10,0,12929,5530,172,52221,-4,0,-20,0,442921,0
442947,117,-2041,308,-48,4,-61,10779,-2,3,-276,-8,35840,-66,32,127,0,0,3131,10,0,12929,5530,172,52231,-4,0,-20,0,442921,0
442957,118,-2020,317,-36,-8,-58,10778,-22,-5,-290,-40,35855,-60,32,127,0,0,3133,21,0,12929,5530,172,52241,-4,0,-20,0,442968,0
442967,115,-2026,312,-46,-8,-67,10780,9,3,-242,-56,35859,-64,32,127,0,0,3131,-32,0,12929,5530,172,52251,-4,0,-20,0,442968,0
442977,103,-2026,310,-46,-6,-67,10777,-6,-11,-255,-80,35856,-38,32,127,0,0,3131,-10,0,12929,5530,172,52261,-4,0,-20,0,442968,0
442987,123,-2018,307,-44,-4,-71,10781,13,-2,-268,-80,35847,-36,32,127,0,0,3133,0,0,12929,5530,172,52271,-4,0,-20,0,442968,0
442997,142,-2044,291,-36,-6,-66,10778,2,4,-253,-88,35840,-36,32,127,0,0,3131,-10,0,12929,5530,172,52281,-4,0,-20,0,442968,0
443007,113,-2026,301,-38,-4,-73,10779,2,-1,-276,-40,35841,-65,32,127,0,0,3131,0,0,12929,5530,172,52291,-4,0,-20,0,442999,0
443017,117,-2027,306,-38,-8,-72,10779,3,0,-290,-72,35852,-73,32,127,0,0,3133,21,0,12929,5530,172,52301,-4,0,-20,0,442999,0
443027,114,-2035,315,-28,0,-65,10779,-5,3,-303,-64,35857,-73,32,127,0,0,3128,10,0,12929,5530,172,52311,-4,0,-20,0,443046,0
443037,114,-2028,310,-40,-3,-73,10778,4,4,-325,-64,35852,-67,33,127,0,0,3128,-10,0,12929,5530,172,52321,-4,0,-20,0,443046,0
443047,120,-2026,310,-34,-1,-83,10779,3,3,-296,-72,35843,-67,32,127,0,0,3126,-65,0,12929,5530,172,52331,-4,0,-20,0,443046,0
443057,115,-2015,313,-32,3,-96,10774,-9,-8,-349,-64,35837,-67,32,127,0,0,3128,21,0,12929,5530,172,52341,-4,0,-20,0,443062,0
443067,139,-2026,312,-35,-1,-84,10774,-5,6,-351,-112,35838,-74,32,127,0,0,3126,0,0,12929,5530,172,52351,-4,0,-20,0,443062,0
443077,123,-2032,308,-33,-2,-81,10772,-2,-3,-366,-136,35833,-77,32,127,0,0,3124,-21,0,12929,5530,172,52361,-4,0,-20,0,443062,0
443087,138,-2032,307,-29,0,-80,10770,-6,-4,-390,-152,35841,-75,32,127,0,0,3122,-43,0,12929,5530,172,52371,-4,0,-20,0,443062,0
443097,130,-2028,308,-30,-5,-80,10765,-14,-10,-401,-168,35850,-72,32,127,0,0,3124,10,0,12929,5530,172,52381,-4,0,-20,0,443109,0
443107,127,-2029,316,-41,-6,-73,10750,-39,-20,-357,-152,35858,-67,32,127,0,0,3120,-21,0,12929,5530,172,52391,-4,0,-20,0,443109,0
443117,122,-2024,307,-30,5,-80,10726,-62,-43,-279,-80,35860,-63,32,127,0,0,3120,0,0,12929,5530,172,52401,-4,0,-20,0,443109,0
443127,108,-2021,307,-30,-8,-77,10723,17,16,-252,-72,35850,-55,32,127,0,0,3120,-10,0,12929,5530,172,52411,-4,0,-20,0,443124,0
443137,130,-2022,314,-29,-5,-76,10722,3,52,-260,-96,35844,-55,32,127,0,0,3120,-10,0,12929,5530,172,52421,-4,0,-20,0,443124,0
443147,130,-2026,318,-27,-2,-72,10722,6,10,-300,-80,35848,-64,32,127,0,0,3117,-10,0,12929,5530,172,52431,-4,0,-20,0,443124,0
443157,137,-2037,313,-31,-1,-63,10721,1,6,-312,-88,35850,-66,32,127,0,0,3115,-32,0,12929,5530,172,52441,-4,0,-20,0,443156,0
443167,137,-2034,316,-29,-12,-55,10719,3,-5,-350,-104,35865,-77,32,127,0,0,3115,-21,0,12929,5530,172,52451,-4,0,-20,0,443156,0
443177,130,-2028,311,-26,-13,-49,10720,2,2,-311,-128,35862,-80,33,127,0,0,3115,-32,0,12929,5530,172,52461,-4,0,-20,0,443156,0
443187,130,-2025,306,-21,-8,-50,10720,-2,3,-316,-88,35854,-80,32,127,0,0,3115,-21,0,12929,5530,172,52471,-4,0,-20,0,443171,0
443197,136,-2030,301,-32,-8,-49,10720,1,-1,-319,-128,35853,-67,32,127,0,0,3117,21,0,12929,5530,172,52481,-4,0,-20,0,443187,0
443207,130,-2017,300,-24,-7,-40,10721,-5,7,-302,-104,35862,-58,32,127,0,0,3115,-21,0,12929,5530,172,52491,-4,0,-20,0,443187,0
443217,142,-2029,309,-21,2,-43,10718,-3,3,-307,-88,35859,-59,32,127,0,0,3117,0,0,12929,5530,172,52501,-4,0,-20,0,443187,0
443227,114,-2034,320,-17,-2,-45,10721,8,1,-281,-128,35850,-63,32,127,0,0,3120,0,0,12929,5530,172,52511,-4,0,-20,0,443218,0
443237,139,-2034,321,-25,1,-38,10721,0,-5,-287,-72,35847,-59,32,127,0,0,3117,-21,0,12929,5530,172,52521,-4,0,-20,0,443218,0
443247,132,-2031,319,-18,1,-50,10721,7,-6,-330,-72,35849,-46,32,127,0,0,3117,10,0,12929,5530,172,52531,-4,0,-20,0,443218,0
443257,131,-2024,318,-21,-8,-54,10719,-9,2,-338,-104,35856,-46,32,127,0,0,3117,21,0,12929,5530,172,52541,-4,0,-20,0,443249,0
443267,120,-2020,317,-28,-6,-48,10721,11,0,-315,-80,35847,-54,32,127,0,0,3120,10,0,12929,5530,172,52551,-4,0,-20,0,443249,0
443277,150,-2023,313,-29,-5,-52,10720,1,-1,-302,-80,35854,-64,33,127,0,0,3117,21,0,12929,5530,172,52561,-4,0,-20,0,443265,0
443287,128,-2022,311,-32,-2,-56,10721,11,2,-287,-64,35855,-60,32,127,0,0,3117,-10,0,12929,5530,172,52571,-4,0,-20,0,443265,0
443297,113,-2028,317,-30,-12,-52,10720,2,-1,-311,-48,35855,-50,32,127,0,0,3117,0,0,12929,5530,172,52581,-4,0,-20,0,443281,0
443307,136,-2022,317,-32,-7,-58,10720,-2,2,-322,-56,35859,-42,32,127,0,0,3117,10,0,12929,5530,172,52591,-4,0,-20,0,443296,0
443317,113,-2035,320,-25,-9,-59,10720,-5,3,-319,-88,35865,-48,32,127,0,0,3120,21,0,12929,5530,172,52601,-4,0,-20,0,443296,0
443327,111,-2025,314,-32,-17,-58,10720,-2,1,-314,-80,35864,-51,32,127,0,0,3117,10,0,12929,5530,172,52611,-4,0,-20,0,443312,0
443337,145,-2027,313,-32,-11,-71,10719,4,-5,-302,-128,35862,-56,32,127,0,0,3115,-10,0,12929,5530,172,52621,-4,0,-20,0,443312,0
443347,122,-2024,320,-30,-15,-65,10717,-10,-6,-337,-72,35850,-59,32,127,0,0,3117,10,0,12929,5530,172,52631,-4,0,-20,0,443327,0
443357,154,-2021,315,-33,-2,-64,10719,-7,3,-350,-104,35851,-56,32,127,0,0,3117,32,0,12929,5530,172,52641,-4,0,-20,0,443359,0
443367,139,-2028,321,-33,-12,-58,10720,3,-1,-301,-128,35846,-66,32,127,0,0,3117,10,0,12929,5530,172,52651,-4,0,-20,0,443359,0
443377,134,-2031,324,-29,-15,-56,10717,-3,-7,-329,-104,35847,-70,32,127,0,0,3117,21,0,12929,5530,172,52661,-4,0,-20,0,443359,0
443387,121,-2025,322,-32,-16,-55,10719,4,5,-344,-136,35847,-71,32,127,0,0,3115,-21,0,12929,5530,172,52671,-4,0,-20,0,443359,0
443397,130,-2036,309,-33,-9,-58,10717,0,2,-361,-104,35845,-71,32,127,0,0,3117,32,0,12929,5530,172,52681,-4,0,-20,0,443452,0
443407,130,-2022,312,-34,-11,-57,10719,-2,5,-291,-96,35863,-81,32,127,0,0,3117,10,0,12929,5530,172,52691,-4,0,-20,0,443452,0
443417,124,-2023,307,-34,-17,-58,10718,1,0,-331,-72,35858,-72,32,127,0,0,3115,0,0,12929,5530,172,52701,-4,0,-20,0,443452,0
443427,138,-2020,315,-26,-9,-63,10716,-4,-6,-319,-88,35850,-62,33,127,0,0,3117,-10,0,12929,5530,172,52711,-4,0,-20,0,443468,0
443437,116,-2022,312,-28,-20,-61,10717,-4,-1,-325,-112,35824,-54,32,127,0,0,3115,0,0,12929,5530,172,52721,-4,0,-20,0,443468,0
443447,136,-2022,328,-30,-10,-60,10718,1,-1,-348,-64,35828,-68,32,127,0,0,3113,-32,0,12929,5530,172,52731,-4,0,-20,0,443484,0
443457,141,-2029,332,-34,-14,-68,10716,-3,3,-392,-96,35828,-62,32,127,0,0,3113,-10,0,12929,5530,172,52741,-4,0,-20,0,443484,0
443467,140,-2025,331,-36,-18,-59,10717,0,2,-400,-120,35831,-60,32,127,0,0,3113,-21,0,12929,5530,172,52751,-4,0,-20,0,443484,0
443477,137,-2029,334,-44,-21,-56,10714,-4,-6,-449,-104,35826,-58,32,127,0,0,3113,32,0,12929,5530,172,52761,-4,0,-20,0,443484,0
443487,130,-2026,323,-48,-25,-54,10713,-11,-6,-444,-104,35818,-67,32,127,0,0,3113,32,0,12929,5530,172,52771,-4,0,-20,0,443499,0
443497,135,-2031,305,-46,-18,-56,10715,11,7,-408,-104,35829,-67,32,127,0,0,3111,-10,0,12929,5530,172,52781,-4,0,-20,0,443499,0
443507,132,-2039,306,-48,-19,-59,10712,-5,-3,-431,-144,35831,-74,32,127,0,0,3111,-10,0,12929,5530,172,52791,-4,0,-20,0,443499,0
443517,126,-2033,302,-39,-8,-61,10710,0,-4,-470,-128,35828,-67,33,127,0,0,3111,0,0,12929,5530,172,52801,-4,0,-20,0,443499,0
443527,143,-2027,294,-36,-6,-64,10711,-1,2,-446,-96,35833,-71,32,127,0,0,3113,21,0,12929,5530,172,52811,-4,0,-20,0,443499,0
443537,147,-2029,303,-31,-15,-58,10710,-3,2,-440,-160,35837,-68,32,127,0,0,3109,-21,0,12929,5530,172,52821,-4,0,-20,0,443531,0
443547,150,-2034,315,-24,-11,-47,10709,3,-2,-449,-160,35848,-52,32,127,0,0,3109,-32,0,12929,5530,172,52831,-4,0,-20,0,443546,0
443557,150,-2023,318,-27,-8,-41,10709,-7,1,-468,-160,35844,-52,32,127,0,0,3109,-10,0,12929,5530,172,52841,-4,0,-20,0,443546,0
443567,146,-2021,322,-29,-5,-29,10707,-14,-2,-478,-152,35833,-54,32,127,0,0,3109,0,0,12929,5530,172,52851,-4,0,-20,0,443546,0
443577,112,-2029,319,-23,-13,-21,10706,3,4,-476,-144,35826,-48,32,127,0,0,3113,21,0,12929,5530,172,52861,-4,0,-20,0,443593,0
443587,109,-2018,320,-23,-6,-14,10707,4,6,-428,-136,35831,-54,32,127,0,0,3111,10,0,12929,5530,172,52871,-4,0,-20,0,443593,0
443597,125,-2026,317,-22,-4,-18,10707,7,2,-445,-144,35845,-58,32,127,0,0,3109,-32,0,12929,5530,172,52881,-4,0,-20,0,443609,0
443607,113,-2024,309,-28,-3,-21,10703,-2,-7,-479,-144,35850,-70,32,127,0,0,3109,21,0,12929,5530,172,52891,-4,0,-20,0,443609,0
443617,144,-2025,308,-24,5,-26,10706,3,12,-438,-128,35857,-64,32,127,0,0,3109,0,0,12929,5530,172,52901,-4,0,-20,0,443609,0
443627,139,-2021,304,-22,5,-26,10705,-4,1,-406,-96,35850,-46,32,127,0,0,3109,-43,0,12929,5530,172,52911,-4,0,-20,0,443609,0
443637,94,-2028,314,-15,1,-22,10703,-14,-7,-463,-144,35846,-46,32,127,0,0,3109,-10,0,12929,5530,172,52921,-4,0,-20,0,443609,0
443647,100,-2010,336,-15,10,-27,10702,-6,-6,-477,-144,35843,-55,32,127,0,0,3109,-10,0,12929,5530,172,52931,-4,0,-20,0,443656,0
443657,97,-2028,332,-19,3,-42,10703,0,10,-470,-112,35848,-74,32,127,0,0,3109,-10,0,12929,5530,172,52941,-4,0,-20,0,443656,0
443667,109,-2028,327,-26,0,-53,10703,-13,2,-446,-160,35846,-70,32,127,0,0,3109,-21,0,12929,5530,172,52951,-4,0,-20,0,443656,0
443677,107,-2032,332,-25,-2,-51,10702,-10,-1,-486,-72,35835,-65,32,127,0,0,3111,21,0,12929,5530,172,52961,-4,0,-20,0,443656,0
443687,133,-2031,330,-21,7,-55,10706,1,-4,-451,-152,35823,-50,32,127,0,0,3111,10,0,12929,5530,172,52971,-4,0,-20,0,443671,0
443697,137,-2027,321,-26,-4,-55,10703,-2,2,-465,-104,35823,-60,32,127,0,0,3106,-21,0,12929,5530,172,52981,-4,0,-20,0,443687,0
443707,153,-2033,328,-33,0,-66,10704,5,-1,-452,-120,35838,-81,32,127,0,0,3109,-21,0,12929,5530,172,52991,-4,0,-20,0,443687,0
443717,104,-2029,330,-29,-3,-58,10706,0,-1,-451,-144,35844,-82,32,127,0,0,3109,-43,0,12929,5530,172,53001,-4,0,-20,0,443687,0
443727,117,-2026,331,-32,1,-65,10702,0,-6,-475,-168,35847,-75,32,127,0,0,3111,43,0,12929,5530,172,53011,-4,0,-20,0,443718,0
443737,134,-2020,323,-36,-2,-71,10701,-9,-5,-424,-112,35847,-61,32,127,0,0,3109,-21,0,12929,5530,172,53021,-4,0,-20,0,443718,0
443747,113,-2023,336,-38,-1,-78,10701,-9,-10,-489,-136,35846,-60,32,127,0,0,3109,21,0,12929,5530,172,53031,-4,0,-20,0,443718,0
443757,132,-2027,330,-41,-6,-76,10701,4,-4,-472,-168,35852,-71,32,127,0,0,3109,-10,0,12929,5530,172,53041,-4,0,-20,0,443765,0
443767,134,-2029,322,-44,2,-91,10700,4,6,-476,-152,35850,-62,33,127,0,0,3109,10,0,12929,5530,172,53051,-4,0,-20,0,443781,0
443777,118,-2028,328,-50,4,-97,10699,0,2,-490,-152,35847,-69,32,127,0,0,3106,-21,0,12929,5530,172,53061,-4,0,-20,0,443796,0
443787,127,-2019,333,-51,1,-100,10694,-16,-7,-511,-136,35844,-65,32,127,0,0,3104,-10,0,12929,5530,172,53071,-4,0,-20,0,443812,0
443797,138,-2024,334,-53,1,-98,10688,-17,-8,-512,-184,35832,-75,32,127,0,0,3102,-32,0,12929,5530,172,53081,-4,0,-20,0,443812,0
443807,142,-2028,327,-59,-3,-92,10672,-49,-22,-462,-136,35832,-71,32,127,0,0,3102,21,0,12929,5530,172,53091,-4,0,-20,0,443812,0
443817,146,-2024,321,-55,-1,-102,10652,-31,-25,-364,-96,35829,-70,32,127,0,0,3098,-10,0,12929,5530,172,53101,-4,0,-20,0,443812,0
443827,145,-2039,317,-51,-4,-94,10646,-5,33,-489,-120,35825,-72,32,127,0,0,3098,10,0,12929,5530,172,53111,-4,0,-20,0,443812,0
443837,142,-2029,315,-52,3,-87,10646,-1,33,-478,-120,35834,-71,32,127,0,0,3098,10,0,12929,5530,172,53121,-4,0,-20,0,443812,0
443847,138,-2022,311,-48,-2,-84,10645,-5,7,-452,-128,35840,-61,32,127,0,0,3095,-32,0,12929,5530,172,53131,-4,0,-20,0,443843,0
443857,134,-2022,315,-48,1,-82,10643,-10,-2,-494,-144,35845,-61,32,127,0,0,3095,0,0,12929,5530,172,53141,-4,0,-20,0,443859,0
443867,146,-2024,323,-55,-3,-80,10641,-7,1,-491,-144,35839,-67,32,127,0,0,3093,-21,0,12929,5530,172,53151,-4,0,-20,0,443859,0
443877,152,-2028,322,-52,-7,-79,10637,-22,-2,-534,-152,35835,-63,32,127,0,0,3089,-43,0,12929,5530,172,53161,-4,0,-20,0,443859,0
443887,162,-2015,319,-55,-3,-74,10631,-22,-13,-536,-208,35833,-65,32,127,0,0,3093,-10,0,12929,5530,172,53171,-4,0,-20,0,443874,0
443897,156,-2024,328,-56,-6,-66,10610,-65,-34,-461,-144,35838,-54,32,127,0,0,3091,32,0,12929,5530,172,53181,-4,0,-20,0,443874,0
443907,128,-2015,320,-57,-9,-67,10581,-58,-46,-293,-88,35846,-41,32,127,0,0,3089,10,0,12929,5530,172,53191,-4,0,-20,0,443890,0
443917,154,-2030,327,-52,-15,-62,10581,19,36,-336,-56,35850,-24,32,127,0,0,3089,0,0,12929,5530,172,53201,-4,0,-20,0,443905,0
443927,147,-2021,314,-52,-7,-71,10579,-9,58,-365,-104,35855,-25,32,127,0,0,3089,10,0,12929,5530,172,53211,-4,0,-20,0,443905,0
443937,124,-2029,314,-51,-11,-70,10580,12,0,-325,-96,35844,-23,32,127,0,0,3091,10,0,12929,5530,172,53221,-4,0,-20,0,443921,0
443947,106,-2034,318,-49,-10,-80,10579,0,4,-320,-80,35845,-15,32,127,0,0,3089,-10,0,12929,5530,172,53231,-4,0,-20,0,443937,0
443957,127,-2034,319,-57,0,-92,10579,1,-7,-387,-104,35834,-19,32,127,0,0,3084,-32,0,12929,5530,172,53241,-4,0,-20,0,443937,0
443967,131,-2025,325,-54,-7,-98,10574,-9,-5,-449,-80,35840,-14,32,127,0,0,3084,0,0,12929,5530,172,53251,-4,0,-20,0,443952,0
443977,142,-2028,332,-47,-5,-105,10575,-8,1,-436,-160,35845,-18,32,127,0,0,3084,-21,0,12929,5530,172,53261,-4,0,-20,0,443952,0
443987,131,-2016,339,-50,-7,-106,10570,-11,2,-472,-128,35846,0,33,127,0,0,3082,0,0,12929,5530,172,53271,-4,0,-20,0,443984,0
443997,153,-2024,333,-55,-11,-105,10568,-7,-10,-466,-152,35844,-11,32,127,0,0,3078,-43,0,12929,5530,172,53281,-4,0,-20,0,443988,0
444007,167,-2019,334,-64,-20,-94,10560,-33,-11,-517,-96,35845,-18,32,127,0,0,3080,10,0,12929,5530,172,53291,-4,0,-20,0,443988,0
444017,156,-2018,332,-62,-24,-82,10544,-44,-26,-448,-104,35840,-3,32,127,0,0,3078,10,0,12929,5530,172,53301,-4,0,-20,0,444003,0
444027,139,-2025,323,-71,-22,-76,10526,-35,-21,-300,-88,35851,10,32,127,0,0,3076,-21,0,12929,5530,172,53311,-4,0,-20,0,444003,0
444037,141,-2018,322,-71,-24,-78,10526,-1,26,-397,-104,35846,21,32,127,0,0,3076,0,0,12929,5530,172,53321,-4,0,-20,0,444035,0
444047,147,-2013,310,-68,-18,-82,10528,6,31,-388,-104,35855,8,32,127,0,0,3073,-21,0,12929,5530,172,53331,-4,0,-20,0,444035,0
444057,153,-2025,317,-70,-17,-84,10524,-5,-4,-417,-136,35849,-1,32,127,0,0,3076,10,0,12929,5530,172,53341,-4,0,-20,0,444035,0
444067,138,-2027,324,-69,-18,-80,10525,3,-2,-420,-120,35854,7,32,127,0,0,3071,-10,0,12929,5530,172,53351,-4,0,-20,0,444050,0
444077,152,-2028,329,-72,-18,-78,10521,-10,-3,-469,-136,35854,11,32,127,0,0,3069,-54,0,12929,5530,172,53361,-4,0,-20,0,444066,0
444087,148,-2026,330,-69,-23,-70,10517,-10,-14,-504,-160,35850,9,32,127,0,0,3067,-10,0,12929,5530,172,53371,-4,0,-20,0,444066,0
444097,163,-2022,326,-74,-18,-61,10515,-5,4,-521,-152,35855,7,32,127,0,0,3069,10,0,12929,5530,172,53381,-4,0,-20,0,444097,0
444107,157,-2028,319,-68,-19,-51,10514,-10,5,-527,-112,35847,-2,32,127,0,0,3071,43,0,12929,5530,172,53391,-4,0,-20,0,444097,0
444117,175,-2019,310,-69,-16,-47,10516,-6,-6,-539,-128,35851,13,32,127,0,0,3069,21,0,12929,5530,172,53401,-4,0,-20,0,444097,0
444127,167,-2025,318,-71,-25,-35,10514,-2,-3,-555,-128,35848,18,32,127,0,0,3067,10,0,12929,5530,172,53411,-4,0,-20,0,444128,0
444137,158,-2023,319,-66,-13,-36,10514,-1,0,-533,-176,35846,23,33,127,0,0,3069,21,0,12929,5530,172,53421,-4,0,-20,0,444128,0
444147,145,-2027,313,-64,-15,-24,10514,0,2,-508,-144,35845,4,32,127,0,0,3067,0,0,12929,5530,172,53431,-4,0,-20,0,444128,0
444157,133,-2019,316,-57,-10,-25,10514,1,2,-515,-144,35837,-12,33,127,0,0,3069,-10,0,12929,5530,172,53441,-4,0,-20,0,444144,0
444167,126,-2022,314,-62,-12,-25,10516,11,3,-461,-120,35835,-2,32,127,0,0,3069,-43,0,12929,5530,172,53451,-4,0,-20,0,444144,0
444177,121,-2034,311,-54,-8,-14,10515,11,-3,-473,-152,35840,4,32,127,0,0,3073,10,0,12929,5530,172,53461,-4,0,-20,0,444191,0
444187,125,-2025,325,-54,-17,-9,10517,3,-1,-385,-232,35847,13,32,127,0,0,3071,-10,0,12929,5530,172,53471,-4,0,-20,0,444191,0
444197,136,-2036,317,-60,-10,-9,10515,1,-1,-457,-112,35850,7,32,127,0,0,3069,-10,0,12929,5530,172,53481,-4,0,-20,0,444191,0
444207,148,-2017,324,-60,-9,-17,10515,-11,5,-451,-128,35839,2,32,127,0,0,3071,0,0,12929,5530,172,53491,-4,0,-20,0,444207,0
444217,123,-2027,319,-55,-13,-21,10515,0,5,-440,-160,35843,4,32,127,0,0,3069,-32,0,12929,5530,172,53501,-4,0,-20,0,444207,0
444227,125,-2035,316,-65,-12,-29,10516,5,-5,-474,-88,35845,11,32,127,0,0,3067,-32,0,12929,5530,172,53511,-4,0,-20,0,444207,0
444237,118,-2020,322,-60,-6,-32,10513,-7,-1,-493,-160,35867,25,32,127,0,0,3069,0,0,12929,5530,172,53521,-4,0,-20,0,444253,0
444247,118,-2024,319,-59,-13,-39,10513,0,-4,-518,-104,35875,21,32,127,0,0,3069,10,0,12929,5530,172,53531,-4,0,-20,0,444253,0
444257,132,-2027,324,-66,-10,-40,10515,1,4,-471,-184,35871,15,32,127,0,0,3071,0,0,12929,5530,172,53541,-4,0,-20,0,444253,0
444267,114,-2035,324,-69,-12,-32,10513,-11,-4,-482,-144,35854,12,32,127,0,0,3069,21,0,12929,5530,172,53551,-4,0,-20,0,444253,0
444277,138,-2028,319,-72,-12,-42,10514,-9,-3,-479,-120,35841,20,32,127,0,0,3071,21,0,12929,5530,172,53561,-4,0,-20,0,444253,0
444287,136,-2021,316,-72,-12,-42,10514,0,5,-456,-112,35840,19,32,127,0,0,3073,21,0,12929,5530,172,53571,-4,0,-20,0,444269,0
444297,147,-2022,299,-69,-7,-41,10515,-1,0,-437,-120,35837,7,32,127,0,0,3071,10,0,12929,5530,172,53581,-4,0,-20,0,444285,0
444307,157,-2028,306,-57,-10,-37,10515,-5,-6,-459,-120,35834,-1,33,127,0,0,3067,10,0,12929,5530,172,53591,-4,0,-20,0,444285,0
444317,139,-2021,312,-56,-6,-45,10511,-22,-7,-541,-128,35844,-2,32,127,0,0,3071,54,0,12929,5530,172,53601,-4,0,-20,0,444300,0
444327,140,-2036,309,-58,-7,-37,10515,0,6,-478,-112,35845,11,32,127,0,0,3069,-10,0,12929,5530,172,53611,-4,0,-20,0,444316,0
444337,144,-2021,307,-56,0,-42,10513,-7,1,-455,-152,35857,17,32,127,0,0,3069,-10,0,12929,5530,172,53621,-4,0,-20,0,444316,0
444347,136,-2016,312,-51,0,-36,10514,0,-8,-459,-120,35851,5,32,127,0,0,3071,0,0,12929,5530,172,53631,-4,0,-20,0,444332,0
444357,145,-2022,318,-51,-8,-31,10515,0,0,-435,-152,35858,2,32,127,0,0,3071,0,0,12929,5530,172,53641,-4,0,-20,0,444347,0
444367,130,-2030,318,-52,-1,-29,10516,2,5,-428,-160,35856,-7,32,127,0,0,3067,-76,0,12929,5530,172,53651,-4,0,-20,0,444363,0
444377,109,-2034,317,-53,-11,-39,10511,-3,-6,-468,-112,35852,-5,32,127,0,0,3071,0,0,12929,5530,172,53661,-4,0,-20,0,444363,0
444387,112,-2021,320,-53,-9,-48,10515,-2,-1,-464,-120,35846,6,32,127,0,0,3071,0,0,12929,5530,172,53671,-4,0,-20,0,444363,0
444397,139,-2026,315,-56,-4,-45,10515,-1,4,-412,-104,35837,-3,32,127,0,0,3073,10,0,12929,5530,172,53681,-4,0,-20,0,444394,0
444407,118,-2021,315,-54,-6,-50,10514,-1,-6,-415,-184,35854,2,33,127,0,0,3071,10,0,12929,5530,172,53691,-4,0,-20,0,444394,0
444417,163,-2027,315,-62,-5,-55,10517,12,4,-396,-104,35853,3,33,127,0,0,3071,-10,0,12929,5530,172,53701,-4,0,-20,0,444394,0
444427,152,-2022,316,-59,-3,-61,10514,-4,2,-434,-120,35852,15,32,127,0,0,3073,21,0,12929,5530,172,53711,-4,0,-20,0,444425,0
444437,153,-2017,322,-62,-14,-51,10516,-3,-1,-409,-104,35842,11,32,127,0,0,3071,0,0,12929,5530,172,53721,-4,0,-20,0,444425,0
444447,166,-2025,322,-58,-6,-59,10514,-12,1,-428,-120,35850,14,32,127,0,0,3073,21,0,12929,5530,172,53731,-4,0,-20,0,444425,0
444457,150,-2016,321,-60,-15,-57,10515,-4,-3,-405,-72,35849,10,32,127,0,0,3071,0,0,12929,5530,172,53741,-4,0,-20,0,444457,0
444467,169,-2023,320,-61,-7,-66,10514,-8,-4,-391,-144,35851,9,32,127,0,0,3071,-43,0,12929,5530,172,53751,-4,0,-20,0,444457,0
444477,136,-2033,315,-74,-22,-49,10516,7,-5,-434,-96,35851,-2,32,127,0,0,3071,10,0,12929,5530,172,53761,-4,0,-20,0,444457,0
444487,176,-2032,311,-69,-4,-46,10513,-15,0,-436,-120,35848,-6,32,127,0,0,3071,-10,0,12929,5530,172,53771,-4,0,-20,0,444457,0
444497,137,-2028,316,-59,-21,-45,10517,20,6,-410,-72,35841,-2,32,127,0,0,3069,-54,0,12929,5530,172,53781,-4,0,-20,0,444550,0
444507,168,-2029,303,-67,-17,-50,10512,-14,-2,-444,-120,35846,0,32,127,0,0,3071,10,0,12929,5530,172,53791,-4,0,-20,0,444550,0
444517,160,-2032,311,-68,-14,-41,10515,-2,-3,-436,-120,35849,-11,32,127,0,0,3069,-21,0,12929,5530,172,53801,-4,0,-20,0,444566,0
444527,153,-2025,301,-62,-11,-35,10513,-10,-1,-486,-112,35839,3,32,127,0,0,3071,54,0,12929,5530,172,53811,-4,0,-20,0,444566,0
444537,170,-2013,304,-58,-8,-38,10513,-11,-6,-477,-120,35822,4,32,127,0,0,3071,43,0,12929,5530,172,53821,-4,0,-20,0,444566,0
444547,159,-2019,306,-58,-8,-35,10516,8,6,-435,-128,35819,17,32,127,0,0,3071,-32,0,12929,5530,172,53831,-4,0,-20,0,444566,0
444557,157,-2031,304,-50,-7,-32,10516,11,-1,-439,-128,35820,14,32,127,0,0,3071,10,0,12929,5530,172,53841,-4,0,-20,0,444566,0
444567,138,-2016,310,-51,-8,-19,10513,-5,-6,-443,-120,35825,11,32,127,0,0,3071,0,0,12929,5530,172,53851,-4,0,-20,0,444566,0
444577,136,-2024,312,-48,-9,-12,10515,8,1,-457,-88,35823,10,32,127,0,0,3071,-10,0,12929,5530,172,53861,-4,0,-20,0,444566,0
444587,141,-2021,316,-51,-2,-17,10514,4,5,-429,-128,35817,17,32,127,0,0,3073,10,0,12929,5530,172,53871,-4,0,-20,0,444566,0
444597,151,-2021,305,-46,-3,-14,10515,-6,3,-400,-104,35824,11,32,127,0,0,3071,0,0,12929,5530,172,53881,-4,0,-20,0,444581,0
444607,151,-2033,294,-50,3,-16,10516,-1,3,-369,-112,35849,14,32,127,0,0,3069,-76,0,12929,5530,172,53891,-4,0,-20,0,444597,0
444617,116,-2030,308,-38,-8,-22,10514,-4,-6,-429,-120,35867,13,32,127,0,0,3076,54,0,12929,5530,172,53901,-4,0,-20,0,444613,0
444627,130,-2034,310,-33,-5,-17,10518,14,6,-398,-128,35859,5,32,127,0,0,3073,10,0,12929,5530,172,53911,-4,0,-20,0,444613,0
444637,130,-2036,310,-43,-4,-20,10517,25,12,-343,-88,35835,-2,32,127,0,0,3073,-32,0,12929,5530,172,53921,-4,0,-20,0,444613,0
444647,143,-2027,307,-42,-5,-27,10516,-3,4,-358,-104,35829,-4,32,127,0,0,3073,-10,0,12929,5530,172,53931,-4,0,-20,0,444644,0
444657,127,-2029,317,-36,-12,-29,10518,3,1,-337,-88,35844,-2,32,127,0,0,3073,-32,0,12929,5530,172,53941,-4,0,-20,0,444644,0
444667,130,-2021,316,-45,-12,-36,10515,0,1,-345,-80,35840,1,32,127,0,0,3073,-21,0,12929,5530,172,53951,-4,0,-20,0,444644,0
444677,122,-2028,315,-42,-10,-37,10515,-11,-4,-354,-112,35833,1,32,127,0,0,3076,21,0,12929,5530,172,53961,-4,0,-20,0,444660,0
444687,123,-2033,312,-40,-9,-39,10518,2,-1,-323,-88,35834,2,33,127,0,0,3076,-10,0,12929,5530,172,53971,-4,0,-20,0,444660,0
444697,119,-2033,317,-38,-4,-46,10518,9,-6,-333,-88,35839,-4,32,127,0,0,3076,0,0,12929,5530,172,53981,-4,0,-20,0,444691,0
444707,140,-2025,318,-41,-11,-50,10519,0,1,-279,-80,35848,-9,32,127,0,0,3076,-10,0,12929,5530,172,53991,-4,0,-20,0,444691,0
444717,132,-2028,322,-48,-11,-46,10516,-18,-3,-307,-48,35831,-4,32,127,0,0,3076,0,0,12929,5530,172,54001,-4,0,-20,0,444706,0
444727,147,-2031,325,-51,-11,-51,10519,6,-1,-333,-88,35829,1,33,127,0,0,3076,0,0,12929,5530,172,54011,-4,0,-20,0,444706,0
444737,149,-2025,322,-49,-8,-51,10518,-2,-3,-339,-88,35838,7,32,127,0,0,3073,0,0,12929,5530,172,54021,-4,0,-20,0,444706,0
444747,144,-2022,320,-50,-5,-53,10517,-7,1,-338,-88,35848,21,32,127,0,0,3076,0,0,12929,5530,172,54031,-4,0,-20,0,444738,0
444757,127,-2023,321,-55,-18,-53,10516,-12,8,-323,-112,35860,20,32,127,0,0,3076,0,0,12929,5530,172,54041,-4,0,-20,0,444769,0
444767,126,-2020,320,-59,-14,-46,10517,-2,-1,-318,-88,35848,15,32,127,0,0,3076,10,0,12929,5530,172,54051,-4,0,-20,0,444769,0
444777,132,-2024,308,-55,-21,-63,10517,1,3,-316,-88,35839,7,32,127,0,0,3078,21,0,12929,5530,172,54061,-4,0,-20,0,444769,0
444787,122,-2021,313,-56,-12,-53,10518,6,4,-312,-88,35830,-8,32,127,0,0,3076,0,0,12929,5530,172,54071,-4,0,-20,0,444769,0
444797,153,-2021,309,-54,-10,-61,10517,-3,0,-346,-88,35828,-9,33,127,0,0,3076,21,0,12929,5530,172,54081,-4,0,-20,0,444769,0
444807,149,-2019,313,-55,-8,-55,10518,1,2,-324,-56,35830,-10,32,127,0,0,3076,0,0,12929,5530,172,54091,-4,0,-20,0,444800,0
444817,131,-2023,302,-57,-10,-46,10517,-9,-1,-333,-120,35844,-9,32,127,0,0,3076,0,0,12929,5530,172,54101,-4,0,-20,0,444816,0
444827,141,-2026,309,-54,-6,-42,10518,0,-1,-318,-88,35851,-5,32,127,0,0,3076,0,0,12929,5530,172,54111,-4,0,-20,0,444816,0
444837,135,-2029,304,-52,-2,-38,10517,-2,3,-322,-88,35849,0,32,127,0,0,3076,-10,0,12929,5530,172,54121,-4,0,-20,0,444816,0
444847,119,-2021,303,-49,-12,-43,10518,5,3,-350,-88,35831,-1,32,127,0,0,3073,0,0,12929,5530,172,54131,-4,0,-20,0,444847,0
444857,122,-2018,313,-48,2,-47,10517,-4,-8,-331,-96,35826,-4,32,127,0,0,3076,10,0,12929,5530,172,54141,-4,0,-20,0,444863,0
444867,128,-2018,326,-51,0,-45,10519,1,3,-318,-88,35841,0,32,127,0,0,3076,0,0,12929,5530,172,54151,-4,0,-20,0,444878,0
444877,144,-2027,326,-53,-8,-44,10517,3,-5,-325,-88,35853,8,32,127,0,0,3076,10,0,12929,5530,172,54161,-4,0,-20,0,444894,0
444887,138,-2034,323,-65,-10,-46,10515,-10,-2,-334,-80,35855,11,32,127,0,0,3076,10,0,12929,5530,172,54171,-4,0,-20,0,444894,0
444897,112,-2030,319,-63,-11,-47,10518,7,-4,-336,-88,35851,8,32,127,0,0,3076,0,0,12929,5530,172,54181,-4,0,-20,0,444910,0
444907,132,-2024,315,-62,-9,-50,10517,-7,1,-320,-88,35848,14,32,127,0,0,3073,-43,0,12929,5530,172,54191,-4,0,-20,0,444910,0
444917,94,-2027,310,-60,-8,-49,10517,10,1,-350,-88,35844,22,32,127,0,0,3076,-21,0,12929,5530,172,54201,-4,0,-20,0,444910,0
444927,126,-2018,306,-58,-10,-55,10518,4,3,-294,-120,35843,16,32,127,0,0,3076,-43,0,12929,5530,172,54211,-4,0,-20,0,444925,0
444937,152,-2035,302,-64,-4,-60,10517,7,2,-346,-72,35830,6,32,127,0,0,3076,32,0,12929,5530,172,54221,-4,0,-20,0,444925,0
444947,150,-2024,302,-60,-2,-60,10517,-10,3,-349,-104,35829,4,33,127,0,0,3076,0,0,12929,5530,172,54231,-4,0,-20,0,444925,0
444957,165,-2022,307,-60,-3,-60,10518,19,7,-362,-120,35836,-8,33,127,0,0,3073,10,0,12929,5530,172,54241,-4,0,-20,0,444972,0
444967,131,-2023,308,-59,-1,-62,10517,3,-2,-356,-72,35841,-4,32,127,0,0,3076,10,0,12929,5530,172,54251,-4,0,-20,0,444972,0
444977,136,-2028,314,-60,-9,-66,10517,0,-6,-323,-88,35838,1,32,127,0,0,3076,0,0,12929,5530,172,54261,-4,0,-20,0,444972,0
444987,131,-2033,316,-59,-3,-64,10518,3,-4,-325,-88,35839,1,32,127,0,0,3076,0,0,12929,5530,172,54271,-4,0,-20,0,444988,0
444997,134,-2031,315,-63,-13,-69,10517,1,1,-347,-72,35833,14,32,127,0,0,3076,10,0,12929,5530,172,54281,-4,0,-20,0,444988,0
445007,144,-2037,313,-63,-14,-70,10516,-8,-5,-393,-64,35836,5,32,127,0,0,3073,43,0,12929,5530,172,54291,-4,0,-20,0,444988,0
445017,132,-2024,316,-67,-7,-79,10518,0,2,-344,-128,35843,13,32,127,0,0,3076,0,0,12929,5530,172,54301,-4,0,-20,0,444988,0
445027,105,-2026,314,-68,-17,-71,10517,3,3,-329,-120,35863,0,33,127,0,0,3073,-43,0,12929,5530,172,54311,-4,0,-20,0,445019,0
445037,131,-2042,307,-70,-14,-75,10515,0,-13,-401,-136,35877,-11,32,127,0,0,3073,10,0,12929,5530,172,54321,-4,0,-20,0,445019,0
445047,122,-2027,311,-74,-14,-79,10514,-10,7,-414,-96,35874,-6,32,127,0,0,3071,-21,0,12929,5530,172,54331,-4,0,-20,0,445034,0
445057,122,-2028,303,-66,-18,-81,10518,22,6,-428,-128,35849,12,33,127,0,0,3073,-21,0,12929,5530,172,54341,-4,0,-20,0,445034,0
445067,124,-2034,302,-68,-16,-84,10515,-7,0,-421,-96,35830,13,33,127,0,0,3069,-10,0,12929,5530,172,54351,-4,0,-20,0,445050,0
445077,143,-2027,313,-60,-6,-109,10512,-11,-3,-503,-176,35849,4,32,127,0,0,3067,-10,0,12929,5530,172,54361,-4,0,-20,0,445050,0
445087,122,-2046,300,-59,0,-107,10513,8,-1,-533,-160,35859,-3,32,127,0,0,3065,-32,0,12929,5530,172,54371,-4,0,-20,0,445081,0
445097,142,-2015,307,-58,-6,-113,10510,-5,2,-565,-184,35870,9,32,127,0,0,3062,-43,0,12929,5530,172,54381,-4,0,-20,0,445081,0
445107,154,-2028,309,-63,-9,-104,10505,-16,-8,-633,-192,35856,19,32,127,0,0,3062,0,0,12929,5530,172,54391,-4,0,-20,0,445081,0
445117,146,-2034,311,-60,-11,-101,10502,-1,4,-641,-176,35858,0,32,127,0,0,3062,21,0,12929,5530,172,54401,-4,0,-20,0,445097,0
445127,148,-2022,309,-57,-15,-104,10499,-5,7,-635,-216,35865,-19,32,127,0,0,3056,-54,0,12929,5530,172,54411,-4,0,-20,0,445113,0
445137,160,-2023,303,-61,-14,-96,10490,-35,-16,-654,-208,35861,-13,33,127,0,0,3054,-54,0,12929,5530,172,54421,-4,0,-20,0,445113,0
445147,180,-2022,305,-62,-13,-88,10461,-78,-52,-519,-192,35861,4,32,127,0,0,3054,-43,0,12929,5530,172,54431,-4,0,-20,0,445128,0
445157,137,-2028,299,-52,-12,-85,10439,-10,-21,-447,-112,35848,-7,32,127,0,0,3054,-10,0,12929,5530,172,54441,-4,0,-20,0,445128,0
445167,172,-2029,307,-53,-12,-70,10439,-8,63,-563,-192,35857,4,33,127,0,0,3054,32,0,12929,5530,172,54451,-4,0,-20,0,445159,0
445177,166,-2038,299,-53,-24,-58,10438,3,33,-527,-192,35861,-7,32,127,0,0,3054,32,0,12929,5530,172,54461,-4,0,-20,0,445159,0
445187,146,-2037,300,-54,-17,-53,10437,-2,-1,-550,-224,35851,-8,32,127,0,0,3052,21,0,12929,5530,172,54471,-4,0,-20,0,445206,0
445197,176,-2040,303,-51,-10,-50,10434,-2,1,-536,-152,35845,-22,33,127,0,0,3052,21,0,12929,5530,172,54481,-4,0,-20,0,445206,0
445207,171,-2040,308,-48,-15,-44,10436,5,4,-527,-192,35840,-29,32,127,0,0,3052,0,0,12929,5530,172,54491,-4,0,-20,0,445206,0
445217,189,-2036,322,-56,-10,-28,10434,1,1,-557,-176,35843,-26,32,127,0,0,3049,0,0,12929,5530,172,54501,-4,0,-20,0,445206,0
445227,173,-2031,314,-54,-12,-21,10428,-14,-15,-549,-136,35840,-20,32,127,0,0,3052,54,0,12929,5530,172,54511,-4,0,-20,0,445253,0
445237,164,-2017,310,-52,-13,-22,10428,-2,3,-513,-168,35832,-18,32,127,0,0,3049,-10,0,12929,5530,172,54521,-4,0,-20,0,445253,0
445247,135,-2017,312,-50,-11,-20,10423,-9,-3,-494,-136,35841,-24,32,127,0,0,3052,21,0,12929,5530,172,54531,-4,0,-20,0,445253,0
445257,143,-2029,310,-55,-7,-16,10423,3,3,-463,-136,35851,-18,32,127,0,0,3052,0,0,12929,5530,172,54541,-4,0,-20,0,445253,0
445267,144,-2027,309,-56,-7,-15,10422,3,17,-437,-144,35850,-27,32,127,0,0,3052,-10,0,12929,5530,172,54551,-4,0,-20,0,445253,0
445277,149,-2021,309,-58,-7,-18,10422,-11,-6,-452,-168,35840,-22,32,127,0,0,3052,-10,0,12929,5530,172,54561,-4,0,-20,0,445253,0
445287,144,-2026,311,-65,-10,-12,10421,2,-1,-449,-128,35838,-36,32,127,0,0,3052,0,0,12929,5530,172,54571,-4,0,-20,0,445269,0
445297,154,-2032,308,-65,-12,-7,10421,-4,6,-431,-136,35842,-37,32,127,0,0,3052,-10,0,12929,5530,172,54581,-4,0,-20,0,445269,0
445307,152,-2025,303,-66,-9,1,10421,9,2,-416,-112,35844,-37,32,127,0,0,3054,0,0,12929,5530,172,54591,-4,0,-20,0,445347,0
445317,155,-2019,304,-63,-18,13,10422,-6,6,-387,-112,35850,-28,32,127,0,0,3054,0,0,12929,5530,172,54601,-4,0,-20,0,445347,0
445327,151,-2027,301,-64,-14,25,10424,2,-3,-352,-56,35845,-41,32,127,0,0,3058,10,0,12929,5530,172,54611,-4,0,-20,0,445347,0
445337,157,-2021,319,-66,-19,30,10427,5,1,-315,-80,35846,-44,32,127,0,0,3058,10,0,12929,5530,172,54621,-4,0,-20,0,445347,0
445347,154,-2028,317,-73,-22,39,10434,19,7,-246,-32,35841,-38,32,127,0,0,3062,21,0,12929,5530,172,54631,-4,0,-20,0,445347,0
445357,149,-2036,309,-78,-20,44,10443,13,13,-234,-32,35841,-24,32,127,0,0,3065,32,0,12929,5530,172,54641,-4,0,-20,0,445347,0
445367,144,-2033,318,-79,-24,40,10444,4,-8,-181,-16,35837,-22,32,127,0,0,3067,21,0,12929,5530,172,54651,-4,0,-20,0,445347,0
445377,125,-2044,317,-76,-11,34,10450,27,-10,-60,8,35835,-34,32,127,0,0,3071,0,0,12929,5530,172,54661,-4,0,-20,0,445363,0
445387,148,-2036,315,-83,-20,42,10459,2,23,-15,0,35851,-20,32,127,0,0,3076,43,0,12929,5530,172,54671,-4,0,-20,0,445363,0
445397,117,-2039,304,-88,-21,38,10466,13,-6,45,32,35867,-30,32,127,0,0,3076,10,0,12929,5530,172,54681,-4,0,-20,0,445425,0
445407,115,-2030,301,-90,-16,21,10464,0,-20,78,40,35870,-17,32,127,0,0,3080,43,0,12929,5530,172,54691,-4,0,-20,0,445425,0
445417,137,-2031,294,-88,-20,12,10474,22,12,122,16,35858,-17,32,127,0,0,3082,43,0,12929,5530,172,54701,-4,0,-20,0,445441,0
445427,110,-2026,298,-85,-16,11,10485,34,16,152,40,35843,-21,32,127,0,0,3082,21,0,12929,5530,172,54711,-4,0,-20,0,445441,0
445437,122,-2023,296,-80,-11,-3,10508,63,33,58,8,35825,-26,32,127,0,0,3084,-10,0,12929,5530,172,54721,-4,0,-20,0,445441,0
445447,163,-2012,299,-87,-13,9,10524,-7,3,-64,-16,35822,-25,32,127,0,0,3087,21,0,12929,5530,172,54731,-4,0,-20,0,445441,0
445457,104,-2018,293,-88,-15,6,10524,22,-59,51,8,35825,-21,32,127,0,0,3089,0,0,12929,5530,172,54741,-4,0,-20,0,445441,0
445467,114,-2007,298,-78,-6,-1,10524,-2,-11,103,32,35837,6,32,127,0,0,3089,21,0,12929,5530,172,54751,-4,0,-20,0,445441,0
445477,130,-2016,291,-76,-10,-3,10526,0,0,120,24,35844,9,32,127,0,0,3089,0,0,12929,5530,172,54761,-4,0,-20,0,445456,0
445487,115,-2014,293,-78,-17,-9,10525,-2,-6,89,24,35852,17,32,127,0,0,3091,54,0,12929,5530,172,54771,-4,0,-20,0,445488,0
445497,106,-2010,293,-72,-12,-24,10531,14,8,175,40,35861,7,32,127,0,0,3091,0,0,12929,5530,172,54781,-4,0,-20,0,445488,0
445507,99,-2027,289,-68,-6,-33,10532,7,3,163,32,35860,6,32,127,0,0,3091,0,0,12929,5530,172,54791,-4,0,-20,0,445488,0
445517,110,-2035,293,-68,-6,-47,10530,-7,-12,146,8,35847,-5,32,127,0,0,3093,21,0,12929,5530,172,54801,-4,0,-20,0,445488,0
445527,97,-2042,299,-63,-12,-48,10531,8,0,182,72,35832,5,32,127,0,0,3091,0,0,12929,5530,172,54811,-4,0,-20,0,445519,0
445537,134,-2043,294,-61,-4,-47,10531,-14,-1,117,48,35836,12,32,127,0,0,3091,10,0,12929,5530,172,54821,-4,0,-20,0,445534,0
445547,153,-2049,281,-56,-3,-41,10532,5,-4,123,32,35837,12,32,127,0,0,3091,21,0,12929,5530,172,54831,-4,0,-20,0,445534,0
445557,170,-2035,280,-49,0,-29,10531,-3,0,146,40,35838,13,32,127,0,0,3089,-32,0,12929,5530,172,54841,-4,0,-20,0,445534,0
445567,161,-2041,278,-46,-4,-21,10528,-13,-13,66,56,35838,16,32,127,0,0,3089,10,0,12929,5530,172,54851,-4,0,-20,0,445550,0
445577,168,-2034,282,-32,3,-15,10531,-14,-1,91,72,35846,25,32,127,0,0,3091,21,0,12929,5530,172,54861,-4,0,-20,0,445566,0
445587,153,-2049,283,-32,10,9,10533,1,2,165,56,35859,17,32,127,0,0,3095,32,0,12929,5530,172,54871,-4,0,-20,0,445566,0
445597,159,-2031,290,-19,1,28,10535,15,0,233,72,35851,5,32,127,0,0,3095,21,0,12929,5530,172,54881,-4,0,-20,0,445659,0
445607,163,-2036,289,-16,-1,47,10541,11,10,230,56,35853,8,32,127,0,0,3098,32,0,12929,5530,172,54891,-4,0,-20,0,445659,0
445617,135,-2031,297,-15,-5,54,10545,21,7,304,72,35832,16,32,127,0,0,3098,0,0,12929,5530,172,54901,-4,0,-20,0,445659,0
445627,131,-2029,312,-12,-5,47,10556,31,19,289,64,35833,8,32,127,0,0,3100,-10,0,12929,5530,172,54911,-4,0,-20,0,445659,0
445637,108,-2019,311,-16,-3,42,10576,51,27,164,56,35824,6,32,127,0,0,3102,0,0,12929,5530,172,54921,-4,0,-20,0,445659,0
445647,114,-2020,300,-14,-10,43,10588,3,0,153,48,35821,-13,32,127,0,0,3104,10,0,12929,5530,172,54931,-4,0,-20,0,445675,0
445657,71,-2032,304,-17,3,16,10589,2,-44,252,72,35818,-13,32,127,0,0,3106,-21,0,12929,5530,172,54941,-4,0,-20,0,445675,0
445667,88,-2019,310,-21,1,-5,10592,0,-14,291,72,35815,-39,32,127,0,0,3109,-10,0,12929,5530,172,54951,-4,0,-20,0,445675,0
445677,87,-2025,322,-23,0,-26,10598,9,4,338,88,35820,-43,32,127,0,0,3113,10,0,12929,5530,172,54961,-4,0,-20,0,445675,0
445687,97,-2024,330,-30,-4,-28,10600,0,7,315,120,35826,-48,32,127,0,0,3113,54,0,12929,5530,172,54971,-4,0,-20,0,445675,0
445697,104,-2034,323,-40,1,-44,10605,11,-1,366,72,35830,-37,32,127,0,0,3113,0,0,12929,5530,172,54981,-4,0,-20,0,445675,0
445707,104,-2028,317,-44,0,-45,10609,4,-6,360,96,35834,-26,32,127,0,0,3113,0,0,12929,5530,172,54991,-4,0,-20,0,445706,0
445717,122,-2027,315,-48,-7,-48,10609,4,3,332,96,35838,-31,32,127,0,0,3113,10,0,12929,5530,172,55001,-4,0,-20,0,445706,0
445727,132,-2030,306,-51,-5,-51,10611,3,-2,334,56,35844,-38,32,127,0,0,3115,10,0,12929,5530,172,55011,-4,0,-20,0,445706,0
445737,143,-2038,296,-49,-12,-43,10612,5,-5,335,88,35833,-45,32,127,0,0,3113,0,0,12929,5530,172,55021,-4,0,-20,0,445722,0
445747,132,-2040,288,-49,-8,-44,10614,6,2,302,88,35839,-44,32,127,0,0,3113,21,0,12929,5530,172,55031,-4,0,-20,0,445753,0
445757,117,-2030,287,-42,-9,-44,10616,4,7,325,80,35853,-54,33,127,0,0,3111,-65,0,12929,5530,172,55041,-4,0,-20,0,445753,0
445767,117,-2023,287,-34,-7,-44,10618,0,4,248,80,35857,-58,32,127,0,0,3113,0,0,12929,5530,172,55051,-4,0,-20,0,445753,0
445777,131,-2033,298,-42,-4,-38,10623,21,1,265,32,35848,-67,32,127,0,0,3113,-21,0,12929,5530,172,55061,-4,0,-20,0,445753,0
445787,94,-2022,302,-40,-8,-42,10624,11,1,250,96,35823,-54,32,127,0,0,3113,0,0,12929,5530,172,55071,-4,0,-20,0,445769,0
445797,127,-2031,303,-39,3,-41,10634,23,13,198,0,35825,-50,32,127,0,0,3113,-10,0,12929,5530,172,55081,-4,0,-20,0,445800,0
445807,105,-2027,307,-37,-3,-30,10643,13,11,111,56,35837,-36,32,127,0,0,3111,-32,0,12929,5530,172,55091,-4,0,-20,0,445800,0
445817,94,-2024,309,-45,-6,-40,10644,-3,-23,55,24,35846,-58,32,127,0,0,3113,0,0,12929,5530,172,55101,-4,0,-20,0,445800,0
445827,116,-2025,304,-41,-1,-35,10644,-8,-23,75,24,35845,-64,32,127,0,0,3113,-10,0,12929,5530,172,55111,-4,0,-20,0,445800,0
445837,119,-2025,300,-41,-7,-36,10644,-2,-1,66,-8,35849,-59,33,127,0,0,3111,-32,0,12929,5530,172,55121,-4,0,-20,0,445831,0
445847,114,-2025,298,-42,1,-35,10645,17,-1,75,24,35855,-78,32,127,0,0,3115,21,0,12929,5530,172,55131,-4,0,-20,0,445847,0
445857,126,-2029,291,-39,-12,-36,10647,5,2,100,8,35861,-75,32,127,0,0,3115,0,0,12929,5530,172,55141,-4,0,-20,0,445847,0
445867,85,-2023,306,-45,-9,-36,10648,12,2,94,16,35847,-65,32,127,0,0,3113,-32,0,12929,5530,172,55151,-4,0,-20,0,445847,0
445877,130,-2028,296,-42,-1,-39,10646,2,-7,53,48,35835,-49,32,127,0,0,3113,21,0,12929,5530,172,55161,-4,0,-20,0,445878,0
445887,133,-2027,308,-41,-2,-45,10646,-8,4,72,8,35831,-44,32,127,0,0,3113,-10,0,12929,5530,172,55171,-4,0,-20,0,445878,0
445897,102,-2032,310,-43,-8,-34,10647,0,0,53,32,35836,-47,32,127,0,0,3113,0,0,12929,5530,172,55181,-4,0,-20,0,445878,0
445907,154,-2030,311,-42,-2,-41,10646,-15,-6,52,24,35832,-57,32,127,0,0,3113,10,0,12929,5530,172,55191,-4,0,-20,0,445878,0
445917,112,-2032,313,-42,-16,-42,10647,-2,-1,37,16,35835,-63,32,127,0,0,3113,21,0,12929,5530,172,55201,-4,0,-20,0,445909,0
445927,130,-2031,314,-49,-10,-38,10646,-10,-1,-3,40,35850,-73,33,127,0,0,3115,43,0,12929,5530,172,55211,-4,0,-20,0,445909,0
445937,171,-2024,311,-55,-5,-34,10648,6,13,68,16,35854,-70,32,127,0,0,3113,0,0,12929,5530,172,55221,-4,0,-20,0,445909,0
445947,132,-2030,299,-53,-9,-25,10645,-8,-2,27,32,35858,-53,32,127,0,0,3113,43,0,12929,5530,172,55231,-4,0,-20,0,445941,0
445957,131,-2018,295,-47,-13,-18,10650,0,-8,104,24,35847,-37,32,127,0,0,3115,0,0,12929,5530,172,55241,-4,0,-20,0,445941,0
445967,127,-2026,293,-45,-13,-12,10650,-1,11,120,32,35849,-53,32,127,0,0,3117,10,0,12929,5530,172,55251,-4,0,-20,0,446003,0
445977,116,-2026,300,-35,-4,-7,10652,7,-8,175,48,35844,-69,32,127,0,0,3117,0,0,12929,5530,172,55261,-4,0,-20,0,446003,0
445987,122,-2025,300,-39,-13,1,10657,4,18,187,40,35840,-77,32,127,0,0,3120,21,0,12929,5530,172,55271,-4,0,-20,0,446003,0
445997,119,-2028,315,-43,-8,-5,10660,2,-6,206,56,35838,-73,33,127,0,0,3122,43,0,12929,5530,172,55281,-4,0,-20,0,446003,0
446007,109,-2021,312,-47,-6,-6,10661,-2,1,228,56,35837,-67,32,127,0,0,3120,0,0,12929,5530,172,55291,-4,0,-20,0,446003,0
446017,107,-2031,313,-49,-12,-12,10662,-1,-1,259,64,35833,-73,32,127,0,0,3122,0,0,12929,5530,172,55301,-4,0,-20,0,446003,0
446027,99,-2041,316,-52,-14,-17,10664,-11,-4,217,72,35838,-67,32,127,0,0,3122,21,0,12929,5530,172,55311,-4,0,-20,0,446003,0
446037,95,-2035,303,-53,-12,-28,10668,10,3,299,72,35838,-65,32,127,0,0,3126,0,0,12929,5530,172,55321,-4,0,-20,0,446065,0
446047,98,-2031,303,-53,-9,-34,10675,20,6,293,88,35840,-59,32,127,0,0,3126,21,0,12929,5530,172,55331,-4,0,-20,0,446065,0
446057,119,-2033,302,-45,-3,-41,10690,31,21,215,72,35843,-64,32,127,0,0,3122,-10,0,12929,5530,172,55341,-4,0,-20,0,446065,0
446067,139,-2031,300,-55,-10,-37,10701,15,5,83,40,35851,-51,32,127,0,0,3126,21,0,12929,5530,172,55351,-4,0,-20,0,446081,0
446077,127,-2026,309,-56,-6,-36,10711,17,-14,80,8,35837,-55,32,127,0,0,3126,-10,0,12929,5530,172,55361,-4,0,-20,0,446081,0
446087,119,-2025,305,-61,-12,-36,10709,-7,-32,47,24,35829,-48,32,127,0,0,3124,-21,0,12929,5530,172,55371,-4,0,-20,0,446081,0
446097,122,-2029,303,-49,-5,-28,10710,3,-12,8,32,35833,-59,32,127,0,0,3126,10,0,12929,5530,172,55381,-4,0,-20,0,446081,0
446107,135,-2033,300,-52,-5,-27,10709,-7,7,27,24,35846,-66,32,127,0,0,3124,-43,0,12929,5530,172,55391,-4,0,-20,0,446081,0
446117,123,-2024,300,-52,-9,-7,10710,9,-1,58,40,35853,-75,32,127,0,0,3126,-10,0,12929,5530,172,55401,-4,0,-20,0,446112,0
446127,142,-2035,301,-47,-9,3,10711,-10,8,37,48,35855,-70,33,127,0,0,3128,21,0,12929,5530,172,55411,-4,0,-20,0,446112,0
446137,131,-2035,295,-42,-7,22,10714,7,-1,92,32,35852,-56,33,127,0,0,3131,21,0,12929,5530,172,55421,-4,0,-20,0,446112,0
446147,114,-2029,298,-39,-11,17,10717,12,7,217,32,35857,-68,32,127,0,0,3131,-10,0,12929,5530,172,55431,-4,0,-20,0,446159,0
446157,130,-2023,310,-34,-6,29,10722,2,4,242,80,35861,-76,32,127,0,0,3135,21,0,12929,5530,172,55441,-4,0,-20,0,446159,0
446167,130,-2028,314,-40,-15,45,10728,10,5,288,128,35869,-84,32,127,0,0,3139,32,0,12929,5530,172,55451,-4,0,-20,0,446175,0
446177,117,-2017,307,-46,-11,45,10732,0,1,329,120,35871,-60,33,127,0,0,3139,43,0,12929,5530,172,55461,-4,0,-20,0,446175,0
446187,104,-2020,306,-38,-9,44,10739,27,8,423,64,35859,-64,32,127,0,0,3146,43,0,12929,5530,172,55471,-4,0,-20,0,446175,0
446197,91,-2019,306,-42,-9,46,10752,35,14,445,176,35856,-44,32,127,0,0,3150,32,0,12929,5530,172,55481,-4,0,-20,0,446190,0
446207,104,-2018,308,-41,-8,43,10781,74,41,321,136,35862,-40,32,127,0,0,3148,21,0,12929,5530,172,55491,-4,0,-20,0,446190,0
446217,120,-2026,305,-43,-22,46,10796,10,16,275,112,35867,-49,32,127,0,0,3155,32,0,12929,5530,172,55501,-4,0,-20,0,446206,0
446227,83,-2039,301,-56,-16,44,10798,0,-63,368,128,35860,-49,32,127,0,0,3157,43,0,12929,5530,172,55511,-4,0,-20,0,446206,0
446237,96,-2039,301,-54,-7,33,10804,21,-21,432,128,35854,-69,32,127,0,0,3159,32,0,12929,5530,172,55521,-4,0,-20,0,446222,0
446247,111,-2038,308,-43,-9,20,10818,38,25,448,152,35844,-55,32,127,0,0,3161,0,0,12929,5530,172,55531,-4,0,-20,0,446237,0
446257,100,-2039,307,-50,-15,25,10860,110,64,249,96,35842,-65,32,127,0,0,3164,21,0,12929,5530,172,55541,-4,0,-20,0,446237,0
446267,126,-2026,313,-54,-20,32,10884,30,30,138,72,35840,-80,32,127,0,0,3166,32,0,12929,5530,172,55551,-4,0,-20,0,446253,0
446277,57,-2047,317,-53,-14,26,10886,10,-79,231,80,35841,-98,32,127,0,0,3168,0,0,12929,5530,172,55561,-4,0,-20,0,446269,0
446287,78,-2023,318,-58,-15,9,10896,27,-17,222,88,35851,-108,32,127,0,0,3170,10,0,12929,5530,172,55571,-4,0,-20,0,446269,0
446297,93,-2033,298,-61,-12,-1,10918,53,31,184,56,35847,-112,32,127,0,0,3172,-10,0,12929,5530,172,55581,-4,0,-20,0,446284,0
446307,115,-2017,297,-58,-19,-9,10916,-3,-22,204,48,35841,-110,33,127,0,0,3175,0,0,12929,5530,172,55591,-4,0,-20,0,446300,0
446317,96,-2026,301,-56,-4,-6,10918,-3,-29,232,40,35843,-109,32,127,0,0,3177,43,0,12929,5530,172,55601,-4,0,-20,0,446300,0
446327,85,-2029,309,-60,-15,-12,10920,6,6,290,96,35852,-119,32,127,0,0,3179,21,0,12929,5530,172,55611,-4,0,-20,0,446315,0
446337,88,-2027,307,-69,-15,-16,10922,5,4,335,72,35852,-116,32,127,0,0,3179,21,0,12929,5530,172,55621,-4,0,-20,0,446315,0
446347,93,-2026,298,-67,-13,-22,10925,7,1,346,80,35845,-120,33,127,0,0,3179,-10,0,12929,5530,172,55631,-4,0,-20,0,446331,0
446357,83,-2034,288,-59,-13,-23,10926,18,-3,341,144,35849,-123,33,127,0,0,3179,21,0,12929,5530,172,55641,-4,0,-20,0,446347,0
446367,113,-2032,293,-56,-8,-23,10928,-6,8,332,96,35858,-118,32,127,0,0,3179,0,0,12929,5530,172,55651,-4,0,-20,0,446362,0
446377,85,-2038,305,-58,-7,-26,10929,4,-3,360,112,35852,-113,32,127,0,0,3181,-21,0,12929,5530,172,55661,-4,0,-20,0,446362,0
446387,82,-2038,306,-51,-12,-29,10927,-1,-6,343,128,35840,-104,32,127,0,0,3181,21,0,12929,5530,172,55671,-4,0,-20,0,446362,0
446397,100,-2030,297,-56,-7,-32,10930,3,1,378,112,35831,-119,32,127,0,0,3179,-21,0,12929,5530,172,55681,-4,0,-20,0,446409,0
446407,113,-2028,290,-51,-7,-31,10931,8,3,388,112,35836,-128,32,127,0,0,3186,21,0,12929,5530,172,55691,-4,0,-20,0,446409,0
446417,110,-2029,300,-55,-6,-23,10933,8,3,437,128,35842,-135,33,127,0,0,3181,-10,0,12929,5530,172,55701,-4,0,-20,0,446409,0
446427,107,-2023,304,-50,-1,-23,10931,-11,-5,374,192,35841,-122,32,127,0,0,3179,0,0,12929,5530,172,55711,-4,0,-20,0,446425,0
446437,109,-2031,309,-47,-2,-22,10932,-8,-5,372,144,35843,-124,32,127,0,0,3183,32,0,12929,5530,172,55721,-4,0,-20,0,446425,0
446447,93,-2035,301,-47,-6,-16,10932,-4,0,406,96,35834,-131,32,127,0,0,3186,54,0,12929,5530,172,55731,-4,0,-20,0,446425,0
446457,120,-2026,301,-51,-8,-21,10935,5,-1,436,120,35844,-130,32,127,0,0,3183,0,0,12929,5530,172,55741,-4,0,-20,0,446456,0
446467,87,-2019,294,-54,-4,-22,10933,7,-3,394,104,35851,-111,32,127,0,0,3186,43,0,12929,5530,172,55751,-4,0,-20,0,446456,0
446477,112,-2032,303,-60,-11,-28,10938,10,10,443,152,35852,-105,33,127,0,0,3183,0,0,12929,5530,172,55761,-4,0,-20,0,446456,0
446487,84,-2031,316,-65,-18,-32,10937,-5,0,428,112,35845,-123,32,127,0,0,3186,0,0,12929,5530,172,55771,-4,0,-20,0,446472,0
446497,54,-2038,311,-67,-15,-39,10939,7,-3,420,112,35843,-133,33,127,0,0,3183,0,0,12929,5530,172,55781,-4,0,-20,0,446503,0
446507,63,-2034,324,-71,-13,-57,10936,3,-3,395,104,35851,-119,32,127,0,0,3181,-21,0,12929,5530,172,55791,-4,0,-20,0,446503,0
446517,75,-2035,312,-76,-16,-69,10937,10,-2,422,112,35848,-104,32,127,0,0,3181,-10,0,12929,5530,172,55801,-4,0,-20,0,446503,0
446527,102,-2031,303,-80,-18,-68,10936,-6,-6,380,104,35839,-102,32,127,0,0,3181,-32,0,12929,5530,172,55811,-4,0,-20,0,446519,0
446537,109,-2027,300,-78,-18,-56,10938,14,-3,378,120,35830,-116,32,127,0,0,3186,21,0,12929,5530,172,55821,-4,0,-20,0,446519,0
446547,96,-2027,294,-79,-16,-54,10941,-1,10,413,88,35831,-122,32,127,0,0,3181,-21,0,12929,5530,172,55831,-4,0,-20,0,446519,0
446557,103,-2039,295,-80,-15,-56,10937,-6,-10,401,120,35844,-127,32,127,0,0,3183,0,0,12929,5530,172,55841,-4,0,-20,0,446565,0
446567,87,-2041,290,-74,-10,-54,10939,-1,-3,374,128,35856,-139,32,127,0,0,3181,0,0,12929,5530,172,55851,-4,0,-20,0,446565,0
446577,96,-2033,295,-68,-10,-49,10937,-9,-4,381,120,35855,-151,33,127,0,0,3181,-10,0,12929,5530,172,55861,-4,0,-20,0,446565,0
446587,121,-2035,289,-68,-15,-54,10941,3,2,423,72,35838,-140,32,127,0,0,3181,-43,0,12929,5530,172,55871,-4,0,-20,0,446565,0
446597,88,-2033,297,-68,-6,-45,10938,0,-4,399,88,35817,-120,32,127,0,0,3183,-32,0,12929,5530,172,55881,-4,0,-20,0,446597,0
446607,97,-2037,310,-63,-14,-40,10939,-2,5,351,104,35817,-113,33,127,0,0,3181,0,0,12929,5530,172,55891,-4,0,-20,0,446597,0
446617,98,-2038,297,-64,-6,-38,10939,16,6,352,96,35828,-120,32,127,0,0,3181,0,0,12929,5530,172,55901,-4,0,-20,0,446597,0
446627,130,-2032,294,-65,-9,-31,10940,3,10,432,136,35838,-128,32,127,0,0,3186,-21,0,12929,5530,172,55911,-4,0,-20,0,446597,0
446637,108,-2030,282,-61,-6,-20,10941,0,0,388,88,35836,-127,32,127,0,0,3183,32,0,12929,5530,172,55921,-4,0,-20,0,446612,0
446647,98,-2033,272,-47,-5,-12,10941,3,1,399,112,35827,-115,32,127,0,0,3181,-21,0,12929,5530,172,55931,-4,0,-20,0,446659,0
446657,93,-2030,275,-42,1,-21,10938,-14,-5,393,152,35821,-111,32,127,0,0,3183,21,0,12929,5530,172,55941,-4,0,-20,0,446659,0
446667,98,-2028,288,-42,2,-14,10941,2,-2,420,104,35827,-110,32,127,0,0,3183,-21,0,12929,5530,172,55951,-4,0,-20,0,446659,0
446677,100,-2038,302,-36,-5,7,10941,9,0,434,136,35825,-100,32,127,0,0,3188,21,0,12929,5530,172,55961,-4,0,-20,0,446659,0
446687,111,-2025,301,-41,-13,8,10946,9,5,460,192,35824,-91,32,127,0,0,3188,43,0,12929,5530,172,55971,-4,0,-20,0,446722,0
446697,99,-2042,292,-36,-8,8,10964,36,35,366,112,35837,-102,33,127,0,0,3190,43,0,12929,5530,172,55981,-4,0,-20,0,446737,0
446707,92,-2032,295,-39,-14,13,10992,63,41,282,64,35849,-106,32,127,0,0,3192,0,0,12929,5530,172,55991,-4,0,-20,0,446737,0
446717,84,-2020,301,-37,-8,2,10997,4,-21,341,80,35845,-107,32,127,0,0,3192,-10,0,12929,5530,172,56001,-4,0,-20,0,446737,0
446727,86,-2037,296,-42,-2,5,10997,-3,-58,354,88,35829,-79,32,127,0,0,3194,21,0,12929,5530,172,56011,-4,0,-20,0,446737,0
446737,82,-2035,286,-33,-2,-2,10999,8,-3,371,120,35820,-77,32,127,0,0,3194,21,0,12929,5530,172,56021,-4,0,-20,0,446737,0
446747,89,-2029,287,-32,-12,-6,11004,16,8,413,88,35831,-76,32,127,0,0,3194,-10,0,12929,5530,172,56031,-4,0,-20,0,446737,0
446757,93,-2026,289,-24,1,-9,11006,-9,-2,374,120,35829,-75,32,127,0,0,3197,21,0,12929,5530,172,56041,-4,0,-20,0,446737,0
446767,88,-2019,300,-30,-1,-11,11012,19,-2,428,128,35824,-70,32,127,0,0,3199,0,0,12929,5530,172,56051,-4,0,-20,0,446753,0
446777,86,-2035,292,-23,-5,-13,11031,53,33,357,128,35832,-73,32,127,0,0,3199,-10,0,12929,5530,172,56061,-4,0,-20,0,446784,0
446787,93,-2033,304,-28,-3,-14,11056,42,41,184,104,35854,-78,32,127,0,0,3199,0,0,12929,5530,172,56071,-4,0,-20,0,446784,0
446797,41,-2030,321,-39,-3,-37,11053,-25,-40,186,80,35866,-79,32,127,0,0,3201,21,0,12929,5530,172,56081,-4,0,-20,0,446784,0
446807,53,-2028,309,-48,-8,-43,11056,7,-52,187,64,35857,-59,32,127,0,0,3199,0,0,12929,5530,172,56091,-4,0,-20,0,446784,0
446817,76,-2038,284,-43,-5,-54,11056,1,2,197,64,35838,-46,32,127,0,0,3203,54,0,12929,5530,172,56101,-4,0,-20,0,446831,0
446827,98,-2033,281,-35,-7,-40,11059,0,2,249,56,35824,-41,32,127,0,0,3201,0,0,12929,5530,172,56111,-4,0,-20,0,446831,0
446837,101,-2027,293,-32,-1,-43,11055,2,-5,187,80,35839,-29,32,127,0,0,3197,-10,0,12929,5530,172,56121,-4,0,-20,0,446831,0
446847,140,-2031,293,-30,6,-42,11055,-15,-3,160,64,35837,-27,32,127,0,0,3194,-54,0,12929,5530,172,56131,-4,0,-20,0,446847,0
446857,89,-2019,288,-23,-1,-21,11054,-3,3,134,48,35833,-23,32,127,0,0,3199,-21,0,12929,5530,172,56141,-4,0,-20,0,446847,0
446867,117,-2033,295,-19,1,-3,11055,-10,4,144,88,35827,-24,33,127,0,0,3199,10,0,12929,5530,172,56151,-4,0,-20,0,446847,0
446877,144,-2035,301,-20,11,3,11056,0,-1,148,32,35844,-42,33,127,0,0,3201,43,0,12929,5530,172,56161,-4,0,-20,0,446878,0
446887,107,-2039,299,-15,2,17,11056,-2,-3,191,80,35852,-40,32,127,0,0,3201,32,0,12929,5530,172,56171,-4,0,-20,0,446878,0
446897,86,-2037,297,-8,7,20,11057,4,-5,190,64,35847,-39,32,127,0,0,3201,-10,0,12929,5530,172,56181,-4,0,-20,0,446878,0
446907,53,-2043,295,-3,6,38,11056,7,0,197,104,35834,-42,32,127,0,0,3203,32,0,12929,5530,172,56191,-4,0,-20,0,446909,0
446917,117,-2027,301,-8,-7,46,11063,14,7,337,88,35826,-45,32,127,0,0,3208,32,0,12929,5530,172,56201,-4,0,-20,0,446909,0
446927,67,-2034,294,-6,-12,50,11065,3,14,381,152,35834,-47,32,127,0,0,3208,10,0,12929,5530,172,56211,-4,0,-20,0,446909,0
446937,65,-2032,309,-6,-2,28,11070,3,1,369,176,35837,-46,32,127,0,0,3212,65,0,12929,5530,172,56221,-4,0,-20,0,446925,0
446947,53,-2030,316,-9,5,10,11077,15,7,425,136,35841,-34,32,127,0,0,3212,21,0,12929,5530,172,56231,-4,0,-20,0,446925,0
446957,59,-2026,308,-12,7,-10,11098,45,22,350,152,35849,-47,32,127,0,0,3214,10,0,12929,5530,172,56241,-4,0,-20,0,446956,0
446967,67,-2032,294,-15,-7,-12,11123,34,33,191,80,35869,-61,32,127,0,0,3212,-21,0,12929,5530,172,56251,-4,0,-20,0,446956,0
446977,25,-2037,284,-6,4,-30,11118,-2,-50,246,112,35860,-59,32,127,0,0,3212,-32,0,12929,5530,172,56261,-4,0,-20,0,446956,0
446987,67,-2025,310,-3,10,-43,11118,-20,-43,217,80,35848,-51,33,127,0,0,3214,10,0,12929,5530,172,56271,-4,0,-20,0,446972,0
446997,77,-2031,323,-1,2,-40,11122,8,2,247,72,35839,-41,32,127,0,0,3214,10,0,12929,5530,172,56281,-4,0,-20,0,446972,0
447007,99,-2033,317,-8,0,-36,11119,-4,-1,267,112,35865,-52,32,127,0,0,3214,10,0,12929,5530,172,56291,-4,0,-20,0,447003,0
447017,78,-2022,303,-12,-3,-41,11120,-4,-3,264,96,35881,-46,32,127,0,0,3214,10,0,12929,5530,172,56301,-4,0,-20,0,447003,0
447027,85,-2025,305,-10,-1,-36,11118,-9,-4,252,80,35873,-35,32,127,0,0,3214,0,0,12929,5530,172,56311,-4,0,-20,0,447003,0
447037,108,-2017,308,-11,3,-27,11120,1,-1,229,120,35854,-31,32,127,0,0,3214,43,0,12929,5530,172,56321,-4,0,-20,0,447018,0
447047,124,-2021,308,-13,11,-28,11119,-19,1,246,64,35846,-47,32,127,0,0,3216,21,0,12929,5530,172,56331,-4,0,-20,0,447018,0
447057,86,-2021,294,-8,-4,-26,11119,0,1,225,88,35854,-49,32,127,0,0,3212,0,0,12929,5530,172,56341,-4,0,-20,0,447050,0
447067,86,-2029,296,-5,7,-29,11120,0,-3,253,64,35863,-45,32,127,0,0,3214,0,0,12929,5530,172,56351,-4,0,-20,0,447065,0
447077,71,-2032,289,0,4,-38,11121,-10,-4,290,64,35853,-46,32,127,0,0,3212,-21,0,12929,5530,172,56361,-4,0,-20,0,447081,0
447087,88,-2031,304,7,9,-33,11119,-13,-7,211,56,35846,-53,33,127,0,0,3216,43,0,12929,5530,172,56371,-4,0,-20,0,447097,0
447097,68,-2028,307,6,1,-31,11124,21,4,283,72,35842,-58,32,127,0,0,3214,-10,0,12929,5530,172,56381,-4,0,-20,0,447097,0
447107,77,-2035,305,5,9,-37,11120,-1,2,308,64,35840,-55,32,127,0,0,3214,-43,0,12929,5530,172,56391,-4,0,-20,0,447097,0
447117,71,-2038,306,7,4,-35,11121,6,-10,246,40,35849,-43,32,127,0,0,3214,-10,0,12929,5530,172,56401,-4,0,-20,0,447112,0
447127,78,-2032,318,19,11,-28,11122,4,10,236,48,35847,-47,32,127,0,0,3214,-10,0,12929,5530,172,56411,-4,0,-20,0,447112,0
447137,116,-2037,321,8,16,-23,11123,16,11,308,48,35855,-41,32,127,0,0,3216,-10,0,12929,5530,172,56421,-4,0,-20,0,447112,0
447147,51,-2033,318,5,9,-19,11121,-3,0,278,32,35868,-44,32,127,0,0,3212,-43,0,12929,5530,172,56431,-4,0,-20,0,447159,0
447157,60,-2031,316,4,12,-16,11123,15,-3,287,120,35858,-48,33,127,0,0,3214,-21,0,12929,5530,172,56441,-4,0,-20,0,447159,0
447167,88,-2018,318,6,14,-20,11122,-8,7,284,96,35856,-66,32,127,0,0,3212,-43,0,12929,5530,172,56451,-4,0,-20,0,447159,0
447177,88,-2024,314,6,9,-10,11122,-10,-8,219,112,35844,-62,32,127,0,0,3216,54,0,12929,5530,172,56461,-4,0,-20,0,447175,0
447187,95,-2037,317,6,10,3,11125,-3,7,297,88,35846,-57,32,127,0,0,3218,32,0,12929,5530,172,56471,-4,0,-20,0,447175,0
447197,85,-2035,321,4,-2,2,11123,-7,4,354,80,35842,-46,32,127,0,0,3218,21,0,12929,5530,172,56481,-4,0,-20,0,447175,0
447207,62,-2026,317,7,-1,-11,11126,0,-7,392,104,35841,-27,33,127,0,0,3218,-10,0,12929,5530,172,56491,-4,0,-20,0,447206,0
447217,72,-2016,315,-1,-3,-31,11123,-16,0,375,88,35849,-38,32,127,0,0,3218,21,0,12929,5530,172,56501,-4,0,-20,0,447206,0
447227,51,-2028,319,2,-1,-39,11127,1,-1,360,72,35853,-41,32,127,0,0,3218,0,0,12929,5530,172,56511,-4,0,-20,0,447206,0
447237,67,-2026,313,-4,0,-44,11127,11,0,369,112,35846,-39,32,127,0,0,3216,-21,0,12929,5530,172,56521,-4,0,-20,0,447221,0
447247,53,-2027,315,-5,-1,-51,11123,-15,-7,322,128,35843,-34,32,127,0,0,3218,32,0,12929,5530,172,56531,-4,0,-20,0,447237,0
447257,61,-2021,313,-6,-3,-64,11125,-14,-3,355,72,35855,-35,33,127,0,0,3218,0,0,12929,5530,172,56541,-4,0,-20,0,447253,0
447267,64,-2019,315,-7,-7,-66,11127,5,1,366,112,35861,-55,32,127,0,0,3214,-43,0,12929,5530,172,56551,-4,0,-20,0,447253,0
447277,72,-2022,331,0,0,-72,11124,-9,-11,302,128,35854,-58,32,127,0,0,3218,21,0,12929,5530,172,56561,-4,0,-20,0,447253,0
447287,90,-2029,334,-10,-3,-68,11125,-9,7,316,120,35830,-44,33,127,0,0,3218,32,0,12929,5530,172,56571,-4,0,-20,0,447284,0
447297,74,-2037,339,-14,3,-68,11126,-3,2,318,56,35842,-56,32,127,0,0,3214,-21,0,12929,5530,172,56581,-4,0,-20,0,447284,0
447307,59,-2030,337,-19,-1,-75,11123,-8,-3,228,80,35844,-64,33,127,0,0,3212,-21,0,12929,5530,172,56591,-4,0,-20,0,447284,0
447317,71,-2037,336,-20,6,-83,11124,6,-1,199,72,35851,-62,32,127,0,0,3210,-32,0,12929,5530,172,56601,-4,0,-20,0,447331,0
447327,104,-2039,341,-29,5,-77,11118,-22,-7,97,72,35849,-50,32,127,0,0,3208,10,0,12929,5530,172,56611,-4,0,-20,0,447331,0
447337,91,-2035,334,-32,-5,-50,11121,8,-4,85,8,35845,-39,33,127,0,0,3210,-10,0,12929,5530,172,56621,-4,0,-20,0,447346,0
447347,59,-2042,337,-27,-9,-45,11119,4,10,114,0,35851,-39,32,127,0,0,3208,-21,0,12929,5530,172,56631,-4,0,-20,0,447346,0
447357,82,-2010,330,-32,-1,-49,11118,-12,-5,74,0,35832,-49,32,127,0,0,3208,0,0,12929,5530,172,56641,-4,0,-20,0,447346,0
447367,112,-2017,327,-34,2,-42,11117,-19,-6,63,0,35832,-48,32,127,0,0,3210,21,0,12929,5530,172,56651,-4,0,-20,0,447346,0
447377,146,-2042,281,-10,-22,-51,11121,7,7,153,16,35835,-46,32,127,0,0,3212,-21,0,12929,5530,172,56661,-4,0,-20,0,447346,0
447387,650,-1965,133,-83,-37,-411,11119,0,-6,171,40,35853,-52,32,127,0,0,3212,0,0,12929,5530,172,56671,-4,0,-20,0,447378,0
447397,475,-1799,126,-155,75,-738,11118,-15,-7,78,-24,35861,-50,33,127,0,0,3190,-230,0,12929,5530,172,56681,-4,0,-20,0,447393,0
447407,123,-2059,327,-93,-35,-142,11081,-132,-74,-435,-224,35848,-52,32,127,0,0,3177,-98,0,12929,5530,172,56691,-4,0,-20,0,447393,0
447417,290,-2159,294,-39,-58,-73,11006,-157,-147,-206,-64,35831,-50,32,127,0,0,3179,-10,0,12929,5530,172,56701,-4,0,-20,0,447393,0
447427,322,-2078,214,-113,-49,-340,10979,-11,46,-87,-32,35828,-53,32,127,0,0,3177,0,0,12929,5530,172,56711,-4,0,-20,0,447503,0
447437,314,-1911,146,-201,-6,-781,10986,-1,166,-234,-120,35846,-70,32,127,0,0,3159,-208,0,12929,5530,172,56721,-4,0,-20,0,447503,0
447447,302,-1920,191,-194,44,-556,10952,-103,-38,-572,-344,35850,-87,32,127,0,0,3137,-197,0,12929,5530,172,56731,-4,0,-20,0,447503,0
447457,472,-2062,226,-135,-68,-364,10862,-195,-188,-403,-224,35847,-98,33,127,0,0,3124,-120,0,12929,5530,172,56741,-4,0,-20,0,447503,0
447467,431,-2038,131,-140,-77,-490,10789,-150,-52,-373,-216,35835,-109,32,127,0,0,3115,-131,0,12929,5530,172,56751,-4,0,-20,0,447503,0
447477,336,-1971,148,-202,-15,-801,10720,-149,50,-336,-232,35830,-99,32,127,0,0,3095,-230,0,12929,5530,172,56761,-4,0,-20,0,447503,0
447487,262,-2000,254,-203,44,-783,10661,-128,28,-562,-352,35827,-83,32,127,0,0,3069,-241,0,12929,5530,172,56771,-4,0,-20,0,447503,0
447497,455,-1966,357,-173,-48,-595,10572,-221,-47,-516,-400,35823,-63,32,127,0,0,3054,-164,0,12929,5530,172,56781,-4,0,-20,0,447503,0
447507,387,-2043,313,-191,-142,-514,10477,-189,-71,-437,-272,35820,-34,33,127,0,0,3045,-98,0,12929,5530,172,56791,-4,0,-20,0,447503,0
447517,262,-2014,256,-208,-114,-631,10415,-115,63,-475,-200,35825,-28,32,127,0,0,3038,-54,0,12929,5530,172,56801,-4,0,-20,0,447503,0
447527,339,-2013,277,-231,-91,-762,10370,-90,100,-483,-256,35829,-21,32,127,0,0,3023,-197,0,12929,5530,172,56811,-4,0,-20,0,447518,0
447537,492,-2004,262,-285,-64,-742,10315,-151,5,-531,-296,35837,-18,32,127,0,0,3012,-98,0,12929,5530,172,56821,-4,0,-20,0,447518,0
447547,372,-2117,117,-277,-122,-699,10253,-123,-38,-504,-304,35858,-35,32,127,0,0,2997,-142,0,12929,5530,172,56831,-4,0,-20,0,447550,0
447557,284,-2092,228,-214,-159,-729,10197,-132,12,-596,-272,35871,-46,32,127,0,0,2983,-120,0,12929,5530,172,56841,-4,0,-20,0,447550,0
447567,142,-2078,373,-222,-133,-790,10122,-168,-34,-504,-328,35865,-67,32,127,0,0,2968,-153,0,12929,5530,172,56851,-4,0,-20,0,447550,0
447577,171,-2148,393,-271,-100,-890,10059,-127,-5,-585,-304,35840,-75,32,127,0,0,2953,-153,0,12929,5530,172,56861,-4,0,-20,0,447550,0
447587,289,-2045,296,-274,-81,-877,9997,-153,26,-636,-328,35829,-85,32,127,0,0,2937,-142,0,12929,5530,172,56871,-4,0,-20,0,447581,0
447597,392,-2206,294,-261,-120,-806,9919,-176,-35,-488,-272,35840,-99,33,127,0,0,2924,-131,0,12929,5530,172,56881,-4,0,-20,0,447581,0
447607,262,-2223,485,-123,-66,-685,9853,-140,-6,-534,-272,35845,-87,32,127,0,0,2922,0,0,12929,5530,172,56891,-4,0,-20,0,447581,0
447617,491,-2092,258,-209,-54,-653,9796,-136,36,-400,-192,35841,-68,32,127,0,0,2917,-21,0,12929,5530,172,56901,-4,0,-20,0,447628,0
447627,402,-1943,217,-359,-6,-592,9756,-68,34,-335,-88,35823,-36,32,127,0,0,2920,43,0,12929,5530,172,56911,-4,0,-20,0,447628,0
447637,226,-2070,50,-433,171,-556,9738,-21,78,-186,-24,35823,-21,32,127,0,0,2917,-10,0,12929,5530,172,56921,-4,0,-20,0,447628,0
447647,218,-1970,-6,-340,153,-611,9740,7,74,-237,-24,35824,-2,32,127,0,0,2917,0,0,12929,5530,172,56931,-4,0,-20,0,447628,0
447657,378,-2076,170,-285,95,-599,9739,-11,25,-218,-56,35828,15,32,127,0,0,2917,0,0,12929,5530,172,56941,-4,0,-20,0,447628,0
447667,319,-2140,274,-300,80,-548,9740,3,-11,-177,-8,35824,28,32,127,0,0,2920,0,0,12929,5530,172,56951,-4,0,-20,0,447659,0
447677,299,-2204,310,-360,84,-415,9741,5,8,-89,32,35825,35,32,127,0,0,2933,142,0,12929,5530,172,56961,-4,0,-20,0,447659,0
447687,227,-2034,286,-362,100,-466,9766,77,43,243,80,35833,19,32,127,0,0,2946,131,0,12929,5530,172,56971,-4,0,-20,0,447674,0
447697,337,-2045,290,-369,67,-475,9823,133,112,210,168,35835,23,32,127,0,0,2959,120,0,12929,5530,172,56981,-4,0,-20,0,447674,0
447707,274,-2016,294,-383,55,-455,9888,154,76,196,120,35838,4,32,127,0,0,2972,142,0,12929,5530,172,56991,-4,0,-20,0,447706,0
447717,334,-1993,321,-390,13,-430,9960,147,33,128,104,35846,-33,32,127,0,0,2983,142,0,12929,5530,172,57001,-4,0,-20,0,447706,0
447727,329,-1945,304,-397,-11,-481,10017,122,-21,212,152,35851,-72,32,127,0,0,2999,120,0,12929,5530,172,57011,-4,0,-20,0,447706,0
447737,361,-1943,282,-408,-48,-500,10080,158,-9,197,104,35845,-86,32,127,0,0,3008,76,0,12929,5530,172,57021,-4,0,-20,0,447721,0
447747,423,-1933,279,-443,-86,-444,10146,124,28,102,128,35841,-75,32,127,0,0,3021,98,0,12929,5530,172,57031,-4,0,-20,0,447753,0
447757,411,-1904,271,-456,-136,-403,10179,72,-59,262,168,35854,-99,32,127,0,0,3034,131,0,12929,5530,172,57041,-4,0,-20,0,447753,0
447767,426,-1924,234,-464,-159,-389,10229,108,-29,350,184,35854,-111,32,127,0,0,3047,98,0,12929,5530,172,57051,-4,0,-20,0,447753,0
447777,416,-1906,258,-446,-191,-399,10301,159,64,202,120,35850,-105,32,127,0,0,3056,109,0,12929,5530,172,57061,-4,0,-20,0,447753,0
447787,370,-1894,237,-485,-211,-382,10359,98,25,183,112,35837,-74,32,127,0,0,3069,120,0,12929,5530,172,57071,-4,0,-20,0,447784,0
447797,292,-1945,268,-494,-239,-413,10402,91,-61,196,48,35847,-55,32,127,0,0,3071,65,0,12929,5530,172,57081,-4,0,-20,0,447784,0
447807,272,-1991,281,-511,-239,-496,10431,77,-45,282,120,35841,-46,32,127,0,0,3080,65,0,12929,5530,172,57091,-4,0,-20,0,447799,0
447817,222,-2071,334,-556,-245,-581,10479,89,12,95,32,35838,-45,32,127,0,0,3082,43,0,12929,5530,172,57101,-4,0,-20,0,447815,0
447827,155,-2094,402,-604,-257,-658,10491,20,-32,147,24,35830,-26,32,127,0,0,3082,-10,0,12929,5530,172,57111,-4,0,-20,0,447831,0
447837,121,-2101,409,-677,-307,-777,10503,10,-77,21,0,35833,-14,32,127,0,0,3082,-10,0,12929,5530,172,57121,-4,0,-20,0,447846,0
447847,119,-2133,425,-743,-378,-855,10509,2,-16,-16,-8,35838,8,32,127,0,0,3082,0,0,12929,5530,172,57131,-4,0,-20,0,447846,0
447857,-20,-2225,366,-818,-424,-1039,10508,3,-22,-2,0,35835,8,32,127,0,0,3082,0,0,12929,5530,172,57141,-4,0,-20,0,447846,0
447867,-21,-2240,335,-846,-455,-1165,10507,0,-6,-12,-32,35840,9,32,127,0,0,3082,0,0,12929,5530,172,57151,-4,0,-20,0,447846,0
447877,-5,-2239,358,-913,-544,-1372,10508,11,0,-12,0,35832,14,32,127,0,0,3078,-76,0,12929,5530,172,57161,-4,0,-20,0,447846,0
447887,43,-2144,328,-982,-591,-1559,10504,-2,-13,-116,-16,35843,5,32,127,0,0,3076,-65,0,12929,5530,172,57171,-4,0,-20,0,447909,0
447897,41,-2058,123,-1182,-467,-1783,10500,-31,-6,-337,-144,35855,-18,32,127,0,0,3062,-109,0,12929,5530,172,57181,-4,0,-23,0,447909,0
447907,159,-2425,223,-1327,-560,-1735,10462,-98,-64,-365,-80,35856,-34,32,127,0,0,3058,-21,0,12929,5530,172,57191,-4,0,-23,0,447924,0
447917,-231,-2653,214,-1290,-735,-1918,10438,-2,-50,-235,-88,35847,-22,32,127,0,0,3062,-21,0,12929,5530,172,57201,-4,0,-24,0,447924,0
447927,-441,-2794,136,-1183,-662,-2047,10446,6,100,-297,-40,35831,-17,32,127,0,0,3071,98,0,12929,5530,172,57211,-4,0,-24,0,447924,0
447937,-202,-2740,273,-1104,-380,-2358,10457,53,56,21,128,35833,-17,32,127,0,0,3089,219,0,12929,5530,172,57221,-4,0,-24,0,447924,0
447947,-97,-2616,348,-1192,-347,-2438,10509,139,83,264,120,35834,-28,32,127,0,0,3104,164,0,12929,5530,172,57231,-4,0,-24,0,447924,0
447957,112,-2600,384,-1399,-493,-2450,10578,144,116,286,280,35836,-18,32,127,0,0,3135,373,0,12929,5530,172,57241,-4,0,-24,0,447987,0
447967,136,-2624,325,-1396,-600,-2504,10666,233,66,533,520,35833,-20,32,127,0,0,3181,439,0,12929,5530,172,57251,-4,0,-23,0,447987,0
447977,124,-2633,231,-1335,-662,-2634,10810,332,145,463,672,35835,-38,32,127,0,0,3232,538,0,12929,5530,172,57261,-4,0,-23,0,447987,0
447987,145,-2598,264,-1253,-698,-2766,10987,414,161,503,912,35837,-57,32,127,0,0,3284,538,0,12929,5530,172,57271,-4,0,-23,0,447987,0
447997,206,-2489,290,-1171,-877,-2795,11193,475,121,554,1120,35830,-72,32,127,0,0,3350,648,0,12929,5530,172,57281,-4,0,-23,0,447987,0
448007,378,-2420,287,-1139,-1032,-2841,11437,572,132,588,1368,35827,-41,32,127,0,0,3418,681,0,12929,5530,172,57291,-4,0,-22,0,448003,0
448017,667,-2325,233,-1013,-1331,-2939,11718,638,152,558,1552,35829,-25,32,127,0,0,3495,758,0,12929,5530,172,57301,-4,0,-22,0,448003,0
448027,766,-2356,195,-969,-1463,-3051,12031,700,125,563,1656,35831,-24,32,127,0,0,3563,681,0,12929,5530,172,57311,-4,0,-22,0,448018,0
448037,807,-2395,290,-794,-1536,-3127,12363,737,89,475,1616,35830,-13,32,127,0,0,3621,560,0,12929,5530,172,57321,-4,0,-21,0,448018,0
448047,924,-2408,301,-652,-1520,-3118,12684,697,19,438,1560,35824,-21,32,127,0,0,3671,505,0,12929,5530,172,57331,-4,0,-21,0,448049,0
448057,914,-2090,226,-562,-1602,-2922,12995,673,-43,434,1496,35839,-27,32,127,0,0,3717,483,0,12929,5530,172,57341,-4,0,-20,0,448065,0
448067,983,-1833,122,-554,-1641,-2716,13293,653,-39,391,1384,35834,-32,32,127,0,0,3766,494,0,12929,5530,172,57351,-4,0,-20,0,448065,0
448077,908,-1467,-65,-471,-1594,-2370,13567,588,-66,440,1328,35838,-72,32,127,0,0,3812,406,0,12929,5530,172,57361,-4,0,-20,0,448065,0
448087,822,-1217,-212,-364,-1476,-2096,13838,580,-52,433,1272,35824,-44,32,127,0,0,3854,384,0,12929,5530,172,57371,-4,0,-19,0,448065,0
448097,109,-121,-98,5,-959,-1255,14090,536,-43,374,968,35837,-41,32,127,0,0,3864,76,0,12929,5530,172,57381,-4,0,-19,0,448096,0
448107,116,-437,-452,55,-747,-483,14301,417,-108,264,576,35849,-49,32,127,0,0,3858,-87,0,12929,5530,172,57391,-4,0,-18,0,448096,0
448117,-484,-707,240,660,-827,574,14451,276,-199,159,128,35860,-67,33,127,0,0,3851,-43,0,12929,5530,172,57401,-4,0,-18,0,448096,0
448127,-351,-832,230,954,-736,1069,14495,-1,-313,-66,-80,35859,-57,32,127,0,0,3838,-175,0,12929,5530,172,57411,-4,0,-17,0,448096,0
448137,-428,-947,195,1386,-424,1779,14430,-173,-426,-271,-248,35857,-22,32,127,0,0,3803,-351,0,12929,5530,172,57421,-4,0,-16,0,448128,0
448147,-306,-1020,45,1644,-119,2408,14321,-264,-288,-396,-488,35862,-3,32,127,0,0,3757,-450,0,12929,5530,172,57431,-4,0,-15,0,448128,0
448157,-310,-1210,5,1992,341,3397,14163,-380,-171,-439,-784,35860,-24,32,127,0,0,3711,-472,0,12929,5530,172,57441,-4,0,-14,0,448128,0
448167,-386,-1298,52,2244,604,3937,13976,-433,-152,-417,-880,35856,-26,32,127,0,0,3665,-439,0,12929,5530,172,57451,-4,0,-13,0,448221,0
448177,-323,-1453,99,2516,906,4654,13771,-464,-80,-385,-952,35842,-34,32,127,0,0,3612,-505,0,12929,5530,172,57461,-4,0,-11,0,448237,0
448187,-219,-1593,126,2621,1055,5126,13554,-481,-63,-413,-1024,35845,-31,32,127,0,0,3574,-395,0,12929,5530,172,57471,-4,0,-10,0,448237,0
448197,-68,-1838,129,2739,1204,5792,13330,-490,-33,-345,-952,35842,-37,32,127,0,0,3535,-384,0,12929,5530,172,57481,-4,0,-7,0,448252,0
448207,-7,-1990,145,2812,1262,6153,13110,-472,0,-337,-896,35838,-40,32,127,0,0,3502,-340,0,12929,5530,172,57491,-4,0,-6,0,448268,0
448217,13,-2183,215,2892,1239,6536,12905,-446,36,-324,-752,35829,-52,32,127,0,0,3467,-329,0,12929,5530,172,57501,-4,0,-4,0,448268,0
448227,8,-2280,296,2913,1190,6691,12714,-409,59,-348,-704,35831,-48,32,127,0,0,3440,-296,0,12929,5530,172,57511,-4,0,-2,0,448268,0
448237,55,-2401,332,2900,1095,6852,12528,-404,36,-341,-632,35830,-42,32,127,0,0,3414,-241,0,12929,5530,172,57521,-4,0,0,0,448268,0
448247,60,-2469,318,2880,1021,6908,12355,-363,44,-316,-496,35840,-51,32,127,0,0,3396,-175,0,12929,5530,172,57531,-4,0,1,0,448268,0
448257,85,-2537,297,2889,919,6908,12209,-295,80,-280,-280,35840,-67,32,127,0,0,3388,-76,0,12929,5530,172,57541,-4,0,4,0,448268,0
448267,118,-2531,284,2903,924,6847,12104,-207,127,-148,-48,35844,-64,32,127,0,0,3385,-43,0,12929,5530,172,57551,-4,0,5,0,448268,0
448277,74,-2495,320,2913,957,6658,12081,9,224,-101,-16,35844,-42,32,127,0,0,3388,0,0,12929,5530,172,57561,-4,0,8,0,448268,0
448287,84,-2530,357,2913,961,6520,12103,52,256,-193,-72,35861,-29,32,127,0,0,3392,21,0,12929,5530,172,57571,-4,0,9,0,448268,0
448297,128,-2601,408,2848,973,6410,12102,-10,32,-115,16,35855,-8,32,127,0,0,3403,153,0,12929,5530,172,57581,-4,0,12,0,448284,0
448307,64,-2571,444,2800,961,6299,12124,66,-4,238,200,35866,0,32,127,0,0,3421,230,0,12929,5530,172,57591,-4,0,13,0,448284,0
448317,89,-2508,446,2730,938,6067,12182,159,110,466,360,35855,11,33,127,0,0,3449,274,0,12929,5530,172,57601,-4,0,16,0,448299,0
448327,119,-2439,424,2639,899,5851,12286,263,156,439,416,35864,-11,32,127,0,0,3478,274,0,12929,5530,172,57611,-4,0,17,0,448331,0
448337,168,-2378,365,2495,928,5399,12422,299,157,326,368,35859,-32,32,127,0,0,3491,109,0,12929,5530,172,57621,-4,0,19,0,448331,0
448347,62,-2355,322,2387,947,5143,12542,232,32,202,144,35845,-35,32,127,0,0,3493,10,0,12929,5530,172,57631,-4,0,20,0,448331,0
448357,89,-2325,369,2207,996,4849,12594,41,-151,-4,32,35838,-50,32,127,0,0,3495,21,0,12929,5530,172,57641,-4,0,22,0,448331,0
448367,-2,-2292,325,2107,988,4596,12582,-30,-273,221,32,35830,-61,32,127,0,0,3493,-10,0,12929,5530,172,57651,-4,0,23,0,448393,0
448377,152,-2190,205,1908,966,4213,12582,11,-93,201,104,35835,-91,32,127,0,0,3495,21,0,12929,5530,172,57661,-4,0,24,0,448393,0
448387,162,-2134,184,1758,923,3959,12589,12,44,250,8,35845,-87,32,127,0,0,3493,-65,0,12929,5530,172,57671,-4,0,25,0,448393,0
448397,126,-2083,167,1523,756,3510,12579,-22,-25,220,72,35849,-68,32,127,0,0,3493,-21,0,12929,5530,172,57681,-4,0,26,0,448393,0
448407,150,-2045,192,1373,618,3147,12585,7,3,207,-8,35835,-64,33,127,0,0,3491,-87,0,12929,5530,172,57691,-4,0,27,0,448393,0
448417,116,-2072,204,1096,433,2500,12576,-22,-5,114,32,35835,-84,32,127,0,0,3487,-65,0,12929,5530,172,57701,-4,0,28,0,448393,0
448427,130,-2131,216,914,345,2060,12572,-12,-14,-83,-80,35840,-97,32,127,0,0,3476,-131,0,12929,5530,172,57711,-4,0,28,0,448409,0
448437,139,-2155,207,674,323,1401,12544,-68,-30,-330,-224,35855,-89,32,127,0,0,3454,-208,0,12929,5530,172,57721,-4,0,29,0,448440,0
448447,151,-2090,245,538,357,980,12477,-182,-122,-429,-336,35852,-89,32,127,0,0,3429,-252,0,12929,5530,172,57731,-4,0,29,8,448440,0
448457,138,-1924,233,366,393,415,12382,-220,-131,-455,-432,35848,-88,32,127,0,0,3396,-307,0,12929,5530,172,57741,-4,0,29,8,448440,0
448467,232,-1810,249,229,405,111,12262,-265,-91,-424,-416,35832,-83,32,127,0,0,3375,-219,0,12929,5530,172,57751,-4,0,29,7,448440,0
448477,233,-1691,226,76,424,-284,12139,-279,-43,-447,-480,35835,-61,32,127,0,0,3348,-252,0,12929,5530,172,57761,-4,0,29,6,448471,0
448487,202,-1666,233,-19,453,-550,12009,-276,-15,-393,-408,35841,-39,33,127,0,0,3331,-164,0,12929,5530,172,57771,-4,0,29,6,448471,0
448497,233,-1681,269,-97,541,-921,11883,-277,-1,-365,-328,35836,-34,32,127,0,0,3313,-164,0,12929,5530,172,57781,-4,0,28,5,448471,0
448507,198,-1690,288,-149,615,-1154,11776,-227,43,-374,-296,35835,-45,32,127,0,0,3298,-164,0,12929,5530,172,57791,-4,0,28,4,448502,0
448517,204,-1733,322,-251,823,-1565,11680,-204,60,-398,-232,35827,-65,32,127,0,0,3284,-120,0,12929,5530,172,57801,-4,0,27,0,448502,0
448527,-451,-3870,56,-396,841,-1719,11603,-142,58,-382,-240,35829,-80,32,127,0,0,3289,65,0,6740,1576,173,3,1,0,27,0,448502,0
448537,-590,-3491,2098,36,1286,-918,11561,18,119,568,824,35828,-78,32,127,0,0,3414,1384,0,6740,1576,173,13,1,0,26,0,448518,0
448547,-1002,-1339,1562,679,557,-1363,11763,583,590,881,1592,35833,-71,32,127,0,0,3509,911,0,6740,1576,173,23,1,0,26,0,448534,0
448557,-1473,-1709,989,-148,-234,-905,12086,742,697,591,1912,35837,-55,32,127,0,0,3621,1131,0,6740,1576,173,33,1,0,25,0,448534,0
448567,-1310,-1796,610,-362,-183,-913,12475,924,315,772,2584,35829,-23,32,127,0,0,3757,1417,0,6740,1576,173,43,1,0,24,0,448549,0
448577,-1436,-1888,-113,-538,-225,-1637,12962,1137,327,818,3064,35818,-12,32,127,0,0,3886,1252,0,6740,1576,173,53,1,0,24,0,448581,0
448587,-1224,-2007,-228,-553,-138,-1978,13521,1248,323,620,3152,35813,-3,32,127,0,0,3996,1098,0,6740,1576,173,63,1,0,23,0,448581,0
448597,-745,-2137,-47,-391,-80,-2302,14104,1280,159,440,3048,35811,-2,32,127,0,0,4097,988,0,6740,1576,173,73,1,0,22,0,448581,0
448607,-480,-1869,-147,-291,-12,-2445,14676,1250,6,381,2800,35803,3,32,127,0,0,4181,856,0,6740,1576,173,83,1,0,22,0,448612,0
