state_time,accelx,accely,accelz,gyrox,gyroy,gyroz,mot_ang,mot_vel,mot_acc,mot_cur,mot_volt,batt_volt,batt_curr,temperature,status_mn,status_ex,status_re,ank_ang,ank_vel,ank_torque,peak_ank_torque,step_energy,step_count,step_time,gait_state,movement,speed,incline,sys_time,eventFlags
244445,136,-2030,322,-49,-10,-49,13190,9,1,-286,-72,35893,-70,31,127,0,0,3599,-32,0,17044,8095,75,27157,-4,0,97,-5,244500,0
244455,121,-2024,316,-42,-5,-51,13189,-1,-3,-296,-120,35891,-72,31,127,0,0,3603,0,0,17044,8095,75,27167,-4,0,97,-5,244500,0
244465,165,-2030,313,-44,-8,-40,13190,0,2,-313,-56,35891,-75,31,127,0,0,3601,0,0,17044,8095,75,27177,-4,0,97,-5,244500,0
244475,148,-2033,315,-46,-5,-49,13189,6,10,-312,-104,35892,-70,31,127,0,0,3601,0,0,17044,8095,75,27187,-4,0,97,-5,244500,0
244485,132,-2030,323,-43,-14,-49,13192,5,3,-269,-40,35907,-67,31,127,0,0,3601,-10,0,17044,8095,75,27197,-4,0,97,-5,244500,0
244495,165,-2031,317,-49,-7,-53,13190,-4,1,-282,-72,35909,-62,31,127,0,0,3599,-32,0,17044,8095,75,27207,-4,0,97,-5,244500,0
244505,112,-2032,322,-46,-11,-51,13188,0,-4,-356,-24,35908,-74,31,127,0,0,3599,10,0,17044,8095,75,27217,-4,0,97,-5,244500,0
244515,175,-2027,316,-51,-3,-55,13191,0,6,-290,-88,35898,-69,31,127,0,0,3601,-21,0,17044,8095,75,27227,-4,0,97,-5,244515,0
244525,132,-2027,311,-45,-2,-47,13190,-7,5,-245,-80,35891,-67,31,127,0,0,3599,-43,0,17044,8095,75,27237,-4,0,97,-5,244515,0
244535,150,-2021,317,-45,-9,-46,13189,-7,-7,-295,-72,35902,-61,31,127,0,0,3599,-32,0,17044,8095,75,27247,-4,0,97,-5,244562,0
244545,106,-2032,317,-46,-9,-45,13189,-4,0,-348,-24,35911,-84,31,127,0,0,3601,21,0,17044,8095,75,27257,-4,0,97,-5,244562,0
244555,173,-2025,321,-45,-4,-47,13192,0,6,-274,-88,35910,-97,31,127,0,0,3601,-21,0,17044,8095,75,27267,-4,0,97,-5,244562,0
244565,109,-2026,322,-47,-14,-42,13189,-4,-11,-311,-24,35905,-100,31,127,0,0,3599,-21,0,17044,8095,75,27277,-4,0,97,-5,244578,0
244575,166,-2020,319,-46,-8,-51,13189,-8,-2,-366,-96,35886,-92,31,127,0,0,3603,21,0,17044,8095,75,27287,-4,0,97,-5,244609,0
244585,153,-2026,315,-53,-11,-49,13192,18,12,-289,-40,35882,-84,31,127,0,0,3599,-21,0,17044,8095,75,27297,-4,0,97,-5,244609,0
244595,162,-2019,317,-51,-3,-58,13189,-12,0,-285,-120,35882,-75,31,127,0,0,3596,-65,0,17044,8095,75,27307,-4,0,97,-5,244609,0
244605,98,-2027,321,-45,-9,-37,13190,12,-13,-325,-56,35887,-64,31,127,0,0,3599,-43,0,17044,8095,75,27317,-4,0,97,-5,244609,0
244615,150,-2020,320,-46,-8,-49,13190,-4,1,-297,-120,35895,-69,31,127,0,0,3599,-43,0,17044,8095,75,27327,-4,0,97,-5,244609,0
244625,126,-2033,315,-49,-10,-42,13188,-9,-3,-334,-56,35891,-64,31,127,0,0,3599,-21,0,17044,8095,75,27337,-4,0,97,-5,244609,0
244635,141,-2030,318,-49,-9,-44,13188,-2,2,-342,-56,35894,-81,31,127,0,0,3601,10,0,17044,8095,75,27347,-4,0,97,-5,244625,0
244645,150,-2024,316,-52,-11,-43,13189,-7,-3,-339,-56,35902,-75,31,127,0,0,3601,43,0,17044,8095,75,27357,-4,0,97,-5,244672,0
244655,180,-2035,313,-49,-9,-37,13189,-3,4,-349,-56,35907,-95,31,127,0,0,3601,43,0,17044,8095,75,27367,-4,0,97,-5,244672,0
244665,152,-2018,317,-43,-2,-39,13190,-5,2,-313,-104,35900,-97,31,127,0,0,3599,0,0,17044,8095,75,27377,-4,0,97,-5,244672,0
244675,135,-2020,310,-43,-7,-33,13189,-3,-5,-306,-72,35896,-100,31,127,0,0,3599,-21,0,17044,8095,75,27387,-4,0,97,-5,244672,0
244685,114,-2030,318,-41,-3,-32,13189,-1,0,-329,-56,35897,-102,31,127,0,0,3599,-10,0,17044,8095,75,27397,-4,0,97,-5,244672,0
244695,149,-2025,311,-44,-10,-35,13192,11,-1,-278,-88,35909,-96,31,127,0,0,3601,-21,0,17044,8095,75,27407,-4,0,97,-5,244687,0
244705,154,-2029,309,-44,-9,-38,13188,-14,-3,-291,-64,35914,-81,31,127,0,0,3599,0,0,17044,8095,75,27417,-4,0,97,-5,244719,0
244715,158,-2022,313,-43,6,-44,13191,3,-8,-313,-72,35915,-81,31,127,0,0,3601,0,0,17044,8095,75,27427,-4,0,97,-5,244719,0
244725,144,-2026,321,-41,-10,-36,13189,-4,-3,-330,-56,35914,-93,31,127,0,0,3603,43,0,17044,8095,75,27437,-4,0,97,-5,244719,0
244735,134,-2030,319,-36,1,-35,13192,19,-2,-298,-72,35910,-80,31,127,0,0,3603,32,0,17044,8095,75,27447,-4,0,97,-5,244719,0
244745,158,-2021,317,-44,-6,-34,13189,-17,5,-291,-64,35902,-72,31,127,0,0,3599,0,0,17044,8095,75,27457,-4,0,97,-5,244734,0
244755,185,-2028,313,-39,1,-31,13192,20,4,-263,-88,35905,-65,31,127,0,0,3603,-10,0,17044,8095,75,27467,-4,0,97,-5,244750,0
244765,138,-2022,313,-37,-4,-21,13192,0,3,-232,-88,35903,-78,31,127,0,0,3603,0,0,17044,8095,75,27477,-4,0,97,-5,244765,0
244775,136,-2024,315,-39,-6,-20,13191,-4,-4,-250,-72,35909,-81,31,127,0,0,3603,0,0,17044,8095,75,27487,-4,0,97,-5,244765,0
244785,132,-2029,310,-37,-4,-21,13192,8,8,-243,-88,35900,-76,31,127,0,0,3603,-10,0,17044,8095,75,27497,-4,0,97,-5,244765,0
244795,118,-2031,318,-36,-9,-19,13190,-1,0,-255,-80,35902,-74,31,127,0,0,3603,10,0,17044,8095,75,27507,-4,0,97,-5,244781,0
244805,130,-2029,316,-43,-6,-17,13192,3,0,-238,-48,35901,-86,31,127,0,0,3603,-10,0,17044,8095,75,27517,-4,0,97,-5,244797,0
244815,117,-2031,320,-41,-4,-13,13190,-4,5,-249,-48,35911,-96,31,127,0,0,3603,21,0,17044,8095,75,27527,-4,0,97,-5,244828,0
244825,135,-2022,327,-43,-3,-21,13191,-7,2,-246,-16,35920,-101,31,127,0,0,3603,10,0,17044,8095,75,27537,-4,0,97,-5,244844,0
244835,138,-2028,334,-45,-1,-23,13191,-7,-2,-246,-48,35911,-88,31,127,0,0,3605,21,0,17044,8095,75,27547,-4,0,97,-5,244844,0
244845,145,-2027,315,-51,-6,-16,13194,1,4,-187,-32,35909,-76,31,127,0,0,3605,10,0,17044,8095,75,27557,-4,0,97,-5,244844,0
244855,122,-2030,324,-50,-2,-27,13195,7,1,-144,0,35898,-82,31,127,0,0,3605,-21,0,17044,8095,75,27567,-4,0,97,-5,244844,0
244865,100,-2035,329,-50,-11,-21,13196,-6,3,-147,-72,35906,-95,31,127,0,0,3603,-32,0,17044,8095,75,27577,-4,0,97,-5,244844,0
244875,133,-2016,323,-58,-5,-26,13196,11,-3,-136,-40,35908,-95,31,127,0,0,3603,-54,0,17044,8095,75,27587,-4,0,97,-5,244875,0
244885,95,-2031,312,-53,-16,-22,13195,2,-1,-156,0,35911,-90,31,127,0,0,3607,10,0,17044,8095,75,27597,-4,0,97,-5,244875,0
244895,130,-2028,308,-51,-12,-21,13200,1,8,-93,-56,35912,-85,31,127,0,0,3607,0,0,17044,8095,75,27607,-4,0,97,-5,244875,0
244905,132,-2030,314,-50,-9,-22,13201,19,3,-48,-24,35915,-90,31,127,0,0,3607,0,0,17044,8095,75,27617,-4,0,97,-5,244890,0
244915,120,-2025,318,-50,-5,-29,13198,-10,-11,-88,-16,35925,-94,31,127,0,0,3607,0,0,17044,8095,75,27627,-4,0,97,-5,244922,0
244925,128,-2027,315,-54,-10,-30,13200,3,4,-103,-24,35918,-82,31,127,0,0,3607,-10,0,17044,8095,75,27637,-4,0,97,-5,244922,0
244935,119,-2030,311,-53,-11,-38,13199,9,4,-90,-16,35918,-65,31,127,0,0,3607,0,0,17044,8095,75,27647,-4,0,97,-5,244922,0
244945,131,-2026,309,-48,-11,-35,13198,-7,0,-90,16,35907,-59,31,127,0,0,3610,21,0,17044,8095,75,27657,-4,0,97,-5,244922,0
244955,137,-2025,308,-42,-6,-32,13202,8,3,-36,0,35915,-67,31,127,0,0,3607,-21,0,17044,8095,75,27667,-4,0,97,-5,244953,0
244965,125,-2029,312,-42,-1,-29,13201,4,1,-26,0,35909,-65,31,127,0,0,3607,-32,0,17044,8095,75,27677,-4,0,97,-5,244968,0
244975,136,-2020,308,-38,-7,-28,13203,5,-6,-48,0,35910,-73,31,127,0,0,3610,0,0,17044,8095,75,27687,-4,0,97,-5,244968,0
244985,128,-2022,302,-35,-9,-26,13202,-3,8,-5,0,35909,-88,31,127,0,0,3612,21,0,17044,8095,75,27697,-4,0,97,-5,244984,0
244995,120,-2025,308,-31,-7,-21,13203,-1,-1,7,32,35910,-93,31,127,0,0,3610,0,0,17044,8095,75,27707,-4,0,97,-5,244984,0
245005,118,-2029,310,-30,-4,-31,13204,9,0,25,16,35908,-86,31,127,0,0,3612,-10,0,17044,8095,75,27717,-4,0,97,-5,245015,0
245015,117,-2024,314,-26,-8,-32,13205,13,3,96,32,35916,-98,31,127,0,0,3614,0,0,17044,8095,75,27727,-4,0,97,-5,245015,0
245025,122,-2032,318,-28,-8,-30,13208,-4,2,71,0,35913,-114,31,127,0,0,3612,0,0,17044,8095,75,27737,-4,0,97,-5,245015,0
245035,122,-2022,318,-25,-5,-30,13207,-12,-4,32,24,35921,-117,31,127,0,0,3612,10,0,17044,8095,75,27747,-4,0,97,-5,245031,0
245045,121,-2031,323,-29,-5,-39,13210,16,3,78,-8,35910,-91,31,127,0,0,3614,0,0,17044,8095,75,27757,-4,0,97,-5,245031,0
245055,105,-2026,325,-26,-6,-40,13210,3,7,106,32,35905,-83,31,127,0,0,3614,0,0,17044,8095,75,27767,-4,0,97,-5,245062,0
245065,107,-2027,314,-31,0,-41,13210,7,-1,144,-56,35912,-89,31,127,0,0,3614,-32,0,17044,8095,75,27777,-4,0,97,-5,245062,0
245075,90,-2030,318,-28,-5,-40,13210,1,3,88,40,35919,-95,31,127,0,0,3612,-21,0,17044,8095,75,27787,-4,0,97,-5,245062,0
245085,94,-2026,321,-31,-7,-54,13209,4,-2,61,-40,35917,-91,31,127,0,0,3614,10,0,17044,8095,75,27797,-4,0,97,-5,245093,0
245095,120,-2022,313,-28,-12,-42,13211,7,10,92,8,35908,-78,31,127,0,0,3614,10,0,17044,8095,75,27807,-4,0,97,-5,245093,0
245105,143,-2022,321,-35,-6,-55,13210,2,3,79,-40,35904,-80,31,127,0,0,3614,0,0,17044,8095,75,27817,-4,0,97,-5,245093,0
245115,73,-2036,324,-28,-6,-49,13209,8,2,56,40,35908,-84,31,127,0,0,3612,10,0,17044,8095,75,27827,-4,0,97,-5,245093,0
245125,101,-2027,336,-41,-3,-67,13207,-12,3,54,0,35906,-83,31,127,0,0,3614,21,0,17044,8095,75,27837,-4,0,97,-5,245125,0
245135,103,-2029,324,-41,-8,-52,13210,0,6,74,-8,35903,-79,31,127,0,0,3610,-21,0,17044,8095,75,27847,-4,0,97,-5,245125,0
245145,122,-2024,321,-47,-6,-67,13209,-2,-1,45,0,35904,-78,31,127,0,0,3612,0,0,17044,8095,75,27857,-4,0,97,-5,245125,0
245155,123,-2024,333,-45,-11,-66,13212,2,7,81,-8,35910,-98,31,127,0,0,3612,-32,0,17044,8095,75,27867,-4,0,97,-5,245140,0
245165,112,-2033,328,-49,-9,-71,13207,-6,-5,48,0,35915,-112,31,127,0,0,3612,-10,0,17044,8095,75,27877,-4,0,97,-5,245203,0
245175,126,-2019,336,-58,-17,-77,13209,-5,1,13,8,35920,-97,31,127,0,0,3612,10,0,17044,8095,75,27887,-4,0,97,-5,245203,0
245185,145,-2030,328,-59,-9,-78,13209,-1,5,37,40,35912,-83,31,127,0,0,3612,0,0,17044,8095,75,27897,-4,0,97,-5,245203,0
245195,143,-2024,320,-62,-19,-77,13209,2,-3,5,-24,35903,-89,31,127,0,0,3610,-32,0,17044,8095,75,27907,-4,0,97,-5,245203,0
245205,106,-2022,317,-61,-16,-76,13208,7,1,9,8,35904,-104,31,127,0,0,3612,0,0,17044,8095,75,27917,-4,0,97,-5,245203,0
245215,130,-2034,321,-62,-19,-79,13208,-9,4,15,8,35903,-106,31,127,0,0,3610,-21,0,17044,8095,75,27927,-4,0,97,-5,245218,0
245225,148,-2023,311,-57,-13,-84,13207,-8,-2,-41,-8,35904,-79,31,127,0,0,3610,10,0,17044,8095,75,27937,-4,0,97,-5,245218,0
245235,143,-2022,310,-62,-15,-77,13207,-1,0,-44,-8,35914,-77,31,127,0,0,3610,0,0,17044,8095,75,27947,-4,0,97,-5,245218,0
245245,135,-2025,318,-60,-12,-79,13207,4,1,-58,-8,35936,-86,31,127,0,0,3610,-10,0,17044,8095,75,27957,-4,0,97,-5,245234,0
245255,123,-2028,318,-60,-4,-85,13204,-2,-12,-99,-40,35934,-85,31,127,0,0,3607,-10,0,17044,8095,75,27967,-4,0,97,-5,245234,0
245265,130,-2028,315,-59,-10,-77,13203,-5,-3,-130,8,35921,-62,31,127,0,0,3607,0,0,17044,8095,75,27977,-4,0,97,-5,245265,0
245275,152,-2026,320,-59,-7,-71,13204,-7,4,-168,-64,35912,-68,31,127,0,0,3607,0,0,17044,8095,75,27987,-4,0,97,-5,245265,0
245285,164,-2026,313,-56,-6,-60,13202,-2,-1,-135,-64,35906,-84,31,127,0,0,3603,-32,0,17044,8095,75,27997,-4,0,97,-5,245312,0
245295,151,-2021,309,-58,-4,-67,13200,-9,-1,-218,-104,35920,-105,31,127,0,0,3603,-21,0,17044,8095,75,28007,-4,0,97,-5,245312,0
245305,146,-2031,317,-59,-5,-56,13200,4,-2,-204,-112,35904,-94,31,127,0,0,3607,10,0,17044,8095,75,28017,-4,0,97,-5,245328,0
245315,100,-2026,318,-53,-7,-55,13199,1,4,-223,8,35903,-97,31,127,0,0,3605,21,0,17044,8095,75,28027,-4,0,97,-5,245359,0
245325,146,-2022,311,-52,-4,-59,13197,-9,-5,-242,-72,35891,-101,31,127,0,0,3603,0,0,17044,8095,75,28037,-4,0,97,-5,245359,0
245335,119,-2032,318,-51,-6,-59,13197,0,-4,-309,-88,35895,-98,31,127,0,0,3603,10,0,17044,8095,75,28047,-4,0,97,-5,245359,0
245345,142,-2029,309,-53,-1,-50,13197,4,7,-279,-48,35895,-85,31,127,0,0,3601,0,0,17044,8095,75,28057,-4,0,97,-5,245359,0
245355,154,-2023,303,-54,-6,-53,13197,0,3,-268,-96,35896,-69,31,127,0,0,3603,0,0,17044,8095,75,28067,-4,0,97,-5,245359,0
245365,147,-2023,309,-41,-5,-54,13196,-2,-4,-304,-80,35897,-79,31,127,0,0,3601,0,0,17044,8095,75,28077,-4,0,97,-5,245359,0
245375,137,-2031,310,-44,0,-56,13193,-8,-10,-311,-88,35903,-78,31,127,0,0,3601,0,0,17044,8095,75,28087,-4,0,97,-5,245359,0
245385,143,-2026,315,-44,-6,-57,13192,-15,6,-356,-64,35904,-85,31,127,0,0,3601,32,0,17044,8095,75,28097,-4,0,97,-5,245375,0
245395,136,-2029,308,-37,-3,-50,13193,1,-2,-331,-80,35910,-71,31,127,0,0,3599,0,0,17044,8095,75,28107,-4,0,97,-5,245406,0
245405,146,-2029,313,-34,-3,-51,13190,-8,2,-376,-96,35908,-79,31,127,0,0,3599,0,0,17044,8095,75,28117,-4,0,97,-5,245406,0
245415,142,-2029,312,-36,-5,-38,13189,4,-3,-382,-96,35911,-81,31,127,0,0,3599,21,0,17044,8095,75,28127,-4,0,97,-5,245406,0
245425,127,-2028,314,-38,-9,-36,13191,10,15,-382,-120,35900,-76,31,127,0,0,3596,-32,0,17044,8095,75,28137,-4,0,97,-5,245421,0
245435,143,-2029,309,-34,-8,-35,13187,5,-3,-333,-64,35888,-73,31,127,0,0,3599,-10,0,17044,8095,75,28147,-4,0,97,-5,245421,0
245445,130,-2026,310,-32,-8,-32,13186,-20,-1,-393,-120,35902,-80,31,127,0,0,3599,21,0,17044,8095,75,28157,-4,0,97,-5,245454,0
245455,133,-2032,309,-38,-5,-30,13186,11,-2,-366,-72,35917,-84,31,127,0,0,3599,21,0,17044,8095,75,28167,-4,0,97,-5,245454,0
245465,156,-2025,306,-28,-1,-31,13187,4,5,-344,-88,35920,-94,31,127,0,0,3599,0,0,17044,8095,75,28177,-4,0,97,-5,245454,0
245475,142,-2028,300,-28,-2,-20,13187,0,-2,-292,-80,35903,-81,31,127,0,0,3599,-10,0,17044,8095,75,28187,-4,0,97,-5,245454,0
245485,143,-2017,308,-25,4,-11,13187,-12,-3,-289,-80,35891,-68,31,127,0,0,3601,10,0,17044,8095,75,28197,-4,0,97,-5,245485,0
245495,134,-2024,306,-17,10,-6,13189,5,-4,-283,-72,35894,-75,31,127,0,0,3599,-43,0,17044,8095,75,28207,-4,0,97,-5,245485,0
245505,138,-2027,307,-17,7,-5,13186,-6,-8,-276,-72,35899,-80,31,127,0,0,3601,21,0,17044,8095,75,28217,-4,0,97,-5,245485,0
245515,151,-2022,314,-13,9,-3,13190,-7,0,-260,-80,35904,-82,31,127,0,0,3603,10,0,17044,8095,75,28227,-4,0,97,-5,245501,0
245525,140,-2031,321,-13,6,9,13189,7,-3,-295,-24,35897,-73,31,127,0,0,3601,21,0,17044,8095,75,28237,-4,0,97,-5,245517,0
245535,154,-2023,328,-22,10,10,13190,1,4,-289,-104,35896,-80,31,127,0,0,3601,10,0,17044,8095,75,28247,-4,0,97,-5,245548,0
245545,123,-2034,333,-24,4,6,13189,8,1,-256,-32,35910,-96,31,127,0,0,3601,-10,0,17044,8095,75,28257,-4,0,97,-5,245548,0
245555,130,-2028,341,-30,-4,2,13189,-5,1,-239,-8,35900,-102,31,127,0,0,3605,21,0,17044,8095,75,28267,-4,0,97,-5,245564,0
245565,124,-2028,325,-32,-9,7,13195,8,6,-172,-32,35896,-83,31,127,0,0,3607,32,0,17044,8095,75,28277,-4,0,97,-5,245564,0
245575,108,-2028,321,-32,-8,4,13196,-7,4,-135,0,35881,-67,31,127,0,0,3605,32,0,17044,8095,75,28287,-4,0,97,-5,245564,0
245585,137,-2021,302,-35,-2,-18,13197,0,-8,-121,-48,35900,-60,31,127,0,0,3607,21,0,17044,8095,75,28297,-4,0,97,-5,245564,0
245595,106,-2033,315,-26,5,-19,13200,15,0,-47,-24,35908,-73,31,127,0,0,3607,0,0,17044,8095,75,28307,-4,0,97,-5,245595,0
245605,119,-2016,312,-25,-1,-29,13198,-7,-5,-85,-16,35907,-67,31,127,0,0,3607,0,0,17044,8095,75,28317,-4,0,97,-5,245610,0
245615,138,-2019,312,-28,2,-23,13199,-9,-3,-94,-16,35897,-78,31,127,0,0,3605,-21,0,17044,8095,75,28327,-4,0,97,-5,245610,0
245625,130,-2021,311,-23,2,-26,13197,0,5,-107,-16,35888,-78,31,127,0,0,3610,32,0,17044,8095,75,28337,-4,0,97,-5,245610,0
245635,123,-2024,314,-19,3,-11,13201,5,1,-47,-72,35901,-91,31,127,0,0,3607,-21,0,17044,8095,75,28347,-4,0,97,-5,245626,0
245645,114,-2019,317,-23,-3,-14,13200,27,-5,-43,0,35907,-88,31,127,0,0,3607,-10,0,17044,8095,75,28357,-4,0,97,-5,245642,0
245655,141,-2016,315,-18,1,-18,13200,-3,-2,-81,-24,35910,-75,31,127,0,0,3607,-21,0,17044,8095,75,28367,-4,0,97,-5,245642,0
245665,125,-2031,320,-18,1,-11,13200,3,-5,-76,-32,35905,-77,31,127,0,0,3610,10,0,17044,8095,75,28377,-4,0,97,-5,245751,0
245675,107,-2032,317,-12,-2,-15,13201,5,2,-22,-32,35900,-79,31,127,0,0,3610,0,0,17044,8095,75,28387,-4,0,97,-5,245767,0
245685,116,-2027,316,-10,6,-13,13202,0,-1,-32,8,35898,-83,31,127,0,0,3607,-10,0,17044,8095,75,28397,-4,0,97,-5,245767,0
245695,130,-2029,317,-15,-2,-19,13202,1,2,-31,0,35895,-76,31,127,0,0,3610,10,0,17044,8095,75,28407,-4,0,97,-5,245767,0
245705,110,-2028,331,-12,0,-24,13203,0,8,-24,8,35887,-80,31,127,0,0,3610,-10,0,17044,8095,75,28417,-4,0,97,-5,245767,0
245715,107,-2029,333,-17,0,-29,13204,12,5,-13,-8,35890,-85,31,127,0,0,3610,0,0,17044,8095,75,28427,-4,0,97,-5,245782,0
245725,105,-2026,335,-18,-7,-30,13204,14,1,3,-8,35890,-89,31,127,0,0,3612,0,0,17044,8095,75,28437,-4,0,97,-5,245782,0
245735,99,-2029,334,-16,1,-37,13203,4,1,11,0,35888,-76,31,127,0,0,3610,10,0,17044,8095,75,28447,-4,0,97,-5,245782,0
245745,132,-2023,334,-25,6,-46,13203,-6,2,-2,0,35886,-77,31,127,0,0,3610,21,0,17044,8095,75,28457,-4,0,97,-5,245782,0
245755,143,-2032,329,-29,-3,-42,13206,1,6,24,16,35890,-81,31,127,0,0,3610,10,0,17044,8095,75,28467,-4,0,97,-5,245782,0
245765,97,-2019,340,-35,-9,-47,13206,2,1,15,32,35893,-84,31,127,0,0,3610,0,0,17044,8095,75,28477,-4,0,97,-5,245782,0
245775,150,-2026,328,-36,-7,-48,13205,2,1,37,16,35896,-83,31,127,0,0,3610,-21,0,17044,8095,75,28487,-4,0,97,-5,245782,0
245785,90,-2030,331,-42,-6,-50,13205,1,-5,2,32,35900,-80,31,127,0,0,3610,-21,0,17044,8095,75,28497,-4,0,97,-5,245782,0
245795,126,-2026,329,-42,-5,-56,13203,-6,-8,-44,-8,35897,-92,31,127,0,0,3610,10,0,17044,8095,75,28507,-4,0,97,-5,245782,0
245805,140,-2038,326,-49,-12,-54,13205,3,4,-20,-8,35918,-97,31,127,0,0,3610,10,0,17044,8095,75,28517,-4,0,97,-5,245782,0
245815,133,-2042,337,-51,-9,-53,13204,4,-4,-15,32,35940,-88,31,127,0,0,3610,0,0,17044,8095,75,28527,-4,0,97,-5,245814,0
245825,106,-2032,334,-50,-10,-52,13205,7,0,9,16,35949,-73,31,127,0,0,3612,-10,0,17044,8095,75,28537,-4,0,97,-5,245829,0
245835,105,-2029,338,-57,-16,-51,13205,-1,-2,7,-16,35928,-77,31,127,0,0,3612,10,0,17044,8095,75,28547,-4,0,97,-5,245829,0
245845,130,-2025,331,-65,-11,-48,13204,-1,-3,-12,32,35901,-94,31,127,0,0,3610,10,0,17044,8095,75,28557,-4,0,97,-5,245829,0
245855,162,-2025,330,-70,-9,-56,13203,-11,0,-5,32,35899,-103,31,127,0,0,3610,-10,0,17044,8095,75,28567,-4,0,97,-5,245860,0
245865,130,-2021,325,-66,-11,-55,13205,0,-2,4,16,35902,-87,31,127,0,0,3610,0,0,17044,8095,75,28577,-4,0,97,-5,245860,0
245875,155,-2033,321,-69,-10,-48,13204,-5,-5,-2,-16,35900,-79,31,127,0,0,3612,10,0,17044,8095,75,28587,-4,0,97,-5,245860,0
245885,151,-2032,315,-66,-11,-36,13206,5,0,11,-16,35906,-82,31,127,0,0,3610,-10,0,17044,8095,75,28597,-4,0,97,-5,245860,0
245895,126,-2024,318,-60,-11,-37,13204,0,-5,-20,32,35911,-86,31,127,0,0,3610,0,0,17044,8095,75,28607,-4,0,97,-5,245907,0
245905,122,-2026,320,-61,-10,-29,13203,-15,-3,-42,32,35912,-89,31,127,0,0,3612,21,0,17044,8095,75,28617,-4,0,97,-5,245907,0
245915,139,-2027,322,-56,-5,-24,13206,2,8,-6,24,35910,-92,31,127,0,0,3610,-21,0,17044,8095,75,28627,-4,0,97,-5,245923,0
245925,113,-2033,326,-58,0,-18,13206,6,0,5,-16,35902,-90,31,127,0,0,3610,-21,0,17044,8095,75,28637,-4,0,97,-5,245923,0
245935,117,-2022,320,-57,-12,-16,13206,6,-6,32,16,35902,-85,31,127,0,0,3610,-21,0,17044,8095,75,28647,-4,0,97,-5,245923,0
245945,128,-2032,317,-56,-7,-15,13204,-3,2,-23,32,35904,-88,31,127,0,0,3610,0,0,17044,8095,75,28657,-4,0,97,-5,245923,0
245955,152,-2023,318,-57,-9,-16,13207,15,-1,36,0,35910,-93,31,127,0,0,3612,0,0,17044,8095,75,28667,-4,0,97,-5,245954,0
245965,138,-2030,329,-57,-9,4,13206,-9,2,33,64,35905,-92,31,127,0,0,3610,0,0,17044,8095,75,28677,-4,0,97,-5,245954,0
245975,145,-2028,320,-56,-22,40,13206,-1,-5,31,0,35908,-98,31,127,0,0,3614,54,0,17044,8095,75,28687,-4,0,97,-5,245970,0
245985,167,-2020,315,-56,-27,54,13210,1,3,108,64,35909,-88,31,127,0,0,3618,54,0,17044,8095,75,28697,-4,0,97,-5,245970,0
245995,135,-2026,311,-50,-23,61,13218,30,7,250,64,35921,-107,31,127,0,0,3618,-21,0,17044,8095,75,28707,-4,0,97,-5,245985,0
246005,152,-2027,303,-42,-15,78,13223,7,4,215,72,35919,-104,31,127,0,0,3623,54,0,17044,8095,75,28717,-4,0,97,-5,246001,0
246015,131,-2025,303,-42,-19,94,13242,58,16,291,88,35923,-108,31,127,0,0,3627,32,0,17044,8095,75,28727,-4,0,97,-5,246001,0
246025,156,-2023,309,-37,-26,124,13285,84,78,114,88,35916,-101,31,127,0,0,3632,54,0,17044,8095,75,28737,-4,0,97,-5,246017,0
246035,138,-2028,310,-39,-27,111,13294,7,-17,251,112,35917,-104,31,127,0,0,3638,54,0,17044,8095,75,28747,-4,0,97,-5,246017,0
246045,111,-2033,317,-30,-10,111,13308,35,-59,350,120,35916,-107,31,127,0,0,3643,76,0,17044,8095,75,28757,-4,0,97,-5,246032,0
246055,89,-2025,321,-32,-13,111,13345,74,52,283,96,35927,-109,31,127,0,0,3645,10,0,17044,8095,75,28767,-4,0,97,-5,246032,0
246065,105,-2019,330,-35,-20,101,13357,8,-4,303,112,35925,-86,31,127,0,0,3649,43,0,17044,8095,75,28777,-4,0,97,-5,246048,0
246075,88,-2034,327,-40,-17,103,13372,43,-42,354,104,35924,-73,31,127,0,0,3656,76,0,17044,8095,75,28787,-4,0,97,-5,246063,0
246085,93,-2029,321,-41,-23,102,13411,95,57,279,96,35918,-67,31,127,0,0,3658,0,0,17044,8095,75,28797,-4,0,97,-5,246063,0
246095,101,-2029,321,-36,-10,79,13444,63,27,197,80,35915,-67,31,127,0,0,3662,10,0,17044,8095,75,28807,-4,0,97,-5,246079,0
246105,121,-2029,322,-44,-15,69,13460,15,-50,138,120,35918,-65,31,127,0,0,3671,109,0,17044,8095,75,28817,-4,0,97,-5,246095,0
246115,35,-2031,312,-40,-16,59,13465,21,-52,387,128,35912,-55,31,127,0,0,3671,10,0,17044,8095,75,28827,-4,0,97,-5,246095,0
246125,91,-2026,316,-42,-7,36,13471,3,-8,391,144,35915,-66,31,127,0,0,3671,-10,0,17044,8095,75,28837,-4,0,97,-5,246126,0
246135,102,-2037,321,-35,-11,37,13475,3,-8,427,120,35908,-78,31,127,0,0,3678,21,0,17044,8095,75,28847,-4,0,97,-5,246142,0
246145,98,-2027,320,-35,-9,38,13487,32,10,462,160,35910,-70,31,127,0,0,3678,21,0,17044,8095,75,28857,-4,0,97,-5,246142,0
246155,98,-2027,328,-34,-6,35,13519,71,52,294,96,35898,-47,31,127,0,0,3680,21,0,17044,8095,75,28867,-4,0,97,-5,246142,0
246165,90,-2020,326,-47,-17,34,13530,6,-6,306,128,35902,-43,31,127,0,0,3682,32,0,17044,8095,75,28877,-4,0,97,-5,246157,0
246175,72,-2024,321,-43,-4,18,13530,6,-59,383,128,35915,-61,31,127,0,0,3682,0,0,17044,8095,75,28887,-4,0,97,-5,246173,0
246185,81,-2026,327,-47,-2,4,13533,9,-8,410,136,35925,-72,31,127,0,0,3687,54,0,17044,8095,75,28897,-4,0,97,-5,246173,0
246195,66,-2031,330,-52,-8,-8,13542,18,13,422,72,35933,-57,31,127,0,0,3687,43,0,17044,8095,75,28907,-4,0,97,-5,246204,0
246205,54,-2027,336,-56,-3,-30,13561,65,33,369,136,35912,-44,31,127,0,0,3687,-21,0,17044,8095,75,28917,-4,0,97,-5,246204,0
246215,99,-2026,335,-63,-7,-40,13600,74,59,136,16,35908,-41,31,127,0,0,3689,-10,0,17044,8095,75,28927,-4,0,97,-5,246204,0
246225,79,-2027,343,-74,-15,-50,13596,-23,-59,160,24,35904,-43,31,127,0,0,3689,32,0,17044,8095,75,28937,-4,0,97,-5,246204,0
246235,55,-2025,340,-77,1,-60,13599,23,-59,199,48,35914,-29,31,127,0,0,3689,-10,0,17044,8095,75,28947,-4,0,97,-5,246235,0
246245,83,-2025,342,-94,-16,-62,13596,-16,10,105,48,35916,-29,31,127,0,0,3687,10,0,17044,8095,75,28957,-4,0,97,-5,246235,0
246255,74,-2023,334,-97,-12,-64,13594,-7,-12,102,40,35913,-21,31,127,0,0,3684,21,0,17044,8095,75,28967,-4,0,97,-5,246235,0
246265,74,-2025,315,-96,-19,-88,13596,2,10,144,24,35908,-12,31,127,0,0,3687,-10,0,17044,8095,75,28977,-4,0,97,-5,246251,0
246275,81,-2030,324,-99,-14,-97,13596,3,1,150,32,35909,-15,31,127,0,0,3684,-65,0,17044,8095,75,28987,-4,0,97,-5,246267,0
246285,47,-2031,320,-100,-13,-112,13592,-1,-10,44,32,35909,-9,31,127,0,0,3684,-10,0,17044,8095,75,28997,-4,0,97,-5,246282,0
246295,86,-2037,316,-97,-4,-133,13592,-1,3,25,-16,35906,-19,31,127,0,0,3680,-54,0,17044,8095,75,29007,-4,0,97,-5,246282,0
246305,84,-2030,316,-103,-2,-139,13586,-14,-6,-66,-16,35897,-30,31,127,0,0,3676,-54,0,17044,8095,75,29017,-4,0,97,-5,246282,0
246315,101,-2032,311,-100,-3,-139,13580,-16,-13,-175,-88,35910,-46,31,127,0,0,3671,-65,0,17044,8095,75,29027,-4,0,97,-5,246313,0
246325,112,-2028,312,-102,-2,-137,13572,-17,-2,-246,-56,35907,-40,31,127,0,0,3671,-21,0,17044,8095,75,29037,-4,0,97,-5,246313,0
246335,115,-2029,320,-101,-8,-129,13571,-1,7,-280,-112,35906,-29,31,127,0,0,3667,-76,0,17044,8095,75,29047,-4,0,97,-5,246313,0
246345,114,-2035,318,-98,-6,-122,13562,-29,-4,-345,-160,35910,-30,31,127,0,0,3667,-43,0,17044,8095,75,29057,-4,0,97,-5,246345,0
246355,118,-2031,323,-96,-4,-118,13541,-52,-44,-265,-56,35918,-40,31,127,0,0,3665,-10,0,17044,8095,75,29067,-4,0,97,-5,246376,0
246365,92,-2031,308,-101,-8,-117,13506,-71,-42,-105,-80,35918,-43,31,127,0,0,3660,-54,0,17044,8095,75,29077,-4,0,97,-5,246376,0
246375,125,-2028,297,-102,-3,-111,13486,-30,1,-70,-32,35906,-26,31,127,0,0,3658,-54,0,17044,8095,75,29087,-4,0,97,-5,246376,0
246385,116,-2025,291,-90,-6,-103,13471,-30,34,-21,-32,35889,-29,31,127,0,0,3658,-32,0,17044,8095,75,29097,-4,0,97,-5,246376,0
246395,121,-2029,290,-81,-8,-87,13467,-1,34,-89,-24,35886,-44,31,127,0,0,3656,-21,0,17044,8095,75,29107,-4,0,97,-5,246392,0
246405,106,-2029,296,-68,2,-80,13457,-10,8,-93,-56,35898,-49,31,127,0,0,3656,0,0,17044,8095,75,29117,-4,0,97,-5,246392,0
246415,131,-2023,300,-68,-5,-65,13458,4,11,-144,-40,35916,-51,31,127,0,0,3654,10,0,17044,8095,75,29127,-4,0,97,-5,246470,0
246425,131,-2030,307,-65,-10,-53,13458,4,21,-139,-40,35922,-56,31,127,0,0,3654,-32,0,17044,8095,75,29137,-4,0,97,-5,246470,0
246435,109,-2030,309,-65,-11,-43,13453,-11,-5,-174,-32,35917,-69,31,127,0,0,3654,-10,0,17044,8095,75,29147,-4,0,97,-5,246485,0
246445,118,-2027,300,-56,-12,-29,13453,-5,1,-201,16,35900,-69,31,127,0,0,3654,21,0,17044,8095,75,29157,-4,0,97,-5,246485,0
246455,160,-2028,294,-58,-9,-25,13455,-11,6,-125,-64,35886,-53,31,127,0,0,3654,10,0,17044,8095,75,29167,-4,0,97,-5,246485,0
246465,95,-2025,299,-48,-16,-23,13455,-3,0,-185,-64,35888,-42,31,127,0,0,3656,43,0,17044,8095,75,29177,-4,0,97,-5,246501,0
246475,77,-2029,302,-49,-3,-26,13457,11,2,-132,-40,35887,-48,31,127,0,0,3654,0,0,17044,8095,75,29187,-4,0,97,-5,246501,0
246485,96,-2027,307,-43,-9,-32,13454,1,3,-162,0,35901,-56,31,127,0,0,3654,0,0,17044,8095,75,29197,-4,0,97,-5,246501,0
246495,126,-2022,303,-41,-8,-40,13456,1,-2,-105,-48,35912,-56,31,127,0,0,3654,-32,0,17044,8095,75,29207,-4,0,97,-5,246501,0
246505,99,-2030,301,-40,-6,-24,13455,8,2,-96,-48,35919,-47,31,127,0,0,3654,-21,0,17044,8095,75,29217,-4,0,97,-5,246501,0
246515,113,-2027,318,-36,-10,-26,13454,-9,-10,-139,-32,35928,-63,31,127,0,0,3656,32,0,17044,8095,75,29227,-4,0,97,-5,246501,0
246525,115,-2036,307,-36,-6,-28,13459,17,10,-79,-56,35924,-75,31,127,0,0,3656,-10,0,17044,8095,75,29237,-4,0,97,-5,246532,0
246535,58,-2040,305,-37,-11,-29,13457,22,-1,-47,-88,35920,-74,31,127,0,0,3658,0,0,17044,8095,75,29247,-4,0,97,-5,246532,0
246545,127,-2031,298,-31,1,-31,13457,11,-5,-11,8,35900,-53,31,127,0,0,3656,-10,0,17044,8095,75,29257,-4,0,97,-5,246548,0
246555,113,-2028,302,-31,0,-37,13456,5,-3,-67,-16,35890,-41,31,127,0,0,3656,0,0,17044,8095,75,29267,-4,0,97,-5,246548,0
246565,96,-2032,312,-27,-3,-32,13458,0,-1,-48,-56,35896,-47,31,127,0,0,3658,10,0,17044,8095,75,29277,-4,0,97,-5,246548,0
246575,82,-2026,306,-28,-5,-23,13458,5,2,-13,-64,35901,-51,31,127,0,0,3656,-10,0,17044,8095,75,29287,-4,0,97,-5,246563,0
246585,87,-2033,312,-28,-2,-23,13457,9,6,-20,16,35902,-54,31,127,0,0,3660,21,0,17044,8095,75,29297,-4,0,97,-5,246563,0
246595,96,-2031,317,-29,-9,-25,13459,-2,0,9,40,35896,-46,31,127,0,0,3660,21,0,17044,8095,75,29307,-4,0,97,-5,246595,0
246605,102,-2031,311,-27,-10,-14,13461,6,5,58,-16,35911,-67,31,127,0,0,3658,-32,0,17044,8095,75,29317,-4,0,97,-5,246595,0
246615,106,-2036,303,-26,-13,-20,13460,6,1,58,-8,35911,-80,31,127,0,0,3660,10,0,17044,8095,75,29327,-4,0,97,-5,246595,0
246625,115,-2024,296,-18,-3,-15,13461,-4,1,106,8,35915,-73,31,127,0,0,3662,10,0,17044,8095,75,29337,-4,0,97,-5,246626,0
246635,98,-2029,293,-15,-2,-12,13463,9,0,133,40,35909,-49,31,127,0,0,3665,21,0,17044,8095,75,29347,-4,0,97,-5,246626,0
246645,120,-2018,301,-9,-7,-6,13464,5,3,181,64,35908,-41,31,127,0,0,3667,54,0,17044,8095,75,29357,-4,0,97,-5,246626,0
246655,110,-2029,300,-7,-7,5,13472,21,2,261,72,35908,-53,31,127,0,0,3667,0,0,17044,8095,75,29367,-4,0,97,-5,246641,0
246665,104,-2028,306,5,-6,11,13472,3,1,276,104,35913,-63,31,127,0,0,3669,10,0,17044,8095,75,29377,-4,0,97,-5,246657,0
246675,112,-2033,309,5,-3,14,13474,5,-4,325,112,35912,-52,31,127,0,0,3671,21,0,17044,8095,75,29387,-4,0,97,-5,246673,0
246685,109,-2032,321,-3,-8,18,13482,14,10,322,96,35912,-46,31,127,0,0,3671,0,0,17044,8095,75,29397,-4,0,97,-5,246673,0
246695,115,-2032,314,0,2,13,13491,31,13,344,88,35904,-56,31,127,0,0,3676,0,0,17044,8095,75,29407,-4,0,97,-5,246688,0
246705,116,-2027,312,2,-3,31,13517,61,35,225,72,35912,-61,31,127,0,0,3678,54,0,17044,8095,75,29417,-4,0,97,-5,246704,0
246715,118,-2020,308,1,-11,38,13528,-2,7,238,120,35904,-51,31,127,0,0,3682,76,0,17044,8095,75,29427,-4,0,97,-5,246704,0
246725,80,-2031,320,3,-5,43,13529,5,-49,314,72,35909,-36,31,127,0,0,3682,43,0,17044,8095,75,29437,-4,0,97,-5,246720,0
246735,78,-2027,317,4,-8,26,13533,21,-10,408,136,35912,-51,31,127,0,0,3687,32,0,17044,8095,75,29447,-4,0,97,-5,246720,0
246745,90,-2031,328,-2,-5,19,13546,39,30,392,104,35925,-60,31,127,0,0,3687,21,0,17044,8095,75,29457,-4,0,97,-5,246735,0
246755,67,-2027,323,-14,0,11,13583,98,69,241,56,35923,-54,31,127,0,0,3687,0,0,17044,8095,75,29467,-4,0,97,-5,246751,0
246765,91,-2028,327,-13,-9,2,13609,24,27,136,104,35905,-32,31,127,0,0,3691,10,0,17044,8095,75,29477,-4,0,97,-5,246766,0
246775,58,-2030,321,-14,-3,-8,13615,11,-63,190,48,35904,-17,31,127,0,0,3691,-10,0,17044,8095,75,29487,-4,0,97,-5,246766,0
246785,63,-2028,327,-20,-4,-24,13614,7,-43,169,80,35907,-15,31,127,0,0,3693,32,0,17044,8095,75,29497,-4,0,97,-5,246766,0
246795,81,-2024,327,-27,1,-36,13624,24,5,174,48,35902,-6,31,127,0,0,3691,0,0,17044,8095,75,29507,-4,0,97,-5,246782,0
246805,54,-2028,331,-36,-8,-42,13635,24,22,92,32,35891,-3,31,127,0,0,3693,-21,0,17044,8095,75,29517,-4,0,97,-5,246813,0
246815,53,-2036,326,-37,-8,-49,13636,0,-14,99,24,35885,2,31,127,0,0,3693,0,0,17044,8095,75,29527,-4,0,97,-5,246829,0
246825,80,-2030,322,-40,-2,-61,13637,6,-23,110,24,35887,-7,31,127,0,0,3693,-10,0,17044,8095,75,29537,-4,0,97,-5,246829,0
246835,71,-2029,316,-38,-2,-66,13635,2,-1,75,24,35898,-15,31,127,0,0,3691,0,0,17044,8095,75,29547,-4,0,97,-5,246829,0
246845,101,-2026,319,-40,-9,-73,13635,-3,3,63,24,35898,-11,31,127,0,0,3691,-10,0,17044,8095,75,29557,-4,0,97,-5,246829,0
246855,98,-2021,321,-40,-7,-67,13636,5,-2,25,0,35895,10,31,127,0,0,3693,10,0,17044,8095,75,29567,-4,0,97,-5,246845,0
246865,108,-2030,326,-39,-13,-57,13638,4,5,81,0,35915,6,31,127,0,0,3689,-54,0,17044,8095,75,29577,-4,0,97,-5,246876,0
246875,130,-2024,316,-45,-7,-63,13635,11,-1,72,24,35926,0,31,127,0,0,3689,-54,0,17044,8095,75,29587,-4,0,97,-5,246876,0
246885,68,-2029,316,-39,-10,-58,13634,-12,-10,21,-8,35924,-14,31,127,0,0,3691,-32,0,17044,8095,75,29597,-4,0,97,-5,246876,0
246895,90,-2024,310,-43,-17,-50,13633,-7,1,-36,16,35904,11,31,127,0,0,3693,32,0,17044,8095,75,29607,-4,0,97,-5,246876,0
246905,121,-2021,318,-34,-5,-51,13636,6,10,-17,16,35901,8,31,127,0,0,3691,10,0,17044,8095,75,29617,-4,0,97,-5,246907,0
246915,94,-2023,313,-42,-8,-50,13634,9,-2,-5,8,35926,-12,31,127,0,0,3691,-21,0,17044,8095,75,29627,-4,0,97,-5,246907,0
246925,72,-2032,315,-37,-3,-48,13635,11,-2,-47,16,35925,-14,31,127,0,0,3689,-10,0,17044,8095,75,29637,-4,0,97,-5,246907,0
246935,115,-2029,308,-31,-8,-51,13634,10,3,-25,-32,35928,2,31,127,0,0,3691,0,0,17044,8095,75,29647,-4,0,97,-5,246923,0
246945,103,-2023,313,-32,-2,-41,13634,1,0,3,8,35915,12,31,127,0,0,3691,0,0,17044,8095,75,29657,-4,0,97,-5,246954,0
246955,99,-2028,319,-34,-7,-43,13633,-2,-1,-18,56,35918,14,31,127,0,0,3689,-21,0,17044,8095,75,29667,-4,0,97,-5,246954,0
246965,79,-2031,323,-32,-1,-39,13632,-6,3,-80,-16,35911,15,31,127,0,0,3691,10,0,17044,8095,75,29677,-4,0,97,-5,246954,0
246975,81,-2025,322,-32,-7,-36,13634,1,3,-42,-16,35906,13,31,127,0,0,3691,0,0,17044,8095,75,29687,-4,0,97,-5,246954,0
246985,77,-2032,321,-35,-4,-38,13633,12,4,-4,-32,35899,12,31,127,0,0,3689,-32,0,17044,8095,75,29697,-4,0,97,-5,246985,0
246995,73,-2031,331,-29,-4,-44,13631,-15,-10,-61,16,35913,-4,31,127,0,0,3687,0,0,17044,8095,75,29707,-4,0,97,-5,246985,0
247005,72,-2031,333,-41,-9,-53,13634,1,8,-44,-32,35918,-1,31,127,0,0,3691,0,0,17044,8095,75,29717,-4,0,97,-5,247016,0
247015,79,-2028,330,-47,-10,-55,13634,5,5,-1,-32,35914,-3,31,127,0,0,3689,-21,0,17044,8095,75,29727,-4,0,97,-5,247016,0
247025,102,-2032,327,-43,-4,-57,13632,0,-4,-49,-16,35899,19,31,127,0,0,3687,-32,0,17044,8095,75,29737,-4,0,97,-5,247016,0
247035,103,-2034,324,-44,-6,-56,13632,2,5,-84,-64,35903,10,31,127,0,0,3687,-43,0,17044,8095,75,29747,-4,0,97,-5,247016,0
247045,88,-2027,320,-44,-8,-52,13631,0,1,-91,-48,35921,18,31,127,0,0,3689,-10,0,17044,8095,75,29757,-4,0,97,-5,247048,0
247055,86,-2034,320,-44,-8,-45,13630,-3,4,-128,-40,35929,17,31,127,0,0,3687,0,0,17044,8095,75,29767,-4,0,97,-5,247048,0
247065,122,-2032,314,-46,-10,-41,13629,-5,-1,-174,-32,35932,20,31,127,0,0,3689,43,0,17044,8095,75,29777,-4,0,97,-5,247063,0
247075,101,-2032,320,-45,-10,-38,13631,15,6,-83,-48,35918,15,31,127,0,0,3687,-21,0,17044,8095,75,29787,-4,0,97,-5,247063,0
247085,109,-2028,320,-47,-3,-44,13627,-11,-1,-91,-8,35910,-1,31,127,0,0,3689,10,0,17044,8095,75,29797,-4,0,97,-5,247094,0
247095,87,-2029,315,-45,-7,-38,13629,-6,-8,-135,-32,35908,4,31,127,0,0,3687,0,0,17044,8095,75,29807,-4,0,97,-5,247094,0
247105,92,-2029,324,-41,-4,-43,13629,7,2,-142,-64,35906,-1,31,127,0,0,3689,32,0,17044,8095,75,29817,-4,0,97,-5,247094,0
247115,85,-2023,331,-46,-9,-42,13632,11,3,-74,-40,35902,1,31,127,0,0,3687,-43,0,17044,8095,75,29827,-4,0,97,-5,247110,0
247125,84,-2031,325,-51,-11,-49,13627,-3,-6,-126,-32,35901,-12,31,127,0,0,3687,0,0,17044,8095,75,29837,-4,0,97,-5,247110,0
247135,98,-2020,319,-54,-9,-49,13630,1,1,-162,-32,35908,-11,31,127,0,0,3691,54,0,17044,8095,75,29847,-4,0,97,-5,247126,0
247145,107,-2034,329,-54,-9,-47,13632,15,15,-89,-40,35921,-9,31,127,0,0,3687,-21,0,17044,8095,75,29857,-4,0,97,-5,247141,0
247155,88,-2022,326,-56,-9,-54,13626,-10,-8,-127,-24,35924,-1,31,127,0,0,3687,-21,0,17044,8095,75,29867,-4,0,97,-5,247157,0
247165,78,-2029,330,-63,-15,-43,13626,-8,-6,-198,-16,35921,-9,31,127,0,0,3687,10,0,17044,8095,75,29877,-4,0,97,-5,247157,0
247175,112,-2023,313,-63,-8,-48,13629,7,13,-125,-64,35914,-14,31,127,0,0,3687,-21,0,17044,8095,75,29887,-4,0,97,-5,247173,0
247185,98,-2031,317,-57,-15,-48,13626,0,-4,-127,-24,35914,-7,31,127,0,0,3684,-10,0,17044,8095,75,29897,-4,0,97,-5,247188,0
247195,116,-2027,315,-65,-3,-48,13625,-10,-4,-219,-16,35914,15,31,127,0,0,3687,21,0,17044,8095,75,29907,-4,0,97,-5,247188,0
247205,97,-2039,313,-56,-7,-41,13628,13,11,-160,-56,35915,7,31,127,0,0,3684,-21,0,17044,8095,75,29917,-4,0,97,-5,247204,0
247215,97,-2030,323,-60,-15,-44,13624,1,-1,-170,-8,35909,-1,31,127,0,0,3684,-10,0,17044,8095,75,29927,-4,0,97,-5,247204,0
247225,107,-2029,324,-64,-10,-51,13624,-13,0,-201,-48,35904,-11,31,127,0,0,3687,21,0,17044,8095,75,29937,-4,0,97,-5,247235,0
247235,81,-2029,318,-56,-10,-44,13623,10,-1,-154,-8,35908,-5,31,127,0,0,3687,32,0,17044,8095,75,29947,-4,0,97,-5,247251,0
247245,123,-2030,314,-60,-5,-44,13624,-7,8,-174,-80,35903,5,31,127,0,0,3687,32,0,17044,8095,75,29957,-4,0,97,-5,247251,0
247255,85,-2033,309,-57,-12,-35,13625,32,3,-72,-24,35910,-8,31,127,0,0,3687,0,0,17044,8095,75,29967,-4,0,97,-5,247251,0
247265,94,-2025,309,-50,-12,-34,13626,0,12,-99,-96,35902,0,31,127,0,0,3687,0,0,17044,8095,75,29977,-4,0,97,-5,247251,0
247275,68,-2030,311,-48,-4,-28,13624,11,-7,-106,-8,35906,-4,31,127,0,0,3687,0,0,17044,8095,75,29987,-4,0,97,-5,247266,0
247285,81,-2027,311,-51,-3,-37,13625,6,10,-138,24,35903,0,31,127,0,0,3687,10,0,17044,8095,75,29997,-4,0,97,-5,247282,0
247295,116,-2025,318,-50,-2,-38,13626,3,5,-80,-40,35914,-21,31,127,0,0,3687,-10,0,17044,8095,75,30007,-4,0,97,-5,247282,0
247305,77,-2027,314,-51,-6,-32,13626,3,0,-76,-24,35915,-13,31,127,0,0,3689,10,0,17044,8095,75,30017,-4,0,97,-5,247298,0
247315,108,-2019,316,-53,-7,-31,13626,0,-2,-56,-72,35910,-3,31,127,0,0,3684,-32,0,17044,8095,75,30027,-4,0,97,-5,247329,0
247325,93,-2030,319,-51,-6,-40,13622,-7,-7,-159,-40,35892,21,31,127,0,0,3684,0,0,17044,8095,75,30037,-4,0,97,-5,247329,0
247335,94,-2023,315,-47,-8,-35,13624,12,4,-159,-48,35894,11,31,127,0,0,3684,-10,0,17044,8095,75,30047,-4,0,97,-5,247329,0
247345,89,-2026,310,-51,-3,-38,13623,0,6,-144,-8,35899,15,31,127,0,0,3687,0,0,17044,8095,75,30057,-4,0,97,-5,247344,0
247355,79,-2029,311,-48,-2,-37,13622,-12,-8,-180,-40,35906,11,31,127,0,0,3687,21,0,17044,8095,75,30067,-4,0,97,-5,247360,0
247365,106,-2029,316,-48,-6,-36,13624,9,3,-158,24,35907,19,31,127,0,0,3687,32,0,17044,8095,75,30077,-4,0,97,-5,247360,0
247375,118,-2026,308,-49,-6,-38,13624,-4,4,-176,-48,35906,24,31,127,0,0,3687,21,0,17044,8095,75,30087,-4,0,97,-5,247360,0
247385,92,-2022,316,-42,-5,-34,13625,27,-6,-89,-24,35906,12,31,127,0,0,3687,-10,0,17044,8095,75,30097,-4,0,97,-5,247360,0
247395,94,-2025,313,-47,-3,-37,13623,-13,-2,-124,-24,35911,3,31,127,0,0,3687,32,0,17044,8095,75,30107,-4,0,97,-5,247423,0
247405,108,-2024,303,-48,-9,-37,13625,3,5,-129,-16,35909,-2,31,127,0,0,3687,0,0,17044,8095,75,30117,-4,0,97,-5,247423,0
247415,88,-2031,299,-45,-3,-36,13624,13,-3,-106,-24,35904,-3,31,127,0,0,3687,-10,0,17044,8095,75,30127,-4,0,97,-5,247438,0
247425,81,-2024,316,-41,-8,-33,13625,0,-1,-115,-96,35900,-17,31,127,0,0,3684,-21,0,17044,8095,75,30137,-4,0,97,-5,247438,0
247435,81,-2026,312,-41,-8,-38,13622,-3,-2,-128,-56,35891,-7,31,127,0,0,3687,21,0,17044,8095,75,30147,-4,0,97,-5,247438,0
247445,95,-2030,310,-39,-6,-44,13625,5,6,-102,-56,35885,-7,31,127,0,0,3687,0,0,17044,8095,75,30157,-4,0,97,-5,247454,0
247455,76,-2027,317,-37,-9,-37,13623,-5,2,-127,-40,35887,1,31,127,0,0,3684,-10,0,17044,8095,75,30167,-4,0,97,-5,247454,0
247465,96,-2030,324,-43,-1,-42,13623,2,-2,-140,-40,35900,-8,31,127,0,0,3684,-21,0,17044,8095,75,30177,-4,0,97,-5,247454,0
247475,87,-2034,321,-43,-7,-44,13622,0,4,-148,-56,35909,-10,31,127,0,0,3684,-10,0,17044,8095,75,30187,-4,0,97,-5,247454,0
247485,101,-2025,319,-45,-8,-44,13622,-11,1,-157,-56,35912,-4,31,127,0,0,3682,-21,0,17044,8095,75,30197,-4,0,97,-5,247485,0
247495,114,-2024,320,-44,-11,-41,13622,-5,-2,-188,-40,35909,-17,31,127,0,0,3682,-10,0,17044,8095,75,30207,-4,0,97,-5,247501,0
247505,97,-2032,323,-46,-7,-44,13619,-27,-5,-238,8,35908,-26,31,127,0,0,3684,43,0,17044,8095,75,30217,-4,0,97,-5,247501,0
247515,127,-2028,316,-48,-7,-43,13624,1,5,-143,-56,35904,-35,31,127,0,0,3687,21,0,17044,8095,75,30227,-4,0,97,-5,247501,0
247525,124,-2028,309,-45,-7,-34,13623,-2,0,-115,-56,35909,-16,31,127,0,0,3684,-21,0,17044,8095,75,30237,-4,0,97,-5,247516,0
247535,84,-2032,304,-40,-3,-33,13622,8,-11,-123,-56,35912,-5,31,127,0,0,3684,-32,0,17044,8095,75,30247,-4,0,97,-5,247516,0
247545,118,-2035,310,-38,-7,-24,13620,-19,0,-208,-24,35914,12,31,127,0,0,3684,10,0,17044,8095,75,30257,-4,0,97,-5,247548,0
247555,114,-2025,313,-39,2,-20,13620,7,-3,-159,-48,35902,7,31,127,0,0,3687,43,0,17044,8095,75,30267,-4,0,97,-5,247548,0
247565,83,-2020,318,-39,-16,-27,13623,-1,10,-97,-56,35893,9,31,127,0,0,3682,-54,0,17044,8095,75,30277,-4,0,97,-5,247563,0
247575,84,-2030,327,-40,-1,-38,13620,-3,-7,-119,-48,35885,14,31,127,0,0,3684,-32,0,17044,8095,75,30287,-4,0,97,-5,247563,0
247585,70,-2027,329,-44,-9,-34,13622,-3,2,-145,-8,35885,9,31,127,0,0,3687,0,0,17044,8095,75,30297,-4,0,97,-5,247563,0
247595,84,-2020,319,-45,0,-45,13623,7,6,-103,-56,35883,5,31,127,0,0,3684,-32,0,17044,8095,75,30307,-4,0,97,-5,247594,0
247605,84,-2024,314,-49,-9,-49,13622,7,-6,-123,-16,35888,6,31,127,0,0,3687,10,0,17044,8095,75,30317,-4,0,97,-5,247594,0
247615,83,-2027,315,-59,-16,-47,13621,-8,2,-149,-16,35889,14,31,127,0,0,3684,10,0,17044,8095,75,30327,-4,0,97,-5,247610,0
247625,63,-2032,324,-56,-12,-50,13622,0,-3,-134,-88,35894,11,31,127,0,0,3682,-54,0,17044,8095,75,30337,-4,0,97,-5,247610,0
247635,76,-2027,330,-56,-16,-51,13620,0,-13,-169,-40,35896,9,31,127,0,0,3687,21,0,17044,8095,75,30347,-4,0,97,-5,247672,0
247645,88,-2029,325,-63,-13,-51,13623,5,7,-154,0,35902,-11,31,127,0,0,3687,21,0,17044,8095,75,30357,-4,0,97,-5,247672,0
247655,86,-2028,327,-60,-8,-60,13621,-9,10,-138,-40,35897,-2,31,127,0,0,3682,-32,0,17044,8095,75,30367,-4,0,97,-5,247672,0
247665,65,-2032,323,-60,-2,-77,13619,-5,-16,-201,-24,35893,-13,31,127,0,0,3682,-21,0,17044,8095,75,30377,-4,0,97,-5,247688,0
247675,93,-2037,326,-65,-5,-72,13617,-11,1,-268,-32,35893,-19,31,127,0,0,3682,0,0,17044,8095,75,30387,-4,0,97,-5,247688,0
247685,89,-2029,309,-65,-7,-68,13607,-21,-7,-222,-8,35894,-23,31,127,0,0,3676,-65,0,17044,8095,75,30397,-4,0,97,-5,247688,0
247695,121,-2020,314,-68,-2,-65,13591,-52,-26,-213,-16,35895,-12,31,127,0,0,3678,10,0,17044,8095,75,30407,-4,0,97,-5,247688,0
247705,115,-2032,309,-72,-7,-61,13587,-2,5,-130,-56,35893,-4,31,127,0,0,3680,21,0,17044,8095,75,30417,-4,0,97,-5,247688,0
247715,110,-2022,311,-58,-7,-54,13588,-3,39,-122,-8,35906,-8,31,127,0,0,3680,0,0,17044,8095,75,30427,-4,0,97,-5,247704,0
247725,120,-2028,304,-65,-7,-47,13588,4,3,-135,-24,35929,-32,31,127,0,0,3678,-21,0,17044,8095,75,30437,-4,0,97,-5,247751,0
247735,94,-2028,309,-60,-3,-46,13586,-4,-6,-174,-40,35933,-29,31,127,0,0,3673,-43,0,17044,8095,75,30447,-4,0,97,-5,247766,0
247745,80,-2031,304,-59,-4,-36,13586,0,4,-188,-40,35922,-19,31,127,0,0,3678,0,0,17044,8095,75,30457,-4,0,97,-5,247766,0
247755,95,-2028,307,-51,-7,-34,13587,-2,3,-168,-40,35901,-16,31,127,0,0,3678,0,0,17044,8095,75,30467,-4,0,97,-5,247766,0
247765,100,-2028,310,-52,-8,-38,13588,4,-5,-160,-40,35903,-27,31,127,0,0,3678,0,0,17044,8095,75,30477,-4,0,97,-5,247766,0
247775,84,-2029,317,-56,-8,-36,13585,-3,-4,-161,-40,35903,-25,31,127,0,0,3678,0,0,17044,8095,75,30487,-4,0,97,-5,247766,0
247785,89,-2027,318,-56,-5,-39,13585,-3,1,-155,-48,35915,-20,31,127,0,0,3678,0,0,17044,8095,75,30497,-4,0,97,-5,247782,0
247795,102,-2035,317,-56,-6,-37,13586,-1,-4,-172,-40,35905,-2,31,127,0,0,3680,32,0,17044,8095,75,30507,-4,0,97,-5,247782,0
247805,72,-2025,325,-52,-16,-29,13587,3,4,-138,-48,35902,-5,31,127,0,0,3678,-21,0,17044,8095,75,30517,-4,0,97,-5,247813,0
247815,78,-2033,306,-54,-11,-37,13585,-4,-3,-187,-24,35906,-15,31,127,0,0,3678,10,0,17044,8095,75,30527,-4,0,97,-5,247813,0
247825,86,-2032,302,-52,-6,-45,13587,-2,-1,-169,-72,35910,-19,31,127,0,0,3678,-10,0,17044,8095,75,30537,-4,0,97,-5,247813,0
247835,55,-2037,309,-56,-8,-47,13585,7,2,-185,-24,35917,-14,31,127,0,0,3678,21,0,17044,8095,75,30547,-4,0,97,-5,247813,0
247845,118,-2027,315,-50,1,-49,13586,-5,0,-145,-40,35906,-12,31,127,0,0,3678,10,0,17044,8095,75,30557,-4,0,97,-5,247844,0
247855,106,-2028,312,-55,1,-49,13585,1,5,-171,-64,35907,-11,31,127,0,0,3678,10,0,17044,8095,75,30567,-4,0,97,-5,247844,0
247865,112,-2030,313,-53,-4,-48,13587,15,2,-175,-32,35906,-6,31,127,0,0,3676,-10,0,17044,8095,75,30577,-4,0,97,-5,247876,0
247875,115,-2023,312,-54,-5,-44,13586,3,6,-165,-40,35914,-7,31,127,0,0,3676,-32,0,17044,8095,75,30587,-4,0,97,-5,247891,0
247885,76,-2027,319,-53,0,-40,13584,4,-2,-202,-64,35914,-2,31,127,0,0,3676,-21,0,17044,8095,75,30597,-4,0,97,-5,247907,0
247895,97,-2025,304,-49,-7,-42,13583,1,3,-211,-64,35914,-20,31,127,0,0,3676,0,0,17044,8095,75,30607,-4,0,97,-5,247922,0
247905,95,-2033,299,-49,-9,-35,13586,7,4,-189,-72,35901,-11,31,127,0,0,3676,0,0,17044,8095,75,30617,-4,0,97,-5,247922,0
247915,104,-2026,309,-51,-5,-33,13583,-6,-2,-196,-56,35909,-11,31,127,0,0,3676,10,0,17044,8095,75,30627,-4,0,97,-5,247922,0
247925,124,-2031,314,-49,0,-35,13583,-9,-6,-236,-56,35908,-8,31,127,0,0,3676,32,0,17044,8095,75,30637,-4,0,97,-5,247922,0
247935,86,-2029,314,-45,-1,-28,13584,6,-2,-222,-24,35909,-22,31,127,0,0,3678,32,0,17044,8095,75,30647,-4,0,97,-5,247922,0
247945,111,-2024,315,-51,-3,-20,13583,-8,1,-226,-80,35910,-30,31,127,0,0,3671,-54,0,17044,8095,75,30657,-4,0,97,-5,247938,0
247955,92,-2028,303,-48,-6,-31,13576,1,-17,-244,-80,35913,-32,31,127,0,0,3676,32,0,17044,8095,75,30667,-4,0,97,-5,247969,0
247965,109,-2027,312,-42,-7,-27,13578,-13,12,-220,-72,35925,-41,31,127,0,0,3673,-21,0,17044,8095,75,30677,-4,0,97,-5,247969,0
247975,91,-2024,317,-43,-5,-32,13578,24,2,-199,-80,35922,-45,31,127,0,0,3676,0,0,17044,8095,75,30687,-4,0,97,-5,247985,0
247985,97,-2023,316,-46,-6,-36,13577,-13,-2,-197,-48,35916,-50,31,127,0,0,3676,0,0,17044,8095,75,30697,-4,0,97,-5,247985,0
247995,111,-2024,307,-49,-7,-34,13577,-1,0,-217,-16,35909,-34,31,127,0,0,3678,43,0,17044,8095,75,30707,-4,0,97,-5,247985,0
248005,91,-2027,309,-45,-12,-35,13579,-4,4,-150,-24,35914,-27,31,127,0,0,3676,-21,0,17044,8095,75,30717,-4,0,97,-5,247985,0
248015,74,-2039,307,-43,-9,-32,13577,-4,-8,-212,-48,35914,-15,31,127,0,0,3678,21,0,17044,8095,75,30727,-4,0,97,-5,248016,0
248025,107,-2026,315,-45,-12,-29,13579,0,6,-181,-48,35907,-13,31,127,0,0,3676,0,0,17044,8095,75,30737,-4,0,97,-5,248016,0
248035,97,-2023,315,-45,-6,-37,13580,15,5,-150,-64,35900,-5,31,127,0,0,3678,0,0,17044,8095,75,30747,-4,0,97,-5,248047,0
248045,107,-2025,312,-58,-11,-43,13578,-7,-2,-168,-80,35915,-7,31,127,0,0,3676,0,0,17044,8095,75,30757,-4,0,97,-5,248047,0
248055,78,-2031,314,-57,-13,-39,13579,7,1,-197,-48,35912,-6,31,127,0,0,3676,0,0,17044,8095,75,30767,-4,0,97,-5,248063,0
248065,50,-2040,315,-60,-13,-49,13579,1,11,-172,-48,35911,-37,31,127,0,0,3676,-21,0,17044,8095,75,30777,-4,0,97,-5,248063,0
248075,69,-2029,321,-61,-13,-55,13580,7,-2,-138,-32,35902,-36,31,127,0,0,3676,-32,0,17044,8095,75,30787,-4,0,97,-5,248063,0
248085,74,-2033,320,-64,-15,-52,13578,-9,-1,-217,-32,35915,-37,31,127,0,0,3676,10,0,17044,8095,75,30797,-4,0,97,-5,248063,0
248095,107,-2034,319,-60,-8,-49,13580,10,6,-220,-48,35930,-49,31,127,0,0,3676,21,0,17044,8095,75,30807,-4,0,97,-5,248110,0
248105,98,-2026,311,-60,-13,-48,13577,-7,3,-235,0,35932,-62,31,127,0,0,3673,10,0,17044,8095,75,30817,-4,0,97,-5,248110,0
248115,135,-2030,309,-53,-6,-53,13578,-6,-4,-223,-48,35928,-67,31,127,0,0,3676,-10,0,17044,8095,75,30827,-4,0,97,-5,248110,0
248125,95,-2024,300,-53,-6,-33,13579,7,5,-193,-88,35915,-38,31,127,0,0,3676,-21,0,17044,8095,75,30837,-4,0,97,-5,248110,0
248135,102,-2028,297,-54,-10,-29,13578,1,-7,-140,-96,35908,-28,31,127,0,0,3676,-32,0,17044,8095,75,30847,-4,0,97,-5,248125,0
248145,101,-2032,301,-41,-1,-27,13578,3,-2,-161,-56,35924,-35,31,127,0,0,3678,21,0,17044,8095,75,30857,-4,0,97,-5,248157,0
248155,104,-2037,298,-42,-1,-22,13579,-11,2,-149,-16,35934,-37,31,127,0,0,3676,-10,0,17044,8095,75,30867,-4,0,97,-5,248157,0
248165,103,-2032,308,-45,5,-19,13580,4,3,-139,-64,35929,-30,31,127,0,0,3678,0,0,17044,8095,75,30877,-4,0,97,-5,248157,0
248175,86,-2035,304,-41,-12,-8,13579,-5,-3,-160,-16,35915,-9,31,127,0,0,3676,0,0,17044,8095,75,30887,-4,0,97,-5,248157,0
248185,65,-2037,308,-41,-10,-21,13580,10,-4,-143,-32,35909,-7,31,127,0,0,3678,0,0,17044,8095,75,30897,-4,0,97,-5,248188,0
248195,84,-2037,289,-46,-52,-45,13579,-12,4,-120,-24,35923,-24,31,127,0,0,3676,-21,0,17044,8095,75,30907,-4,0,97,-5,248188,0
248205,114,-2040,327,-58,-16,-38,13580,-6,-3,-176,-48,35924,-27,31,127,0,0,3676,-21,0,17044,8095,75,30917,-4,0,97,-5,248188,0
248215,476,-1941,273,-122,-13,-307,13578,2,-1,-216,-48,35918,-21,31,127,0,0,3676,0,0,17044,8095,75,30927,-4,0,97,-5,248204,0
248225,556,-1917,174,-198,134,-797,13580,9,6,-204,-72,35905,-26,31,127,0,0,3658,-230,0,17044,8095,75,30937,-4,0,97,-5,248219,0
248235,81,-1909,289,-199,-14,-195,13552,-104,-60,-597,-352,35905,-45,31,127,0,0,3645,-120,0,17044,8095,75,30947,-4,0,97,-5,248219,0
248245,221,-2109,373,-77,-87,-10,13461,-229,-192,-241,-120,35913,-57,31,127,0,0,3645,-32,0,17044,8095,75,30957,-4,0,97,-5,248344,0
248255,209,-2085,193,-146,-44,-263,13401,-93,-44,-50,0,35905,-58,31,127,0,0,3647,10,0,17044,8095,75,30967,-4,0,97,-5,248344,0
248265,485,-1952,119,-190,30,-797,13402,20,197,-170,-80,35902,-63,31,127,0,0,3629,-197,0,17044,8095,75,30977,-4,0,97,-5,248344,0
248275,222,-1917,157,-227,53,-594,13373,-111,33,-549,-352,35896,-67,31,127,0,0,3607,-197,0,17044,8095,75,30987,-4,0,97,-5,248344,0
248285,429,-2125,371,-157,-40,-307,13283,-216,-195,-380,-256,35895,-72,31,127,0,0,3599,-76,0,17044,8095,75,30997,-4,0,97,-5,248344,0
248295,453,-2052,159,-175,-83,-414,13195,-177,-90,-295,-120,35894,-69,31,127,0,0,3590,-76,0,17044,8095,75,31007,-4,0,97,-5,248360,0
248305,361,-2061,36,-191,5,-633,13140,-116,83,-338,-168,35899,-59,31,127,0,0,3577,-109,0,17044,8095,75,31017,-4,0,97,-5,248360,0
248315,298,-2013,150,-139,63,-612,13088,-120,65,-395,-256,35898,-65,31,127,0,0,3559,-164,0,17044,8095,75,31027,-4,0,97,-5,248360,0
248325,433,-2039,388,-95,-22,-338,13022,-137,-27,-396,-256,35899,-60,31,127,0,0,3555,-54,0,17044,8095,75,31037,-4,0,97,-5,248360,0
248335,521,-2012,452,-148,-113,-251,12964,-117,-7,-322,-120,35899,-56,31,127,0,0,3552,0,0,17044,8095,75,31047,-4,0,97,-5,248360,0
248345,313,-2029,175,-221,-115,-323,12924,-60,50,-201,-24,35894,-34,31,127,0,0,3552,0,0,17044,8095,75,31057,-4,0,97,-5,248375,0
248355,384,-2019,31,-187,-30,-447,12921,12,105,-162,-32,35895,-16,31,127,0,0,3548,-65,0,17044,8095,75,31067,-4,0,97,-5,248375,0
248365,418,-2047,93,-95,-14,-385,12913,-45,54,-355,-136,35895,-12,31,127,0,0,3539,-76,0,17044,8095,75,31077,-4,0,97,-5,248375,0
248375,497,-2108,195,-50,-76,-292,12876,-69,-74,-231,-144,35896,3,31,127,0,0,3537,-43,0,17044,8095,75,31087,-4,0,97,-5,248375,0
248385,390,-2058,268,-33,-113,-209,12872,15,12,-320,-104,35911,10,31,127,0,0,3537,-10,0,17044,8095,75,31097,-4,0,97,-5,248391,0
248395,281,-2064,250,-38,-101,-245,12875,0,87,-307,-120,35908,14,31,127,0,0,3539,0,0,17044,8095,75,31107,-4,0,97,-5,248391,0
248405,313,-2041,279,-64,-72,-271,12875,7,7,-249,-56,35906,-2,31,127,0,0,3539,-10,0,17044,8095,75,31117,-4,0,97,-5,248391,0
248415,328,-2044,280,-91,-81,-258,12874,1,-4,-307,-72,35901,-6,31,127,0,0,3537,-10,0,17044,8095,75,31127,-4,0,97,-5,248407,0
248425,188,-2081,246,-101,-99,-265,12874,5,-2,-351,-96,35912,-10,31,127,0,0,3537,-21,0,17044,8095,75,31137,-4,0,97,-5,248407,0
248435,158,-2037,244,-95,-96,-320,12874,8,-1,-353,-160,35916,0,31,127,0,0,3537,-10,0,17044,8095,75,31147,-4,0,97,-5,248438,0
248445,119,-2011,302,-112,-39,-461,12871,2,-1,-397,-136,35907,0,31,127,0,0,3528,-76,0,17044,8095,75,31157,-4,0,97,-5,248438,0
248455,130,-2090,342,-120,-38,-489,12863,-37,-11,-556,-216,35896,-1,31,127,0,0,3520,-76,0,17044,8095,75,31167,-4,0,97,-5,248438,0
248465,239,-2121,361,-156,-49,-528,12827,-112,-60,-506,-200,35897,-18,31,127,0,0,3511,-109,0,17044,8095,75,31177,-4,0,97,-5,248469,0
248475,160,-2067,392,-143,-83,-502,12779,-110,-76,-464,-184,35902,-30,31,127,0,0,3506,-54,0,17044,8095,75,31187,-4,0,97,-5,248469,0
248485,174,-1989,381,-187,-135,-550,12719,-120,-42,-311,-144,35902,-38,31,127,0,0,3500,-76,0,17044,8095,75,31197,-4,0,97,-5,248469,0
248495,187,-2077,373,-209,-170,-626,12669,-81,-4,-309,-160,35904,-45,31,127,0,0,3489,-109,0,17044,8095,75,31207,-4,0,97,-5,248485,0
248505,203,-2047,321,-284,-136,-666,12636,-86,61,-360,-176,35901,-47,31,127,0,0,3482,-98,0,17044,8095,75,31217,-4,0,97,-5,248516,0
248515,162,-2017,284,-303,-126,-706,12602,-59,24,-392,-184,35904,-57,31,127,0,0,3471,-109,0,17044,8095,75,31227,-4,0,97,-5,248516,0
248525,227,-2079,197,-313,-114,-704,12556,-113,-21,-363,-184,35903,-47,31,127,0,0,3460,-153,0,17044,8095,75,31237,-4,0,97,-5,248516,0
248535,211,-2069,163,-309,-108,-655,12496,-151,-52,-368,-136,35900,-74,31,127,0,0,3456,-54,0,17044,8095,75,31247,-4,0,97,-5,248516,0
248545,298,-2041,136,-281,-95,-637,12454,-74,4,-323,-168,35903,-94,31,127,0,0,3451,-32,0,17044,8095,75,31257,-4,0,97,-5,248547,0
248555,313,-2023,139,-256,-66,-601,12425,-37,50,-253,-96,35901,-106,31,127,0,0,3449,-10,0,17044,8095,75,31267,-4,0,97,-5,248547,0
248565,375,-2039,149,-234,-33,-507,12427,7,94,-365,-88,35901,-106,31,127,0,0,3451,21,0,17044,8095,75,31277,-4,0,97,-5,248547,0
248575,369,-2005,175,-217,-17,-470,12427,0,53,-333,-56,35897,-86,31,127,0,0,3454,54,0,17044,8095,75,31287,-4,0,97,-5,248579,0
248585,433,-2030,190,-206,8,-432,12428,-1,2,-294,-72,35899,-75,31,127,0,0,3449,-10,0,17044,8095,75,31297,-4,0,97,-5,248579,0
248595,399,-2017,225,-200,5,-400,12427,5,-2,-346,-88,35897,-67,31,127,0,0,3451,43,0,17044,8095,75,31307,-4,0,97,-5,248579,0
248605,381,-2007,238,-197,-6,-359,12429,0,8,-267,-48,35908,-75,31,127,0,0,3454,10,0,17044,8095,75,31317,-4,0,97,-5,248610,0
248615,325,-2045,285,-181,-28,-332,12429,-3,1,-262,-40,35899,-82,31,127,0,0,3454,10,0,17044,8095,75,31327,-4,0,97,-5,248625,0
248625,335,-2051,328,-180,-70,-279,12431,7,-3,-195,-32,35904,-103,31,127,0,0,3458,65,0,17044,8095,75,31337,-4,0,97,-5,248657,0
248635,285,-2012,305,-193,-87,-263,12440,17,16,-29,48,35896,-86,31,127,0,0,3467,76,0,17044,8095,75,31347,-4,0,97,-5,248657,0
248645,291,-2014,267,-195,-90,-277,12458,36,32,146,112,35893,-70,31,127,0,0,3473,65,0,17044,8095,75,31357,-4,0,97,-5,248657,0
248655,308,-1987,228,-188,-101,-306,12489,89,43,169,56,35894,-67,31,127,0,0,3478,32,0,17044,8095,75,31367,-4,0,97,-5,248657,0
248665,351,-2017,231,-196,-96,-291,12519,36,34,121,56,35896,-79,31,127,0,0,3484,21,0,17044,8095,75,31377,-4,0,97,-5,248657,0
248675,305,-1992,230,-202,-100,-293,12525,15,-65,313,96,35896,-97,31,127,0,0,3489,54,0,17044,8095,75,31387,-4,0,97,-5,248657,0
248685,324,-2004,220,-211,-83,-324,12541,58,-22,352,168,35903,-97,31,127,0,0,3493,54,0,17044,8095,75,31397,-4,0,97,-5,248672,0
248695,318,-1998,226,-218,-83,-334,12584,82,78,171,64,35914,-103,31,127,0,0,3495,32,0,17044,8095,75,31407,-4,0,97,-5,248703,0
248705,321,-1994,230,-216,-75,-357,12602,31,3,220,40,35916,-114,31,127,0,0,3502,21,0,17044,8095,75,31417,-4,0,97,-5,248703,0
248715,325,-1993,215,-221,-79,-355,12624,53,-42,95,40,35916,-94,31,127,0,0,3500,10,0,17044,8095,75,31427,-4,0,97,-5,248703,0
248725,365,-1965,227,-218,-95,-330,12628,2,-17,79,40,35905,-59,31,127,0,0,3506,65,0,17044,8095,75,31437,-4,0,97,-5,248719,0
248735,404,-1984,195,-224,-109,-322,12638,42,-23,210,8,35909,-55,31,127,0,0,3506,10,0,17044,8095,75,31447,-4,0,97,-5,248719,0
248745,410,-2001,210,-239,-114,-287,12641,15,5,256,80,35922,-67,31,127,0,0,3513,65,0,17044,8095,75,31457,-4,0,97,-5,248735,0
248755,379,-1969,209,-215,-105,-274,12654,38,3,330,104,35936,-65,31,127,0,0,3515,43,0,17044,8095,75,31467,-4,0,97,-5,248750,0
248765,351,-1970,202,-208,-99,-265,12689,95,64,191,96,35932,-48,31,127,0,0,3515,0,0,17044,8095,75,31477,-4,0,97,-5,248766,0
248775,405,-1993,200,-211,-99,-247,12707,-3,14,53,16,35914,-32,31,127,0,0,3520,21,0,17044,8095,75,31487,-4,0,97,-5,248766,0
248785,358,-1964,190,-199,-92,-273,12704,27,-88,227,72,35907,-37,31,127,0,0,3520,0,0,17044,8095,75,31497,-4,0,97,-5,248766,0
248795,406,-1978,171,-213,-74,-278,12706,-15,-17,193,64,35910,-41,31,127,0,0,3520,32,0,17044,8095,75,31507,-4,0,97,-5,248797,0
248805,401,-1909,176,-223,-85,-258,12706,-3,3,200,64,35908,-35,31,127,0,0,3517,0,0,17044,8095,75,31517,-4,0,97,-5,248797,0
248815,410,-1985,176,-217,-85,-241,12705,-1,-10,194,96,35906,-32,31,127,0,0,3520,0,0,17044,8095,75,31527,-4,0,97,-5,248797,0
248825,350,-2018,204,-182,-81,-218,12706,-7,-3,228,64,35913,-45,31,127,0,0,3517,-32,0,17044,8095,75,31537,-4,0,97,-5,248828,0
248835,365,-1997,207,-178,-88,-217,12707,0,-1,250,16,35921,-46,31,127,0,0,3520,-21,0,17044,8095,75,31547,-4,0,97,-5,248828,0
248845,347,-2006,206,-188,-82,-222,12706,-8,-4,210,112,35924,-37,31,127,0,0,3517,-21,0,17044,8095,75,31557,-4,0,97,-5,248844,0
248855,359,-2025,193,-189,-74,-234,12706,-2,-5,154,80,35915,-24,31,127,0,0,3520,0,0,17044,8095,75,31567,-4,0,97,-5,248844,0
248865,338,-2039,188,-191,-86,-244,12707,5,7,212,32,35909,-23,31,127,0,0,3520,-21,0,17044,8095,75,31577,-4,0,97,-5,248860,0
248875,343,-2034,194,-194,-79,-249,12706,-2,-2,244,56,35907,-48,31,127,0,0,3520,-10,0,17044,8095,75,31587,-4,0,97,-5,248860,0
248885,342,-2051,179,-202,-69,-266,12706,-11,-1,209,64,35910,-43,31,127,0,0,3520,10,0,17044,8095,75,31597,-4,0,97,-5,248875,0
248895,365,-2053,163,-208,-68,-275,12707,0,3,236,80,35914,-49,31,127,0,0,3520,0,0,17044,8095,75,31607,-4,0,97,-5,248907,0
248905,349,-2054,169,-212,-53,-296,12708,2,1,245,48,35909,-49,31,127,0,0,3522,10,0,17044,8095,75,31617,-4,0,97,-5,248907,0
248915,306,-1978,184,-220,-67,-303,12707,-1,-7,242,80,35910,-59,31,127,0,0,3520,0,0,17044,8095,75,31627,-4,0,97,-5,248938,0
248925,358,-2051,160,-245,-44,-319,12705,-3,0,183,104,35912,-63,31,127,0,0,3522,32,0,17044,8095,75,31637,-4,0,97,-5,248938,0
248935,354,-2068,168,-233,-27,-316,12710,9,5,263,80,35910,-54,31,127,0,0,3522,0,0,17044,8095,75,31647,-4,0,97,-5,248938,0
248945,384,-2012,184,-225,-15,-330,12707,-8,1,263,80,35912,-52,31,127,0,0,3522,0,0,17044,8095,75,31657,-4,0,97,-5,248938,0
248955,419,-2000,174,-253,-10,-316,12706,-16,-2,202,104,35911,-45,31,127,0,0,3522,43,0,17044,8095,75,31667,-4,0,97,-5,248938,0
248965,461,-2009,164,-312,-66,-219,12710,9,12,279,112,35919,-52,31,127,0,0,3526,54,0,17044,8095,75,31677,-4,0,97,-5,248953,0
248975,469,-2064,194,-323,-72,-200,12718,27,16,391,136,35924,-52,31,127,0,0,3535,76,0,17044,8095,75,31687,-4,0,97,-5,249051,0
248985,354,-2086,180,-266,-94,-207,12747,93,48,428,200,35923,-49,31,127,0,0,3544,109,0,17044,8095,75,31697,-4,0,97,-5,249051,0
248995,337,-2080,199,-240,-92,-237,12809,143,111,310,184,35914,-44,31,127,0,0,3550,98,0,17044,8095,75,31707,-4,0,97,-5,249051,0
249005,379,-2042,208,-268,-87,-292,12881,149,74,133,64,35909,-35,31,127,0,0,3557,87,0,17044,8095,75,31717,-4,0,97,-5,249051,0
249015,406,-2071,210,-291,-73,-287,12907,9,-63,199,80,35906,-7,31,127,0,0,3566,98,0,17044,8095,75,31727,-4,0,97,-5,249051,0
249025,370,-2055,174,-273,-85,-306,12909,3,-149,416,136,35909,12,31,127,0,0,3566,32,0,17044,8095,75,31737,-4,0,97,-5,249067,0
249035,440,-2052,157,-266,-79,-323,12921,40,-21,489,176,35908,25,31,127,0,0,3574,32,0,17044,8095,75,31747,-4,0,97,-5,249067,0
249045,459,-2021,174,-273,-96,-310,12963,106,83,391,176,35914,10,31,127,0,0,3585,87,0,17044,8095,75,31757,-4,0,97,-5,249067,0
249055,442,-2001,175,-287,-109,-295,13016,133,74,331,144,35923,-8,31,127,0,0,3592,87,0,17044,8095,75,31767,-4,0,97,-5,249067,0
249065,440,-2003,134,-313,-143,-283,13071,135,31,233,128,35929,-31,31,127,0,0,3601,120,0,17044,8095,75,31777,-4,0,97,-5,249067,0
249075,391,-2032,144,-309,-134,-289,13119,88,-10,314,152,35925,-54,31,127,0,0,3612,109,0,17044,8095,75,31787,-4,0,97,-5,249067,0
249085,412,-2026,142,-312,-112,-339,13167,92,-31,267,152,35931,-74,31,127,0,0,3621,120,0,17044,8095,75,31797,-4,0,97,-5,249067,0
249095,375,-2005,160,-327,-86,-387,13217,124,4,266,144,35951,-92,31,127,0,0,3627,65,0,17044,8095,75,31807,-4,0,97,-5,249098,0
249105,405,-1957,151,-379,-94,-411,13271,119,19,208,96,35948,-97,31,127,0,0,3636,98,0,17044,8095,75,31817,-4,0,97,-5,249098,0
249115,446,-2015,119,-397,-104,-419,13306,62,-34,283,96,35930,-96,31,127,0,0,3643,87,0,17044,8095,75,31827,-4,0,97,-5,249098,0
249125,419,-2028,132,-386,-104,-442,13338,79,-41,316,176,35910,-101,31,127,0,0,3649,54,0,17044,8095,75,31837,-4,0,97,-5,249129,0
249135,447,-1998,146,-401,-98,-476,13362,45,-11,410,152,35907,-92,31,127,0,0,3656,65,0,17044,8095,75,31847,-4,0,97,-5,249129,0
249145,393,-1907,141,-481,-134,-504,13404,108,15,317,136,35911,-55,31,127,0,0,3662,54,0,17044,8095,75,31857,-4,0,97,-5,249129,0
249155,449,-1950,189,-548,-122,-572,13452,106,48,210,96,35921,-25,31,127,0,0,3669,54,0,17044,8095,75,31867,-4,0,97,-5,249161,0
249165,372,-1970,156,-610,-161,-615,13474,22,-53,269,88,35912,-8,31,127,0,0,3671,32,0,17044,8095,75,31877,-4,0,97,-5,249161,0
249175,314,-1974,155,-640,-172,-678,13472,0,-97,376,120,35906,-27,31,127,0,0,3671,0,0,17044,8095,75,31887,-4,0,97,-5,249161,0
249185,307,-2046,139,-655,-212,-798,13474,11,-18,421,176,35904,-50,31,127,0,0,3671,-10,0,17044,8095,75,31897,-4,0,97,-5,249161,0
249195,341,-2079,144,-666,-220,-875,13481,14,15,376,120,35913,-48,31,127,0,0,3673,-10,0,17044,8095,75,31907,-4,0,97,-5,249192,0
249205,304,-2104,121,-709,-226,-968,13484,0,-2,358,120,35910,-51,31,127,0,0,3673,-10,0,17044,8095,75,31917,-4,0,97,-5,249192,0
249215,288,-2139,117,-729,-209,-1023,13485,1,-17,332,128,35911,-59,31,127,0,0,3676,21,0,17044,8095,75,31927,-4,0,97,-5,249223,0
249225,261,-2171,139,-725,-173,-1107,13489,13,3,347,80,35910,-71,31,127,0,0,3673,10,0,17044,8095,75,31937,-4,0,97,-5,249223,0
249235,266,-2195,129,-738,-148,-1194,13494,21,15,312,112,35909,-58,31,127,0,0,3671,-21,0,17044,8095,75,31947,-4,0,97,-5,249239,0
249245,321,-2198,172,-753,-108,-1325,13499,1,3,205,64,35914,-58,31,127,0,0,3671,0,0,17044,8095,75,31957,-4,0,97,-5,249239,0
249255,304,-2198,201,-776,-126,-1416,13501,1,-15,213,24,35909,-49,31,127,0,0,3669,-43,0,17044,8095,75,31967,-4,0,97,-5,249239,0
249265,285,-2190,238,-815,-217,-1522,13496,-13,-20,121,8,35924,-76,31,127,0,0,3667,-10,0,17044,8095,75,31977,-4,0,-12,0,249254,0
249275,252,-2239,257,-842,-277,-1621,13496,-5,2,93,48,35929,-70,31,127,0,0,3669,0,0,17044,8095,75,31987,-4,0,-13,0,249270,0
249285,160,-2272,257,-910,-353,-1835,13497,5,8,90,24,35922,-69,31,127,0,0,3667,-32,0,17044,8095,75,31997,-4,0,-12,0,249286,0
249295,125,-2289,246,-969,-419,-2005,13494,-8,-5,75,24,35904,-56,31,127,0,0,3669,32,0,17044,8095,75,32007,-4,0,-12,0,249286,0
249305,65,-2351,203,-1039,-501,-2260,13497,1,7,90,56,35906,-51,31,127,0,0,3669,21,0,17044,8095,75,32017,-4,0,-12,0,249286,0
249315,-11,-2409,198,-1053,-553,-2465,13497,7,6,153,32,35916,-61,31,127,0,0,3669,10,0,17044,8095,75,32027,-4,0,-12,0,249301,0
249325,21,-2518,209,-1018,-671,-2807,13499,-10,-3,147,40,35916,-59,31,127,0,0,3671,32,0,17044,8095,75,32037,-4,0,-11,0,249317,0
249335,25,-2576,235,-963,-797,-3061,13503,9,0,211,56,35924,-56,31,127,0,0,3669,-21,0,17044,8095,75,32047,-4,0,-11,0,249333,0
249345,195,-2596,372,-886,-1014,-3429,13504,0,0,147,64,35913,-50,31,127,0,0,3669,-21,0,17044,8095,75,32057,-4,0,-10,0,249333,0
249355,347,-2495,470,-830,-1193,-3593,13502,-8,-12,116,72,35911,-45,31,127,0,0,3669,10,0,17044,8095,75,32067,-4,0,-10,0,249333,0
249365,654,-2686,405,-930,-1237,-3642,13504,-1,0,139,32,35919,-25,31,127,0,0,3669,-21,0,17044,8095,75,32077,-4,0,-10,0,249364,0
249375,807,-2738,404,-904,-1137,-3585,13502,3,-6,95,8,35915,-37,31,127,0,0,3662,-76,0,17044,8095,75,32087,-4,0,-9,0,249379,0
249385,563,-2379,301,-644,-914,-3358,13486,-66,-23,-172,-160,35912,-41,31,127,0,0,3645,-208,0,17044,8095,75,32097,-4,0,-9,0,249395,0
249395,167,-1513,368,-450,-742,-2868,13418,-176,-126,-322,-304,35909,-55,31,127,0,0,3607,-351,0,17044,8095,75,32107,-4,0,-8,0,249395,0
249405,-500,-819,213,-123,-403,-1702,13304,-282,-190,-398,-496,35898,-40,31,127,0,0,3572,-373,0,17044,8095,75,32117,-4,0,-7,0,249395,0
249415,-673,-732,226,90,-528,-1187,13155,-338,-149,-415,-664,35897,-58,31,127,0,0,3515,-582,0,17044,8095,75,32127,-4,0,-7,0,249395,0
249425,-589,-975,258,659,-757,113,12980,-408,-113,-432,-896,35912,-77,31,127,0,0,3465,-527,0,17044,8095,75,32137,-4,0,-5,0,249442,0
249435,-555,-1167,312,1028,-774,1072,12778,-446,-109,-395,-1016,35914,-75,31,127,0,0,3416,-505,0,17044,8095,75,32147,-4,0,-4,0,249458,0
249445,-728,-1207,388,1491,-726,2396,12556,-494,-81,-369,-944,35910,-50,31,127,0,0,3375,-450,0,17044,8095,75,32157,-4,0,-3,0,249458,0
249455,-848,-1285,442,1747,-684,3147,12332,-487,-38,-365,-968,35901,-31,31,127,0,0,3337,-406,0,17044,8095,75,32167,-4,0,-1,0,249458,0
249465,-782,-1530,420,2060,-614,4144,12116,-471,12,-382,-920,35892,-34,31,127,0,0,3298,-406,0,17044,8095,75,32177,-4,0,0,0,249458,0
249475,-693,-1694,393,2242,-520,4785,11906,-468,29,-382,-920,35890,-26,31,127,0,0,3262,-351,0,17044,8095,75,32187,-4,0,1,0,249458,0
249485,-614,-1867,357,2515,-316,5636,11698,-450,14,-361,-840,35904,-36,31,127,0,0,3229,-318,0,17044,8095,75,32197,-4,0,4,0,249473,0
249495,-525,-1980,344,2641,-134,6087,11502,-435,29,-366,-696,35917,-49,31,127,0,0,3203,-318,0,17044,8095,75,32207,-4,0,6,0,249489,0
249505,-511,-2188,387,2763,163,6600,11322,-405,43,-383,-648,35914,-58,31,127,0,0,3181,-252,0,17044,8095,75,32217,-4,0,9,0,249489,0
249515,-517,-2334,424,2821,383,6853,11154,-354,48,-330,-456,35902,-57,31,127,0,0,3166,-131,0,17044,8095,75,32227,-4,0,11,0,249536,0
249525,-446,-2465,414,2889,698,7151,11007,-300,65,-267,-264,35901,-44,31,127,0,0,3159,-32,0,17044,8095,75,32237,-4,0,14,0,249536,0
249535,-423,-2430,404,2916,911,7211,10907,-184,136,-125,-56,35902,-48,31,127,0,0,3159,0,0,17044,8095,75,32247,-4,0,17,0,249536,0
249545,-235,-2569,405,2952,1132,7424,10908,88,282,22,96,35901,-74,31,127,0,0,3183,219,0,17044,8095,75,32257,-4,0,20,0,249551,0
249555,-243,-2633,455,2967,1261,7546,10974,159,324,336,368,35890,-87,31,127,0,0,3232,472,0,17044,8095,75,32267,-4,0,23,0,249551,0
249565,-334,-2657,541,3047,1413,7591,11105,341,226,489,752,35898,-97,31,127,0,0,3298,681,0,17044,8095,75,32277,-4,0,26,0,249582,0
249575,-311,-2590,518,3083,1486,7569,11304,480,249,531,1176,35905,-78,31,127,0,0,3385,889,0,17044,8095,75,32287,-4,0,29,0,249582,0
249585,-190,-2518,389,3088,1531,7562,11576,656,277,586,1704,35900,-48,31,127,0,0,3489,1065,0,17044,8095,75,32297,-4,0,32,-23,249582,0
249595,37,-2438,282,3051,1649,7399,11930,830,296,602,2048,35892,-42,31,127,0,0,3590,999,0,17044,8095,75,32307,-4,0,35,-22,249582,0
249605,80,-2396,238,2954,1858,7005,12337,918,260,438,2096,35884,-29,31,127,0,0,3658,681,0,17044,8095,75,32317,-4,0,39,-21,249582,0
249615,-5,-2462,325,2854,1869,6780,12744,875,115,252,1752,35888,-44,31,127,0,0,3700,406,0,17044,8095,75,32327,-4,0,41,-21,249614,0
249625,89,-2500,470,2637,1655,6485,13111,770,-86,162,1336,35892,-23,31,127,0,0,3726,241,0,17044,8095,75,32337,-4,0,45,-20,249614,0
249635,198,-2426,448,2492,1416,6277,13416,628,-196,107,896,35899,-49,31,127,0,0,3737,131,0,17044,8095,75,32347,-4,0,47,-19,249614,0
249645,224,-2272,293,2360,871,5887,13654,489,-245,122,480,35904,-46,31,127,0,0,3737,-10,0,17044,8095,75,32357,-4,0,50,-18,249645,0
249655,487,-2139,187,2331,476,5570,13825,335,-260,35,48,35907,-59,31,127,0,0,3728,-131,0,17044,8095,75,32367,-4,0,52,-18,249661,0
249665,361,-1788,95,2327,-188,4897,13864,-37,-371,-344,-176,35914,-49,31,127,0,0,3711,-197,0,17044,8095,75,32377,-4,0,55,-17,249661,0
249675,429,-1686,51,2249,-587,4413,13786,-186,-497,-272,-288,35907,-48,31,127,0,0,3682,-285,0,17044,8095,75,32387,-4,0,57,-16,249661,0
249685,573,-1726,52,1978,-887,3748,13678,-251,-264,-331,-344,35899,-61,31,127,0,0,3660,-241,0,17044,8095,75,32397,-4,0,59,-16,249676,0
249695,531,-1786,33,1700,-901,3191,13560,-248,-72,-309,-376,35892,-39,31,127,0,0,3634,-263,0,17044,8095,75,32407,-4,0,60,-16,249692,0
249705,523,-1831,-69,1215,-611,2051,13439,-284,-22,-364,-448,35894,-33,31,127,0,0,3603,-318,0,17044,8095,75,32417,-4,0,62,-16,249692,0
249715,469,-1930,-84,848,-241,1206,13306,-304,-30,-427,-600,35902,-31,31,127,0,0,3561,-406,0,17044,8095,75,32427,-4,0,64,-16,249786,0
249725,599,-1929,-181,241,491,-168,13153,-343,-59,-499,-720,35905,-69,31,127,0,0,3517,-450,0,17044,8095,75,32437,-4,0,65,-16,249786,0
249735,662,-1762,-280,-139,1030,-1144,12986,-376,-63,-482,-864,35904,-79,31,127,0,0,3471,-450,0,17044,8095,75,32447,-4,0,66,-16,249786,0
249745,-424,-11180,-703,-1666,817,-1129,12793,-448,-79,-398,-368,35901,-52,31,127,0,0,3577,1417,0,17044,8095,75,32457,-4,0,67,-17,249801,0
249755,570,-1671,4794,543,3030,-2618,12829,570,333,2647,3120,35891,-10,31,127,0,0,3891,2988,0,17044,8095,75,32467,-4,0,67,-17,249801,0
249765,633,-769,2,-44,301,-3462,13424,1488,1621,1291,4168,35876,41,31,127,0,0,4084,1911,0,17044,8095,75,32477,-4,0,68,-17,249801,0
249775,-1155,-1800,450,-715,482,-2688,14184,1720,1391,798,4448,35869,58,31,127,0,0,4278,1955,0,17044,8095,75,32487,-4,0,68,-17,249801,0
249785,-1034,-2046,-269,-1174,300,-2420,15038,1982,465,1028,5256,35859,94,31,127,0,0,4517,2416,0,17044,8095,75,32497,-4,0,68,-17,249801,0
249795,-680,-2701,-1509,-1073,616,-3534,16048,2296,497,823,5552,35862,86,31,127,0,0,4713,1867,0,17044,8095,75,32507,-4,0,69,-17,249801,0
249805,-312,-3481,-636,-775,-100,-4679,17084,2219,363,376,4968,35858,82,31,127,0,0,4833,1153,0,17044,8095,75,32517,-4,0,69,-18,249801,0
249815,-146,-3228,579,-668,-951,-4762,18007,1940,-183,130,4024,35866,45,31,127,0,0,4904,692,0,17044,8095,75,32527,-4,0,69,-18,249801,0
249825,104,-2892,704,-980,-991,-5085,18787,1624,-495,0,2840,35895,-10,31,127,0,0,4928,219,0,17044,8095,75,32537,-4,0,69,-18,249801,0
249835,296,-1927,502,-1232,-726,-5262,19403,1237,-578,-117,1568,35921,-48,31,127,0,0,4917,-131,0,17044,8095,75,32547,-4,0,69,-18,249848,0
249845,533,-1514,426,-1236,-113,-5541,19821,774,-694,-224,224,35925,-71,31,127,0,0,4869,-483,0,17044,8095,75,32557,-4,0,68,-18,249848,0
249855,1605,-2034,382,-1136,-98,-5328,19913,-168,-988,-1418,-616,35909,-60,31,127,0,0,4794,-758,0,17044,8095,75,32567,-4,0,68,-18,249848,0
249865,1193,-1079,558,-815,306,-5225,19713,-532,-1244,-617,-1640,35897,-36,31,127,0,0,4658,-1406,0,17044,8095,75,32577,-4,0,68,-18,249848,0
249875,1966,-2205,834,-784,88,-4589,19356,-878,-843,-712,-2296,35900,-26,31,127,0,0,4535,-1252,0,17044,8095,75,32587,-4,0,67,-18,249864,0
249885,1564,-1945,856,-822,-33,-3571,18888,-1082,-519,-534,-2688,35909,-2,31,127,0,0,4418,-1175,0,17044,8095,75,32597,-4,0,67,-18,249879,0
249895,1092,-2073,613,-849,-178,-2992,18365,-1168,-322,-403,-2688,35906,-15,31,127,0,0,4317,-999,0,17044,8095,75,32607,-4,0,66,-18,249895,0
249905,453,-2167,296,-788,-288,-2295,17831,-1169,-133,-285,-2544,35904,-24,31,127,0,0,4245,-714,0,17044,8095,75,32617,-4,0,66,-18,249895,0
249915,-219,-2093,-63,-708,-305,-2168,17323,-1088,35,-154,-2256,35904,-42,31,127,0,0,4177,-670,0,17044,8095,75,32627,-4,0,66,-18,249911,0
249925,-312,-1887,-283,-491,-59,-2213,16860,-993,140,-166,-1976,35911,-53,31,127,0,0,4106,-681,0,17044,8095,75,32637,-4,0,65,-18,249926,0
249935,-109,-1893,-185,-343,67,-2208,16438,-900,162,-187,-1840,35917,-47,31,127,0,0,4036,-703,0,17044,8095,75,32647,-4,0,65,-18,249926,0
249945,416,-1789,245,-181,40,-1972,16041,-857,130,-219,-1680,35919,-52,31,127,0,0,3972,-637,0,17044,8095,75,32657,-4,0,64,-18,249926,0
249955,540,-1860,356,-158,-20,-1704,15670,-809,102,-245,-1512,35914,-26,31,127,0,0,3922,-494,0,17044,8095,75,32667,-4,0,64,-18,249957,0
249965,529,-1897,504,-172,-74,-1413,15327,-729,93,-237,-1360,35914,-37,31,127,0,0,3873,-450,0,17044,8095,75,32677,-4,0,64,-18,249957,0
249975,362,-2020,551,-194,-85,-1316,15023,-643,135,-255,-1160,35914,-16,31,127,0,0,3834,-395,0,17044,8095,75,32687,-4,0,64,-18,249957,0
249985,186,-1995,621,-214,-94,-1365,14756,-569,143,-311,-1056,35913,-36,31,127,0,0,3792,-428,0,17044,8095,75,32697,-4,0,64,-18,249973,0
249995,87,-1992,595,-229,-101,-1427,14513,-514,119,-335,-1048,35904,-32,31,127,0,0,3746,-483,0,17044,8095,75,32707,-4,0,64,-18,249989,0
250005,31,-1939,491,-325,-89,-1521,14281,-500,67,-400,-1112,35908,-32,31,127,0,0,3700,-483,0,17044,8095,75,32717,-4,0,64,-18,250004,0
250015,3,-1935,433,-395,-82,-1543,14040,-528,7,-404,-1112,35906,-39,31,127,0,0,3654,-450,0,17044,8095,75,32727,-4,0,64,-18,250004,0
250025,74,-1865,340,-435,-77,-1637,13799,-536,-19,-386,-1128,35906,-47,31,127,0,0,3607,-450,0,17044,8095,75,32737,-4,0,64,-18,250004,0
250035,131,-1910,313,-429,-51,-1753,13559,-522,0,-400,-1152,35923,-53,31,127,0,0,3557,-516,0,17044,8095,75,32747,-4,0,64,-18,250036,0
250045,323,-1961,416,-401,-41,-1851,13313,-539,-1,-402,-1208,35922,-43,31,127,0,0,3500,-582,0,17044,8095,75,32757,-4,0,64,-18,250036,0
250055,390,-2024,535,-418,-101,-1834,13062,-556,-21,-452,-1200,35921,-40,31,127,0,0,3449,-516,0,17044,8095,75,32767,-4,0,64,-18,250036,0
250065,429,-2050,531,-521,-175,-1794,12830,-583,-28,-465,-1240,35905,-19,31,127,0,0,3396,-461,0,17044,8095,75,32777,-4,0,64,-18,250051,0
250075,398,-2060,438,-597,-184,-1809,12566,-585,-31,-432,-1336,35907,-37,31,127,0,0,3344,-516,0,17044,8095,75,32787,-4,0,64,-18,250067,0
250085,378,-1982,240,-617,-181,-1942,12299,-586,-19,-452,-1344,35914,-27,31,127,0,0,3287,-571,0,17044,8095,75,32797,-4,0,64,-18,250145,0
250095,373,-1957,177,-600,-159,-1990,12024,-623,-21,-478,-1464,35918,-32,31,127,0,0,3223,-637,0,17044,8095,75,32807,-4,0,64,-18,250145,0
250105,378,-1928,284,-563,-165,-1980,11732,-652,-52,-505,-1480,35907,-30,31,127,0,0,3164,-637,0,17044,8095,75,32817,-4,0,64,-18,250145,0
250115,401,-1911,325,-596,-176,-1939,11429,-668,-51,-484,-1472,35903,-35,31,127,0,0,3102,-626,0,17044,8095,75,32827,-4,0,64,-18,250145,0
250125,457,-1895,352,-633,-197,-1960,11123,-673,-19,-435,-1456,35896,-30,31,127,0,0,3045,-615,0,17044,8095,75,32837,-4,0,64,-18,250145,0
250135,539,-1895,398,-643,-178,-2021,10824,-644,4,-449,-1424,35896,-27,31,127,0,0,2986,-593,0,17044,8095,75,32847,-4,0,64,-18,250145,0
250145,548,-1985,512,-672,-189,-2008,10537,-622,35,-456,-1424,35897,-24,31,127,0,0,2928,-560,0,17044,8095,75,32857,-4,0,64,-18,250145,0
250155,562,-2012,550,-697,-244,-1965,10255,-614,36,-501,-1352,35898,-29,31,127,0,0,2871,-549,0,17044,8095,75,32867,-4,0,64,-18,250145,0
250165,596,-2036,418,-748,-319,-1960,9981,-585,35,-497,-1320,35897,-45,31,127,0,0,2825,-505,0,17044,8095,75,32877,-4,0,64,-18,250160,0
250175,582,-2039,326,-739,-375,-1980,9719,-575,44,-517,-1240,35904,-30,31,127,0,0,2772,-505,0,17044,8095,75,32887,-4,0,64,-18,250160,0
250185,393,-2055,319,-660,-448,-2026,9458,-575,20,-479,-1192,35917,-47,31,127,0,0,2722,-527,0,17044,8095,75,32897,-4,0,64,-18,250223,0
250195,345,-2013,345,-642,-467,-2063,9210,-537,26,-461,-1160,35922,-52,31,127,0,0,2678,-483,0,17044,8095,75,32907,-4,0,64,-18,250239,0
250205,331,-2109,408,-622,-528,-2189,8972,-516,42,-484,-1128,35922,-55,31,127,0,0,2627,-516,0,17044,8095,75,32917,-4,0,64,-18,250239,0
250215,413,-2208,472,-601,-559,-2252,8736,-525,26,-466,-1080,35905,-38,31,127,0,0,2581,-472,0,17044,8095,75,32927,-4,0,64,-18,250239,0
250225,558,-2056,544,-590,-649,-2324,8505,-505,14,-484,-1056,35895,-42,31,127,0,0,2542,-395,0,17044,8095,75,32937,-4,0,64,-18,250239,0
250235,584,-1927,510,-644,-805,-2390,8287,-477,35,-454,-1032,35894,-45,31,127,0,0,2496,-439,0,17044,8095,75,32947,-4,0,64,-18,250239,0
250245,660,-1957,494,-656,-1043,-2493,8070,-469,25,-456,-1000,35893,-48,31,127,0,0,2447,-483,0,17044,8095,75,32957,-4,0,64,-18,250239,0
250255,776,-2039,456,-654,-1241,-2504,7857,-476,14,-494,-1000,35894,-35,31,127,0,0,2408,-384,0,17044,8095,75,32967,-4,0,64,-18,250239,0
250265,722,-1935,603,-588,-1831,-2433,7648,-454,15,-519,-888,35904,-20,31,127,0,0,2373,-318,0,17044,8095,75,32977,-4,0,64,-18,250254,0
250275,864,-2305,406,-609,-1953,-2480,7447,-427,28,-395,-768,35918,-17,31,127,0,0,2342,-318,0,17044,8095,75,32987,-4,0,64,-18,250270,0
250285,480,-2526,528,-813,-1974,-2261,7259,-391,48,-369,-600,35917,-5,31,127,0,0,2329,-120,0,17044,8095,75,32997,-4,0,64,-18,250270,0
250295,309,-2233,422,-1023,-1788,-2336,7100,-326,86,-328,-352,35920,-11,31,127,0,0,2322,0,0,17044,8095,75,33007,-4,0,64,-18,250301,0
250305,308,-2215,71,-1191,-1720,-2508,6986,-214,148,-213,-112,35913,-32,31,127,0,0,2320,-21,0,17044,8095,75,33017,-4,0,64,-18,250301,0
250315,284,-2337,50,-1169,-1697,-2651,6940,-38,226,-160,-16,35912,-64,31,127,0,0,2320,0,0,17044,8095,75,33027,-4,0,64,-18,250301,0
250325,412,-2306,99,-1110,-1577,-2901,6950,23,237,-259,-32,35911,-91,31,127,0,0,2320,-10,0,17044,8095,75,33037,-4,0,64,-18,250301,0
250335,507,-2083,224,-1148,-1587,-3005,6949,-1,59,-214,-8,35918,-110,31,127,0,0,2322,10,0,17044,8095,75,33047,-4,0,64,-18,250332,0
250345,577,-1913,189,-1356,-1717,-2971,6951,-8,-20,-219,-16,35921,-102,31,127,0,0,2326,65,0,17044,8095,75,33057,-4,0,64,-18,250332,0
250355,488,-1982,155,-1596,-2043,-2548,6961,37,22,88,104,35913,-108,31,127,0,0,2357,318,0,17044,8095,75,33067,-4,0,64,-18,250332,0
250365,1082,-2203,-100,-2101,-1618,-2640,7014,153,92,546,496,35904,-101,31,127,0,0,2412,560,0,17044,8095,75,33077,-4,0,64,-18,250364,0
250375,68,-2153,33,-2148,-1529,-2659,7147,328,220,536,664,35896,-87,31,127,0,0,2456,406,0,17044,8095,75,33087,-4,0,64,-18,250364,0
250385,234,-2777,193,-2439,-1464,-2336,7317,391,224,459,936,35899,-60,31,127,0,0,2535,834,0,17044,8095,75,33097,-4,0,64,-18,250379,0
250395,274,-3071,252,-2406,-1310,-2816,7537,518,159,579,1208,35908,-40,31,127,0,0,2612,758,0,17044,8095,75,33107,-4,0,13,0,250395,0
250405,124,-3063,-33,-2348,-1556,-3030,7809,618,198,489,1488,35906,-46,31,127,0,0,2707,955,0,17044,8095,75,33117,-4,0,21,0,250395,0
250415,56,-2882,-18,-2330,-1608,-3072,8127,733,182,571,1872,35913,-61,31,127,0,0,2823,1197,0,17044,8095,75,33127,-4,0,23,0,250395,0
250425,-238,-3025,72,-2439,-1615,-2939,8514,908,217,706,2416,35906,-53,31,127,0,0,2970,1494,0,17044,8095,75,33137,-4,0,28,0,250426,0
250435,-321,-3543,355,-2430,-1461,-3154,8997,1131,323,833,3176,35895,-28,31,127,0,0,3159,1933,0,17044,8095,75,33147,-4,0,31,0,250426,0
250445,-988,-3731,620,-2090,-1347,-3915,9617,1451,440,855,3880,35883,11,31,127,0,0,3344,1845,0,17044,8095,75,33157,-4,0,37,0,250426,0
250455,-849,-3645,632,-1910,-1337,-4502,10362,1709,506,718,4376,35876,20,31,127,0,0,3535,1900,0,17044,8095,75,33167,-4,0,41,0,250504,0
250465,-245,-3915,678,-1748,-1182,-5320,11202,1873,426,507,4456,35869,44,31,127,0,0,3700,1614,0,17044,8095,75,33177,-4,0,47,0,250520,0
250475,279,-3794,967,-1778,-1209,-5766,12055,1868,200,402,4376,35871,32,31,127,0,0,3851,1505,0,17044,8095,75,33187,-4,0,52,0,250520,0
250485,839,-3716,1354,-2144,-2097,-6076,12879,1776,-32,366,4224,35874,15,31,127,0,0,3988,1373,0,17044,8095,75,33197,-4,0,59,0,250520,0
250495,989,-3899,1532,-2287,-2357,-5726,13653,1670,-153,333,4048,35877,-4,31,127,0,0,4122,1384,0,17044,8095,75,33207,-4,0,64,0,250520,0
250505,662,-3241,1620,-2205,-2831,-4723,14393,1623,-160,518,4088,35883,-5,31,127,0,0,4275,1582,0,17044,8095,75,33217,-4,0,72,0,250520,0
250515,361,-2709,1370,-1934,-3300,-3916,15162,1712,-5,669,4400,35882,0,31,127,0,0,4464,1922,0,17044,8095,75,33227,-4,0,77,0,250520,0
250525,11,-1883,967,-1426,-3757,-2555,16001,1901,187,910,4928,35874,16,31,127,0,0,4677,2153,0,17044,8095,75,33237,-4,0,86,0,250520,0
250535,178,-957,714,-891,-3079,-1597,16932,2099,313,1057,5496,35861,54,31,127,0,0,4902,2230,0,17044,8095,75,33247,-4,0,93,0,250520,0
250545,983,-446,-352,-707,-1269,-2191,17941,2239,332,655,5088,35867,71,31,127,0,0,5005,867,0,17044,8095,75,33257,-4,0,102,0,250535,0
250555,791,-68,-443,-435,-282,-2122,18887,1976,36,-30,3192,35883,55,31,127,0,0,4970,-472,0,17044,8095,75,33267,-4,0,108,60,250535,0
250565,386,96,-158,311,546,-1678,19609,1360,-547,-746,664,35903,8,31,127,0,0,4844,-1296,0,17044,8095,75,33277,-4,0,117,55,250567,0
250575,392,-84,-67,660,732,-767,19798,-156,-1424,-2397,-1232,35909,-40,31,127,0,0,4706,-1406,0,17044,8095,75,33287,-4,0,122,52,250567,0
250585,-35,-414,229,1142,965,265,19507,-763,-2050,-709,-2144,35900,-47,31,127,0,0,4570,-1373,0,17044,8095,75,33297,-4,0,130,48,250582,0
250595,114,-606,249,1325,1114,1086,19071,-1030,-1169,-581,-2536,35893,-40,31,127,0,0,4453,-1175,0,17044,8095,75,33307,-4,0,136,45,250582,0
250605,175,-824,240,1694,1545,2149,18565,-1136,-418,-416,-2632,35891,-12,31,127,0,0,4357,-955,0,17044,8095,75,33317,-4,0,144,40,250582,0
250615,266,-914,101,1941,1948,2783,18041,-1147,-165,-275,-2552,35900,-8,31,127,0,0,4262,-944,0,17044,8095,75,33327,-4,0,149,37,250598,0
250625,455,-836,11,2206,2617,3659,17527,-1117,1,-280,-2496,35906,-16,31,127,0,0,4163,-966,0,17044,8095,75,33337,-4,0,157,32,250613,0
250635,555,-693,-25,2271,2964,4219,17018,-1133,26,-337,-2632,35902,-24,31,127,0,0,4049,-1164,0,17044,8095,75,33347,-4,0,162,28,250629,0
250645,665,-642,-35,2372,3333,5051,16488,-1177,-35,-391,-2728,35893,-12,31,127,0,0,3935,-1186,0,17044,8095,75,33357,-4,0,170,24,250629,0
250655,681,-718,-147,2403,3442,5582,15934,-1241,-88,-452,-2976,35891,-16,31,127,0,0,3803,-1307,0,17044,8095,75,33367,-4,0,176,21,250660,0
250665,691,-816,-126,2344,3341,6400,15338,-1331,-133,-479,-3144,35890,-36,31,127,0,0,3678,-1274,0,17044,8095,75,33377,-4,0,184,17,250660,0
250675,732,-987,-60,2358,3129,6962,14728,-1347,-110,-476,-3192,35891,-40,31,127,0,0,3566,-1153,0,17044,8095,75,33387,-4,0,189,14,250660,0
250685,775,-1208,42,2445,2690,7769,14124,-1311,-10,-343,-3016,35890,-11,31,127,0,0,3471,-944,0,17044,8095,75,33397,-4,0,197,10,250660,0
250695,792,-1367,85,2516,2317,8289,13560,-1214,87,-251,-2680,35895,-5,31,127,0,0,3401,-681,0,17044,8095,75,33407,-4,0,203,8,250692,0
250705,885,-1598,126,2589,1650,8889,13051,-1071,174,-159,-2128,35895,-12,31,127,0,0,3361,-373,0,17044,8095,75,33417,-4,0,211,5,250692,0
250715,875,-1759,131,2611,1225,9155,12612,-912,241,-104,-1544,35904,-35,31,127,0,0,3342,-153,0,17044,8095,75,33427,-4,0,216,3,250707,0
250725,855,-2058,40,2727,791,9352,12263,-709,305,-65,-912,35902,-40,31,127,0,0,3333,-65,0,17044,8095,75,33437,-4,0,224,1,250723,0
250735,898,-2238,60,2805,574,9444,12010,-497,352,-102,-480,35901,-46,31,127,0,0,3331,-43,0,17044,8095,75,33447,-4,0,229,0,250723,0
250745,895,-2478,145,2975,421,9436,11836,-324,332,-71,-96,35897,-55,31,127,0,0,3331,0,0,17044,8095,75,33457,-4,0,236,-2,250723,0
250755,856,-2579,69,3128,413,9374,11771,-51,354,71,40,35901,-51,31,127,0,0,3333,10,0,17044,8095,75,33467,-4,0,241,-3,250754,0
250765,855,-2716,-47,3291,481,9504,11792,42,395,-41,136,35900,-66,31,127,0,0,3350,219,0,17044,8095,75,33477,-4,0,248,-4,250754,0
250775,711,-2717,-93,3383,713,9373,11843,157,203,418,304,35901,-67,31,127,0,0,3383,285,0,17044,8095,75,33487,-4,0,253,-5,250770,0
250785,570,-2690,-128,3446,1073,9035,11965,292,190,316,424,35903,-67,31,127,0,0,3414,318,0,17044,8095,75,33497,-4,0,259,-6,250770,0
250795,479,-2650,-106,3453,1311,8754,12109,334,186,276,352,35900,-42,31,127,0,0,3427,120,0,17044,8095,75,33507,-4,0,264,-7,250801,0
250805,657,-2590,-83,3333,1549,8534,12244,267,25,158,184,35902,-16,31,127,0,0,3443,142,0,17044,8095,75,33517,-4,0,270,-8,250801,0
250815,723,-2529,-53,3197,1606,8543,12342,176,-95,92,144,35904,-32,31,127,0,0,3456,175,0,17044,8095,75,33527,-4,0,274,-8,250801,0
250825,893,-2461,-87,2993,1585,8505,12400,116,-140,224,168,35908,-31,31,127,0,0,3473,175,0,17044,8095,75,33537,-4,0,280,-8,250910,0
250835,898,-2463,-121,2868,1482,8471,12465,144,-70,269,104,35901,-45,31,127,0,0,3480,54,0,17044,8095,75,33547,-4,0,284,-8,250910,0
250845,896,-2478,-144,2718,1232,8459,12521,102,0,185,96,35905,-56,31,127,0,0,3487,43,0,17044,8095,75,33557,-4,0,289,-9,250910,0
250855,880,-2505,-191,2693,1058,8412,12540,33,-91,292,120,35902,-81,31,127,0,0,3495,87,0,17044,8095,75,33567,-4,0,292,-9,250910,0
250865,763,-2517,-269,2756,699,8199,12576,101,-40,334,168,35901,-96,31,127,0,0,3509,131,0,17044,8095,75,33577,-4,0,296,-9,250910,0
250875,740,-2518,-285,2802,470,7839,12632,152,76,408,272,35899,-83,31,127,0,0,3526,142,0,17044,8095,75,33587,-4,0,299,-9,250926,0
250885,450,-2552,-187,2719,118,7032,12721,211,107,279,248,35902,-74,31,127,0,0,3541,131,0,17044,8095,75,33597,-4,0,302,-9,250926,0
250895,337,-2675,-56,2498,-55,6317,12809,187,62,278,224,35901,-55,31,127,0,0,3561,197,0,17044,8095,75,33607,-4,0,304,-9,250926,0
250905,224,-2936,104,1946,-90,5000,12911,229,14,243,264,35901,-34,31,127,0,0,3583,252,0,17044,8095,75,33617,-4,0,307,-9,250926,0
250915,259,-3099,138,1501,58,3909,13008,220,20,316,344,35899,-28,31,127,0,0,3610,274,0,17044,8095,75,33627,-4,0,308,-9,250926,0
250925,486,-3059,79,867,404,2058,13129,274,39,317,304,35904,-32,31,127,0,0,3634,175,0,17044,8095,75,33637,-4,0,309,-9,250926,0
250935,737,-2783,-48,397,612,783,13262,293,72,216,280,35910,-49,31,127,0,0,3643,65,0,17044,8095,75,33647,-4,0,309,-9,250926,0
250945,987,-2416,-32,-263,789,-894,13370,180,-22,31,56,35915,-69,31,127,0,0,3645,21,0,17044,8095,75,33657,-4,0,309,-9,250926,0
250955,1101,-2277,-46,-632,875,-1864,13396,-12,-207,-177,-40,35921,-58,31,127,0,0,3645,32,0,17044,8095,75,33667,-4,0,309,-9,250988,0
250965,1123,-2104,-52,-1008,999,-3148,13386,1,-237,5,-16,35923,-65,31,127,0,0,3643,-21,0,17044,8095,75,33677,-4,0,309,-9,250988,0
250975,939,-2782,-113,-1220,1165,-3851,13387,-6,-42,-107,-16,35916,-52,31,127,0,0,3647,32,0,17044,8095,75,33687,-4,0,309,-9,250988,0
250985,-740,-6352,2640,-1177,1846,-2008,13406,139,36,832,1416,35910,-52,31,127,0,0,3869,2515,0,1454,777,76,1,1,1,309,-9,250988,0
250995,-1023,-2200,2646,1105,1183,-3245,13763,1053,678,1758,3208,35894,-17,31,127,0,0,4040,1538,0,1454,777,76,11,1,1,309,-9,250988,0
251005,-885,-1179,525,950,-533,-2908,14344,1313,1133,647,3688,35883,1,31,127,0,0,4181,1439,0,1454,777,76,21,1,1,309,-9,250988,0
251015,-609,-789,47,401,-48,-2875,15089,1823,699,1457,5232,35874,51,31,127,0,0,4346,1636,0,1454,777,76,31,1,1,309,-9,251004,0
251025,-1075,-1100,-451,-992,751,-3379,16115,2423,862,1342,6392,35870,99,31,127,0,0,4515,1702,0,1454,777,76,41,1,1,309,-9,251035,0
251035,-1312,-2323,-431,-1137,1195,-3608,17326,2756,907,1187,7016,35859,149,31,127,0,0,4675,1549,0,1454,777,76,51,1,1,309,-9,251035,0
251045,-872,-2622,-370,-606,887,-4178,18637,2930,553,837,7208,35846,154,31,127,0,0,4801,1230,0,1454,777,76,61,1,1,309,-9,251035,0
251055,58,-2264,-441,-628,445,-4596,19967,2886,232,462,6896,35846,124,31,127,0,0,4877,747,0,1454,777,76,71,1,1,309,-9,251035,0
251065,840,-2419,-272,-807,-147,-4873,21083,2665,-149,396,6352,35860,76,31,127,0,0,4924,395,0,1454,777,76,81,1,1,309,-9,251082,0
251075,947,-2626,229,-561,-503,-4971,22208,2376,-425,42,4536,35880,35,31,127,0,0,4932,54,0,1454,777,76,91,1,1,309,-9,251082,0
251085,890,-2074,420,-533,-815,-4709,23147,1915,-607,-411,2520,35898,-16,31,127,0,0,4917,-131,0,1454,777,76,101,1,1,309,-9,251082,0
251095,403,-1778,1033,-630,-732,-4488,23809,1255,-922,-585,888,35913,-51,31,127,0,0,4886,-307,0,1454,777,76,111,1,1,309,-9,251082,0
251105,1438,-3028,1263,-817,-331,-4462,24172,616,-1112,-966,-256,35920,-83,31,127,0,0,4842,-450,0,1454,777,76,121,1,1,309,-9,251082,0
251115,598,-1716,1078,-680,258,-4981,24114,-332,-1381,-901,-1168,35928,-97,31,127,0,0,4739,-1131,0,1454,777,76,131,1,1,309,-9,251129,0
251125,704,-2277,1137,-875,106,-3948,23825,-765,-1223,-140,-872,35924,-63,31,127,0,0,4662,-637,660,1454,777,76,141,1,1,309,-9,251145,0
251135,1516,-1751,877,-985,-251,-3767,23362,-1144,-734,306,-1616,35924,-52,31,127,0,0,4581,-845,860,1454,777,76,151,1,1,309,-9,251145,0
251145,-63,-1871,30,-936,-178,-3756,22741,-1433,-626,420,-2072,35915,-42,31,127,0,0,4464,-1175,1060,1454,777,76,161,1,1,309,-9,251145,0
251155,-510,-1875,-331,-827,189,-3886,22080,-1431,-340,552,-1792,35912,-78,31,127,0,0,4337,-1285,1260,1454,777,76,171,1,1,309,-9,251145,0
251165,-8,-1876,-87,-541,313,-3633,21495,-1217,115,732,-1104,35915,-106,31,127,0,0,4223,-1109,1460,1454,777,76,181,1,1,309,-9,251145,0
251175,525,-1964,153,-488,78,-3169,21011,-1005,359,846,-528,35931,-119,31,127,0,0,4128,-911,1500,1454,777,76,191,1,1,309,-9,251254,0
251185,642,-2032,176,-435,-231,-2584,20622,-791,371,984,-200,35936,-129,31,127,0,0,4053,-703,1500,1454,777,76,201,1,1,309,-9,251254,0
251195,498,-1967,273,-334,-330,-2326,20311,-654,324,1015,-152,35934,-117,31,127,0,0,3999,-549,1500,1454,777,76,211,1,1,309,-9,251254,0
251205,475,-1971,390,-229,-163,-2284,19988,-754,94,855,-328,35918,-109,31,127,0,0,3937,-615,1500,1454,777,76,221,1,1,309,-9,251254,0
251215,361,-1977,556,-148,11,-2392,19579,-947,-219,760,-576,35908,-88,31,127,0,0,3860,-802,1500,1454,777,76,231,1,1,309,-9,251270,0
251225,194,-1915,656,-169,125,-2401,19143,-947,-200,824,-424,35908,-99,31,127,0,0,3779,-812,1500,1454,777,76,241,1,1,309,-9,251270,0
251235,390,-1915,627,-207,45,-2199,18759,-788,74,950,-184,35913,-95,31,127,0,0,3708,-714,1500,1454,777,76,251,1,1,309,-9,251270,0
251245,579,-1922,553,-288,-248,-1689,18485,-524,332,1144,-32,35914,-105,31,127,0,0,3656,-494,1500,1454,777,76,261,1,1,309,-9,251270,0
251255,639,-1845,565,-329,-462,-1445,18299,-389,376,993,-8,35912,-81,31,127,0,0,3621,-351,1500,1454,777,76,271,1,1,309,-9,251270,0
251265,223,-1878,540,-377,-501,-1493,18102,-458,111,845,-56,35908,-80,31,127,0,0,3585,-362,1500,1454,777,76,281,1,1,309,-9,251270,0
251275,126,-1897,466,-412,-313,-1673,17856,-581,-134,795,-128,35902,-79,31,127,0,0,3544,-450,1500,1454,777,76,291,1,1,309,-9,251270,0
251285,189,-1956,469,-431,-91,-1954,17559,-697,-198,784,-192,35906,-81,31,127,0,0,3482,-615,1560,1454,777,76,301,1,1,309,-9,251270,0
251295,237,-1973,481,-456,-75,-1995,17240,-707,-134,930,-152,35921,-89,31,127,0,0,3423,-637,1710,1454,777,76,311,1,1,309,-9,251270,0
251305,374,-2027,453,-528,-259,-1938,16941,-633,11,1093,-96,35937,-100,31,127,0,0,3366,-527,1870,1454,777,76,321,1,1,309,-9,251316,0
251315,310,-2023,526,-571,-394,-1853,16687,-515,131,1296,-16,35939,-86,31,127,0,0,3320,-439,1980,1454,777,76,331,1,1,309,-9,251316,0
251325,468,-1871,626,-660,-540,-1812,16472,-481,163,1229,-32,35930,-88,31,127,0,0,3276,-417,2040,1454,777,76,341,1,1,309,-9,251316,0
251335,347,-1847,535,-746,-522,-1958,16212,-628,-41,1103,-136,35913,-86,31,127,0,0,3227,-549,2100,1454,777,76,351,1,1,309,-9,251316,0
251345,114,-1924,389,-803,-362,-2336,15866,-804,-271,1094,-232,35913,-72,31,127,0,0,3159,-703,2160,1454,777,76,361,1,1,309,-9,251348,0
251355,110,-1917,343,-795,-269,-2507,15478,-852,-229,1227,-224,35913,-75,31,127,0,0,3084,-769,2230,1454,777,76,371,1,1,309,-9,251348,0
251365,323,-2083,382,-825,-382,-2419,15131,-709,23,1482,-72,35914,-65,31,127,0,0,3016,-659,2280,1454,777,76,381,1,1,309,-9,251348,0
251375,552,-2138,496,-788,-573,-2290,14870,-517,284,1587,-16,35916,-95,31,127,0,0,2964,-461,2340,1454,777,76,391,1,1,309,-9,251379,0
251385,815,-2117,605,-696,-978,-2301,14651,-483,210,1459,0,35916,-115,31,127,0,0,2920,-406,2400,1454,777,76,401,1,1,309,-9,251379,0
251395,588,-2165,546,-681,-905,-2354,14406,-562,-39,1400,-40,35915,-98,31,127,0,0,2874,-461,2480,1454,777,76,411,1,1,309,-9,251379,0
251405,457,-1945,577,-696,-1054,-2492,14137,-581,-103,1486,-40,35919,-86,31,127,0,0,2825,-505,2560,1454,777,76,421,1,1,309,-9,251410,0
251415,550,-2282,364,-804,-1158,-2398,13908,-458,26,1670,40,35913,-74,31,127,0,0,2781,-428,2640,1454,777,76,431,1,1,309,-9,251410,0
251425,470,-2212,331,-1052,-1125,-2177,13761,-266,229,1671,176,35910,-65,31,127,0,0,2753,-274,2720,1454,777,76,441,1,1,309,-9,251410,0
251435,434,-2287,119,-1156,-1095,-2103,13699,-93,319,1641,352,35909,-66,31,127,0,0,2742,-120,2810,1454,777,76,451,1,1,309,-9,251426,0
251445,326,-2312,98,-1067,-1127,-2123,13699,23,285,1663,528,35899,-30,31,127,0,0,2746,54,2910,1454,777,76,461,1,1,309,-9,251441,0
251455,232,-2203,183,-1037,-1094,-2290,13708,5,135,1801,512,35901,-7,31,127,0,0,2746,32,3030,1454,777,76,471,1,1,309,-9,251441,0
251465,340,-2264,358,-1084,-1129,-2606,13711,7,1,1857,528,35895,2,31,127,0,0,2744,21,3160,1454,777,76,481,1,1,309,-9,251457,0
251475,441,-2308,493,-1137,-1194,-2726,13721,33,5,1920,600,35889,-1,31,127,0,0,2748,43,3300,1454,777,76,491,1,1,309,-9,251504,0
251485,327,-2375,541,-1366,-1274,-2836,13746,70,44,1977,776,35877,-6,31,127,0,0,2753,54,3460,1454,777,76,501,1,1,309,-9,251504,0
251495,237,-2425,551,-1520,-1343,-2894,13826,216,134,1990,1232,35875,-8,31,127,0,0,2768,175,3640,1454,777,76,511,1,1,309,-9,251520,0
251505,66,-2623,509,-1634,-1569,-3047,13981,406,248,2112,1776,35874,-1,31,127,0,0,2799,296,3850,1454,777,76,521,1,1,309,-9,251520,0
251515,26,-2671,440,-1686,-1578,-3148,14235,623,335,2313,2464,35865,4,31,127,0,0,2847,494,4100,1454,777,76,531,1,1,309,-9,251520,0
251525,-73,-2603,318,-1815,-1459,-3217,14600,886,398,2588,3136,35851,46,31,127,0,0,2917,725,4430,1454,777,76,541,1,1,309,-9,251520,0
251535,57,-2567,342,-1946,-1457,-3286,15075,1097,427,2797,3640,35836,103,31,127,0,0,3008,955,4840,1454,777,76,551,1,1,309,-9,251535,0
251545,-160,-2594,179,-2104,-1466,-3464,15643,1312,389,3006,4192,35831,181,31,127,0,0,3120,1142,5360,1454,777,76,561,1,1,309,-9,251535,0
251555,-438,-2605,206,-2169,-1380,-3574,16300,1494,342,3322,4720,35818,247,31,127,0,0,3245,1263,6010,1454,777,76,571,1,1,309,-9,251629,0
251565,-607,-2751,82,-2228,-1154,-3685,17049,1717,343,3634,5576,35806,316,31,127,0,0,3388,1417,6800,1454,777,76,581,1,1,309,-9,251629,0
251575,-1284,-2458,155,-2195,-991,-4096,17952,2113,469,4057,6672,35761,417,31,127,0,0,3559,1746,7350,1454,777,76,591,1,1,309,-9,251629,0
251585,-647,-3378,369,-2422,-1202,-3887,19033,2472,652,4500,7496,35705,558,31,127,0,0,3759,2065,7930,1454,777,76,601,1,1,309,-9,251629,0
251595,-731,-3488,830,-2267,-1329,-4026,20253,2761,607,4730,8328,35636,737,31,127,0,0,3990,2296,8640,1454,777,76,611,1,1,309,-9,251629,0
251605,-868,-3685,902,-2322,-1694,-4484,21568,2946,452,5123,9296,35589,899,31,127,0,0,4236,2526,9400,1454,777,76,621,1,1,309,-9,251645,0
251615,-853,-3719,1062,-2357,-1825,-4850,22987,3228,372,5532,9952,35542,1070,31,127,0,0,4515,2823,10080,1454,777,76,631,1,1,309,-9,251645,0
251625,-651,-3826,1069,-2158,-2457,-5271,24592,3633,569,5959,10488,35482,1253,31,127,0,0,4787,2713,9750,1454,777,76,641,1,1,309,-9,251645,0
251635,-30,-4447,1107,-2165,-2772,-5428,26256,3625,488,5626,10104,35417,1392,31,127,0,0,5064,2768,8240,1454,777,76,651,1,1,309,-9,251645,0
251645,256,-4447,1429,-2195,-3221,-6605,27741,2993,-213,4154,6704,35402,1390,31,127,0,0,5310,2406,3370,1454,777,76,661,1,1,309,-9,251645,0
251655,504,-4121,1652,-2622,-3221,-7961,28534,1132,-1651,1511,1152,35508,1038,31,127,0,0,5455,1285,780,1454,777,76,671,1,1,309,-9,251645,0
251665,99,-4434,1773,-2695,-3114,-9316,28426,-739,-3133,48,-984,35681,553,31,127,0,0,5442,-318,0,1454,777,76,681,1,1,309,-9,251676,0
251675,-195,-3680,1731,-2418,-3145,-8793,27858,-1530,-2631,-1648,-6424,35832,132,31,127,0,0,5352,-922,0,1454,777,76,691,0,1,309,-9,251676,0
251685,-1853,-990,1727,-1493,-4946,-3632,26493,-3634,-2339,-3208,-8024,35823,220,31,127,0,0,5453,1406,0,1454,777,76,701,0,1,309,-9,251676,0
251695,2079,-1914,58,-1322,-3224,-2630,25008,-2741,-1961,2667,-1936,35830,160,31,127,0,0,5715,2537,0,1454,777,76,711,0,1,309,-9,251691,0
251705,982,-1113,-289,-1125,-1128,-2651,24489,-528,1718,3154,784,35843,92,31,127,0,0,5829,1032,0,1454,777,76,721,0,1,309,-9,251691,0
251715,898,-817,-316,-567,327,-2472,24660,459,3251,553,608,35909,-77,31,127,0,0,5809,-318,0,1454,777,76,731,0,1,309,-9,251707,0
251725,236,-738,-26,205,1829,-2189,24816,174,1260,-1024,-904,35938,-111,31,127,0,0,5662,-1604,0,1454,777,76,741,0,1,309,-9,251723,0
251735,403,-851,214,631,2285,-1615,24570,-724,-834,-1268,-2504,35902,-3,31,127,0,0,5466,-2032,0,1454,777,76,751,0,1,309,-9,251723,0
251745,457,-786,374,1056,2628,-498,24048,-1311,-1299,-1324,-3672,35888,5,31,127,0,0,5255,-2054,0,1454,777,76,761,0,1,309,-9,251723,0
251755,476,-722,258,1191,2802,363,23314,-1723,-936,-1014,-4480,35877,45,31,127,0,0,5064,-1889,0,1454,777,76,771,0,1,309,-9,251754,0
251765,548,-735,85,1434,2942,1682,22467,-1889,-627,-628,-4608,35875,82,31,127,0,0,4891,-1724,0,1454,777,76,781,0,1,309,-9,251754,0
251775,622,-720,53,1564,2965,2505,21611,-1876,-228,-436,-4520,35871,59,31,127,0,0,4728,-1604,0,1454,777,76,791,0,1,309,-9,251769,0
251785,749,-644,-13,1685,3057,3633,20768,-1840,15,-292,-4456,35873,29,31,127,0,0,4568,-1625,0,1454,777,76,801,0,1,309,-9,251769,0
251795,859,-588,-50,1705,3132,4361,19928,-1854,29,-311,-4432,35879,4,31,127,0,0,4396,-1790,0,1454,777,76,811,0,1,309,-9,251785,0
251805,892,-538,-160,1730,3192,5423,19083,-1863,-8,-358,-4456,35890,-2,31,127,0,0,4227,-1713,0,1454,777,76,821,0,1,309,-9,251801,0
251815,992,-527,-191,1701,3222,6102,18239,-1849,-10,-372,-4352,35887,1,31,127,0,0,4062,-1658,0,1454,777,76,831,0,1,309,-9,251816,0
251825,1019,-515,-190,1650,3174,7103,17409,-1815,30,-336,-4280,35877,-4,31,127,0,0,3895,-1647,0,1454,777,76,841,0,1,309,-9,251816,0
251835,961,-550,-157,1620,3070,7810,16586,-1802,39,-310,-4232,35882,9,31,127,0,0,3744,-1538,0,1454,777,76,851,0,1,309,-9,251816,0
251845,914,-672,-81,1600,2803,8848,15772,-1770,20,-273,-3976,35893,1,31,127,0,0,3605,-1362,0,1454,777,76,861,0,1,309,-9,251832,0
251855,870,-795,-18,1638,2489,9505,15001,-1642,96,-222,-3536,35900,-2,31,127,0,0,3495,-1065,0,1454,777,76,871,0,1,309,-9,251832,0
251865,832,-876,60,1801,1934,10291,14314,-1448,242,-154,-2984,35900,-13,31,127,0,0,3421,-758,0,1454,777,76,881,0,1,309,-9,251879,0
251875,804,-966,50,1918,1554,10596,13736,-1207,370,-80,-2320,35893,-21,31,127,0,0,3368,-516,0,1454,777,76,891,0,1,309,-9,251879,0
251885,711,-1244,-50,2120,1023,10973,13261,-983,407,-64,-1688,35890,-28,31,127,0,0,3328,-329,0,1454,777,76,901,0,1,309,-9,251879,0
251895,752,-1506,-112,2286,750,11212,12889,-742,399,-40,-1016,35894,-47,31,127,0,0,3315,-87,0,1454,777,76,911,0,1,309,-9,251894,0
251905,748,-1813,-7,2666,554,11266,12618,-528,389,-33,-296,35897,-40,31,127,0,0,3320,32,0,1454,777,76,921,0,1,309,-9,251894,0
251915,747,-2128,41,2885,414,11486,12469,-207,418,368,232,35908,-70,31,127,0,0,3337,208,0,1454,777,76,931,0,1,309,-9,251988,0
251925,1060,-2417,158,3196,427,11888,12544,260,673,551,608,35914,-70,31,127,0,0,3390,560,0,1454,777,76,941,0,1,309,-9,251988,0
251935,1055,-2484,205,3372,437,12043,12715,429,614,524,1152,35912,-83,31,127,0,0,3471,823,0,1454,777,76,951,0,1,309,-9,251988,0
251945,975,-2532,192,3580,297,11824,12972,630,339,655,1712,35902,-54,31,127,0,0,3552,823,0,1454,777,76,961,0,1,309,-9,252004,0
251955,1022,-2636,134,3699,193,11430,13308,778,318,505,1856,35896,-30,31,127,0,0,3607,472,0,1454,777,76,971,0,1,309,-9,252004,0
251965,1078,-2824,204,3846,39,10989,13667,784,198,309,1496,35895,-26,31,127,0,0,3625,120,0,1454,777,76,981,0,1,309,-9,252004,0
251975,1103,-2805,258,3835,-83,10887,13991,670,-25,147,1024,35896,-30,31,127,0,0,3632,43,0,1454,777,76,991,0,1,309,-9,252004,0
251985,1192,-2699,320,3650,-315,10819,14253,535,-181,106,568,35894,-61,31,127,0,0,3627,-54,0,1454,777,76,1001,0,1,309,-9,252004,0
251995,1134,-2700,228,3558,-544,10665,14452,399,-238,85,240,35891,-54,31,127,0,0,3625,-21,0,1454,777,76,1011,0,1,309,-9,252004,0
252005,1018,-2778,-62,3557,-963,10206,14583,244,-248,6,120,35893,-54,31,127,0,0,3625,-10,0,1454,777,76,1021,0,1,309,-9,252004,0
252015,907,-2867,-175,3627,-1130,9669,14636,41,-271,-69,40,35897,-42,31,127,0,0,3621,-21,0,1454,777,76,1031,0,1,309,-9,252004,0
252025,504,-2964,-417,3617,-1035,8486,14635,3,-267,238,104,35909,-58,31,127,0,0,3610,-109,0,1454,777,76,1041,0,1,309,-9,252004,0
252035,560,-3127,-401,3256,-735,7568,14642,7,-79,201,104,35932,-77,31,127,0,0,3610,-10,0,1454,777,76,1051,0,1,309,-9,252035,0
252045,368,-3506,-146,2454,-4,5698,14675,100,63,306,144,35934,-94,31,127,0,0,3612,32,0,1454,777,76,1061,0,1,309,-9,252035,0
252055,487,-3680,-169,1808,560,4178,14735,163,106,334,224,35931,-75,31,127,0,0,3618,32,0,1454,777,76,1071,0,1,309,-9,252035,0
252065,779,-3517,-275,862,1320,1581,14819,225,115,227,144,35913,-83,31,127,0,0,3618,0,0,1454,777,76,1081,0,1,309,-9,252051,0
252075,1055,-3134,-373,197,1722,-108,14905,156,52,107,96,35911,-90,31,127,0,0,3616,-21,0,1454,777,76,1091,0,1,309,-9,252066,0
252085,1326,-2657,-329,-663,2185,-2702,14961,88,-89,-121,-8,35913,-88,31,127,0,0,3601,-153,0,1454,777,76,1101,0,1,309,-9,252082,0
252095,1465,-2455,-202,-1091,2312,-4220,14946,-72,-207,-268,-160,35913,-56,31,127,0,0,3574,-274,0,1454,777,76,1111,0,1,309,-9,252082,0
252105,262,-5120,-502,-1662,2238,-5553,14895,-121,-206,-453,-328,35906,-33,31,127,0,0,3541,-307,0,1454,777,76,1121,0,1,309,-9,252082,0
252115,-673,-9926,1926,-2407,2614,-3143,14795,-209,-153,725,1040,35911,-46,31,127,0,0,3772,2724,0,10703,4030,77,3,1,1,399,-8,252160,0
252125,-2120,-2576,2102,1611,694,-4279,15022,700,591,1370,2824,35898,-54,31,127,0,0,3963,1680,0,10703,4030,77,13,1,1,399,-8,252160,0
252135,-1298,-451,966,1047,-667,-3910,15577,1416,1302,1492,4336,35888,-6,31,127,0,0,4157,2010,0,10703,4030,77,23,1,1,399,-8,252160,0
252145,-197,17,-907,-1472,134,-4329,16417,2017,1150,1409,5592,35864,56,31,127,0,0,4359,2043,0,10703,4030,77,33,1,1,399,-8,252160,0
252155,-735,-1768,-632,-2326,963,-5125,17468,2405,923,1083,6208,35841,122,31,127,0,0,4535,1713,0,10703,4030,77,43,1,1,399,-8,252160,0
252165,-757,-2912,-1369,-1429,1302,-5510,18616,2543,543,622,6240,35837,114,31,127,0,0,4671,1384,0,10703,4030,77,53,1,1,399,-8,252176,0
252175,-62,-2896,-719,-999,766,-5761,19763,2503,142,430,5872,35850,80,31,127,0,0,4770,933,0,10703,4030,77,63,1,1,399,-8,252176,0
252185,845,-2465,192,-1119,6,-6433,20831,2270,-178,254,5080,35869,35,31,127,0,0,4816,417,0,10703,4030,77,73,1,1,399,-8,252176,0
252195,1185,-2292,382,-1149,-420,-6660,21766,1959,-432,90,3984,35890,16,31,127,0,0,4801,-186,0,10703,4030,77,83,1,1,399,-8,252176,0
252205,1031,-1471,-18,-1209,-752,-6791,22545,1585,-567,-245,1848,35906,-11,31,127,0,0,4737,-670,0,10703,4030,77,93,1,1,399,-8,252207,0
252215,1020,-1479,103,-1106,-605,-6380,23065,929,-827,-777,0,35917,-37,31,127,0,0,4656,-769,0,10703,4030,77,103,1,1,399,-8,252207,0
252225,444,-1848,615,-785,532,-6411,23107,-267,-1480,-1124,-56,35912,-68,31,127,0,0,4548,-1175,620,10703,4030,77,113,1,1,399,-8,252207,0
252235,3238,-2255,986,-945,-76,-4954,22876,-687,-1459,366,-864,35905,-68,31,127,0,0,4484,-637,820,10703,4030,77,123,1,1,399,-8,252222,0
252245,2562,-1753,1319,-1204,-823,-4812,22283,-1580,-1166,454,-3032,35905,-55,31,127,0,0,4363,-1274,1020,10703,4030,77,133,1,1,399,-8,252254,0
252255,324,-1911,673,-1351,-471,-5080,21339,-2230,-1380,500,-4264,35908,-62,31,127,0,0,4190,-1845,1220,10703,4030,77,143,1,1,399,-8,252254,0
252265,-1555,-1820,33,-841,459,-5583,20263,-2370,-852,522,-4000,35915,-83,31,127,0,0,3992,-1977,1420,10703,4030,77,153,1,1,399,-8,252254,0
252275,-724,-1747,-354,-696,1120,-5490,19273,-2070,-8,698,-2880,35922,-115,31,127,0,0,3807,-1867,1500,10703,4030,77,163,1,1,399,-8,252254,0
252285,986,-1997,139,-669,-103,-4498,18497,-1541,626,862,-1576,35930,-111,31,127,0,0,3660,-1428,1500,10703,4030,77,173,1,1,399,-8,252285,0
252295,1621,-1751,49,-748,-293,-3674,17940,-1096,847,936,-560,35929,-103,31,127,0,0,3557,-988,1610,10703,4030,77,183,1,1,399,-8,252316,0
252305,1376,-1866,370,-726,-553,-2633,17558,-729,744,1263,-112,35925,-102,31,127,0,0,3480,-747,1910,10703,4030,77,193,1,1,399,-8,252332,0
252315,1081,-1805,571,-583,-830,-2061,17335,-398,626,1532,32,35916,-99,31,127,0,0,3434,-450,2160,10703,4030,77,203,1,1,399,-8,252332,0
252325,595,-1891,614,-575,-909,-1777,17156,-431,365,1352,0,35912,-86,31,127,0,0,3405,-274,2380,10703,4030,77,213,1,1,399,-8,252332,0
252335,196,-2116,589,-537,-478,-1926,16897,-639,-130,1291,-120,35905,-82,31,127,0,0,3357,-505,2620,10703,4030,77,223,1,1,399,-8,252332,0
252345,115,-2073,503,-526,-77,-2295,16552,-788,-328,1450,-152,35907,-83,31,127,0,0,3291,-659,2850,10703,4030,77,233,1,1,399,-8,252332,0
252355,312,-2002,476,-536,-76,-2273,16205,-735,-138,1767,-88,35907,-96,31,127,0,0,3225,-659,2950,10703,4030,77,243,1,1,399,-8,252347,0
252365,440,-1907,406,-563,-303,-1971,15900,-641,106,1857,-24,35922,-83,31,127,0,0,3170,-538,3040,10703,4030,77,253,1,1,399,-8,252379,0
252375,365,-2013,293,-558,-387,-1818,15666,-466,257,2018,56,35914,-85,31,127,0,0,3122,-428,3120,10703,4030,77,263,1,1,399,-8,252379,0
252385,542,-1869,292,-551,-424,-1723,15485,-384,200,1938,80,35912,-94,31,127,0,0,3084,-329,3210,10703,4030,77,273,1,1,399,-8,252379,0
252395,522,-1839,380,-567,-459,-1640,15311,-386,61,1941,88,35899,-84,31,127,0,0,3047,-428,3300,10703,4030,77,283,1,1,399,-8,252379,0
252405,515,-1861,456,-527,-554,-1626,15133,-399,-3,1987,96,35898,-75,31,127,0,0,3008,-406,3390,10703,4030,77,293,1,1,399,-8,252394,0
252415,646,-2242,539,-476,-595,-1594,14969,-348,12,2061,136,35900,-55,31,127,0,0,2977,-351,3470,10703,4030,77,303,1,1,399,-8,252426,0
252425,540,-1998,640,-477,-762,-1577,14835,-282,91,2115,184,35900,-66,31,127,0,0,2955,-252,3550,10703,4030,77,313,1,1,399,-8,252426,0
252435,634,-2090,564,-467,-1002,-1535,14727,-219,101,2139,280,35901,-78,31,127,0,0,2931,-208,3640,10703,4030,77,323,1,1,399,-8,252426,0
252445,331,-2219,427,-481,-1090,-1464,14650,-159,107,2208,344,35897,-83,31,127,0,0,2920,-142,3740,10703,4030,77,333,1,1,399,-8,252426,0
252455,221,-2090,390,-527,-1174,-1527,14606,-84,120,2220,496,35896,-45,31,127,0,0,2913,-54,3840,10703,4030,77,343,1,1,399,-8,252441,0
252465,240,-2113,249,-644,-1136,-1620,14603,20,137,2267,680,35892,-19,31,127,0,0,2911,32,3960,10703,4030,77,353,1,1,399,-8,252441,0
252475,243,-1875,164,-802,-1129,-1747,14605,-9,93,2420,664,35891,2,31,127,0,0,2911,10,4100,10703,4030,77,363,1,1,399,-8,252472,0
252485,325,-2073,235,-990,-1081,-1871,14606,6,2,2488,696,35884,6,31,127,0,0,2911,21,4260,10703,4030,77,373,1,1,399,-8,252488,0
252495,284,-2209,472,-997,-1164,-1994,14606,2,-2,2556,784,35885,8,31,127,0,0,2911,-21,4440,10703,4030,77,383,1,1,399,-8,252488,0
252505,254,-2249,574,-947,-1343,-2305,14608,2,3,2700,816,35886,14,31,127,0,0,2911,-10,4630,10703,4030,77,393,1,1,399,-8,252488,0
252515,287,-2355,629,-984,-1358,-2506,14609,-4,0,2806,880,35885,6,31,127,0,0,2909,0,4860,10703,4030,77,403,1,1,399,-8,252504,0
252525,403,-2344,724,-1117,-1437,-2727,14617,20,2,2960,944,35878,10,31,127,0,0,2913,32,5140,10703,4030,77,413,1,1,399,-8,252504,0
252535,407,-2351,635,-1199,-1572,-2859,14630,35,22,3130,1064,35872,19,31,127,0,0,2915,43,5470,10703,4030,77,423,1,1,399,-8,252519,0
252545,240,-2404,409,-1328,-1890,-2997,14689,181,97,3243,1440,35869,43,31,127,0,0,2926,142,5830,10703,4030,77,433,1,1,399,-8,252535,0
252555,79,-2469,410,-1424,-2027,-3037,14832,383,248,3456,2088,35855,56,31,127,0,0,2955,285,6260,10703,4030,77,443,1,1,399,-8,252551,0
252565,-182,-2665,325,-1703,-2015,-3006,15090,663,387,3769,3128,35844,89,31,127,0,0,3001,494,6800,10703,4030,77,453,1,1,399,-8,252566,0
252575,-408,-2952,246,-1920,-1938,-2965,15541,1130,583,4222,4288,35809,183,31,127,0,0,3095,933,7490,10703,4030,77,463,1,1,399,-8,252566,0
252585,-537,-3067,111,-2095,-1822,-2972,16203,1585,778,4679,5496,35774,308,31,127,0,0,3225,1318,8440,10703,4030,77,473,1,1,399,-8,252566,0
252595,-773,-2922,-4,-2192,-1620,-3063,17051,1970,763,5205,6688,35716,510,31,127,0,0,3381,1582,9750,10703,4030,77,483,1,1,399,-8,252582,0
252605,-808,-2672,-107,-2313,-1509,-3218,18060,2330,665,6044,7888,35649,730,31,127,0,0,3572,1944,11360,10703,4030,77,493,1,1,399,-8,252597,0
252615,-777,-2587,-96,-2422,-1496,-3365,19247,2731,654,6992,9016,35555,1028,31,127,0,0,3790,2230,12610,10703,4030,77,503,1,1,399,-8,252597,0
252625,-745,-2673,-2,-2518,-1472,-3728,20562,2931,601,7601,9600,35446,1354,31,127,0,0,4034,2438,13970,10703,4030,77,513,1,1,399,-8,252613,0
252635,-1421,-2621,271,-2408,-1639,-3819,21900,2940,279,8443,9992,35323,1680,31,127,0,0,4284,2559,15510,10703,4030,77,523,1,1,399,-8,252629,0
252645,-1839,-2759,607,-2213,-1164,-4525,23285,3146,116,9099,10760,35226,1971,31,127,0,0,4557,2691,17180,10703,4030,77,533,1,1,399,-8,252629,0
252655,-1610,-3539,660,-2310,-1562,-4675,24915,3792,562,10069,12448,35116,2326,31,127,0,0,4836,2779,17780,10703,4030,77,543,1,1,399,-8,252722,0
252665,-711,-4010,1673,-2652,-1889,-4232,26803,4294,986,10054,13368,34980,2750,31,127,0,0,5172,3427,17350,10703,4030,77,553,1,1,399,-8,252722,0
252675,-899,-4709,1444,-2696,-2259,-4808,28845,4511,805,9847,13288,34842,3148,31,127,0,0,5501,3515,16540,10703,4030,77,563,1,1,399,-8,252722,0
252685,-497,-5324,1585,-2837,-2938,-5996,30747,4007,41,9020,11752,34768,3320,31,127,0,0,5851,3438,14870,10703,4030,77,573,1,1,399,-8,252738,0
252695,-415,-5250,2091,-2758,-3337,-6959,32340,3160,-852,7155,6720,34825,3049,31,127,0,0,6139,2801,4910,10703,4030,77,583,1,1,399,-8,252738,0
252705,24,-5757,2521,-2769,-3667,-9646,32930,358,-2456,1986,-976,35100,2134,31,127,0,0,6249,878,1550,10703,4030,77,593,1,1,399,-8,252738,0
252715,-811,-5131,2406,-3146,-3715,-10892,32283,-1947,-4422,300,-4464,35438,1077,31,127,0,0,6139,-1285,810,10703,4030,77,603,1,1,399,-8,252738,0
252725,-3078,-2037,2817,-2717,-4062,-9436,31245,-2087,-3189,2125,-4752,35732,208,31,127,0,0,5958,-1845,0,10703,4030,77,613,0,1,399,-8,252738,0
252735,-3079,-46,3085,-1692,-6976,-4469,30002,-3603,-964,-4878,-8472,35789,165,31,127,0,0,6060,1505,0,10703,4030,77,623,0,1,399,-8,252738,0
252745,2781,-2312,-730,-1989,-2808,-3556,28484,-2823,-1209,2787,-2672,35806,121,31,127,0,0,6244,1647,0,10703,4030,77,633,0,1,399,-8,252738,0
252755,149,-1072,-280,-1509,-1222,-3099,27763,-1249,1142,1189,-992,35837,59,31,127,0,0,6244,-54,0,10703,4030,77,643,0,1,399,-8,252738,0
252765,457,-1169,-256,18,959,-3099,27361,-755,2173,236,-936,35895,-71,31,127,0,0,6123,-1351,0,10703,4030,77,653,0,1,399,-8,252800,0
252775,-27,-892,163,648,1364,-2621,27047,-748,769,-815,-2584,35946,-156,31,127,0,0,5912,-2153,0,10703,4030,77,663,0,1,399,-8,252800,0
252785,377,-871,658,1143,2436,-1598,26512,-1371,-264,-1476,-4032,35896,-25,31,127,0,0,5684,-2307,0,10703,4030,77,673,0,1,399,-8,252800,0
252795,384,-726,577,1322,2984,-677,25725,-1879,-928,-1272,-5144,35865,32,31,127,0,0,5449,-2395,0,10703,4030,77,683,0,1,399,-8,252800,0
252805,495,-692,262,1516,3696,914,24748,-2242,-844,-894,-5504,35832,84,31,127,0,0,5238,-2032,0,10703,4030,77,693,0,1,399,-8,252800,0
252815,560,-725,151,1689,3990,1923,23699,-2315,-507,-497,-5312,35834,84,31,127,0,0,5055,-1812,0,10703,4030,77,703,0,1,399,-8,252816,0
252825,743,-673,-1,1939,4303,3239,22680,-2198,-73,-319,-4984,35846,53,31,127,0,0,4884,-1713,0,10703,4030,77,713,0,1,399,-8,252816,0
252835,808,-517,-103,2016,4441,3993,21742,-2016,215,-255,-4784,35870,26,31,127,0,0,4708,-1768,0,10703,4030,77,723,0,1,399,-8,252816,0
252845,944,-377,-96,2089,4599,5026,20848,-1960,239,-364,-4904,35882,27,31,127,0,0,4515,-1966,0,10703,4030,77,733,0,1,399,-8,252832,0
252855,969,-374,-92,2079,4578,5736,19923,-2080,32,-600,-5240,35893,15,31,127,0,0,4297,-2197,0,10703,4030,77,743,0,1,399,-8,252832,0
252865,965,-471,-71,2048,4380,6858,18929,-2208,-196,-527,-5424,35886,17,31,127,0,0,4075,-2230,0,10703,4030,77,753,0,1,399,-8,252879,0
252875,957,-542,-59,1992,4101,7738,17905,-2259,-199,-433,-5392,35879,13,31,127,0,0,3878,-1955,0,10703,4030,77,763,0,1,399,-8,252879,0
252885,1025,-567,-27,1864,3683,9119,16889,-2222,-39,-277,-5160,35880,20,31,127,0,0,3713,-1614,0,10703,4030,77,773,0,1,399,-8,252879,0
252895,1040,-632,-45,1838,3455,9956,15899,-2140,68,-152,-4600,35884,14,31,127,0,0,3577,-1307,0,10703,4030,77,783,0,1,399,-8,252879,0
252905,954,-640,-101,1903,3151,10950,14992,-1904,205,-75,-3968,35893,-4,31,127,0,0,3454,-1197,0,10703,4030,77,793,0,1,399,-8,252894,0
252915,698,-651,-157,2026,2813,11522,14210,-1628,402,-84,-3408,35900,-18,31,127,0,0,3348,-1043,0,10703,4030,77,803,0,1,399,-8,252894,0
252925,504,-846,-126,2202,1994,12267,13551,-1381,481,-86,-2768,35910,-24,31,127,0,0,3282,-637,0,10703,4030,77,813,0,1,399,-8,252925,0
252935,596,-1066,-149,2325,1502,12672,12998,-1134,431,-21,-1928,35906,-21,31,127,0,0,3258,-219,0,10703,4030,77,823,0,1,399,-8,252925,0
252945,814,-1500,-327,2698,1143,12937,12559,-883,422,52,-936,35900,-12,31,127,0,0,3260,10,0,10703,4030,77,833,0,1,399,-8,252925,0
252955,714,-1846,-464,3018,991,13223,12258,-574,474,143,-168,35893,-28,31,127,0,0,3271,142,0,10703,4030,77,843,0,1,399,-8,252957,0
252965,1012,-2272,-259,3427,703,13664,12190,106,692,1043,560,35892,-26,31,127,0,0,3322,527,0,10703,4030,77,853,0,1,399,-8,252957,0
252975,1021,-2561,-4,3670,366,13945,12350,434,931,556,1064,35886,-47,31,127,0,0,3405,845,0,10703,4030,77,863,0,1,399,-8,252957,0
252985,932,-2934,229,3927,-178,13709,12603,633,611,722,1808,35885,-38,31,127,0,0,3511,1032,0,10703,4030,77,873,0,1,399,-8,252972,0
252995,1066,-3151,232,4060,-373,13142,12972,869,393,658,2160,35892,-30,31,127,0,0,3585,681,0,10703,4030,77,883,0,1,399,-8,252988,0
253005,1034,-3429,310,4084,-474,12310,13384,898,308,276,1824,35897,-25,31,127,0,0,3601,109,0,10703,4030,77,893,0,1,399,-8,253004,0
253015,1251,-3502,458,3913,-556,12201,13750,755,4,76,1128,35894,-21,31,127,0,0,3601,-32,0,10703,4030,77,903,0,1,399,-8,253004,0
253025,1174,-3466,604,3605,-685,11783,14042,584,-243,34,616,35898,-29,31,127,0,0,3599,0,0,10703,4030,77,913,0,1,399,-8,253082,0
253035,1117,-3326,316,3551,-804,11122,14260,437,-285,23,240,35896,-47,31,127,0,0,3590,-131,0,10703,4030,77,923,0,1,399,-8,253097,0
253045,898,-3011,-322,3735,-1024,9649,14387,187,-304,-347,-168,35899,-40,31,127,0,0,3566,-296,0,10703,4030,77,933,0,1,399,-8,253097,0
253055,946,-2944,-653,3759,-998,8578,14350,-157,-488,-559,-320,35895,-30,31,127,0,0,3539,-263,0,10703,4030,77,943,0,1,399,-8,253097,0
253065,1029,-3173,-535,3150,-403,6927,14255,-235,-435,-382,-240,35888,-15,31,127,0,0,3524,-76,0,10703,4030,77,953,0,1,399,-8,253097,0
253075,936,-3414,-186,2289,319,5420,14180,-133,-86,-2,24,35888,-16,31,127,0,0,3524,-21,0,10703,4030,77,963,0,1,399,-8,253097,0
253085,1230,-3773,-180,1177,1462,2526,14208,130,265,147,64,35887,-40,31,127,0,0,3520,-120,0,10703,4030,77,973,0,1,399,-8,253097,0
253095,1565,-3642,-486,575,2240,431,14245,10,219,-185,-64,35889,-45,31,127,0,0,3495,-252,0,10703,4030,77,983,0,1,399,-8,253097,0
253105,1885,-2979,-757,-298,3165,-2430,14201,-119,-189,-356,-232,35886,-49,31,127,0,0,3465,-307,0,10703,4030,77,993,0,1,399,-8,253097,0
253115,2051,-2638,-589,-788,3617,-4177,14139,-160,-174,-571,-360,35886,-50,31,127,0,0,3421,-406,0,10703,4030,77,1003,0,1,399,-8,253113,0
253125,1833,-3217,-376,-1332,3956,-6256,14039,-256,-114,-582,-600,35896,-61,31,127,0,0,3379,-450,0,10703,4030,77,1013,0,1,399,-8,253113,0
253135,-816,-13299,576,-2913,3979,-3916,13887,-342,-175,378,1144,35912,-76,31,127,0,0,3645,3273,0,10703,4030,77,1023,0,1,399,-8,253113,0
253145,-2652,-2957,2315,2204,1633,-5293,14162,940,810,1272,1544,35904,-42,31,127,0,0,3886,2131,0,18406,8415,78,9,1,1,398,-4,253144,0
253155,-748,946,437,486,355,-5499,14592,1053,1160,1309,3864,35890,-23,31,127,0,0,4104,2120,0,18406,8415,78,19,1,1,398,-4,253160,0
253165,535,-889,-1286,-2799,987,-5600,15352,1938,867,1830,5720,35855,72,31,127,0,0,4333,2263,0,18406,8415,78,29,1,1,398,-4,253160,0
253175,81,-2939,-1569,-2495,1231,-6567,16452,2573,1340,1228,6544,35836,102,31,127,0,0,4504,1636,0,18406,8415,78,39,1,1,398,-4,253160,0
253185,252,-3064,-2094,-1431,374,-6966,17672,2696,812,688,6472,35831,139,31,127,0,0,4614,1054,0,18406,8415,78,49,1,1,398,-4,253160,0
253195,1030,-3341,-382,-832,-487,-6593,18871,2605,119,356,6072,35840,115,31,127,0,0,4699,802,0,18406,8415,78,59,1,1,398,-4,253191,0
253205,1247,-2744,1106,-622,-716,-6775,19997,2414,-195,235,5296,35860,64,31,127,0,0,4728,208,0,18406,8415,78,69,1,1,398,-4,253191,0
253215,1471,-1877,908,-1259,-689,-7323,20989,2084,-413,51,4200,35869,30,31,127,0,0,4688,-472,0,18406,8415,78,79,1,1,398,-4,253191,0
253225,884,-1138,279,-1475,-340,-7527,21806,1662,-610,-252,1920,35886,-14,31,127,0,0,4587,-1087,0,18406,8415,78,89,1,1,398,-4,253222,0
253235,2414,-1769,-176,-1293,722,-7558,22319,859,-952,-1356,-512,35902,-46,31,127,0,0,4431,-1669,540,18406,8415,78,99,1,1,398,-4,253222,0
253245,4789,-2587,296,-904,-387,-5162,22252,-429,-1759,590,-360,35904,-50,31,127,0,0,4359,-472,740,18406,8415,78,109,1,1,398,-4,253222,0
253255,4086,-1858,1057,-942,-808,-4641,21727,-1491,-1967,418,-3080,35909,-59,31,127,0,0,4253,-1142,940,18406,8415,78,119,1,1,398,-4,253254,0
253265,-353,-2178,661,-1120,-889,-4932,20762,-2325,-1691,415,-4616,35901,-52,31,127,0,0,4082,-1779,1140,18406,8415,78,129,1,1,398,-4,253254,0
253275,-1996,-2119,308,-918,94,-5685,19636,-2480,-1071,405,-4240,35908,-76,31,127,0,0,3878,-2032,1340,18406,8415,78,139,1,1,398,-4,253269,0
253285,-706,-2057,475,-653,1268,-5713,18609,-2129,-12,681,-3032,35910,-94,31,127,0,0,3682,-1955,1500,18406,8415,78,149,1,1,398,-4,253269,0
253295,946,-1777,687,-850,236,-5000,17793,-1661,650,893,-1936,35911,-116,31,127,0,0,3526,-1516,1610,18406,8415,78,159,1,1,398,-4,253285,0
253305,1660,-1703,-66,-1020,-446,-3784,17165,-1273,759,1031,-880,35914,-113,31,127,0,0,3405,-1197,2070,18406,8415,78,169,1,1,398,-4,253300,0
253315,1319,-1440,-245,-944,-747,-3140,16714,-861,685,1440,-136,35916,-117,31,127,0,0,3320,-812,2490,18406,8415,78,179,1,1,398,-4,253300,0
253325,901,-1702,267,-561,-993,-2099,16498,-326,792,2053,144,35919,-106,31,127,0,0,3278,-373,2860,18406,8415,78,189,1,1,398,-4,253316,0
253335,1121,-1756,932,-552,-1042,-1805,16378,-293,612,1835,104,35910,-100,31,127,0,0,3256,-241,3180,18406,8415,78,199,1,1,398,-4,253316,0
253345,454,-2084,976,-812,-628,-2017,16178,-502,-45,1888,-8,35902,-88,31,127,0,0,3216,-406,3510,18406,8415,78,209,1,1,398,-4,253332,0
253355,308,-2076,565,-922,-309,-2397,15857,-784,-402,1886,-96,35904,-71,31,127,0,0,3153,-648,3860,18406,8415,78,219,1,1,398,-4,253363,0
253365,335,-2079,69,-854,-126,-2596,15464,-878,-364,2218,-112,35899,-84,31,127,0,0,3073,-791,4010,18406,8415,78,229,1,1,398,-4,253363,0
253375,521,-2089,144,-763,-204,-2397,15102,-744,35,2564,-8,35908,-88,31,127,0,0,3001,-714,4140,18406,8415,78,239,1,1,398,-4,253363,0
253385,752,-2338,364,-640,-591,-1940,14864,-425,261,2797,176,35903,-112,31,127,0,0,2955,-428,4260,18406,8415,78,249,1,1,398,-4,253378,0
253395,739,-1904,530,-650,-767,-1783,14712,-313,331,2603,216,35900,-118,31,127,0,0,2926,-263,4390,18406,8415,78,259,1,1,398,-4,253472,0
253405,584,-1810,275,-682,-917,-1690,14585,-277,207,2653,288,35895,-95,31,127,0,0,2904,-197,4530,18406,8415,78,269,1,1,398,-4,253472,0
253415,550,-1780,110,-650,-850,-1631,14487,-204,106,2749,360,35888,-73,31,127,0,0,2882,-208,4670,18406,8415,78,279,1,1,398,-4,253472,0
253425,969,-1800,116,-490,-1014,-1651,14405,-178,90,2867,360,35880,-25,31,127,0,0,2867,-175,4820,18406,8415,78,289,1,1,398,-4,253472,0
253435,896,-2035,156,-457,-1024,-1565,14330,-150,35,2888,496,35873,-2,31,127,0,0,2856,-98,4970,18406,8415,78,299,1,1,398,-4,253472,0
253445,499,-2119,354,-474,-1244,-1547,14283,-99,63,3055,528,35871,-1,31,127,0,0,2847,-87,5130,18406,8415,78,309,1,1,398,-4,253488,0
253455,378,-2195,404,-527,-1300,-1657,14243,-86,59,3080,664,35865,-10,31,127,0,0,2838,-76,5300,18406,8415,78,319,1,1,398,-4,253488,0
253465,165,-2340,459,-642,-1413,-1849,14205,-67,16,3191,800,35862,-16,31,127,0,0,2832,-65,5490,18406,8415,78,329,1,1,398,-4,253488,0
253475,-86,-2232,385,-781,-1553,-1988,14199,15,59,3293,1024,35858,-15,31,127,0,0,2830,-10,5700,18406,8415,78,339,1,1,398,-4,253488,0
253485,1,-2271,583,-959,-1481,-2279,14209,15,98,3464,1088,35856,-7,31,127,0,0,2834,21,5950,18406,8415,78,349,1,1,398,-4,253488,0
253495,148,-2430,465,-937,-1504,-2479,14218,15,23,3627,1176,35860,2,31,127,0,0,2834,10,6250,18406,8415,78,359,1,1,398,-4,253488,0
253505,299,-2233,510,-952,-1718,-2681,14236,53,13,3798,1328,35865,18,31,127,0,0,2836,32,6590,18406,8415,78,369,1,1,398,-4,253488,0
253515,202,-2348,440,-1143,-1895,-2725,14297,195,103,3946,1712,35876,40,31,127,0,0,2847,87,6990,18406,8415,78,379,1,1,398,-4,253535,0
253525,122,-2697,484,-1456,-1990,-2759,14460,438,281,4163,2520,35867,105,31,127,0,0,2878,241,7470,18406,8415,78,389,1,1,398,-4,253535,0
253535,-72,-2796,474,-1639,-1964,-2767,14755,760,452,4530,3544,35835,191,31,127,0,0,2933,593,8080,18406,8415,78,399,1,1,398,-4,253535,0
253545,-527,-2990,329,-1911,-2042,-2711,15231,1174,598,5056,4656,35788,304,31,127,0,0,3023,944,8930,18406,8415,78,409,1,1,398,-4,253535,0
253555,-565,-3069,265,-2045,-2064,-2738,15905,1613,731,5558,5808,35725,457,31,127,0,0,3159,1351,10120,18406,8415,78,419,1,1,398,-4,253535,0
253565,-927,-3036,141,-2180,-1888,-2975,16771,2025,748,6263,7048,35660,672,31,127,0,0,3322,1658,11760,18406,8415,78,429,1,1,398,-4,253550,0
253575,-1139,-2884,158,-2299,-1725,-3023,17831,2463,731,7308,8608,35568,978,31,127,0,0,3522,2043,13950,18406,8415,78,439,1,1,398,-4,253566,0
253585,-1326,-2821,106,-2505,-1661,-3125,19129,3037,824,8722,10256,35430,1393,31,127,0,0,3761,2460,16240,18406,8415,78,449,1,1,398,-4,253566,0
253595,-1139,-2883,118,-2551,-1717,-3298,20650,3416,906,9901,11480,35245,1950,31,127,0,0,4040,2801,18450,18406,8415,78,459,1,1,398,-4,253582,0
253605,-1438,-2774,258,-2465,-1721,-3716,22206,3410,493,11258,11720,35047,2534,31,127,0,0,4339,2988,21090,18406,8415,78,469,1,1,398,-4,253613,0
253615,-1019,-3248,390,-2428,-1844,-4039,23789,3561,92,12720,13072,34854,3092,31,127,0,0,4636,2999,24100,18406,8415,78,479,1,1,398,-4,253613,0
253625,-2355,-3346,811,-2271,-2015,-4376,25610,4239,499,13937,15504,34649,3721,31,127,0,0,4937,3065,26100,18406,8415,78,489,1,1,398,-4,253613,0
253635,-1125,-4273,1419,-2568,-2002,-3918,27796,5050,1182,15016,17880,34364,4618,31,127,0,0,5306,3757,26020,18406,8415,78,499,1,1,398,-4,253613,0
253645,-932,-4826,1362,-2857,-2980,-4390,30135,5079,1041,14687,17920,34073,5505,31,127,0,0,5728,4284,25060,18406,8415,78,509,1,1,398,-4,253628,0
253655,-1054,-5932,1685,-2928,-3323,-5342,32406,4963,130,14226,15976,33893,6023,31,127,0,0,6134,4064,22770,18406,8415,78,519,1,1,398,-4,253660,0
253665,-1217,-5660,2769,-3008,-4146,-6723,34480,4300,-468,12028,11272,33905,5848,31,127,0,0,6512,3735,9050,18406,8415,78,529,1,1,398,-4,253660,0
253675,113,-6781,3046,-3066,-4567,-8703,35590,1323,-2129,3991,288,34311,4416,31,127,0,0,6734,1966,730,18406,8415,78,539,1,1,398,-4,253660,0
253685,-1349,-5514,2815,-3567,-4385,-11957,35016,-2056,-5275,2210,-2248,34903,2528,31,127,0,0,6637,-1318,0,18406,8415,78,549,1,1,398,-4,253660,0
253695,-153,-4133,3387,-3444,-4367,-10858,33886,-3141,-4315,-2727,-10104,35472,846,31,127,0,0,6437,-2098,0,18406,8415,78,559,0,1,398,-4,253691,0
