state_time,accelx,accely,accelz,gyrox,gyroy,gyroz,mot_ang,mot_vel,mot_acc,mot_cur,mot_volt,batt_volt,batt_curr,temperature,status_mn,status_ex,status_re,ank_ang,ank_vel,ank_torque,peak_ank_torque,step_energy,step_count,step_time,gait_state,movement,speed,incline,sys_time,eventFlags
601835,123,-2053,357,-93,39,74,12659,-25,-16,-71,-32,35568,-16,34,127,0,0,3500,-43,0,2000,1906,249,10291,-4,0,36,0,601868,0
601845,121,-2057,356,-94,37,86,12660,3,29,-131,-64,35569,-31,34,127,0,0,3500,-21,0,2000,1906,249,10301,-4,0,36,0,601868,0
601855,130,-2048,342,-96,31,84,12660,3,30,-94,-32,35572,-27,34,127,0,0,3498,-76,0,2000,1906,249,10311,-4,0,36,0,601868,0
601865,99,-2057,340,-95,30,90,12654,-12,-11,-178,-40,35571,-38,34,127,0,0,3500,0,0,2000,1906,249,10321,-4,0,36,0,601868,0
601875,120,-2058,346,-95,33,93,12656,0,4,-185,-48,35577,-23,34,127,0,0,3498,-21,0,2000,1906,249,10331,-4,0,36,0,601883,0
601885,117,-2051,342,-93,32,94,12656,0,10,-192,-64,35577,-18,34,127,0,0,3500,21,0,2000,1906,249,10341,-4,0,36,0,601883,0
601895,107,-2062,353,-87,33,95,12656,3,2,-185,-96,35576,-17,34,127,0,0,3498,0,0,2000,1906,249,10351,-4,0,36,0,601883,0
601905,115,-2066,355,-94,37,90,12654,-1,-3,-220,-96,35574,-28,34,127,0,0,3493,-32,0,2000,1906,249,10361,-4,0,36,0,601899,0
601915,111,-2056,352,-94,33,85,12649,-12,-7,-295,-72,35569,-42,34,127,0,0,3493,0,0,2000,1906,249,10371,-4,0,36,0,601899,0
601926,122,-2052,349,-100,43,83,12649,-6,-5,-295,-88,35575,-36,34,127,0,0,3496,27,0,2000,1906,249,10382,-4,0,36,0,601899,0
601936,120,-2057,342,-97,42,86,12649,-7,10,-280,-96,35582,-30,34,127,0,0,3493,-5,0,2000,1906,249,10392,-4,0,36,0,601915,0
601946,117,-2056,353,-97,38,86,12648,-8,-2,-321,-96,35588,-13,34,127,0,0,3490,-27,0,2000,1906,249,10402,-4,0,36,0,601930,0
601956,117,-2058,347,-98,34,85,12647,0,-3,-333,-88,35586,-13,34,127,0,0,3490,-38,0,2000,1906,249,10412,-4,0,36,0,601930,0
601966,113,-2064,347,-100,34,87,12646,-8,1,-357,-112,35580,-19,34,127,0,0,3494,5,0,2000,1906,249,10422,-4,0,36,0,601946,0
601976,99,-2059,352,-100,43,85,12645,-7,-3,-351,-112,35570,-21,34,127,0,0,3491,10,0,2000,1906,249,10432,-4,0,36,0,601962,0
601986,114,-2060,347,-102,38,82,12644,-7,-2,-390,-152,35575,5,34,127,0,0,3490,-32,0,2000,1906,249,10442,-4,0,36,0,601962,0
601996,113,-2061,353,-98,28,83,12640,-1,-6,-377,-144,35578,6,34,127,0,0,3487,-54,0,2000,1906,249,10452,-4,0,36,0,601977,0
602006,114,-2059,350,-101,40,80,12637,-7,-2,-405,-112,35585,-3,34,127,0,0,3489,-10,0,2000,1906,249,10462,-4,0,36,0,601977,0
602016,128,-2058,352,-108,42,83,12639,0,6,-379,-120,35573,-37,34,127,0,0,3485,-32,0,2000,1906,249,10472,-4,0,36,0,602024,0
602026,124,-2054,354,-101,33,80,12635,-12,1,-451,-136,35576,-32,34,127,0,0,3483,-5,0,2000,1906,249,10482,-4,0,36,0,602024,0
602036,129,-2061,346,-104,43,90,12624,-36,-21,-440,-136,35573,-31,34,127,0,0,3484,-5,0,2000,1906,249,10492,-4,0,36,0,602040,0
602046,134,-2053,343,-103,33,91,12597,-76,-46,-253,-80,35572,-30,34,127,0,0,3484,-5,0,2000,1906,249,10502,-4,0,36,0,602040,0
602056,100,-2060,335,-101,37,90,12580,-6,-11,-141,-48,35570,-19,34,127,0,0,3484,0,0,2000,1906,249,10512,-4,0,36,0,602040,0
602066,159,-2054,343,-99,44,97,12580,-8,68,-209,-72,35573,-12,34,127,0,0,3482,-10,0,2000,1906,249,10522,-4,0,36,0,602040,0
602076,134,-2052,345,-97,38,94,12580,1,15,-259,-72,35581,3,34,127,0,0,3482,5,0,2000,1906,249,10532,-4,0,36,0,602055,0
602086,111,-2055,342,-102,34,102,12579,1,0,-265,-40,35586,7,34,127,0,0,3481,10,0,2000,1906,249,10542,-4,0,36,0,602055,0
602096,106,-2062,345,-98,43,105,12578,-5,8,-262,-64,35597,7,34,127,0,0,3482,0,0,2000,1906,249,10552,-4,0,36,0,602087,0
602106,130,-2060,345,-98,41,100,12578,0,1,-257,-88,35589,10,34,127,0,0,3483,0,0,2000,1906,249,10562,-4,0,36,0,602087,0
602116,115,-2059,347,-101,31,96,12575,1,1,-245,-80,35587,24,34,127,0,0,3477,-65,0,2000,1906,249,10572,-4,0,36,0,602087,0
602126,108,-2059,345,-95,31,103,12570,-11,-7,-301,-72,35594,22,34,127,0,0,3477,-27,0,2000,1906,249,10582,-4,0,36,0,602102,0
602136,130,-2053,342,-102,30,104,12562,-19,-14,-271,-56,35601,31,34,127,0,0,3477,-27,0,2000,1906,249,10592,-4,0,36,0,602102,0
602146,130,-2057,342,-99,36,105,12547,-47,-16,-216,-72,35599,21,34,127,0,0,3476,-32,0,2000,1906,249,10602,-4,0,36,0,602133,0
602157,90,-2057,337,-99,45,103,12528,-4,-26,-35,-40,35594,40,34,127,0,0,3476,-32,0,2000,1906,249,10613,-4,0,36,0,602133,0
602167,147,-2050,350,-96,34,103,12527,-11,34,-137,-32,35581,33,34,127,0,0,3476,32,0,2000,1906,249,10623,-4,0,36,0,602133,0
602177,156,-2056,352,-97,34,107,12527,-9,34,-147,-48,35584,38,34,127,0,0,3478,54,0,2000,1906,249,10633,-4,0,36,0,602149,0
602187,113,-2062,341,-101,27,125,12529,8,-3,-127,-56,35580,36,34,127,0,0,3476,10,0,2000,1906,249,10643,-4,0,36,0,602165,0
602197,142,-2067,335,-97,43,121,12528,5,-2,-131,-16,35586,37,34,127,0,0,3476,10,0,2000,1906,249,10653,-4,0,36,0,602180,0
602207,130,-2072,338,-99,36,118,12526,-10,-6,-162,-48,35584,55,34,127,0,0,3473,10,0,2000,1906,249,10663,-4,0,36,0,602180,0
602217,140,-2054,349,-95,40,116,12527,-3,2,-172,-48,35584,43,34,127,0,0,3473,0,0,2000,1906,249,10673,-4,0,36,0,602196,0
602227,128,-2071,349,-96,39,124,12528,9,4,-162,-56,35584,48,34,127,0,0,3473,-10,0,2000,1906,249,10683,-4,0,36,0,602196,0
602237,134,-2053,347,-102,37,125,12526,-2,1,-164,-16,35589,18,34,127,0,0,3476,32,0,2000,1906,249,10693,-4,0,36,0,602227,0
602247,138,-2063,340,-97,38,116,12528,2,3,-126,-64,35592,32,34,127,0,0,3478,32,0,2000,1906,249,10703,-4,0,36,0,602227,0
602257,137,-2054,345,-94,39,125,12530,3,4,-81,-24,35599,27,34,127,0,0,3476,0,0,2000,1906,249,10713,-4,0,36,0,602243,0
602267,138,-2074,330,-104,37,123,12530,13,6,-70,-32,35589,29,34,127,0,0,3473,-76,0,2000,1906,249,10723,-4,0,36,0,602243,0
602277,80,-2070,331,-93,40,122,12527,16,-8,-118,-64,35586,25,34,127,0,0,3476,-21,0,2000,1906,249,10733,-4,0,36,0,602258,0
602287,94,-2055,341,-93,30,129,12525,-5,6,-136,16,35589,31,34,127,0,0,3476,32,0,2000,1906,249,10743,-4,0,36,0,602274,0
602297,123,-2063,340,-92,40,121,12528,3,10,-121,-16,35603,40,34,127,0,0,3476,-10,0,2000,1906,249,10753,-4,0,36,0,602290,0
602307,114,-2060,343,-94,30,131,12527,0,1,-140,-16,35603,32,34,127,0,0,3473,-10,0,2000,1906,249,10763,-4,0,36,0,602290,0
602317,124,-2056,337,-95,36,116,12526,-6,-4,-165,16,35591,31,34,127,0,0,3476,32,0,2000,1906,249,10773,-4,0,36,0,602290,0
602327,147,-2063,339,-94,45,116,12526,-7,3,-138,-64,35588,36,34,127,0,0,3473,0,0,2000,1906,249,10783,-4,0,36,0,602305,0
602337,116,-2050,346,-92,32,121,12526,-11,-4,-141,-24,35587,29,34,127,0,0,3476,21,0,2000,1906,249,10793,-4,0,36,0,602336,0
602347,124,-2053,341,-88,43,124,12527,2,3,-139,-48,35592,9,34,127,0,0,3476,10,0,2000,1906,249,10803,-4,0,36,0,602336,0
602357,142,-2063,339,-91,41,122,12528,8,-4,-138,-56,35593,9,34,127,0,0,3473,-21,0,2000,1906,249,10813,-4,0,36,0,602336,0
602367,117,-2062,337,-92,30,129,12528,12,-3,-147,-64,35582,10,34,127,0,0,3478,32,0,2000,1906,249,10823,-4,0,36,0,602352,0
602377,122,-2057,342,-85,34,122,12527,0,2,-104,8,35589,12,34,127,0,0,3478,43,0,2000,1906,249,10833,-4,0,36,0,602383,0
602387,137,-2062,342,-86,42,116,12527,-8,2,-113,-32,35592,6,34,127,0,0,3476,32,0,2000,1906,249,10843,-4,0,36,0,602399,0
602397,136,-2055,344,-84,36,109,12526,-10,2,-108,-24,35592,14,34,127,0,0,3476,10,0,2000,1906,249,10853,-4,0,36,0,602399,0
602407,147,-2059,341,-82,28,111,12528,4,0,-94,-64,35586,16,34,127,0,0,3476,-21,0,2000,1906,249,10863,-4,0,36,0,602399,0
602417,133,-2054,345,-87,36,115,12527,4,-2,-134,-16,35577,17,34,127,0,0,3476,10,0,2000,1906,249,10873,-4,0,36,0,602415,0
602427,134,-2070,330,-88,33,120,12526,-3,-3,-127,-24,35573,18,34,127,0,0,3476,21,0,2000,1906,249,10883,-4,0,36,0,602415,0
602438,112,-2051,338,-84,28,116,12526,0,1,-118,-32,35574,21,34,127,0,0,3472,-32,0,2000,1906,249,10894,-4,0,36,0,602415,0
602448,137,-2055,332,-85,36,121,12526,-2,-3,-169,-24,35579,34,34,127,0,0,3476,32,0,2000,1906,249,10904,-4,0,36,0,602415,0
602458,114,-2055,346,-84,27,119,12527,-2,-2,-66,-8,35582,32,34,127,0,0,3478,0,0,2000,1906,249,10914,-4,0,36,0,602461,0
602468,147,-2060,345,-80,30,119,12526,-12,-2,-81,-8,35591,52,34,127,0,0,3478,38,0,2000,1906,249,10924,-4,0,36,0,602461,0
602478,157,-2056,344,-88,35,121,12530,2,-1,-42,8,35590,46,34,127,0,0,3473,-16,0,2000,1906,249,10934,-4,0,36,0,602477,0
602488,174,-2070,335,-80,34,117,12526,-12,1,-75,-32,35584,39,34,127,0,0,3479,0,0,2000,1906,249,10944,-4,0,36,0,602477,0
602498,115,-2035,346,-84,33,117,12529,-1,-7,-27,-8,35570,16,34,127,0,0,3474,-21,0,2000,1906,249,10954,-4,0,36,0,602477,0
602508,138,-2057,337,-82,36,112,12529,6,2,-49,-56,35572,12,34,127,0,0,3477,-54,0,2000,1906,249,10964,-4,0,36,0,602477,0
602518,90,-2045,345,-78,38,122,12528,13,-2,-54,-32,35582,9,34,127,0,0,3476,-32,0,2000,1906,249,10974,-4,0,36,0,602524,0
602528,96,-2036,349,-80,43,121,12527,1,2,-117,-32,35588,28,34,127,0,0,3472,-27,0,2000,1906,249,10984,-4,0,36,0,602540,0
602538,128,-2061,336,-76,36,118,12527,0,0,-111,-8,35593,25,34,127,0,0,3474,-10,0,2000,1906,249,10994,-4,0,36,0,602540,0
602548,152,-2057,338,-76,39,120,12527,-10,-5,-113,0,35583,28,34,127,0,0,3478,38,0,2000,1906,249,11004,-4,0,36,0,602540,0
602558,126,-2053,336,-84,34,120,12529,-5,-1,-61,-32,35572,7,34,127,0,0,3476,-32,0,2000,1906,249,11014,-4,0,36,0,602540,0
602568,89,-2056,327,-73,37,118,12529,17,-4,-91,-8,35566,5,34,127,0,0,3474,0,0,2000,1906,249,11024,-4,0,36,0,602540,0
602578,84,-2053,334,-66,33,117,12527,-10,1,-65,16,35574,8,34,127,0,0,3473,-43,0,2000,1906,249,11034,-4,0,36,0,602571,0
602588,128,-2058,345,-66,35,118,12528,1,2,-68,-32,35577,24,34,127,0,0,3476,-43,0,2000,1906,249,11044,-4,0,36,0,602571,0
602598,102,-2058,344,-72,35,110,12527,10,-1,-86,-32,35587,32,34,127,0,0,3476,-16,0,2000,1906,249,11054,-4,0,36,0,602586,0
602608,93,-2052,350,-72,34,110,12528,9,0,-89,-32,35587,27,34,127,0,0,3476,-27,0,2000,1906,249,11064,-4,0,36,0,602586,0
602618,126,-2065,347,-70,31,116,12527,-3,2,-147,-48,35586,31,34,127,0,0,3477,16,0,2000,1906,249,11074,-4,0,36,0,602586,0
602628,106,-2063,351,-75,30,115,12528,7,5,-94,-32,35584,38,34,127,0,0,3476,16,0,2000,1906,249,11084,-4,0,36,0,602602,0
602638,101,-2046,345,-72,34,104,12525,-14,-5,-103,0,35588,56,34,127,0,0,3478,60,0,2000,1906,249,11094,-4,0,36,0,602602,0
602648,151,-2052,348,-74,40,93,12530,-12,0,-67,-56,35587,42,34,127,0,0,3477,-43,0,2000,1906,249,11104,-4,0,36,0,602649,0
602659,118,-2059,338,-73,42,106,12527,20,3,-123,-16,35588,45,34,127,0,0,3473,-43,0,2000,1906,249,11115,-4,0,36,0,602649,0
602669,111,-2057,341,-71,40,98,12526,7,4,-94,0,35578,24,34,127,0,0,3476,0,0,2000,1906,249,11125,-4,0,36,0,602649,0
602679,153,-2057,348,-74,43,104,12524,-28,-6,-112,-24,35577,23,34,127,0,0,3473,0,0,2000,1906,249,11135,-4,0,36,0,602649,0
602689,140,-2047,355,-76,41,108,12525,-4,3,-146,-16,35565,24,34,127,0,0,3471,-43,0,2000,1906,249,11145,-4,0,36,0,602665,0
602699,141,-2056,355,-83,39,104,12524,-7,-5,-198,-40,35579,25,34,127,0,0,3473,-10,0,2000,1906,249,11155,-4,0,36,0,602680,0
602709,115,-2049,360,-86,39,111,12523,-11,-7,-186,-48,35580,20,34,127,0,0,3473,0,0,2000,1906,249,11165,-4,0,36,0,602696,0
602719,123,-2054,355,-88,41,116,12524,-5,-2,-196,-48,35576,18,34,127,0,0,3473,10,0,2000,1906,249,11175,-4,0,36,0,602696,0
602729,116,-2052,334,-88,44,111,12525,0,-3,-181,-48,35568,21,34,127,0,0,3471,-21,0,2000,1906,249,11185,-4,0,36,0,602711,0
602739,131,-2052,336,-88,41,108,12525,1,-1,-189,-80,35575,27,34,127,0,0,3473,0,0,2000,1906,249,11195,-4,0,36,0,602758,0
602749,133,-2057,335,-90,44,113,12524,-7,-2,-219,-64,35582,28,34,127,0,0,3473,21,0,2000,1906,249,11205,-4,0,36,0,602758,0
602759,121,-2064,341,-81,46,126,12522,-8,4,-227,-64,35576,13,34,127,0,0,3469,-21,0,2000,1906,249,11215,-4,0,36,0,602758,0
602769,111,-2064,345,-85,54,125,12523,3,-1,-236,-96,35566,7,34,127,0,0,3473,10,0,2000,1906,249,11225,-4,0,36,0,602774,0
602779,109,-2060,353,-80,42,139,12523,-7,0,-191,-32,35559,12,34,127,0,0,3471,0,0,2000,1906,249,11235,-4,0,36,0,602774,0
602789,134,-2062,342,-84,43,135,12522,-2,0,-256,-56,35560,19,34,127,0,0,3469,-10,0,2000,1906,249,11245,-4,0,36,0,602774,0
602799,148,-2062,337,-84,44,133,12524,9,-2,-232,-72,35557,23,34,127,0,0,3469,-21,0,2000,1906,249,11255,-4,0,36,0,602774,0
602809,109,-2055,343,-86,46,140,12519,-19,-4,-257,-64,35562,20,34,127,0,0,3471,32,0,2000,1906,249,11265,-4,0,36,0,602774,0
602819,141,-2049,346,-80,46,138,12522,-7,1,-216,-64,35571,26,34,127,0,0,3469,-21,0,2000,1906,249,11275,-4,0,36,0,602805,0
602829,125,-2047,345,-84,45,146,12520,-4,7,-265,-48,35579,19,34,127,0,0,3473,32,0,2000,1906,249,11285,-4,0,36,0,602805,0
602839,123,-2061,335,-78,54,151,12521,0,0,-207,-64,35579,21,34,127,0,0,3471,10,0,2000,1906,249,11295,-4,0,36,0,602821,0
602849,145,-2056,330,-81,46,146,12521,-5,1,-215,-64,35574,16,34,127,0,0,3471,10,0,2000,1906,249,11305,-4,0,36,0,602821,0
602859,138,-2068,330,-75,47,151,12520,-7,-4,-210,-24,35577,11,34,127,0,0,3471,10,0,2000,1906,249,11315,-4,0,36,0,602852,0
602869,136,-2047,333,-68,52,150,12521,-13,4,-189,-40,35585,5,34,127,0,0,3473,21,0,2000,1906,249,11325,-4,0,36,0,602852,0
602879,136,-2065,337,-67,55,159,12522,-1,0,-155,-40,35583,-2,34,127,0,0,3473,-10,0,2000,1906,249,11335,-4,0,36,0,602852,0
602889,121,-2059,345,-58,51,178,12523,1,-2,-166,-8,35576,2,34,127,0,0,3473,10,0,2000,1906,249,11345,-4,0,36,0,602852,0
602899,152,-2059,335,-54,43,185,12522,-2,0,-110,-24,35573,1,34,127,0,0,3476,10,0,2000,1906,249,11355,-4,0,36,0,602883,0
602910,125,-2057,341,-49,39,188,12524,5,2,-45,-8,35596,7,34,127,0,0,3478,-5,0,2000,1906,249,11366,-4,0,36,0,602883,0
602920,123,-2053,327,-43,44,191,12529,18,5,92,32,35581,25,34,127,0,0,3479,-38,0,2000,1906,249,11376,-4,0,36,0,602899,0
602930,138,-2051,327,-30,43,196,12530,0,1,127,56,35570,32,34,127,0,0,3481,-5,0,2000,1906,249,11386,-4,0,36,0,602914,0
602940,126,-2058,324,-20,35,211,12533,-1,-16,138,56,35570,39,34,127,0,0,3484,10,0,2000,1906,249,11396,-4,0,36,0,602914,0
602950,98,-2059,325,-12,33,216,12534,13,2,212,72,35575,28,34,127,0,0,3487,5,0,2000,1906,249,11406,-4,0,36,0,602914,0
602960,119,-2053,332,-9,42,210,12535,-2,2,291,112,35579,27,34,127,0,0,3491,54,0,2000,1906,249,11416,-4,0,36,0,602946,0
602970,108,-2063,333,7,36,213,12541,9,4,329,120,35573,30,34,127,0,0,3493,82,0,2000,1906,249,11426,-4,0,36,0,602946,0
602980,88,-2061,341,9,46,197,12545,11,3,398,112,35579,35,34,127,0,0,3496,49,0,2000,1906,249,11436,-4,0,36,0,602946,0
602990,88,-2061,348,11,49,189,12550,11,2,440,128,35576,30,34,127,0,0,3495,0,0,2000,1906,249,11446,-4,0,36,0,602977,0
603000,104,-2053,357,14,40,182,12561,27,13,403,144,35582,32,34,127,0,0,3503,76,0,2000,1906,249,11456,-4,0,36,0,602977,0
603010,92,-2058,358,10,48,175,12590,79,46,319,88,35578,14,34,127,0,0,3496,-38,0,2000,1906,249,11466,-4,0,36,0,602993,0
603020,147,-2051,363,9,38,173,12603,4,-1,258,88,35572,13,34,127,0,0,3502,-21,0,2000,1906,249,11476,-4,0,36,0,602993,0
603030,99,-2053,348,13,49,167,12601,-2,-70,297,112,35578,5,34,127,0,0,3501,32,0,2000,1906,249,11486,-4,0,36,0,603024,0
603040,108,-2057,350,13,58,161,12602,-11,-16,358,88,35587,8,34,127,0,0,3505,5,0,2000,1906,249,11496,-4,0,36,0,603024,0
603050,116,-2050,361,12,61,160,12603,-8,-6,352,128,35582,-10,34,127,0,0,3506,65,0,2000,1906,249,11506,-4,0,36,0,603024,0
603060,109,-2050,375,5,59,171,12607,0,0,374,120,35582,-10,34,127,0,0,3506,43,0,2000,1906,249,11516,-4,0,36,0,603055,0
603070,114,-2053,404,-12,42,176,12612,12,7,386,136,35581,8,34,127,0,0,3505,5,0,2000,1906,249,11526,-4,0,36,0,603055,0
603080,92,-2053,403,-24,26,174,12624,33,22,333,112,35585,-7,34,127,0,0,3509,21,0,2000,1906,249,11536,-4,0,36,0,603055,0
603090,70,-2059,387,-47,30,166,12653,85,43,240,72,35580,-3,34,127,0,0,3511,-10,0,2000,1906,249,11546,-4,0,36,0,603055,0
603100,109,-2054,377,-47,23,156,12659,-26,0,197,88,35578,-13,34,127,0,0,3513,65,0,2000,1906,249,11556,-4,0,36,0,603180,0
603110,65,-2059,363,-50,37,130,12662,7,-67,252,56,35580,-9,34,127,0,0,3514,16,0,2000,1906,249,11566,-4,0,36,0,603180,0
603120,34,-2057,359,-56,43,103,12660,-5,-11,259,80,35583,-4,34,127,0,0,3513,43,0,2000,1906,249,11576,-4,0,36,0,603180,0
603130,97,-2056,374,-51,35,83,12663,2,1,307,32,35579,-25,34,127,0,0,3512,-43,0,2000,1906,249,11586,-4,0,36,0,603196,0
603140,82,-2058,392,-65,36,74,12663,16,1,270,32,35578,-23,34,127,0,0,3509,-82,0,2000,1906,249,11596,-4,0,36,0,603196,0
603150,57,-2060,393,-80,27,85,12661,2,0,220,80,35576,-34,34,127,0,0,3506,-38,0,2000,1906,249,11606,-4,0,36,0,603196,0
603160,113,-2048,391,-86,31,72,12659,-17,0,185,40,35581,-34,34,127,0,0,3505,-76,0,2000,1906,249,11616,-4,0,36,0,603196,0
603170,101,-2052,381,-98,35,55,12660,9,1,163,40,35586,-39,34,127,0,0,3509,-27,0,2000,1906,249,11626,-4,0,36,0,603196,0
603180,83,-2051,373,-101,45,46,12657,-16,-8,115,24,35583,-31,34,127,0,0,3506,10,0,2000,1906,249,11636,-4,0,36,0,603196,0
603190,95,-2059,364,-102,42,42,12657,-5,-2,63,24,35576,-24,34,127,0,0,3503,-10,0,2000,1906,249,11646,-4,0,36,0,603196,0
603200,90,-2056,363,-106,52,37,12654,-3,0,-21,-16,35571,-21,34,127,0,0,3499,-21,0,2000,1906,249,11656,-4,0,36,0,603211,0
603210,126,-2052,362,-103,50,37,12649,-20,-10,-149,-48,35573,-20,34,127,0,0,3498,5,0,2000,1906,249,11666,-4,0,36,0,603211,0
603221,139,-2052,354,-106,53,45,12645,-15,-1,-239,-64,35580,-3,34,127,0,0,3493,-32,0,2000,1906,249,11677,-4,0,36,0,603211,0
603231,143,-2051,358,-110,45,53,12642,-5,4,-297,-104,35593,-2,34,127,0,0,3493,-10,0,2000,1906,249,11687,-4,0,36,0,603211,0
603241,139,-2057,367,-103,43,76,12638,-6,-6,-316,-64,35611,17,34,127,0,0,3493,21,0,2000,1906,249,11697,-4,0,36,0,603211,0
603251,130,-2057,358,-105,38,93,12638,5,5,-309,-104,35626,26,34,127,0,0,3491,-10,0,2000,1906,249,11707,-4,0,36,0,603227,0
603261,129,-2058,358,-110,36,103,12637,-1,2,-342,-96,35617,24,34,127,0,0,3489,-32,0,2000,1906,249,11717,-4,0,36,0,603227,0
603271,126,-2056,351,-101,28,113,12631,-16,-13,-370,-104,35605,-10,34,127,0,0,3491,32,0,2000,1906,249,11727,-4,0,36,0,603289,0
603281,109,-2057,354,-103,31,120,12628,-3,-2,-308,-64,35591,-14,34,127,0,0,3489,-10,0,2000,1906,249,11737,-4,0,36,0,603289,0
603291,125,-2056,356,-96,28,112,12626,-5,4,-299,-72,35586,-22,34,127,0,0,3491,-10,0,2000,1906,249,11747,-4,0,36,0,603289,0
603301,104,-2053,351,-91,38,109,12625,-5,3,-283,-72,35580,-18,34,127,0,0,3489,-21,0,2000,1906,249,11757,-4,0,36,0,603289,0
603311,125,-2055,356,-93,30,113,12619,-16,-6,-269,-88,35574,-18,34,127,0,0,3491,21,0,2000,1906,249,11767,-4,0,36,0,603289,0
603321,132,-2051,363,-87,26,109,12607,-31,-21,-137,-64,35577,-8,34,127,0,0,3489,-10,0,2000,1906,249,11777,-4,0,36,0,603305,0
603331,108,-2053,359,-87,39,105,12590,-26,-21,-52,-24,35591,9,34,127,0,0,3489,-21,0,2000,1906,249,11787,-4,0,36,0,603305,0
603341,133,-2063,359,-89,30,108,12592,3,27,-72,-56,35599,7,34,127,0,0,3487,-21,0,2000,1906,249,11797,-4,0,36,0,603336,0
603351,124,-2056,359,-91,34,111,12589,2,29,-55,-32,35591,6,34,127,0,0,3489,-10,0,2000,1906,249,11807,-4,0,36,0,603336,0
603361,103,-2056,361,-86,28,110,12590,-4,0,-51,-24,35585,-3,34,127,0,0,3491,21,0,2000,1906,249,11817,-4,0,36,0,603336,0
603371,105,-2054,357,-88,32,118,12590,-1,7,-46,-24,35584,10,34,127,0,0,3491,21,0,2000,1906,249,11827,-4,0,36,0,603336,0
603381,130,-2052,355,-81,37,115,12592,3,6,-28,-72,35590,12,34,127,0,0,3489,-10,0,2000,1906,249,11837,-4,0,36,0,603368,0
603391,97,-2056,352,-82,40,125,12590,14,-1,-49,-24,35591,20,34,127,0,0,3487,-21,0,2000,1906,249,11847,-4,0,36,0,603368,0
603401,121,-2056,354,-82,36,118,12587,-9,-6,-105,-48,35590,7,34,127,0,0,3489,10,0,2000,1906,249,11857,-4,0,36,0,603368,0
603412,107,-2057,355,-77,39,126,12589,5,4,-77,-40,35599,2,34,127,0,0,3487,-32,0,2000,1906,249,11868,-4,0,36,0,603399,0
603422,120,-2067,349,-75,41,134,12586,5,5,-105,-16,35600,7,34,127,0,0,3485,0,0,2000,1906,249,11878,-4,0,36,0,603414,0
603432,157,-2055,348,-75,35,134,12587,-4,-2,-98,-40,35599,18,34,127,0,0,3490,10,0,2000,1906,249,11888,-4,0,36,0,603414,0
603442,83,-2048,358,-70,36,147,12588,-3,1,-43,8,35586,16,34,127,0,0,3488,5,0,2000,1906,249,11898,-4,0,36,0,603414,0
603452,105,-2045,364,-70,39,145,12588,1,2,-26,-16,35580,6,34,127,0,0,3489,-16,0,2000,1906,249,11908,-4,0,36,0,603430,0
603462,93,-2061,362,-66,40,140,12587,-5,-4,-21,-16,35590,-7,34,127,0,0,3492,0,0,2000,1906,249,11918,-4,0,36,0,603446,0
603472,94,-2055,362,-64,38,138,12589,13,7,34,0,35593,-1,34,127,0,0,3491,0,0,2000,1906,249,11928,-4,0,36,0,603446,0
603482,118,-2061,368,-68,34,135,12586,-17,-5,-19,-16,35588,-2,34,127,0,0,3489,10,0,2000,1906,249,11938,-4,0,36,0,603524,0
603492,118,-2052,358,-70,36,136,12589,7,4,-3,-24,35583,10,34,127,0,0,3492,-16,0,2000,1906,249,11948,-4,0,36,0,603524,0
603502,83,-2058,363,-71,30,137,12588,-2,4,-3,8,35579,17,34,127,0,0,3491,16,0,2000,1906,249,11958,-4,0,36,0,603524,0
603512,103,-2054,368,-71,32,130,12588,-8,-1,10,0,35580,15,34,127,0,0,3488,-32,0,2000,1906,249,11968,-4,0,36,0,603539,0
603522,97,-2052,362,-70,32,121,12589,-3,-5,-8,0,35571,3,34,127,0,0,3491,-10,0,2000,1906,249,11978,-4,0,36,0,603539,0
603532,103,-2052,363,-76,30,113,12588,-4,4,-2,0,35571,-7,34,127,0,0,3491,16,0,2000,1906,249,11988,-4,0,36,0,603539,0
603542,126,-2052,361,-75,33,116,12586,-21,2,-19,8,35570,0,34,127,0,0,3491,16,0,2000,1906,249,11998,-4,0,36,0,603539,0
603552,128,-2064,358,-78,32,117,12590,0,-1,13,0,35568,9,34,127,0,0,3491,0,0,2000,1906,249,12008,-4,0,36,0,603539,0
603562,114,-2053,367,-73,32,115,12589,0,-1,-3,0,35568,13,34,127,0,0,3491,5,0,2000,1906,249,12018,-4,0,36,0,603539,0
603572,104,-2054,367,-79,31,122,12589,0,-4,-17,-16,35574,7,34,127,0,0,3489,-5,0,2000,1906,249,12028,-4,0,36,0,603555,0
603582,111,-2057,355,-78,32,117,12591,9,0,-4,0,35585,18,34,127,0,0,3488,-38,0,2000,1906,249,12038,-4,0,36,0,603555,0
603592,99,-2049,362,-77,36,124,12590,12,1,9,0,35594,15,34,127,0,0,3491,-10,0,2000,1906,249,12048,-4,0,36,0,603586,0
603602,96,-2064,351,-74,35,120,12590,-1,-3,4,8,35591,15,34,127,0,0,3491,5,0,2000,1906,249,12058,-4,0,36,0,603586,0
603612,116,-2059,347,-69,34,128,12590,0,4,0,0,35572,1,34,127,0,0,3491,5,0,2000,1906,249,12068,-4,0,36,0,603586,0
603622,129,-2063,344,-59,37,125,12589,-1,0,-8,0,35568,-2,34,127,0,0,3491,16,0,2000,1906,249,12078,-4,0,36,0,603586,0
603632,123,-2060,360,-57,32,130,12589,-3,-2,8,0,35575,1,34,127,0,0,3494,32,0,2000,1906,249,12088,-4,0,36,0,603633,0
603642,117,-2056,371,-56,38,131,12590,0,3,48,0,35585,14,34,127,0,0,3491,5,0,2000,1906,249,12098,-4,0,36,0,603633,0
603652,118,-2055,371,-57,37,131,12590,5,-3,5,0,35581,11,34,127,0,0,3491,0,0,2000,1906,249,12108,-4,0,36,0,603633,0
603663,99,-2052,369,-53,42,134,12591,12,-1,37,32,35575,3,34,127,0,0,3495,21,0,2000,1906,249,12119,-4,0,36,0,603633,0
603673,111,-2059,365,-60,34,137,12591,0,4,66,0,35582,7,34,127,0,0,3491,-10,0,2000,1906,249,12129,-4,0,36,0,603649,0
603683,111,-2059,363,-56,32,137,12591,5,1,49,0,35597,-1,34,127,0,0,3491,-10,0,2000,1906,249,12139,-4,0,36,0,603664,0
603693,110,-2056,363,-57,32,133,12589,-6,1,26,32,35597,3,34,127,0,0,3493,21,0,2000,1906,249,12149,-4,0,36,0,603664,0
603703,103,-2062,361,-57,30,121,12591,-3,-3,24,32,35579,-10,34,127,0,0,3491,0,0,2000,1906,249,12159,-4,0,36,0,603680,0
603713,83,-2049,366,-62,38,115,12591,2,-4,37,24,35573,3,34,127,0,0,3493,10,0,2000,1906,249,12169,-4,0,36,0,603711,0
603723,74,-2050,364,-57,41,102,12592,6,0,93,-16,35571,11,34,127,0,0,3491,-43,0,2000,1906,249,12179,-4,0,36,0,603711,0
603733,98,-2062,363,-61,37,108,12590,1,-3,53,32,35567,26,34,127,0,0,3493,10,0,2000,1906,249,12189,-4,0,36,0,603711,0
603743,118,-2056,370,-55,25,108,12591,-5,1,87,24,35562,19,34,127,0,0,3493,-10,0,2000,1906,249,12199,-4,0,36,0,603727,0
603753,90,-2057,375,-61,35,113,12590,1,-2,43,0,35565,12,34,127,0,0,3491,-10,0,2000,1906,249,12209,-4,0,36,0,603727,0
603763,111,-2053,376,-68,38,113,12590,0,-1,44,0,35578,-3,34,127,0,0,3491,-10,0,2000,1906,249,12219,-4,0,36,0,603742,0
603773,118,-2064,369,-65,38,105,12591,0,-2,39,0,35583,5,34,127,0,0,3491,-10,0,2000,1906,249,12229,-4,0,36,0,603742,0
603783,126,-2060,363,-68,34,112,12590,0,-5,23,0,35570,4,34,127,0,0,3491,10,0,2000,1906,249,12239,-4,0,36,0,603758,0
603793,129,-2052,359,-65,30,104,12591,-2,0,49,-8,35565,5,34,127,0,0,3491,-10,0,2000,1906,249,12249,-4,0,36,0,603883,0
603803,114,-2058,361,-67,37,109,12590,0,-5,8,0,35570,-3,34,127,0,0,3491,0,0,2000,1906,249,12259,-4,0,36,0,603883,0
603813,102,-2052,370,-63,33,110,12590,-3,-3,4,0,35571,12,34,127,0,0,3491,0,0,2000,1906,249,12269,-4,0,36,0,603883,0
603823,107,-2053,371,-64,40,109,12589,-6,-2,5,0,35566,0,34,127,0,0,3489,-21,0,2000,1906,249,12279,-4,0,36,0,603883,0
603833,105,-2058,363,-64,40,105,12591,0,-1,-9,-32,35560,-7,34,127,0,0,3491,0,0,2000,1906,249,12289,-4,0,36,0,603883,0
603843,99,-2049,373,-64,48,117,12591,-2,2,12,0,35562,-2,34,127,0,0,3491,0,0,2000,1906,249,12299,-4,0,36,0,603899,0
603853,112,-2059,361,-70,34,117,12590,-3,1,-23,16,35561,0,34,127,0,0,3491,10,0,2000,1906,249,12309,-4,0,36,0,603899,0
603863,123,-2051,356,-59,37,116,12590,-4,0,-15,8,35556,11,34,127,0,0,3491,0,0,2000,1906,249,12319,-4,0,36,0,603899,0
603873,110,-2059,362,-55,34,108,12589,2,2,-41,8,35566,16,34,127,0,0,3491,32,0,2000,1906,249,12329,-4,0,36,0,603899,0
603883,104,-2060,362,-59,29,108,12589,-14,-7,-34,16,35571,16,34,127,0,0,3491,32,0,2000,1906,249,12339,-4,0,36,0,603899,0
603893,123,-2046,372,-54,42,95,12589,-5,0,-28,8,35575,18,34,127,0,0,3489,0,0,2000,1906,249,12349,-4,0,36,0,603899,0
603903,109,-2056,369,-57,33,88,12589,0,0,-35,0,35563,11,34,127,0,0,3489,0,0,2000,1906,249,12359,-4,0,36,0,603899,0
603913,97,-2049,375,-57,38,70,12587,-2,-2,-41,-24,35561,-1,34,127,0,0,3489,0,0,2000,1906,249,12369,-4,0,36,0,603899,0
603924,102,-2054,375,-54,39,67,12589,-1,-1,-71,-40,35570,-7,34,127,0,0,3487,-32,0,2000,1906,249,12380,-4,0,36,0,603899,0
603934,80,-2055,376,-63,47,46,12586,3,-2,-146,-32,35589,-7,34,127,0,0,3487,5,0,2000,1906,249,12390,-4,0,36,0,603914,0
603944,96,-2056,376,-59,46,37,12585,-7,3,-149,-80,35606,-1,34,127,0,0,3482,-60,0,2000,1906,249,12400,-4,0,36,0,603945,0
603954,108,-2051,374,-64,54,29,12581,-8,-6,-187,-72,35611,24,34,127,0,0,3479,-82,0,2000,1906,249,12410,-4,0,36,0,603945,0
603964,141,-2054,373,-69,46,41,12571,-39,-20,-331,-96,35600,22,34,127,0,0,3481,38,0,2000,1906,249,12420,-4,0,36,0,603945,0
603974,135,-2059,370,-66,41,52,12548,-64,-44,-225,-48,35576,18,34,127,0,0,3471,-21,0,2000,1906,249,12430,-4,0,36,0,603945,0
603984,114,-2050,369,-57,47,42,12522,-31,-26,-108,-40,35561,7,34,127,0,0,3477,5,0,2000,1906,249,12440,-4,0,36,0,603961,0
603994,141,-2060,371,-66,45,58,12524,7,63,-173,-64,35569,7,34,127,0,0,3471,-21,0,2000,1906,249,12450,-4,0,36,0,603961,0
604004,109,-2046,372,-64,52,49,12520,2,31,-222,-56,35586,2,34,127,0,0,3468,-32,0,2000,1906,249,12460,-4,0,36,0,603992,0
604014,146,-2052,373,-60,45,49,12519,-11,-8,-292,-80,35592,-4,34,127,0,0,3469,0,0,2000,1906,249,12470,-4,0,36,0,603992,0
604024,120,-2061,365,-57,44,61,12520,-3,5,-310,-128,35582,-1,34,127,0,0,3465,-54,0,2000,1906,249,12480,-4,0,36,0,604024,0
604034,115,-2051,370,-62,49,60,12511,-17,-14,-344,-128,35579,11,34,127,0,0,3466,-32,0,2000,1906,249,12490,-4,0,36,0,604024,0
604044,134,-2057,376,-58,37,68,12505,-10,-14,-381,-120,35574,13,34,127,0,0,3459,-49,0,2000,1906,249,12500,-4,0,36,0,604024,0
604054,132,-2056,366,-50,33,73,12490,-41,-13,-346,-112,35582,14,34,127,0,0,3460,-21,0,2000,1906,249,12510,-4,0,36,0,604024,0
604064,125,-2060,361,-46,33,72,12464,-58,-36,-204,-56,35581,4,34,127,0,0,3457,-43,0,2000,1906,249,12520,-4,0,36,0,604055,0
604074,112,-2055,354,-38,58,69,12462,9,25,-283,-80,35580,10,34,127,0,0,3458,5,0,2000,1906,249,12530,-4,0,36,0,604055,0
604084,130,-2048,370,-31,46,65,12460,-6,53,-299,-96,35573,-11,34,127,0,0,3456,-16,0,2000,1906,249,12540,-4,0,36,0,604070,0
604094,133,-2055,377,-34,55,68,12460,-5,-1,-355,-120,35580,-3,34,127,0,0,3454,10,0,2000,1906,249,12550,-4,0,36,0,604070,0
604104,126,-2058,375,-28,49,72,12455,-16,-3,-398,-104,35577,-3,34,127,0,0,3450,10,0,2000,1906,249,12560,-4,0,36,0,604086,0
604114,124,-2053,368,-31,43,69,12453,-12,0,-428,-144,35586,5,34,127,0,0,3446,-71,0,2000,1906,249,12570,-4,0,36,0,604086,0
604124,130,-2050,365,-20,46,68,12445,-32,-13,-492,-152,35580,4,34,127,0,0,3447,0,0,2000,1906,249,12580,-4,0,36,0,604102,0
604134,111,-2054,335,-8,54,53,12429,-40,-23,-415,-144,35590,-8,34,127,0,0,3445,-38,0,2000,1906,249,12590,-4,0,36,0,604117,0
604144,95,-2045,333,6,53,30,12404,-68,-30,-308,-136,35588,-16,34,127,0,0,3440,-49,0,2000,1906,249,12600,-4,0,36,0,604117,0
604155,64,-2046,343,20,75,-16,12386,-20,-10,-372,-160,35589,-16,34,127,0,0,3434,-87,0,2000,1906,249,12611,-4,0,36,0,604133,0
604165,80,-2046,374,28,82,-53,12377,-24,40,-510,-136,35584,-8,34,127,0,0,3429,-54,0,2000,1906,249,12621,-4,0,36,0,604149,0
604175,89,-2050,387,31,75,-53,12344,-99,-29,-470,-160,35588,0,34,127,0,0,3423,-32,0,2000,1906,249,12631,-4,0,36,0,604164,0
604185,106,-2059,400,27,94,-61,12293,-108,-87,-346,-208,35598,18,34,127,0,0,3414,-43,0,2000,1906,249,12641,-4,0,36,0,604164,0
604195,123,-2046,402,24,104,-84,12237,-103,-41,-235,-128,35597,27,34,127,0,0,3405,-87,0,2000,1906,249,12651,-4,0,36,0,604180,0
604205,193,-2048,395,17,94,-57,12203,-64,40,-304,-112,35591,29,34,127,0,0,3399,-54,0,2000,1906,249,12661,-4,0,36,0,604180,0
604215,222,-2047,400,19,69,3,12194,-23,93,-497,-200,35592,7,34,127,0,0,3394,-32,0,2000,1906,249,12671,-4,0,36,0,604227,0
604225,210,-2050,382,22,46,61,12174,-51,30,-439,-200,35596,-6,34,127,0,0,3392,-32,0,2000,1906,249,12681,-4,0,36,0,604227,0
604235,208,-2044,370,29,40,85,12131,-98,-70,-280,-104,35592,-13,34,127,0,0,3388,-21,0,2000,1906,249,12691,-4,0,36,0,604242,0
604245,161,-2046,345,44,48,114,12097,-68,-21,-192,-56,35586,-10,34,127,0,0,3388,-32,0,2000,1906,249,12701,-4,0,36,0,604242,0
604255,125,-2058,347,58,49,126,12091,12,72,-220,-32,35581,-12,34,127,0,0,3388,21,0,2000,1906,249,12711,-4,0,36,0,604242,0
604265,119,-2046,350,88,43,119,12091,-5,64,-203,-48,35578,-15,34,127,0,0,3385,0,0,2000,1906,249,12721,-4,0,36,0,604258,0
604275,111,-2042,354,94,48,106,12092,0,6,-201,-48,35584,-8,34,127,0,0,3388,0,0,2000,1906,249,12731,-4,0,36,0,604258,0
604285,89,-2048,375,111,71,65,12091,0,-2,-194,-32,35591,4,34,127,0,0,3385,-21,0,2000,1906,249,12741,-4,0,36,0,604258,0
604295,76,-2058,401,123,74,50,12090,2,-3,-283,-56,35602,13,34,127,0,0,3385,0,0,2000,1906,249,12751,-4,0,36,0,604305,0
604305,69,-2052,437,120,52,20,12088,-7,-6,-346,-104,35612,4,34,127,0,0,3381,-21,0,2000,1906,249,12761,-4,0,36,0,604305,0
604315,66,-2043,441,100,54,-26,12083,-1,-5,-387,-168,35612,-6,34,127,0,0,3375,-87,0,2000,1906,249,12771,-4,0,36,0,604305,0
604325,72,-2040,421,82,71,-70,12075,-19,-10,-516,-176,35604,-10,34,127,0,0,3372,-43,0,2000,1906,249,12781,-4,0,36,0,604320,0
604335,90,-2040,402,90,71,-95,12064,-23,-8,-591,-232,35583,-1,34,127,0,0,3364,-98,0,2000,1906,249,12791,-4,0,36,0,604320,0
604345,126,-2045,389,97,64,-109,12036,-86,-38,-515,-224,35576,0,34,127,0,0,3357,-98,0,2000,1906,249,12801,-4,0,36,0,604320,0
604355,126,-2038,387,109,60,-122,11993,-88,-67,-450,-192,35591,-16,34,127,0,0,3353,-65,0,2000,1906,249,12811,-4,0,36,0,604320,0
604365,131,-2030,396,121,70,-144,11940,-116,-40,-340,-160,35599,-25,34,127,0,0,3346,-32,0,2000,1906,249,12821,-4,0,36,0,604352,0
604375,148,-2033,381,116,57,-135,11896,-94,-3,-351,-160,35605,-28,34,127,0,0,3337,-43,0,2000,1906,249,12831,-4,0,36,0,604367,0
604385,119,-2034,371,141,66,-160,11870,-42,52,-451,-184,35588,-21,34,127,0,0,3328,-98,0,2000,1906,249,12841,-4,0,36,0,604367,0
604395,163,-2028,375,151,67,-182,11826,-128,2,-425,-256,35583,-8,34,127,0,0,3320,-76,0,2000,1906,249,12851,-4,0,36,0,604367,0
604406,155,-2031,367,168,89,-209,11757,-136,-88,-326,-160,35590,3,34,127,0,0,3310,-65,0,2000,1906,249,12862,-4,0,36,0,604383,0
604416,132,-2050,365,191,108,-203,11705,-116,-3,-328,-176,35592,20,34,127,0,0,3299,-93,0,2000,1906,249,12872,-4,0,36,0,604414,0
604426,162,-2046,384,215,101,-187,11668,-70,36,-416,-216,35593,15,34,127,0,0,3288,-131,0,2000,1906,249,12882,-4,0,36,0,604414,0
604436,237,-2017,395,224,87,-196,11624,-90,10,-425,-224,35587,6,34,127,0,0,3282,-87,0,2000,1906,249,12892,-4,0,36,0,604445,0
604446,259,-2015,405,228,74,-154,11575,-138,-17,-460,-208,35585,-2,34,127,0,0,3272,0,0,2000,1906,249,12902,-4,0,36,0,604445,0
604456,133,-2046,414,241,81,-140,11507,-169,-55,-342,-184,35587,0,34,127,0,0,3261,-54,0,2000,1906,249,12912,-4,0,36,0,604445,0
604466,143,-2048,439,241,85,-155,11459,-92,-5,-331,-152,35582,0,34,127,0,0,3255,-82,0,2000,1906,249,12922,-4,0,36,0,604445,0
604476,180,-2024,438,243,89,-159,11435,-41,85,-469,-216,35583,-4,34,127,0,0,3244,-98,0,2000,1906,249,12932,-4,0,36,0,604445,0
604486,242,-2022,455,246,74,-143,11397,-108,25,-464,-224,35587,-11,34,127,0,0,3237,-104,0,2000,1906,249,12942,-4,0,36,0,604461,0
604496,185,-2021,440,245,82,-131,11336,-137,-80,-363,-192,35586,-36,34,127,0,0,3232,-87,0,2000,1906,249,12952,-4,0,36,0,604492,0
604506,181,-2040,462,245,92,-126,11298,-40,-1,-401,-192,35589,-36,34,127,0,0,3226,-65,0,2000,1906,249,12962,-4,0,36,0,604492,0
604516,276,-2010,475,247,89,-110,11272,-67,89,-474,-200,35579,-28,34,127,0,0,3212,-109,0,2000,1906,249,12972,-4,0,36,0,604492,0
604526,222,-2026,484,238,72,-86,11236,-78,-5,-428,-168,35581,-6,34,127,0,0,3208,-93,0,2000,1906,249,12982,-4,0,36,0,604492,0
604536,174,-2121,504,320,-25,-39,11192,-122,-36,-384,-152,35576,-11,34,127,0,0,3204,-16,0,2000,1906,249,12992,-4,0,36,0,604508,0
604546,105,-1966,334,299,119,-110,11158,-58,-3,-345,-168,35585,-19,34,127,0,0,3199,-87,0,2000,1906,249,13002,-4,0,36,0,604524,0
604556,319,-2037,551,309,216,-117,11114,-98,13,-358,-160,35576,-21,34,127,0,0,3186,-87,0,2000,1906,249,13012,-4,0,36,0,604617,0
604566,487,-1993,536,253,105,46,11070,-117,-24,-388,-168,35585,-21,34,127,0,0,3183,-32,0,2000,1906,249,13022,-4,0,36,0,604617,0
604576,377,-2027,567,206,53,140,11028,-73,-8,-289,-96,35576,-24,34,127,0,0,3181,-5,0,2000,1906,249,13032,-4,0,36,0,604617,0
604586,223,-2041,561,176,56,193,11011,-8,61,-161,-40,35576,-7,34,127,0,0,3183,-5,0,2000,1906,249,13042,-4,0,36,0,604633,0
604596,207,-2038,563,176,102,199,11014,-3,92,-187,-40,35562,10,34,127,0,0,3183,27,0,2000,1906,249,13052,-4,0,36,0,604633,0
604606,256,-2019,551,156,106,223,11014,0,27,-145,-40,35564,14,34,127,0,0,3183,-27,0,2000,1906,249,13062,-4,0,36,0,604633,0
604616,273,-2020,525,141,74,273,11014,8,-4,-110,-40,35565,16,34,127,0,0,3190,43,0,2000,1906,249,13072,-4,0,36,0,604633,0
604626,266,-2015,472,144,20,332,11018,19,10,48,40,35568,12,34,127,0,0,3192,54,0,2000,1906,249,13082,-4,0,36,0,604633,0
604636,204,-2026,487,144,21,353,11032,32,24,171,88,35565,16,34,127,0,0,3202,115,0,2000,1906,249,13092,-4,0,36,0,604633,0
604646,151,-2028,583,112,44,329,11068,88,62,166,88,35564,1,34,127,0,0,3205,98,0,2000,1906,249,13102,-4,0,36,0,604633,0
604657,181,-2016,676,50,46,288,11093,27,10,211,120,35570,-3,34,127,0,0,3214,87,0,2000,1906,249,13113,-4,0,36,0,604648,0
604667,140,-2023,683,-12,33,288,11112,59,-44,319,96,35582,-14,34,127,0,0,3218,54,0,2000,1906,249,13123,-4,0,36,0,604648,0
604677,187,-2019,638,-80,7,277,11148,70,41,222,88,35583,-6,34,127,0,0,3221,43,0,2000,1906,249,13133,-4,0,36,0,604648,0
604687,123,-2010,597,-111,-16,244,11162,21,-12,284,80,35594,-8,34,127,0,0,3225,43,0,2000,1906,249,13143,-4,0,36,0,604680,0
604697,66,-2027,546,-138,-3,180,11184,61,-33,290,120,35600,-21,34,127,0,0,3229,54,0,2000,1906,249,13153,-4,0,36,0,604680,0
604707,63,-2027,550,-156,-8,129,11215,31,36,156,48,35591,-23,34,127,0,0,3229,21,0,2000,1906,249,13163,-4,0,36,0,604680,0
604717,82,-2018,575,-187,-8,41,11208,-11,-64,213,56,35582,-21,34,127,0,0,3229,21,0,2000,1906,249,13173,-4,0,36,0,604695,0
604727,124,-2031,603,-226,-34,-8,11208,-4,-53,160,32,35568,-26,34,127,0,0,3227,-10,0,2000,1906,249,13183,-4,0,36,0,604695,0
604737,47,-2026,642,-271,-20,-89,11206,-2,1,65,-8,35584,-18,34,127,0,0,3218,-65,0,2000,1906,249,13193,-4,0,36,0,604727,0
604747,51,-2022,638,-317,-13,-154,11193,-48,-21,-161,-88,35589,-23,34,127,0,0,3212,-54,0,2000,1906,249,13203,-4,0,36,0,604727,0
604757,75,-2034,586,-363,20,-228,11178,-30,-26,-322,-104,35584,-19,34,127,0,0,3201,-98,0,2000,1906,249,13213,-4,0,36,0,604742,0
604767,145,-2026,532,-377,22,-260,11145,-108,-32,-434,-168,35570,-20,34,127,0,0,3190,-76,0,2000,1906,249,13223,-4,0,36,0,604742,0
604777,174,-2041,466,-361,15,-279,11078,-157,-107,-343,-192,35566,-23,34,127,0,0,3177,-109,0,2000,1906,249,13233,-4,0,36,0,604773,0
604787,188,-2022,464,-348,0,-296,11012,-137,-54,-328,-224,35575,-10,34,127,0,0,3164,-153,0,2000,1906,249,13243,-4,0,36,0,604773,0
604797,201,-2026,479,-346,-23,-278,10956,-114,24,-349,-184,35577,-1,34,127,0,0,3150,-142,0,2000,1906,249,13253,-4,0,36,0,604773,0
604807,186,-2012,495,-347,-20,-301,10904,-95,27,-387,-168,35573,0,34,127,0,0,3142,-109,0,2000,1906,249,13263,-4,0,36,0,604789,0
604817,185,-1994,501,-369,-28,-328,10865,-87,30,-476,-224,35559,0,34,127,0,0,3131,-98,0,2000,1906,249,13273,-4,0,36,0,604789,0
604827,148,-2016,505,-387,-35,-340,10822,-108,21,-602,-296,35577,-4,34,127,0,0,3117,-87,0,2000,1906,249,13283,-4,0,36,0,604805,0
604837,74,-2027,455,-398,-40,-407,10742,-182,-73,-392,-272,35593,3,34,127,0,0,3098,-164,0,2000,1906,249,13293,-4,0,36,0,604820,0
604847,75,-2022,437,-386,-29,-463,10666,-168,-69,-423,-264,35591,23,34,127,0,0,3082,-164,0,2000,1906,249,13303,-4,0,36,0,604820,0
604857,139,-2017,420,-368,-21,-572,10587,-190,0,-468,-336,35591,24,34,127,0,0,3065,-142,0,2000,1906,249,13313,-4,0,36,0,604852,0
604867,99,-2014,410,-368,-7,-635,10505,-157,-26,-477,-392,35589,2,34,127,0,0,3038,-263,0,2000,1906,249,13323,-4,0,36,0,604852,0
604877,107,-2012,487,-347,-28,-729,10415,-203,-7,-512,-384,35588,-11,34,127,0,0,3016,-230,0,2000,1906,249,13333,-4,0,36,0,604852,0
604887,107,-2009,508,-377,-50,-794,10310,-243,-41,-458,-448,35582,-12,34,127,0,0,2992,-263,0,2000,1906,249,13343,-4,0,36,0,604867,0
604897,85,-2007,522,-407,-57,-928,10189,-268,-63,-417,-424,35566,-1,34,127,0,0,2966,-285,0,2000,1906,249,13353,-4,0,36,0,604867,0
604908,63,-2000,489,-428,-48,-1031,10061,-240,-22,-507,-512,35567,-11,34,127,0,0,2936,-296,0,2000,1906,249,13364,-4,0,36,0,604883,0
604918,134,-1983,462,-428,-44,-1163,9933,-295,-11,-490,-560,35574,-15,34,127,0,0,2899,-269,0,2000,1906,249,13374,-4,0,36,0,604898,0
604928,114,-2002,401,-424,-66,-1235,9791,-324,-51,-496,-640,35582,2,34,127,0,0,2858,-417,0,2000,1906,249,13384,-4,0,36,0,604914,0
604938,110,-2005,389,-419,-92,-1379,9634,-352,-57,-533,-712,35581,7,34,127,0,0,2822,-401,0,2000,1906,249,13394,-4,0,36,0,604914,0
604948,141,-1998,413,-399,-89,-1476,9467,-373,-52,-447,-736,35579,2,34,127,0,0,2778,-417,0,2000,1906,249,13404,-4,0,36,0,604992,0
604958,182,-1996,456,-391,-19,-1648,9307,-394,-42,-471,-832,35571,3,34,127,0,0,2730,-488,0,2000,1906,249,13414,-4,0,36,0,605008,0
604968,229,-2011,519,-396,6,-1732,9127,-407,-25,-518,-944,35578,2,34,127,0,0,2679,-510,0,2000,1906,249,13424,-4,0,36,0,605008,0
604978,340,-1963,589,-457,-51,-1784,8924,-468,-56,-532,-1048,35576,6,34,127,0,0,2624,-527,0,2000,1906,249,13434,-4,0,36,0,605008,0
604988,430,-1948,541,-517,-121,-1792,8703,-504,-78,-450,-1104,35566,12,34,127,0,0,2571,-538,0,2000,1906,249,13444,-4,0,36,0,605008,0
604998,389,-1957,440,-570,-260,-1765,8466,-516,-63,-441,-1120,35571,22,34,127,0,0,2525,-466,0,2000,1906,249,13454,-4,0,36,0,605023,0
605008,323,-1924,336,-550,-349,-1797,8230,-520,-21,-422,-1096,35568,24,34,127,0,0,2477,-422,0,2000,1906,249,13464,-4,0,36,0,605023,0
605018,342,-1983,305,-465,-437,-1888,7992,-515,-1,-346,-1056,35562,23,34,127,0,0,2424,-499,0,2000,1906,249,13474,-4,0,36,0,605023,0
605028,276,-1949,317,-460,-347,-1975,7752,-521,0,-365,-1008,35553,7,34,127,0,0,2378,-494,0,2000,1906,249,13484,-4,0,36,0,605023,0
605038,242,-1990,380,-454,-199,-2170,7521,-515,14,-401,-1032,35560,14,34,127,0,0,2323,-505,0,2000,1906,249,13494,-4,0,36,0,605023,0
605048,377,-1990,438,-463,-138,-2270,7292,-493,13,-438,-1104,35576,15,34,127,0,0,2260,-593,0,2000,1906,249,13504,-4,0,36,0,605023,0
605058,514,-2167,500,-513,-66,-2199,7058,-531,53,-557,-1224,35586,14,34,127,0,0,2195,-631,0,2000,1906,249,13514,-4,0,36,0,605039,0
605068,777,-2040,526,-588,-14,-2140,6821,-517,-41,-682,-1304,35588,25,34,127,0,0,2133,-626,0,2000,1906,249,13524,-4,0,36,0,605055,0
605078,949,-2170,425,-646,-526,-1948,6572,-566,-82,-687,-1336,35584,25,34,127,0,0,2079,-560,0,2000,1906,249,13534,-4,0,36,0,605055,0
605088,1295,-2702,600,-586,-937,-1632,6314,-557,-55,-528,-1136,35579,21,34,127,0,0,2057,-181,0,2000,1906,249,13544,-4,0,36,0,605086,0
605098,579,-3025,822,-522,-972,-1043,6092,-451,52,-418,-712,35583,17,34,127,0,0,2062,148,0,2000,1906,249,13554,-4,0,1,0,605086,0
605108,533,-2422,723,-678,-1152,-830,5932,-293,189,-172,8,35580,25,34,127,0,0,2115,527,0,2000,1906,249,13564,-4,0,1,0,605086,0
605118,419,-1860,461,-1191,-431,-915,5941,154,436,575,392,35581,2,34,127,0,0,2156,362,0,2000,1906,249,13574,-4,0,2,0,605086,0
605128,441,-2681,501,-1320,-228,-895,6084,347,601,307,552,35580,-1,34,127,0,0,2208,516,0,2000,1906,249,13584,-4,0,3,0,605148,0
605138,58,-2947,473,-1179,-1033,-812,6267,421,326,266,672,35597,-11,34,127,0,0,2269,686,0,2000,1906,249,13594,-4,0,4,0,605164,0
605148,207,-2817,320,-1052,-1101,-917,6471,466,113,316,968,35595,13,34,127,0,0,2355,829,0,2000,1906,249,13604,-4,0,5,0,605164,0
605158,147,-2986,340,-963,-845,-1079,6714,570,111,405,1280,35593,15,34,127,0,0,2446,939,0,2000,1906,249,13614,-4,0,7,0,605164,0
605168,-85,-3177,702,-888,-849,-1060,7010,683,173,431,1608,35580,11,34,127,0,0,2548,1082,0,2000,1906,249,13624,-4,0,8,0,605164,0
605178,-101,-3499,906,-1076,-1157,-959,7353,792,194,589,2072,35582,19,34,127,0,0,2678,1285,0,2000,1906,249,13634,-4,0,10,0,605164,0
605188,-222,-3402,1057,-1059,-1317,-896,7765,965,223,797,2680,35572,40,34,127,0,0,2838,1582,0,2000,1906,249,13644,-4,0,12,0,605164,0
605199,-188,-3472,514,-1001,-1509,-985,8336,1227,334,899,3432,35557,57,34,127,0,0,3043,1900,0,2000,1906,249,13655,-4,0,15,0,605180,0
605209,-681,-3365,198,-792,-1635,-951,8981,1506,433,939,4056,35564,59,34,127,0,0,3251,2109,0,2000,1906,249,13665,-4,0,18,0,605195,0
605219,-411,-3391,-41,-687,-1677,-978,9761,1823,485,1040,4928,35570,76,34,127,0,0,3491,2416,0,2000,1906,249,13675,-4,0,20,0,605195,0
605229,-617,-3086,-25,-395,-1632,-1214,10697,2144,569,889,5528,35570,97,34,127,0,0,3733,2449,0,2000,1906,249,13685,-4,0,24,0,605211,0
605239,8,-3549,-271,-444,-1444,-1540,11734,2341,496,928,6096,35549,116,34,127,0,0,3974,2406,0,2000,1906,249,13695,-4,0,27,0,605226,0
605249,285,-3363,180,-537,-1265,-1575,12831,2438,308,709,6368,35544,124,34,127,0,0,4223,2570,0,2000,1906,249,13705,-4,0,31,0,605226,0
605259,1110,-4041,155,-621,-1249,-2349,14010,2666,255,801,6456,35551,142,34,127,0,0,4438,2054,0,2000,1906,249,13715,-4,0,34,0,605242,0
605269,254,-3699,721,-719,-1609,-2452,15245,2681,287,331,5712,35554,155,34,127,0,0,4601,1560,0,2000,1906,249,13725,-4,0,39,0,605242,0
605279,261,-3485,827,-519,-1951,-2209,16363,2361,-116,249,5464,35557,133,34,127,0,0,4798,1977,0,2000,1906,249,13735,-4,0,41,0,605258,0
605289,1705,-3661,822,-367,-1960,-2642,17405,2309,-401,720,5920,35555,99,34,127,0,0,5033,2373,0,2000,1906,249,13745,-4,0,46,0,605273,0
605299,2292,-4235,507,-331,-1376,-4646,18515,2466,-3,521,5328,35560,86,34,127,0,0,5126,670,0,2000,1906,249,13755,-4,0,49,0,605273,0
605309,2167,-4347,265,173,-1064,-6489,19537,2105,-3,-207,2816,35564,90,34,127,0,0,5029,-1109,0,2000,1906,249,13765,-4,0,53,0,605351,0
605319,2236,-3856,488,564,-2175,-7029,20189,1057,-872,-1640,-328,35565,58,34,127,0,0,4847,-1867,0,2000,1906,249,13775,-4,0,55,0,605351,0
605329,2523,-3428,277,839,-2813,-7027,20095,-592,-2187,-1768,-2248,35576,6,34,127,0,0,4645,-1999,0,2000,1906,249,13785,-4,0,58,0,605351,0
605339,2142,-3275,291,1146,-3426,-6854,19634,-1197,-2171,-1265,-3552,35582,-4,34,127,0,0,4434,-2076,0,2000,1906,249,13795,-4,0,59,0,605351,0
605349,2009,-3148,284,1427,-4207,-6658,18939,-1662,-1107,-1023,-4440,35565,44,34,127,0,0,4225,-2065,0,2000,1906,249,13805,-4,0,62,0,605351,0
605359,1976,-3131,384,1520,-4559,-6418,18085,-1941,-759,-673,-4648,35543,110,34,127,0,0,4038,-1823,0,2000,1906,249,13815,-4,0,63,0,605367,0
605369,1860,-3122,519,1611,-4714,-5995,17191,-1962,-383,-410,-4632,35535,113,34,127,0,0,3878,-1560,0,2000,1906,249,13825,-4,0,66,0,605367,0
605379,1736,-3019,530,1587,-4575,-5688,16306,-1938,-45,-343,-4464,35543,101,34,127,0,0,3730,-1439,0,2000,1906,249,13835,-4,0,67,0,605367,0
605389,1373,-2643,386,1499,-4102,-5265,15436,-1899,49,-265,-4248,35552,79,34,127,0,0,3590,-1406,0,2000,1906,249,13845,-4,0,70,0,605367,0
605399,1105,-2319,160,1385,-3772,-5009,14595,-1820,78,-260,-4056,35571,66,34,127,0,0,3445,-1439,0,2000,1906,249,13855,-4,0,72,0,605367,0
605410,847,-1911,-120,1306,-3041,-4666,13722,-1705,147,-322,-4024,35600,51,34,127,0,0,3270,-1576,0,2000,1906,249,13866,-4,0,76,148,605383,0
605420,741,-1717,-310,1309,-2435,-4422,12952,-1694,139,-536,-4320,35599,43,34,127,0,0,3082,-1900,0,2000,1906,249,13876,-4,0,78,150,605414,0
605430,612,-1238,-344,1403,-1553,-3888,12153,-1801,-18,-664,-4704,35583,48,34,127,0,0,2875,-2043,0,2000,1906,249,13886,-4,0,82,151,605414,0
605440,282,-800,-401,1532,-1102,-3227,11281,-1991,-200,-795,-5152,35558,65,34,127,0,0,2670,-2032,0,2000,1906,249,13896,-4,0,84,152,605430,0
605450,-209,-326,-585,1665,-757,-1780,10321,-2123,-321,-455,-4880,35545,80,34,127,0,0,2501,-1636,0,2000,1906,249,13906,-4,0,88,151,605430,0
605460,-78,25,-556,1706,-675,-629,9394,-1983,-112,-185,-4160,35550,85,34,127,0,0,2391,-1049,0,2000,1906,249,13916,-4,0,91,150,605430,0
605470,-207,393,-461,1828,-205,760,8574,-1725,282,-34,-3376,35573,53,34,127,0,0,2304,-873,0,2000,1906,249,13926,-4,0,96,147,605461,0
605480,-429,439,-380,1834,114,1679,7867,-1488,425,19,-2704,35579,25,34,127,0,0,2225,-769,0,2000,1906,249,13936,-4,0,98,145,605461,0
605490,-544,520,-239,1765,605,3041,7264,-1250,407,28,-2080,35577,7,34,127,0,0,2151,-714,0,2000,1906,249,13946,-4,0,103,140,605461,0
605500,-616,507,-274,1782,959,3879,6787,-950,438,-88,-1720,35579,2,34,127,0,0,2089,-587,0,2000,1906,249,13956,-4,0,106,137,605523,0
605510,-721,564,-300,1843,1469,5062,6426,-742,476,-318,-1488,35587,-11,34,127,0,0,2041,-450,0,2000,1906,249,13966,-4,0,111,131,605523,0
605520,-752,655,-336,1889,1775,5780,6131,-608,341,-419,-1248,35592,-3,34,127,0,0,2005,-346,0,2000,1906,249,13976,-4,0,114,127,605523,0
605530,-660,743,-372,1874,2329,6710,5882,-511,214,-380,-984,35575,14,34,127,0,0,1985,-192,0,2000,1906,249,13986,-4,0,119,121,605523,0
605540,-668,612,-378,1811,2771,7288,5674,-429,170,-345,-688,35565,20,34,127,0,0,1975,-93,0,2000,1906,249,13996,-4,0,122,117,605523,0
605550,-525,535,-406,1660,3499,7848,5513,-313,165,-329,-376,35567,4,34,127,0,0,1973,-10,0,2000,1906,249,14006,-4,0,128,110,605523,0
605560,-454,407,-356,1557,4229,8068,5414,-162,204,-224,-56,35582,-21,34,127,0,0,1990,186,0,2000,1906,249,14016,-4,0,131,106,605539,0
605570,-75,323,-220,1286,5112,7957,5439,137,355,99,144,35596,-9,34,127,0,0,2014,258,0,2000,1906,249,14026,-4,0,137,99,605554,0
605580,297,362,-194,1074,5744,7719,5525,207,364,229,216,35596,-1,34,127,0,0,2044,285,0,2000,1906,249,14036,-4,0,140,95,605554,0
605590,817,341,-206,735,6351,7110,5633,236,153,207,184,35588,18,34,127,0,0,2064,170,0,2000,1906,249,14046,-4,0,146,89,605570,0
605600,1188,297,-159,507,6689,6643,5732,201,21,141,128,35591,8,34,127,0,0,2073,126,0,2000,1906,249,14056,-4,0,149,85,605601,0
605610,1827,250,17,120,6824,5948,5801,145,-75,130,144,35584,4,34,127,0,0,2090,203,0,2000,1906,249,14066,-4,0,154,80,605601,0
605620,2122,158,187,-207,6613,5475,5875,159,-47,224,240,35578,-9,34,127,0,0,2123,340,0,2000,1906,249,14076,-4,0,157,77,605601,0
605630,2644,-112,517,-548,6089,4462,5969,243,39,457,488,35569,-13,34,127,0,0,2173,455,0,2000,1906,249,14086,-4,0,161,73,605601,0
605640,2914,-265,620,-738,5656,3782,6126,374,158,382,736,35571,-18,34,127,0,0,2237,598,0,2000,1906,249,14096,-4,0,164,70,605617,0
605650,3120,-458,786,-938,5073,2666,6331,478,211,366,1024,35575,-16,34,127,0,0,2331,889,0,2000,1906,249,14106,-4,0,167,67,605648,0
605661,3198,-311,881,-1056,4416,1547,6618,623,190,447,1456,35575,19,34,127,0,0,2443,1065,0,2000,1906,249,14117,-4,0,169,64,605648,0
605671,3242,-85,853,-1112,3934,767,6950,781,237,472,1888,35573,29,34,127,0,0,2557,1142,0,2000,1906,249,14127,-4,0,169,63,605648,0
605681,3966,-303,811,-1227,2795,-427,7348,900,258,481,2120,35564,37,34,127,0,0,2667,1087,0,2000,1906,249,14137,-4,0,170,62,605648,0
605691,9932,-4366,2173,-194,2081,-6012,7795,996,218,176,1088,35570,53,34,127,0,0,2515,-2010,0,2215,1596,250,3,1,3,170,62,605679,0
605701,2411,474,873,678,1636,-4926,7908,-443,-473,-3083,-2600,35566,65,34,127,0,0,2190,-3131,0,2215,1596,250,13,1,3,170,62,605695,0
605711,3155,1255,425,-830,1877,-4524,7369,-1385,-2053,-1258,-3936,35556,90,34,127,0,0,1905,-2889,0,2215,1596,250,23,1,3,170,62,605695,0
605721,3065,-382,131,-2125,-2272,-3218,6571,-1895,-1729,-1315,-5200,35536,116,34,127,0,0,1628,-2790,0,2215,1596,250,33,1,3,170,62,605726,0
605731,2309,-2865,-386,-2010,-2108,-2775,5575,-2306,-867,-1335,-6200,35514,166,34,127,0,0,1344,-2801,0,2215,1596,250,43,1,3,170,62,605742,0
605741,-257,-4915,240,-832,-1373,-1985,4440,-2561,-651,-1127,-6856,35498,195,34,127,0,0,1116,-2263,0,2215,1596,250,53,1,3,170,62,605742,0
605751,39,-5475,-541,-1563,-1663,-1724,3219,-2741,-422,-754,-6560,35495,177,34,127,0,0,968,-1384,0,2215,1596,250,63,1,3,170,62,605742,0
605761,485,-5352,1044,-2366,-482,-849,2016,-2537,-152,107,-4256,35516,113,34,127,0,0,911,-494,0,2215,1596,250,73,1,3,170,62,605742,0
605771,448,-3792,357,-2091,-136,-712,1076,-1843,532,592,-2304,35551,23,34,127,0,0,907,21,0,2215,1596,250,83,1,3,170,62,605742,0
605781,1150,-2009,415,-1539,-31,-708,470,-1137,1168,442,-1032,35581,-25,34,127,0,0,927,263,0,2215,1596,250,93,1,3,170,62,605773,0
605791,1345,-1122,-329,-1264,-157,-651,119,-628,1135,192,-288,35584,-37,34,127,0,0,953,252,0,2215,1596,250,103,1,3,170,62,605773,0
605801,1994,238,-423,-1320,27,-448,-25,-167,871,287,48,35586,-24,34,127,0,0,968,131,0,2215,1596,250,113,1,3,170,62,605789,0
605811,2331,136,-724,-1388,-185,-153,1,91,741,44,8,35579,-2,34,127,0,0,958,-131,0,2215,1596,250,123,1,3,170,62,605789,0
605821,2112,-820,-404,-1122,-253,251,21,14,302,-134,-32,35577,5,34,127,0,0,933,-285,0,2215,1596,250,133,1,3,170,62,605789,0
605831,1585,-1685,-213,-864,-262,472,17,-1,-75,-108,-32,35575,10,34,127,0,0,894,-373,0,2215,1596,250,143,1,3,170,62,605804,0
605841,992,-2437,317,-521,-90,683,18,-1,-32,-117,-32,35579,-9,34,127,0,0,867,-252,0,2215,1596,250,153,1,3,170,62,605851,0
605851,820,-2496,552,-472,22,713,17,-7,1,-127,-32,35590,-12,34,127,0,0,854,-98,0,2215,1596,250,163,1,3,170,62,605851,0
605861,1022,-2168,369,-503,215,744,17,-9,4,-115,-32,35578,-26,34,127,0,0,848,-65,0,2215,1596,250,173,1,3,170,62,605867,0
605871,1292,-1922,141,-445,218,834,18,-2,-2,-118,-32,35565,-16,34,127,0,0,848,-10,0,2215,1596,250,183,1,3,170,62,605867,0
605881,1335,-1667,-56,-228,173,1050,18,-7,-3,-122,-32,35556,-14,34,127,0,0,850,21,0,2215,1596,250,193,1,3,170,62,605867,0
605891,1342,-1691,-26,-127,184,1172,18,0,5,-119,-32,35568,-20,34,127,0,0,859,76,0,2215,1596,250,203,1,3,170,62,605867,0
605901,1175,-1983,222,-92,189,1394,17,0,2,-111,-40,35573,-20,34,127,0,0,872,164,0,2215,1596,250,213,1,3,170,62,605867,0
605912,1085,-2099,418,-93,185,1531,19,1,-3,-103,-32,35579,-14,34,127,0,0,896,241,0,2215,1596,250,224,1,3,170,62,605898,0
605922,1082,-1995,516,-133,152,1690,18,3,-4,-87,-32,35583,0,34,127,0,0,927,340,0,2215,1596,250,234,1,3,170,62,605898,0
605932,1075,-1937,490,-162,89,1799,19,1,1,-100,-32,35583,-5,34,127,0,0,961,362,0,2215,1596,250,244,1,3,170,62,605929,0
605942,1139,-1743,303,-192,51,1928,17,-3,1,-104,-32,35578,-18,34,127,0,0,1004,406,0,2215,1596,250,254,1,3,170,62,605929,0
605952,1061,-1734,221,-190,44,2001,32,75,31,324,384,35571,-22,34,127,0,0,1048,444,0,2215,1596,250,264,1,3,170,62,605929,0
605962,873,-1831,184,-151,75,2072,138,312,231,682,712,35567,5,34,127,0,0,1089,406,0,2215,1596,250,274,1,3,170,62,605929,0
605972,879,-1834,255,-161,137,2089,314,405,318,479,952,35569,6,34,127,0,0,1139,494,0,2215,1596,250,284,1,3,170,62,605961,0
605982,827,-1948,392,-200,114,2120,524,476,181,504,1096,35574,18,34,127,0,0,1183,466,0,2215,1596,250,294,1,3,170,62,605961,0
605992,803,-1962,430,-217,73,2147,763,544,120,456,1216,35568,20,34,127,0,0,1228,494,0,2215,1596,250,304,1,3,170,62,605961,0
606002,788,-1961,410,-266,3,2191,1024,583,96,437,1256,35575,31,34,127,0,0,1279,450,0,2215,1596,250,314,1,3,170,62,605992,0
606012,777,-1877,330,-270,-3,2188,1296,603,57,426,1320,35573,32,34,127,0,0,1335,549,0,2215,1596,250,324,1,3,170,62,606008,0
606022,648,-1886,210,-255,-25,2127,1580,633,43,416,1368,35583,24,34,127,0,0,1382,494,0,2215,1596,250,334,1,3,170,62,606008,0
606032,559,-1961,235,-243,-39,2072,1867,638,31,425,1336,35575,17,34,127,0,0,1430,411,0,2215,1596,250,344,1,3,170,62,606008,0
606042,418,-1941,254,-236,-16,1924,2155,641,10,396,1296,35571,25,34,127,0,0,1477,444,0,2215,1596,250,354,1,3,170,62,606101,0
606052,353,-1958,255,-226,8,1797,2437,614,-6,308,1192,35583,12,34,127,0,0,1524,455,0,2215,1596,250,364,1,3,170,62,606101,0
606062,318,-1992,237,-192,15,1596,2701,568,-76,345,1128,35588,4,34,127,0,0,1562,401,0,2215,1596,250,374,1,3,170,62,606101,0
606072,351,-1964,231,-169,18,1455,2948,535,-31,343,1032,35584,-1,34,127,0,0,1599,313,0,2215,1596,250,384,1,3,170,62,606101,0
606082,321,-1967,177,-146,-19,1259,3177,497,-67,329,912,35568,10,34,127,0,0,1629,296,0,2215,1596,250,394,1,3,170,62,606101,0
606092,275,-1973,126,-106,-49,1116,3386,444,-73,324,784,35562,7,34,127,0,0,1661,269,0,2215,1596,250,404,1,3,170,62,606117,0
606102,151,-1953,17,-43,-2,850,3575,408,-77,320,632,35568,12,34,127,0,0,1686,252,0,2215,1596,250,414,1,3,170,62,606117,0
606112,140,-1970,29,1,51,673,3748,366,-71,315,536,35575,4,34,127,0,0,1700,192,0,2215,1596,250,424,1,3,170,62,606117,0
606122,187,-1951,126,80,103,399,3898,314,-75,260,328,35570,12,34,127,0,0,1712,98,0,2215,1596,250,434,1,3,170,62,606117,0
606132,260,-1974,231,77,115,221,4019,231,-90,190,152,35565,22,34,127,0,0,1712,21,0,2215,1596,250,444,1,3,170,62,606117,0
606142,255,-2082,440,-14,41,12,4076,79,-175,37,16,35567,12,34,127,0,0,1717,16,0,2215,1596,250,454,1,3,170,62,606117,0
606153,237,-2163,566,-47,-31,-167,4070,-11,-245,158,24,35580,18,34,127,0,0,1713,0,0,2215,1596,250,465,1,3,170,62,606148,0
606163,244,-2103,542,-112,-89,-298,4070,1,-91,66,8,35594,2,34,127,0,0,1711,-21,0,2215,1596,250,475,1,3,170,62,606148,0
606173,212,-2150,460,-232,-155,-485,4067,-8,12,-6,-48,35586,11,34,127,0,0,1707,-43,0,2215,1596,250,485,1,3,170,62,606148,0
606183,236,-2181,461,-291,-117,-567,4061,-9,-18,-79,-56,35577,5,34,127,0,0,1700,-65,0,2215,1596,250,495,1,3,170,62,606164,0
606193,450,-2141,507,-318,-98,-662,4054,-24,-6,-263,-72,35583,-5,34,127,0,0,1700,-21,0,2215,1596,250,505,1,3,170,62,606164,0
606203,632,-2151,515,-355,-147,-652,4052,-2,5,-298,-64,35594,5,34,127,0,0,1700,10,0,2215,1596,250,515,1,3,170,62,606195,0
606213,792,-2326,479,-505,-207,-427,4051,6,16,-272,0,35597,18,34,127,0,0,1709,109,0,2215,1596,250,525,1,3,170,62,606195,0
606223,932,-2378,565,-605,-374,-184,4065,53,34,141,184,35588,26,34,127,0,0,1738,307,0,2215,1596,250,535,1,3,170,62,606195,0
606233,912,-2575,537,-620,-623,135,4116,150,96,602,512,35595,17,34,127,0,0,1786,483,0,2215,1596,250,545,1,3,170,62,606211,0
606243,693,-2808,619,-539,-647,345,4238,322,202,619,776,35593,-10,34,127,0,0,1847,648,0,2215,1596,250,555,1,3,170,62,606226,0
606253,552,-2708,559,-507,-725,575,4417,423,251,593,1168,35590,-10,34,127,0,0,1931,867,0,2215,1596,250,565,1,3,170,62,606226,0
606263,543,-2803,556,-421,-779,623,4659,587,223,695,1584,35584,5,34,127,0,0,2030,1010,0,2215,1596,250,575,1,3,170,62,606257,0
606273,177,-3254,11,-765,-863,1040,4971,722,255,689,2048,35578,23,34,127,0,0,2162,1351,0,2215,1596,250,585,1,3,170,62,606257,0
606283,226,-3308,91,-845,-981,1354,5374,961,297,818,2664,35579,37,34,127,0,0,2329,1691,0,2215,1596,250,595,1,3,170,62,606273,0
606293,200,-3365,-78,-541,-1179,1387,5894,1235,404,856,3344,35571,59,34,127,0,0,2522,1966,0,2215,1596,250,605,1,3,170,62,606273,0
606303,-359,-3499,-246,-397,-1112,1618,6550,1527,488,810,3928,35569,79,34,127,0,0,2733,2153,0,2215,1596,250,615,1,3,170,62,606273,0
606313,-706,-3336,79,-151,-793,1683,7323,1766,487,784,4576,35584,87,34,127,0,0,2968,2384,0,2215,1596,250,625,1,3,170,62,606304,0
606323,-639,-3136,334,-67,-834,1450,8197,1988,414,995,5360,35589,106,34,127,0,0,3238,2735,0,2215,1596,250,635,1,3,170,62,606304,0
606333,-1011,-3210,707,-4,-882,1127,9206,2328,449,1085,6080,35569,131,34,127,0,0,3504,2669,0,2215,1596,250,645,1,3,170,62,606304,0
606343,-1105,-3162,605,-471,-953,1080,10357,2601,536,868,6552,35530,170,34,127,0,0,3779,2757,0,2215,1596,250,655,1,3,170,62,606320,0
606353,-946,-3607,1082,-595,-1307,1143,11594,2771,432,999,7280,35529,187,34,127,0,0,4086,3076,0,2215,1596,250,665,1,3,170,62,606382,0
606363,-842,-3702,894,-512,-1885,908,12918,2983,325,979,7928,35534,188,34,127,0,0,4409,3262,0,2215,1596,250,675,1,3,170,62,606382,0
606373,-898,-3367,377,-491,-1688,257,14404,3401,480,950,8216,35531,212,34,127,0,0,4715,2977,0,2215,1596,250,685,1,3,170,62,606382,0
606383,90,-3715,186,-463,-1436,-845,15999,3505,544,610,8016,35513,213,34,127,0,0,4963,2384,0,2215,1596,250,695,1,3,170,62,606476,0
606393,76,-3260,448,-511,-1360,-1872,17511,3249,46,164,7096,35509,163,34,127,0,0,5159,1900,0,2215,1596,250,705,1,3,170,62,606476,0
606403,94,-3470,460,-775,-1662,-2251,18900,2960,-399,95,6536,35529,95,34,127,0,0,5403,2493,0,2215,1596,250,715,1,3,170,62,606476,0
606413,1862,-4380,584,-1189,-1586,-4790,20157,2713,-489,315,5584,35552,51,34,127,0,0,5629,2186,0,2215,1596,250,725,1,3,170,62,606476,0
606424,1478,-5163,896,-1216,-1817,-7236,21304,1983,-626,-1372,1376,35582,8,34,127,0,0,5666,-38,0,2215,1596,250,736,1,3,170,62,606476,0
606434,1766,-5680,961,-838,-1814,-9646,21574,-252,-1829,-4217,-2880,35599,-11,34,127,0,0,5514,-1713,0,2215,1596,250,746,0,3,170,62,606476,0
606444,1365,-5248,876,-834,-1710,-10501,20988,-1553,-3270,-1441,-480,35583,28,34,127,0,0,5252,-2708,0,2215,1596,250,756,0,3,170,62,606476,0
606454,949,-4611,1068,-725,-2776,-10804,20956,625,-616,3242,-16,35566,79,34,127,0,0,5009,-2433,0,2215,1596,250,766,0,3,170,62,606476,0
606464,2536,-4837,542,-942,-2740,-10053,20907,-514,1310,-2150,-1976,35533,129,34,127,0,0,4851,-1560,0,2215,1596,250,776,0,3,170,62,606476,0
606474,1357,-4014,758,-894,-3371,-9367,20524,-955,-877,-912,-2576,35544,73,34,127,0,0,4736,-1005,0,2215,1596,250,786,0,3,170,62,606492,0
606484,1208,-3651,646,-976,-3901,-9012,20048,-1044,-789,-409,-2296,35547,51,34,127,0,0,4691,-428,0,2215,1596,250,796,0,3,170,62,606492,0
606494,1005,-3237,595,-982,-4426,-8569,19595,-961,-123,-138,-1688,35553,37,34,127,0,0,4665,-197,0,2215,1596,250,806,0,3,170,62,606492,0
606504,1090,-3003,447,-910,-4268,-8307,19212,-795,183,-50,-1216,35563,22,34,127,0,0,4637,-379,0,2215,1596,250,816,0,3,170,62,606492,0
606514,938,-2424,261,-565,-3342,-7935,18899,-655,271,-151,-1328,35580,12,34,127,0,0,4543,-977,0,2215,1596,250,826,0,3,170,62,606492,0
606524,662,-1834,46,-197,-2647,-7630,18589,-733,152,-710,-2248,35596,26,34,127,0,0,4369,-1829,0,2215,1596,250,836,0,3,170,62,606492,0
606534,212,-948,-183,381,-1935,-6922,18110,-1205,-316,-1248,-3680,35604,41,34,127,0,0,4135,-2466,0,2215,1596,250,846,0,3,170,62,606523,0
606544,-27,-426,-239,790,-1717,-6263,17376,-1762,-833,-1201,-4912,35591,80,34,127,0,0,3872,-2620,0,2215,1596,250,856,0,3,170,62,606523,0
606554,-155,313,-405,1177,-1373,-5046,16423,-2243,-903,-1139,-6000,35554,124,34,127,0,0,3589,-2812,0,2215,1596,250,866,0,3,170,62,606523,0
606564,-193,744,-464,1367,-1014,-4049,15260,-2688,-822,-941,-6680,35528,148,34,127,0,0,3294,-2960,0,2215,1596,250,876,0,3,170,62,606539,0
606574,-513,1088,-685,1611,-453,-2268,13954,-2905,-686,-699,-7056,35522,159,34,127,0,0,3008,-2933,0,2215,1596,250,886,0,3,170,62,606554,0
606584,-763,911,-737,1735,-173,-953,12643,-2846,-281,-395,-6824,35538,132,34,127,0,0,2779,-2285,0,2215,1596,250,896,0,3,170,62,606554,0
606594,-1333,722,-382,1954,229,994,11388,-2728,108,-169,-6120,35545,106,34,127,0,0,2605,-1675,0,2215,1596,250,906,0,3,170,62,606570,0
606604,-1466,444,-143,2121,665,2129,10200,-2535,227,19,-4976,35553,59,34,127,0,0,2494,-1076,0,2215,1596,250,916,0,3,170,62,606601,0
606614,-1318,387,32,2412,1709,3544,9165,-2152,417,194,-3672,35555,32,34,127,0,0,2406,-834,0,2215,1596,250,926,0,3,170,62,606601,0
606624,-1214,524,-55,2553,2298,4322,8328,-1717,686,250,-2584,35564,18,34,127,0,0,2351,-609,0,2215,1596,250,936,0,3,170,62,606601,0
606634,-1017,904,-247,2597,3021,5325,7673,-1330,731,274,-1688,35574,14,34,127,0,0,2297,-543,0,2215,1596,250,946,0,3,170,62,606601,0
606644,-891,1041,-391,2615,3419,5970,7182,-970,660,161,-1128,35576,15,34,127,0,0,2246,-527,0,2215,1596,250,956,0,3,170,62,606617,0
606655,-570,892,-431,2556,3881,6999,6822,-601,608,-47,-808,35592,-8,34,127,0,0,2214,-263,0,2215,1596,250,967,0,3,170,62,606648,0
606665,-457,800,-224,2396,4359,7813,6623,-387,532,-263,-488,35601,-21,34,127,0,0,2206,-43,0,2215,1596,250,977,0,3,170,62,606648,0
606675,-344,809,-177,2238,4737,7971,6496,-225,369,-293,-168,35592,-23,34,127,0,0,2206,21,0,2215,1596,250,987,0,3,170,62,606648,0
606685,93,601,-207,1911,5232,7871,6448,-43,290,-221,-32,35573,-9,34,127,0,0,2208,21,0,2215,1596,250,997,0,3,170,62,606679,0
606695,556,529,-170,1702,5492,7672,6461,39,271,-196,16,35555,-13,34,127,0,0,2219,76,0,2215,1596,250,1007,0,3,170,62,606679,0
606705,1258,522,-134,1257,5560,7165,6484,58,127,-86,80,35561,-16,34,127,0,0,2234,175,0,2215,1596,250,1017,0,3,170,62,606679,0
606715,1791,521,-116,977,5446,6611,6524,107,51,241,176,35574,-7,34,127,0,0,2256,208,0,2215,1596,250,1027,0,3,170,62,606695,0
606725,2494,486,-174,590,5095,5568,6615,228,126,205,176,35570,-6,34,127,0,0,2276,197,0,2215,1596,250,1037,0,3,170,62,606710,0
606735,2846,470,-172,306,4828,4899,6723,227,133,135,184,35571,-8,34,127,0,0,2304,285,0,2215,1596,250,1047,0,3,170,62,606710,0
606745,3358,514,-91,-85,4369,3778,6837,265,41,190,272,35567,-18,34,127,0,0,2348,450,0,2215,1596,250,1057,0,3,170,62,606710,0
606755,3554,485,-29,-270,3898,3004,6981,348,70,289,552,35578,-21,34,127,0,0,2416,725,0,2215,1596,250,1067,0,3,170,62,606743,0
606765,3723,400,171,-351,3053,1885,7166,427,136,389,1000,35576,-21,34,127,0,0,2513,1021,0,2215,1596,250,1077,0,3,170,62,606743,0
606775,3704,496,232,-330,2294,1193,7408,600,185,647,1648,35572,-5,34,127,0,0,2641,1329,0,2215,1596,250,1087,0,3,170,62,606743,0
606785,9210,-2931,1560,929,1563,-6829,7773,845,353,319,800,35560,4,34,127,0,0,2454,-2460,0,1430,585,251,1,1,3,159,102,606759,0
606795,1434,658,325,1299,851,-4693,7758,-732,-426,-3301,-3216,35565,27,34,127,0,0,2067,-3702,0,1430,585,251,11,1,3,159,102,606806,0
606805,2414,644,-892,-1196,-810,-2306,7087,-1691,-2160,-1354,-4584,35559,71,34,127,0,0,1788,-2801,0,1430,585,251,21,1,3,159,102,606806,0
606815,2658,-1512,-555,-1661,-3075,-876,6183,-2109,-1695,-1189,-5352,35544,121,34,127,0,0,1553,-2230,0,1430,585,251,31,1,3,159,102,606806,0
606825,378,-4546,386,-733,-1703,-1314,5189,-2196,-619,-918,-5832,35514,169,34,127,0,0,1318,-2384,0,1430,585,251,41,1,3,159,102,606806,0
606835,57,-4968,-570,-545,-352,-736,4131,-2383,-274,-924,-6112,35508,154,34,127,0,0,1131,-1779,0,1430,585,251,51,1,3,159,102,606806,0
606845,-718,-4833,1346,-1480,762,-909,3023,-2462,-227,-636,-6056,35518,157,34,127,0,0,973,-1527,0,1430,585,251,61,1,3,159,102,606821,0
606855,504,-5009,1209,-1308,1387,-1174,1935,-2305,-74,-61,-4072,35543,136,34,127,0,0,852,-1208,0,1430,585,251,71,1,3,159,102,606853,0
606865,1243,-4462,1054,-1281,818,-364,1058,-1754,445,363,-2264,35565,58,34,127,0,0,782,-637,0,1430,585,251,81,1,3,159,102,606853,0
606875,1876,-2841,590,-1147,21,259,461,-1139,954,424,-1016,35579,-3,34,127,0,0,802,219,0,1430,585,251,91,1,3,159,102,606868,0
606885,1788,-1492,-107,-1594,-353,1276,108,-641,1006,223,-264,35583,-45,34,127,0,0,865,692,0,1430,585,251,101,1,3,159,102,606868,0
606895,1686,-527,-60,-1555,-379,1452,-31,-138,863,371,64,35571,-18,34,127,0,0,947,780,0,1430,585,251,111,1,3,159,102,606868,0
606906,1222,-572,-71,-1180,-376,1321,29,171,778,167,56,35580,-8,34,127,0,0,1012,554,0,1430,585,251,122,1,3,159,102,606868,0
606916,831,-429,-125,-719,65,818,84,115,311,226,128,35583,-3,34,127,0,0,1025,54,0,1430,585,251,132,1,3,159,102,606900,0
606926,1291,-1115,-198,-381,683,445,129,42,-28,-68,-144,35590,-1,34,127,0,0,992,-307,0,1430,585,251,142,1,3,159,102,606900,0
606936,1599,-1862,233,-141,736,496,75,-163,-212,-419,-160,35588,12,34,127,0,0,953,-417,0,1430,585,251,152,1,3,159,102,606915,0
606946,1928,-2440,751,-12,460,1168,22,-100,-197,-155,-48,35576,15,34,127,0,0,929,-175,0,1430,585,251,162,1,3,159,102,606931,0
606956,2024,-2175,981,-96,210,1625,27,40,125,-168,-48,35570,4,34,127,0,0,940,109,0,1430,585,251,172,1,3,159,102,606931,0
606966,1385,-2380,952,-406,-329,2403,24,-12,98,-166,-8,35567,1,34,127,0,0,986,499,0,1430,585,251,182,1,3,159,102,606931,0
606976,1237,-1888,682,-504,-494,2649,34,25,3,161,296,35574,-3,34,127,0,0,1057,714,0,1430,585,251,192,1,3,159,102,606962,0
606986,595,-1645,-66,-529,-589,2575,139,349,228,860,1072,35572,5,34,127,0,0,1128,747,0,1430,585,251,202,1,3,159,102,606962,0
606996,589,-1676,-286,-339,-482,2366,370,570,456,674,1488,35573,16,34,127,0,0,1196,659,0,1430,585,251,212,1,3,159,102,607025,0
607006,463,-2223,-493,-19,166,2077,674,695,363,519,1600,35571,-2,34,127,0,0,1249,565,0,1430,585,251,222,1,3,159,102,607025,0
607016,601,-2042,-50,77,611,1992,1001,713,165,335,1480,35569,3,34,127,0,0,1285,406,0,1430,585,251,232,1,3,159,102,607025,0
607026,996,-1804,624,120,394,1865,1314,667,0,272,1264,35564,-2,34,127,0,0,1330,428,0,1430,585,251,242,1,3,159,102,607025,0
607036,1114,-1885,741,-27,213,1987,1597,617,-93,332,1208,35556,14,34,127,0,0,1374,488,0,1430,585,251,252,1,3,159,102,607040,0
607046,1185,-1833,806,-192,-41,2301,1866,587,-77,417,1312,35555,11,34,127,0,0,1434,598,0,1430,585,251,262,1,3,159,102,607040,0
607056,1083,-1816,641,-296,-195,2471,2143,619,-66,458,1408,35560,10,34,127,0,0,1502,675,0,1430,585,251,272,1,3,159,102,607040,0
607066,863,-1792,439,-373,-253,2537,2444,689,38,496,1552,35567,14,34,127,0,0,1576,780,0,1430,585,251,282,1,3,159,102,607040,0
607076,738,-1826,364,-373,-191,2487,2769,720,155,490,1656,35569,20,34,127,0,0,1639,659,0,1430,585,251,292,1,3,159,102,607040,0
607086,625,-1897,397,-355,-85,2416,3105,735,65,416,1640,35583,21,34,127,0,0,1706,675,0,1430,585,251,302,1,3,159,102,607071,0
607096,611,-1890,494,-414,-66,2376,3438,722,9,420,1632,35594,21,34,127,0,0,1763,615,0,1430,585,251,312,1,3,159,102,607071,0
607106,598,-1887,519,-489,-126,2320,3761,702,-23,404,1608,35588,12,34,127,0,0,1828,648,0,1430,585,251,322,1,3,159,102,607103,0
607116,491,-1967,428,-513,-190,2262,4082,694,-30,376,1544,35575,22,34,127,0,0,1889,631,0,1430,585,251,332,1,3,159,102,607118,0
607126,294,-1961,215,-482,-257,2101,4389,673,-29,353,1488,35560,11,34,127,0,0,1952,648,0,1430,585,251,342,1,3,159,102,607118,0
607136,174,-1930,133,-436,-280,1913,4692,669,-32,361,1440,35563,12,34,127,0,0,2005,549,0,1430,585,251,352,1,3,159,102,607118,0
607146,108,-1982,165,-348,-112,1615,4987,637,-20,333,1336,35569,9,34,127,0,0,2061,516,0,1430,585,251,362,1,3,159,102,607118,0
607157,125,-1989,191,-369,16,1344,5300,610,-35,271,1152,35584,15,34,127,0,0,2100,406,0,1430,585,251,373,1,3,159,102,607134,0
607167,136,-1994,277,-342,18,1156,5559,550,-65,278,944,35587,22,34,127,0,0,2135,340,0,1430,585,251,383,1,3,159,102,607150,0
607177,170,-1962,309,-274,7,845,5791,489,-99,270,760,35597,5,34,127,0,0,2162,252,0,1430,585,251,393,1,3,159,102,607165,0
607187,147,-2002,305,-303,1,663,6002,441,-91,242,520,35584,3,34,127,0,0,2181,197,0,1430,585,251,403,1,3,159,102,607181,0
607197,148,-2010,443,-353,-30,426,6184,380,-98,195,320,35578,4,34,127,0,0,2195,120,0,1430,585,251,413,1,3,159,102,607181,0
607207,200,-1983,501,-420,-52,278,6328,288,-128,85,112,35566,-2,34,127,0,0,2206,120,0,1430,585,251,423,1,3,159,102,607181,0
607217,310,-2017,494,-519,-56,90,6400,111,-208,39,32,35577,-2,34,127,0,0,2210,76,0,1430,585,251,433,1,3,159,102,607228,0
607227,392,-2026,396,-551,-75,3,6433,49,-215,-19,0,35601,-4,34,127,0,0,2210,10,0,1430,585,251,443,1,3,159,102,607228,0
607237,453,-2027,182,-573,-126,-83,6428,-5,-154,106,-24,35596,-7,34,127,0,0,2212,21,0,1430,585,251,453,1,3,159,102,607228,0
607247,432,-2036,209,-583,-155,-85,6428,-13,-52,55,56,35592,2,34,127,0,0,2214,43,0,1430,585,251,463,1,3,159,102,607228,0
607257,341,-2125,371,-600,-187,-159,6432,-1,14,105,40,35579,-9,34,127,0,0,2217,32,0,1430,585,251,473,1,3,159,102,607243,0
607267,400,-2207,542,-630,-131,-177,6434,15,5,193,16,35583,-15,34,127,0,0,2217,0,0,1430,585,251,483,1,3,159,102,607243,0
607277,840,-2264,586,-674,-101,-117,6434,7,-3,245,56,35599,-9,34,127,0,0,2223,65,0,1430,585,251,493,1,3,159,102,607259,0
607287,911,-2573,609,-663,-181,98,6445,30,20,322,112,35606,-17,34,127,0,0,2234,142,0,1430,585,251,503,1,3,159,102,607259,0
607297,940,-2554,594,-655,-504,632,6477,116,61,488,320,35605,-15,34,127,0,0,2271,384,0,1430,585,251,513,1,3,159,102,607306,0
607307,795,-2742,391,-689,-832,950,6583,281,186,533,656,35604,-30,34,127,0,0,2340,692,0,1430,585,251,523,1,3,159,102,607306,0
607317,58,-3197,206,-783,-1231,1295,6758,422,273,514,1016,35586,-23,34,127,0,0,2436,1010,0,1430,585,251,533,1,3,159,102,607306,0
607327,-267,-3127,303,-670,-1575,1258,7009,615,272,677,1736,35580,-17,34,127,0,0,2570,1384,0,1430,585,251,543,1,3,159,102,607321,0
607337,-635,-3139,-78,-763,-991,1021,7368,861,355,745,2248,35564,24,34,127,0,0,2698,1274,0,1430,585,251,553,1,3,159,102,607321,0
607347,-568,-3337,5,-690,-660,888,7806,998,365,765,2616,35564,21,34,127,0,0,2843,1450,0,1430,585,251,563,1,3,159,102,607321,0
607357,-625,-3242,275,-671,-432,822,8312,1169,278,863,3104,35580,37,34,127,0,0,3003,1636,0,1430,585,251,573,1,3,159,102,607337,0
607367,-441,-3127,509,-583,-520,721,8906,1378,292,887,3800,35584,47,34,127,0,0,3194,1966,0,1430,585,251,583,1,3,159,102,607353,0
607377,-649,-3119,590,-553,-1111,624,9617,1643,393,931,4336,35583,74,34,127,0,0,3399,1999,0,1430,585,251,593,1,3,159,102,607353,0
607387,-796,-3194,575,-616,-1467,581,10451,1917,465,922,4904,35565,95,34,127,0,0,3621,2219,0,1430,585,251,603,1,3,159,102,607353,0
607397,-946,-2789,195,-859,-907,220,11380,2096,417,848,5456,35559,93,34,127,0,0,3851,2362,0,1430,585,251,613,1,3,159,102,607368,0
607408,-1217,-2870,485,-925,-933,109,12480,2246,310,844,5976,35547,111,34,127,0,0,4111,2411,0,1430,585,251,624,1,3,159,102,607399,0
607418,-888,-3483,391,-902,-1471,-271,13577,2490,301,853,6376,35552,132,34,127,0,0,4367,2559,0,1430,585,251,634,1,3,159,102,607415,0
607428,-1224,-3688,165,-833,-1051,-551,14799,2758,419,784,6536,35547,141,34,127,0,0,4612,2433,0,1430,585,251,644,1,3,159,102,607415,0
607438,-277,-3914,257,-802,-733,-1616,16068,2773,336,651,6728,35543,144,34,127,0,0,4826,2076,0,1430,585,251,654,1,3,159,102,607415,0
607448,-389,-3881,390,-805,-321,-2047,17316,2699,37,336,6088,35532,148,34,127,0,0,5002,1735,0,1430,585,251,664,1,3,159,102,607415,0
607458,-38,-3790,550,-1211,-133,-2561,18480,2492,-199,208,5568,35550,128,34,127,0,0,5175,1801,0,1430,585,251,674,1,3,159,102,607446,0
607468,-57,-3762,628,-1600,-362,-2860,19545,2295,-355,512,5912,35571,96,34,127,0,0,5452,2861,0,1430,585,251,684,1,3,159,102,607446,0
607478,1227,-4657,661,-2036,-73,-5432,20630,2402,-150,566,5008,35577,81,34,127,0,0,5713,2521,0,1430,585,251,694,1,3,159,102,607446,0
607488,1596,-5502,886,-1876,-25,-7907,21612,1999,-128,-757,1752,35571,72,34,127,0,0,5786,505,0,1430,585,251,704,1,3,159,102,607462,0
607498,2243,-5520,649,-1591,129,-9924,21984,61,-1297,-3853,-2328,35579,49,34,127,0,0,5695,-1071,0,1430,585,251,714,1,3,159,102,607478,0
607508,1883,-5090,886,-1484,-341,-10766,21440,-1587,-3025,-2588,-5712,35579,38,34,127,0,0,5520,-1829,0,1430,585,251,724,0,3,159,102,607478,0
607518,2442,-4583,565,-1526,-797,-10924,20381,-2543,-2772,-1151,-2136,35552,119,34,127,0,0,5331,-1906,0,1430,585,251,734,0,3,159,102,607556,0
607528,1717,-4029,556,-1410,-1417,-11573,20178,942,522,6854,2936,35542,137,34,127,0,0,5143,-1928,0,1430,585,251,744,0,3,159,102,607556,0
607538,2841,-3963,279,-1480,-2515,-10402,20715,1037,3470,-370,432,35510,225,34,127,0,0,5036,-1010,0,1430,585,251,754,0,3,159,102,607556,0
607548,1799,-3437,566,-1329,-3266,-9591,20841,-198,515,-2216,-864,35537,116,34,127,0,0,4964,-626,0,1430,585,251,764,0,3,159,102,607556,0
607558,1369,-2875,301,-1171,-4157,-8740,20645,-465,-1515,-399,-880,35542,85,34,127,0,0,4940,-241,0,1430,585,251,774,0,3,159,102,607571,0
607568,1344,-2702,225,-1087,-4552,-8160,20438,-447,-609,-222,-536,35569,-28,34,127,0,0,4930,-71,0,1430,585,251,784,0,3,159,102,607571,0
607578,1206,-2264,224,-784,-4464,-7554,20266,-353,46,-208,-464,35567,-15,34,127,0,0,4894,-411,0,1430,585,251,794,0,3,159,102,607571,0
607588,978,-1721,115,-523,-4004,-7263,20116,-347,113,-489,-1120,35561,-4,34,127,0,0,4781,-1235,0,1430,585,251,804,0,3,159,102,607571,0
607598,441,-821,-94,-141,-3056,-6843,19857,-717,-148,-1176,-2576,35558,15,34,127,0,0,4571,-2142,0,1430,585,251,814,0,3,159,102,607571,0
607608,108,-306,-151,111,-2471,-6446,19323,-1400,-747,-1614,-4448,35568,41,34,127,0,0,4269,-3120,0,1430,585,251,824,0,3,159,102,607571,0
607618,-400,157,-329,423,-1885,-5431,18428,-2210,-1230,-1625,-6192,35570,90,34,127,0,0,3923,-3499,0,1430,585,251,834,0,3,159,102,607634,0
607628,-556,320,-398,607,-1616,-4313,17215,-2831,-1311,-1305,-7376,35553,168,34,127,0,0,3596,-3268,0,1430,585,251,844,0,3,159,102,607649,0
607638,-800,354,-560,975,-1163,-2175,15804,-3223,-990,-833,-7792,35518,233,34,127,0,0,3300,-2916,0,1430,585,251,854,0,3,159,102,607649,0
607648,-895,668,-569,1361,-732,-837,14290,-3331,-590,-375,-7488,35507,207,34,127,0,0,3049,-2510,0,1430,585,251,864,0,3,159,102,607649,0
607658,-1336,768,-607,1905,-164,1051,12863,-3038,-30,-114,-6688,35516,144,34,127,0,0,2854,-1823,0,1430,585,251,874,0,3,159,102,607649,0
607668,-1596,777,-401,2189,381,2145,11589,-2719,476,68,-5640,35533,68,34,127,0,0,2707,-1466,0,1430,585,251,884,0,3,159,102,607649,0
607679,-1669,632,-175,2496,1412,3637,10336,-2391,526,168,-4336,35548,39,34,127,0,0,2586,-1043,0,1430,585,251,895,0,3,159,102,607665,0
607689,-1615,606,-214,2709,2810,4933,9383,-1955,589,220,-3248,35556,26,34,127,0,0,2498,-856,0,1430,585,251,905,0,3,159,102,607681,0
607699,-1557,628,-295,2858,3791,5792,8625,-1543,724,196,-2392,35571,8,34,127,0,0,2432,-626,0,1430,585,251,915,0,3,159,102,607712,0
607709,-1235,876,-364,2981,4871,7015,8033,-1211,690,169,-1600,35575,-6,34,127,0,0,2390,-373,0,1430,585,251,925,0,3,159,102,607712,0
607719,-938,876,-319,2952,5286,7684,7578,-905,578,152,-880,35584,-30,34,127,0,0,2373,-186,0,1430,585,251,935,0,3,159,102,607712,0
607729,-604,858,-125,2841,5829,8380,7260,-606,526,100,-336,35586,-29,34,127,0,0,2362,-87,0,1430,585,251,945,0,3,159,102,607712,0
607739,-456,702,-42,2679,6066,8649,7084,-285,537,73,-96,35587,-22,34,127,0,0,2346,-120,0,1430,585,251,955,0,3,159,102,607712,0
607749,59,432,165,2406,6191,8885,7047,-8,545,-62,-80,35578,-6,34,127,0,0,2342,-54,0,1430,585,251,965,0,3,159,102,607728,0
607759,446,366,309,2221,6232,8796,7051,-2,353,-276,-72,35582,13,34,127,0,0,2346,54,0,1430,585,251,975,0,3,159,102,607728,0
607769,1231,395,424,1842,6070,8321,7057,33,71,-86,24,35587,0,34,127,0,0,2357,109,0,1430,585,251,985,0,3,159,102,607774,0
607779,1715,531,360,1538,5888,7806,7094,90,64,47,80,35594,8,34,127,0,0,2373,153,0,1430,585,251,995,0,3,159,102,607774,0
607789,2333,556,152,1160,5418,6798,7133,96,57,310,176,35592,-9,34,127,0,0,2397,230,0,1430,585,251,1005,0,3,159,102,607774,0
607799,2770,537,-40,978,5065,6038,7213,213,82,357,384,35574,11,34,127,0,0,2436,395,0,1430,585,251,1015,0,3,159,102,607774,0
607809,3396,483,-7,636,4736,4670,7343,302,173,417,568,35566,-6,34,127,0,0,2487,494,0,1430,585,251,1025,0,3,159,102,607774,0
607819,3610,456,181,354,4474,3759,7514,386,172,389,784,35570,-13,34,127,0,0,2551,637,0,1430,585,251,1035,0,3,159,102,607821,0
607829,3678,386,705,-66,4049,2321,7707,442,123,482,1064,35584,-19,34,127,0,0,2627,791,0,1430,585,251,1045,0,3,159,102,607821,0
607839,9758,-2954,1312,-100,218,-896,7957,614,139,503,1464,35584,0,34,127,0,0,2687,571,0,1430,585,251,1055,0,3,159,102,607821,0
607849,6047,-1971,2378,1233,2004,-7608,8246,550,231,-660,-1216,35571,15,34,127,0,0,2326,-4141,0,1340,543,252,5,1,3,152,101,607821,0
607859,2962,1642,-125,569,1170,-4272,7839,-1360,-1223,-2384,-4240,35553,30,34,127,0,0,1988,-3120,0,1340,543,252,15,1,3,152,101,607837,0
607869,1189,1762,455,-2579,-1540,-2032,6997,-2011,-2245,-1148,-5448,35541,76,34,127,0,0,1680,-3131,0,1340,543,252,25,1,3,152,101,607853,0
607879,3743,-1908,-472,-2907,-3186,-1068,5954,-2381,-1179,-1118,-5944,35532,124,34,127,0,0,1439,-2416,0,1340,543,252,35,1,3,152,101,607853,0
607889,-634,-4979,1146,-633,-1924,-1506,4847,-2475,-506,-1104,-6744,35514,192,34,127,0,0,1182,-2581,0,1340,543,252,45,1,3,152,101,607853,0
607899,-1336,-4943,-702,-1041,-846,-1666,3638,-2743,-299,-1100,-7264,35516,201,34,127,0,0,955,-2296,0,1340,543,252,55,1,3,152,101,607899,0
607909,1697,-6948,1178,-1594,458,-2248,2362,-2744,-352,-59,-4960,35504,210,34,127,0,0,771,-1801,0,1340,543,252,65,1,3,152,101,607899,0
607919,-477,-7180,116,-1229,718,-1410,1307,-2097,290,610,-2792,35519,139,34,127,0,0,652,-999,0,1340,543,252,75,1,3,152,101,607899,0
607930,2284,-2869,740,-1786,-436,-259,552,-1254,1174,546,-1208,35567,53,34,127,0,0,661,302,0,1340,543,252,86,1,3,152,101,607915,0
607940,1540,-2296,-941,-2043,-676,327,154,-733,1209,279,-368,35576,-12,34,127,0,0,721,653,0,1340,543,252,96,1,3,152,101,607915,0
607950,1409,-742,-187,-1677,-436,798,-17,-290,921,387,136,35576,-30,34,127,0,0,812,944,0,1340,543,252,106,1,3,152,101,607915,0
607960,1019,-476,-309,-1169,-370,696,25,190,883,345,176,35576,-12,34,127,0,0,873,620,0,1340,543,252,116,1,3,152,101,607962,0
607970,971,-154,-442,-564,11,111,111,138,501,-210,-184,35574,-20,34,127,0,0,889,131,0,1340,543,252,126,1,3,152,101,607962,0
607980,1471,-602,-561,-366,329,-121,72,-126,-225,-379,-144,35578,3,34,127,0,0,867,-230,0,1340,543,252,136,1,3,152,101,607962,0
607990,1746,-1351,-346,-160,574,104,28,-85,-229,-182,-56,35572,-2,34,127,0,0,831,-324,0,1340,543,252,146,1,3,152,101,607962,0
608000,1829,-1722,53,-94,594,504,27,28,106,-218,-48,35585,12,34,127,0,0,803,-280,0,1340,543,252,156,1,3,152,101,607993,0
608010,1911,-1880,674,-23,424,1109,25,-5,80,-204,-48,35588,8,34,127,0,0,791,-131,0,1340,543,252,166,1,3,152,101,607993,0
608020,1871,-1675,891,-34,213,1382,27,-7,-5,-198,-48,35587,13,34,127,0,0,795,21,0,1340,543,252,176,1,3,152,101,607993,0
608030,1550,-2466,769,-22,-94,1620,26,-5,1,-188,-48,35586,4,34,127,0,0,804,98,0,1340,543,252,186,1,3,152,101,608009,0
608040,1008,-2658,541,-286,-139,2014,27,0,-1,-173,-24,35581,-6,34,127,0,0,842,406,0,1340,543,252,196,1,3,152,101,608024,0
608050,987,-1731,153,-368,-291,2253,29,7,1,-84,8,35580,-10,34,127,0,0,903,642,0,1340,543,252,206,1,3,152,101,608024,0
608060,859,-1635,-104,-342,-189,2182,42,42,26,186,56,35576,0,34,127,0,0,961,554,0,1340,543,252,216,1,3,152,101,608040,0
608070,809,-1849,27,-127,217,2003,48,0,13,175,24,35578,15,34,127,0,0,1011,521,0,1340,543,252,226,1,3,152,101,608056,0
608080,971,-1818,235,-118,299,1941,56,52,-25,471,392,35577,16,34,127,0,0,1055,455,0,1340,543,252,236,1,3,152,101,608056,0
608090,1218,-1936,587,-217,201,2079,168,319,205,603,736,35577,24,34,127,0,0,1096,422,0,1340,543,252,246,1,3,152,101,608056,0
608100,1298,-1867,730,-331,12,2343,345,425,337,553,1088,35572,25,34,127,0,0,1161,626,0,1340,543,252,256,1,3,152,101,608071,0
608110,1156,-1787,488,-509,-283,2682,578,545,219,615,1480,35582,14,34,127,0,0,1229,791,0,1340,543,252,266,1,3,152,101,608087,0
608120,981,-1788,334,-575,-334,2743,876,707,233,588,1704,35591,5,34,127,0,0,1302,752,0,1340,543,252,276,1,3,152,101,608102,0
608130,647,-1876,94,-467,-211,2635,1229,796,230,509,1864,35590,11,34,127,0,0,1377,730,0,1340,543,252,286,1,3,152,101,608102,0
608140,580,-1873,96,-370,-19,2518,1610,858,154,471,1920,35572,29,34,127,0,0,1446,681,0,1340,543,252,296,1,3,152,101,608118,0
608150,674,-1844,250,-316,62,2416,1998,845,71,371,1840,35568,43,34,127,0,0,1509,692,0,1340,543,252,306,1,3,152,101,608118,0
608161,708,-1865,332,-316,-39,2429,2410,820,-24,369,1760,35583,11,34,127,0,0,1577,626,0,1340,543,252,317,1,3,152,101,608134,0
608171,669,-1870,300,-349,-101,2445,2768,782,-49,391,1760,35585,-2,34,127,0,0,1645,681,0,1340,543,252,327,1,3,152,101,608149,0
608181,523,-1936,177,-326,-83,2338,3118,759,-47,373,1680,35584,4,34,127,0,0,1709,648,0,1340,543,252,337,1,3,152,101,608149,0
608191,419,-1957,96,-299,-43,2207,3454,730,-38,406,1664,35588,11,34,127,0,0,1773,626,0,1340,543,252,347,1,3,152,101,608165,0
608201,368,-1935,7,-168,56,2000,3784,724,-37,401,1560,35582,18,34,127,0,0,1828,571,0,1340,543,252,357,1,3,152,101,608181,0
608211,366,-1902,-29,-96,89,1904,4100,681,-37,335,1440,35578,22,34,127,0,0,1880,516,0,1340,543,252,367,1,3,152,101,608181,0
608221,330,-1952,64,-26,42,1784,4395,643,-64,322,1360,35575,27,34,127,0,0,1931,516,0,1340,543,252,377,1,3,152,101,608196,0
608231,251,-1981,176,22,12,1648,4674,608,-68,322,1272,35580,25,34,127,0,0,1977,472,0,1340,543,252,387,1,3,152,101,608212,0
608241,159,-1906,272,27,25,1340,4939,573,-55,319,1120,35586,6,34,127,0,0,2021,428,0,1340,543,252,397,1,3,152,101,608227,0
608251,76,-1974,283,0,57,1141,5191,548,-54,269,952,35588,11,34,127,0,0,2052,329,0,1340,543,252,407,1,3,152,101,608227,0
608261,97,-2005,412,-30,61,847,5419,481,-65,260,752,35585,12,34,127,0,0,2080,241,0,1340,543,252,417,1,3,152,101,608290,0
608271,63,-2016,494,-53,21,651,5622,423,-100,255,536,35580,21,34,127,0,0,2102,208,0,1340,543,252,427,1,3,152,101,608290,0
608281,13,-2116,661,-192,-71,399,5793,358,-108,239,376,35580,-7,34,127,0,0,2120,197,0,1340,543,252,437,1,3,152,101,608306,0
608291,42,-2134,654,-291,-128,200,5939,289,-107,206,248,35577,-18,34,127,0,0,2133,142,0,1340,543,252,447,1,3,152,101,608306,0
608301,77,-2107,506,-448,-103,-93,6053,228,-111,126,88,35569,-14,34,127,0,0,2140,43,0,1340,543,252,457,1,3,152,101,608306,0
608311,226,-2092,427,-499,-49,-225,6101,71,-185,88,32,35574,1,34,127,0,0,2146,54,0,1340,543,252,467,1,3,152,101,608306,0
608321,646,-1965,280,-530,2,-257,6099,-8,-225,257,80,35572,13,34,127,0,0,2148,43,0,1340,543,252,477,1,3,152,101,608306,0
608331,938,-1986,182,-565,-58,-107,6103,6,-77,296,56,35581,6,34,127,0,0,2148,10,0,1340,543,252,487,1,3,152,101,608306,0
608341,1033,-2201,266,-527,-247,258,6106,21,7,409,160,35594,3,34,127,0,0,2168,164,0,1340,543,252,497,1,3,152,101,608306,0
608351,901,-2269,307,-514,-347,490,6157,170,92,568,360,35604,-7,34,127,0,0,2199,285,0,1340,543,252,507,1,3,152,101,608352,0
608361,658,-2971,676,-447,-508,651,6277,290,230,401,456,35607,-10,34,127,0,0,2239,395,0,1340,543,252,517,1,3,152,101,608352,0
608371,191,-3241,512,-428,-776,923,6417,315,173,404,672,35594,-9,34,127,0,0,2304,692,0,1340,543,252,527,1,3,152,101,608352,0
608381,136,-3387,687,-690,-861,1383,6600,439,118,486,1096,35579,-7,34,127,0,0,2410,1098,0,1340,543,252,537,1,3,152,101,608352,0
608391,-53,-3115,515,-630,-1177,1359,6859,641,223,709,1848,35577,3,34,127,0,0,2553,1450,0,1340,543,252,547,1,3,152,101,608368,0
608401,-156,-3077,5,-710,-1045,1275,7240,919,385,811,2448,35580,6,34,127,0,0,2700,1483,0,1340,543,252,557,1,3,152,101,608399,0
608412,-482,-3099,31,-720,-723,1402,7775,1123,425,809,2976,35586,30,34,127,0,0,2881,1664,0,1340,543,252,568,1,3,152,101,608399,0
608422,-538,-3172,126,-512,-645,1267,8349,1326,337,929,3584,35582,52,34,127,0,0,3073,1933,0,1340,543,252,578,1,3,152,101,608399,0
608432,-459,-3082,209,-457,-724,1228,9034,1582,371,963,4264,35563,80,34,127,0,0,3279,2092,0,1340,543,252,588,1,3,152,101,608399,0
608442,-450,-2702,501,-591,-694,1127,9858,1928,471,1092,5064,35556,94,34,127,0,0,3503,2263,0,1340,543,252,598,1,3,152,101,608430,0
608452,-674,-2931,596,-722,-945,1150,10817,2158,536,835,5504,35552,92,34,127,0,0,3729,2329,0,1340,543,252,608,1,3,152,101,608430,0
608462,-1284,-3135,236,-1031,-1157,880,11845,2302,388,878,6064,35550,107,34,127,0,0,3980,2504,0,1340,543,252,618,1,3,152,101,608446,0
608472,-1689,-3145,343,-842,-981,635,12947,2477,277,841,6448,35540,141,34,127,0,0,4234,2565,0,1340,543,252,628,1,3,152,101,608446,0
608482,-1177,-3398,228,-640,-1071,-16,14158,2746,344,871,6824,35532,161,34,127,0,0,4496,2609,0,1340,543,252,638,1,3,152,101,608462,0
608492,-946,-3518,302,-605,-592,-283,15476,2911,424,618,6736,35532,153,34,127,0,0,4732,2329,0,1340,543,252,648,1,3,152,101,608462,0
608502,151,-3581,688,-684,-679,-1078,16763,2799,153,544,6664,35541,117,34,127,0,0,4961,2241,0,1340,543,252,658,1,3,152,101,608493,0
608512,44,-3790,621,-850,-660,-1831,18014,2722,-132,305,6104,35544,98,34,127,0,0,5129,1680,0,1340,543,252,668,1,3,152,101,608493,0
608522,348,-3553,401,-1062,-424,-2676,19180,2484,-224,198,5504,35545,86,34,127,0,0,5306,1752,0,1340,543,252,678,1,3,152,101,608493,0
608532,415,-3402,407,-1425,-702,-3333,20222,2226,-411,390,5648,35556,79,34,127,0,0,5536,2400,0,1340,543,252,688,1,3,152,101,608524,0
608542,1654,-4278,260,-1694,-544,-5765,21194,2067,-374,-51,3248,35556,48,34,127,0,0,5701,1510,0,1340,543,252,698,1,3,152,101,608524,0
608552,1676,-5202,662,-1666,-809,-7651,21916,1279,-583,-1478,-152,35573,0,34,127,0,0,5741,142,0,1340,543,252,708,1,3,152,101,608524,0
608562,1973,-5452,683,-1117,-1176,-9701,21827,-751,-2045,-2962,-3320,35573,32,34,127,0,0,5651,-1032,0,1340,543,252,718,0,3,152,101,608555,0
608572,1367,-4677,767,-1038,-1502,-10229,21127,-1899,-2793,-2492,-6336,35551,133,34,127,0,0,5494,-1571,0,1340,543,252,728,0,3,152,101,608555,0
608582,2034,-4238,605,-1242,-2319,-10439,20049,-2308,-1928,726,-160,35531,177,34,127,0,0,5349,-1422,0,1340,543,252,738,0,3,152,101,608555,0
608592,1019,-3680,589,-1147,-2685,-10711,20196,1441,1577,5722,3416,35512,255,34,127,0,0,5219,-1241,0,1340,543,252,748,0,3,152,101,608587,0
608602,2170,-3817,219,-1261,-3053,-9731,20843,1296,3634,-230,1376,35529,156,34,127,0,0,5171,-461,0,1340,543,252,758,0,3,152,101,608587,0
608612,1399,-3392,392,-1095,-3596,-9239,21265,763,370,-485,184,35556,89,34,127,0,0,5149,-93,0,1340,543,252,768,0,3,152,101,608587,0
608622,1182,-3063,253,-968,-4115,-8865,21407,103,-962,-826,-144,35576,-3,34,127,0,0,5148,-60,0,1340,543,252,778,0,3,152,101,608680,0
608632,906,-2916,293,-926,-4361,-8618,21355,-114,-939,-168,-88,35576,-5,34,127,0,0,5150,-87,0,1340,543,252,788,0,3,152,101,608680,0
608642,1099,-2846,372,-789,-3820,-8329,21317,-67,-327,-109,-224,35569,-6,34,127,0,0,5114,-466,0,1340,543,252,798,0,3,152,101,608680,0
608652,982,-2525,313,-593,-3198,-8075,21242,-253,-20,-738,-928,35562,-4,34,127,0,0,5011,-1087,0,1340,543,252,808,0,3,152,101,608680,0
608662,598,-1757,142,-286,-2049,-7749,21024,-599,-350,-1029,-2192,35550,7,34,127,0,0,4837,-1862,0,1340,543,252,818,0,3,152,101,608680,0
608672,308,-1212,4,-85,-1456,-7437,20581,-1162,-705,-1415,-3712,35543,33,34,127,0,0,4591,-2466,0,1340,543,252,828,0,3,152,101,608696,0
608682,-32,-679,-151,185,-872,-6628,19856,-1793,-983,-1527,-5296,35528,106,34,127,0,0,4303,-2944,0,1340,543,252,838,0,3,152,101,608696,0
608692,-165,-421,-220,392,-562,-5880,18829,-2447,-1124,-1273,-6416,35506,168,34,127,0,0,3999,-3026,0,1340,543,252,848,0,3,152,101,608696,0
608702,-378,-24,-262,722,-236,-4389,17590,-2814,-988,-890,-7000,35496,206,34,127,0,0,3712,-2839,0,1340,543,252,858,0,3,152,101,608696,0
608713,-462,372,-289,1104,152,-2662,16122,-2993,-543,-628,-7192,35500,199,34,127,0,0,3432,-2526,0,1340,543,252,869,0,3,152,101,608696,0
608723,-632,572,-267,1383,474,-1527,14731,-3066,-266,-324,-6912,35535,146,34,127,0,0,3190,-2395,0,1340,543,252,879,0,3,152,101,608712,0
608733,-984,682,-254,1723,971,221,13388,-2875,-14,-204,-6504,35564,104,34,127,0,0,2979,-2087,0,1340,543,252,889,0,3,152,101,608712,0
608743,-1263,745,-244,1924,1432,1346,12176,-2590,344,-77,-5816,35592,58,34,127,0,0,2810,-1658,0,1340,543,252,899,0,3,152,101,608743,0
608753,-1413,705,-140,2112,2190,3020,11069,-2371,452,9,-4848,35597,24,34,127,0,0,2687,-1186,0,1340,543,252,909,0,3,152,101,608743,0
608763,-1376,651,-52,2251,2778,4036,10077,-2087,414,121,-3672,35584,4,34,127,0,0,2608,-725,0,1340,543,252,919,0,3,152,101,608759,0
608773,-1083,889,-46,2472,3808,5310,9260,-1662,555,212,-2552,35571,-12,34,127,0,0,2551,-538,0,1340,543,252,929,0,3,152,101,608759,0
608783,-922,1021,-114,2529,4268,5960,8629,-1269,696,196,-1728,35562,-12,34,127,0,0,2502,-472,0,1340,543,252,939,0,3,152,101,608759,0
608793,-768,979,-135,2560,4715,6807,8159,-943,667,112,-1200,35562,-8,34,127,0,0,2454,-450,0,1340,543,252,949,0,3,152,101,608759,0
608803,-619,788,-64,2479,4942,7320,7801,-734,515,19,-840,35568,-6,34,127,0,0,2414,-406,0,1340,543,252,959,0,3,152,101,608790,0
608813,-475,521,121,2325,5455,7884,7536,-528,394,-74,-608,35567,11,34,127,0,0,2395,-175,0,1340,543,252,969,0,3,152,101,608790,0
608823,-217,531,173,2222,5835,8065,7339,-384,307,-132,-272,35569,7,34,127,0,0,2388,-21,0,1340,543,252,979,0,3,152,101,608821,0
608833,257,679,188,2034,6101,7958,7227,-190,289,-30,-24,35576,-7,34,127,0,0,2386,-32,0,1340,543,252,989,0,3,152,101,608821,0
608843,717,758,122,1863,6093,7715,7225,55,371,-57,0,35571,-46,34,127,0,0,2386,-10,0,1340,543,252,999,0,3,152,101,608821,0
608853,1495,789,74,1505,5866,7279,7222,-36,217,-165,-80,35573,-50,34,127,0,0,2381,-32,0,1340,543,252,1009,0,3,152,101,608821,0
608863,1832,762,89,1296,5590,6803,7222,8,-18,-263,-72,35568,-35,34,127,0,0,2373,-65,0,1340,543,252,1019,0,3,152,101,608852,0
608873,2365,610,149,1024,5026,5851,7215,-15,2,-426,-152,35575,-32,34,127,0,0,2368,-54,0,1340,543,252,1029,0,3,152,101,608852,0
608883,2742,490,242,892,4637,5094,7210,-10,-15,-533,-176,35571,-38,34,127,0,0,2366,-32,0,1340,543,252,1039,0,3,152,101,608868,0
608893,3060,555,214,635,4123,3881,7206,1,5,-559,-192,35574,-29,34,127,0,0,2368,32,0,1340,543,252,1049,0,3,152,101,608868,0
608904,3227,571,156,340,3719,3219,7210,27,25,-407,-16,35566,-17,34,127,0,0,2393,296,0,1340,543,252,1060,0,3,152,101,608868,0
608914,3437,614,172,-226,3247,2457,7245,113,72,284,368,35582,-5,34,127,0,0,2448,609,0,1340,543,252,1070,0,3,152,101,608930,0
608924,3473,645,107,-664,3035,1959,7367,351,216,609,888,35581,-16,34,127,0,0,2541,900,0,1340,543,252,1080,0,3,152,101,608930,0
608934,11605,-3336,1885,232,-133,-6703,7606,534,403,71,-400,35582,-17,34,127,0,0,2295,-2905,0,1396,601,253,2,1,3,165,90,608930,0
608944,2787,-758,832,1232,1632,-5834,7346,-1127,-681,-2869,-4384,35559,30,34,127,0,0,1844,-4416,0,1396,601,253,12,1,3,165,90,608930,0
608954,1107,-1530,32,-1791,1881,-2628,6562,-2130,-2270,-1760,-5952,35531,128,34,127,0,0,1531,-2977,0,1396,601,253,22,1,3,165,90,608946,0
608964,1137,-883,663,-2625,-1948,-1510,5450,-2528,-1626,-1113,-6528,35504,192,34,127,0,0,1273,-2521,0,1396,601,253,32,1,3,165,90,608946,0
608974,1184,-5217,948,-1817,-1115,-2303,4269,-2645,-552,-1164,-7496,35500,225,34,127,0,0,1005,-2801,0,1396,601,253,42,1,3,165,90,609024,0
608984,-379,-5585,-71,-1059,-790,-1549,2944,-2994,-406,-519,-5888,35503,208,34,127,0,0,792,-1955,0,1396,601,253,52,1,3,165,90,609024,0
608994,871,-4840,504,-2110,664,-1301,1719,-2493,-50,599,-3432,35543,113,34,127,0,0,642,-1411,0,1396,601,253,62,1,3,165,90,609040,0
609004,1240,-5088,726,-1602,318,-1043,867,-1632,1030,682,-1728,35569,33,34,127,0,0,553,-796,0,1396,601,253,72,1,3,165,90,609040,0
609014,2108,-3671,541,-1817,-479,23,338,-992,1334,396,-672,35590,-67,34,127,0,0,552,109,0,1396,601,253,82,1,3,165,90,609040,0
609024,2018,-2647,680,-1732,-895,661,43,-515,1028,241,-80,35581,-49,34,127,0,0,603,582,0,1396,601,253,92,1,3,165,90,609040,0
609034,1771,-986,6,-1848,-973,1344,-30,3,865,427,216,35565,-13,34,127,0,0,689,873,0,1396,601,253,102,1,3,165,90,609040,0
609044,1631,-374,-134,-1755,-936,1468,70,269,755,372,376,35563,8,34,127,0,0,756,752,0,1396,601,253,112,1,3,165,90,609040,0
609054,1438,-212,-631,-1403,-567,1178,203,295,309,221,184,35557,12,34,127,0,0,815,488,0,1396,601,253,122,1,3,165,90,609040,0
609064,1137,-484,-764,-967,-258,914,288,111,-54,-289,-248,35565,-4,34,127,0,0,828,82,0,1396,601,253,132,1,3,165,90,609040,0
609074,1158,-1210,-616,-333,521,631,215,-245,-372,-606,-424,35571,-7,34,127,0,0,809,-208,0,1396,601,253,142,1,3,165,90,609040,0
609084,1359,-1475,-308,-159,715,697,99,-239,-403,-277,-192,35591,-6,34,127,0,0,777,-329,0,1396,601,253,152,1,3,165,90,609071,0
609094,1821,-2012,394,-130,683,1084,24,-135,5,-144,-48,35594,-4,34,127,0,0,755,-241,0,1396,601,253,162,1,3,165,90,609071,0
609104,1512,-2797,1243,185,366,1347,27,38,235,-174,-48,35593,-1,34,127,0,0,749,-27,0,1396,601,253,172,1,3,165,90,609071,0
609114,1536,-2440,993,178,-78,1966,25,-10,136,-138,-48,35586,-3,34,127,0,0,776,362,0,1396,601,253,182,1,3,165,90,609102,0
609124,1315,-2005,619,-211,-366,2363,26,-9,-7,-101,40,35578,-2,34,127,0,0,841,675,0,1396,601,253,192,1,3,165,90,609102,0
609134,954,-1604,77,-478,-433,2528,48,66,41,295,160,35577,7,34,127,0,0,915,741,0,1396,601,253,202,1,3,165,90,609102,0
609144,726,-1686,-146,-319,-236,2367,108,176,115,358,240,35578,-12,34,127,0,0,979,653,0,1396,601,253,212,1,3,165,90,609118,0
609155,665,-1971,-31,-7,244,2156,199,154,118,114,-8,35579,-11,34,127,0,0,1043,527,0,1396,601,253,223,1,3,165,90,609133,0
609165,856,-1805,556,5,311,2030,243,125,-60,528,544,35588,6,34,127,0,0,1096,527,0,1396,601,253,233,1,3,165,90,609165,0
609175,1108,-1855,808,-122,193,2090,378,358,98,651,992,35587,9,34,127,0,0,1146,527,0,1396,601,253,243,1,3,165,90,609180,0
609185,1217,-1773,909,-363,-36,2312,584,481,319,598,1240,35577,2,34,127,0,0,1204,549,0,1396,601,253,253,1,3,165,90,609180,0
609195,1195,-1743,775,-494,-194,2503,847,611,235,538,1520,35573,14,34,127,0,0,1274,670,0,1396,601,253,263,1,3,165,90,609180,0
609205,1082,-1722,556,-638,-273,2668,1155,700,190,524,1680,35566,27,34,127,0,0,1349,736,0,1396,601,253,273,1,3,165,90,609180,0
609215,893,-1811,445,-678,-292,2709,1502,784,163,550,1888,35571,28,34,127,0,0,1421,725,0,1396,601,253,283,1,3,165,90,609180,0
609225,751,-1881,395,-687,-257,2736,1878,827,129,459,1936,35582,34,34,127,0,0,1494,714,0,1396,601,253,293,1,3,165,90,609212,0
609235,671,-1873,377,-660,-218,2705,2263,849,71,437,1912,35596,8,34,127,0,0,1573,791,0,1396,601,253,303,1,3,165,90,609212,0
609245,595,-1871,323,-663,-189,2634,2657,868,26,435,1928,35596,27,34,127,0,0,1645,692,0,1396,601,253,313,1,3,165,90,609243,0
609255,538,-1884,241,-658,-199,2577,3044,843,7,376,1936,35591,33,34,127,0,0,1722,769,0,1396,601,253,323,1,3,165,90,609243,0
609265,489,-1933,94,-588,-159,2450,3425,828,-25,424,1912,35587,42,34,127,0,0,1792,736,0,1396,601,253,333,1,3,165,90,609243,0
609275,456,-1959,16,-510,-99,2333,3795,811,-35,408,1880,35588,28,34,127,0,0,1863,681,0,1396,601,253,343,1,3,165,90,609258,0
609285,394,-1901,57,-367,-30,2158,4155,778,-40,347,1720,35579,40,34,127,0,0,1924,626,0,1396,601,253,353,1,3,165,90,609258,0
609295,338,-1912,117,-295,-21,2044,4494,735,-59,338,1648,35582,37,34,127,0,0,1986,615,0,1396,601,253,363,1,3,165,90,609258,0
609305,323,-1960,221,-214,26,1876,4821,705,-56,327,1512,35577,39,34,127,0,0,2043,593,0,1396,601,253,373,1,3,165,90,609290,0
609315,354,-1894,215,-201,33,1742,5134,679,-57,315,1384,35585,30,34,127,0,0,2096,516,0,1396,601,253,383,1,3,165,90,609305,0
609325,364,-1969,238,-161,2,1589,5429,631,-60,296,1328,35578,13,34,127,0,0,2142,483,0,1396,601,253,393,1,3,165,90,609305,0
609335,313,-1971,273,-130,-13,1488,5705,588,-70,284,1128,35576,16,34,127,0,0,2190,472,0,1396,601,253,403,1,3,165,90,609305,0
609345,220,-1972,405,-127,-23,1291,5964,562,-67,291,992,35581,10,34,127,0,0,2228,340,0,1396,601,253,413,1,3,165,90,609337,0
609355,207,-1988,529,-178,-30,1131,6206,510,-62,243,816,35591,3,34,127,0,0,2263,362,0,1396,601,253,423,1,3,165,90,609368,0
609365,168,-1968,528,-299,-72,885,6425,469,-81,247,648,35591,-10,34,127,0,0,2293,296,0,1396,601,253,433,1,3,165,90,609383,0
609375,81,-2046,479,-413,-121,728,6632,444,-72,181,480,35582,1,34,127,0,0,2315,241,0,1396,601,253,443,1,3,165,90,609383,0
609385,14,-2066,470,-473,-191,461,6812,378,-74,146,280,35574,6,34,127,0,0,2335,219,0,1396,601,253,453,1,3,165,90,609383,0
609395,53,-2017,398,-529,-165,235,6955,289,-121,103,176,35580,1,34,127,0,0,2348,98,0,1396,601,253,463,1,3,165,90,609399,0
609406,95,-2112,426,-596,-40,7,7053,115,-170,-36,40,35577,-16,34,127,0,0,2355,54,0,1396,601,253,474,1,3,165,90,609399,0
609416,207,-2144,455,-611,16,-117,7068,19,-244,50,32,35580,-11,34,127,0,0,2357,10,0,1396,601,253,484,1,3,165,90,609399,0
609426,579,-2222,407,-652,-72,-136,7067,-6,-160,116,32,35579,1,34,127,0,0,2360,49,0,1396,601,253,494,1,3,165,90,609399,0
609436,586,-2697,637,-569,-138,-20,7074,27,-11,217,56,35595,4,34,127,0,0,2371,131,0,1396,601,253,504,1,3,165,90,609430,0
609446,711,-2643,603,-542,-436,397,7098,76,44,451,272,35595,0,34,127,0,0,2403,340,0,1396,601,253,514,1,3,165,90,609430,0
609456,539,-2962,542,-795,-657,834,7169,220,121,705,696,35590,10,34,127,0,0,2469,741,0,1396,601,253,524,1,3,165,90,609446,0
609466,139,-2790,533,-898,-881,1205,7337,424,281,686,1240,35575,9,34,127,0,0,2575,1087,0,1396,601,253,534,1,3,165,90,609446,0
609476,-112,-2624,477,-774,-1216,1166,7601,634,364,778,1840,35567,18,34,127,0,0,2697,1263,0,1396,601,253,544,1,3,165,90,609446,0
609486,-130,-2863,-85,-805,-944,903,7961,862,370,863,2304,35580,24,34,127,0,0,2825,1213,0,1396,601,253,554,1,3,165,90,609462,0
609496,-414,-3067,-7,-874,-724,869,8402,1005,335,758,2640,35589,33,34,127,0,0,2950,1285,0,1396,601,253,564,1,3,165,90,609477,0
609506,-409,-3091,321,-745,-537,936,8905,1152,265,754,3032,35583,46,34,127,0,0,3103,1582,0,1396,601,253,574,1,3,165,90,609493,0
609516,-323,-3018,301,-690,-549,982,9487,1359,269,900,3648,35570,52,34,127,0,0,3288,1856,0,1396,601,253,584,1,3,165,90,609508,0
609526,-283,-2733,385,-905,-625,1010,10187,1609,383,871,4176,35555,57,34,127,0,0,3467,1878,0,1396,601,253,594,1,3,165,90,609508,0
609536,-527,-2943,642,-982,-1197,1064,10982,1798,405,795,4624,35556,71,34,127,0,0,3684,2109,0,1396,601,253,604,1,3,165,90,609508,0
609546,-942,-3147,406,-1039,-1280,877,11854,1979,329,923,5264,35553,99,34,127,0,0,3906,2263,0,1396,601,253,614,1,3,165,90,609524,0
609556,-1615,-3036,178,-1053,-1185,491,12819,2194,330,894,5752,35550,124,34,127,0,0,4131,2290,0,1396,601,253,624,1,3,165,90,609524,0
609566,-1782,-3175,291,-862,-890,-15,13887,2412,379,787,6032,35540,135,34,127,0,0,4371,2378,0,1396,601,253,634,1,3,165,90,609555,0
609576,-1298,-3230,415,-879,-982,-512,15057,2624,398,730,6208,35532,134,34,127,0,0,4594,2235,0,1396,601,253,644,1,3,165,90,609555,0
609586,-1188,-3226,398,-1011,-417,-1027,16246,2580,238,521,6064,35524,134,34,127,0,0,4806,2026,0,1396,601,253,654,1,3,165,90,609555,0
609596,-303,-3394,597,-1165,-428,-1671,17394,2523,-64,483,5960,35531,115,34,127,0,0,4999,1873,0,1396,601,253,664,1,3,165,90,609571,0
609606,-54,-3870,579,-1127,-134,-2615,18509,2405,-128,263,5336,35527,120,34,127,0,0,5150,1450,0,1396,601,253,674,1,3,165,90,609602,0
609616,-18,-3550,425,-1087,35,-3093,19521,2136,-251,180,4696,35540,85,34,127,0,0,5281,1307,0,1396,601,253,684,1,3,165,90,609602,0
609626,115,-3184,247,-1321,378,-3622,20400,1859,-462,261,4688,35544,63,34,127,0,0,5473,2098,0,1396,601,253,694,1,3,165,90,609602,0
609636,1551,-3618,140,-1463,660,-4986,21248,1870,-320,361,3448,35550,54,34,127,0,0,5677,1955,0,1396,601,253,704,1,3,165,90,609602,0
609646,1741,-4746,629,-1502,493,-7683,21974,1413,-244,-746,608,35552,39,34,127,0,0,5757,681,0,1396,601,253,714,1,3,165,90,609618,0
609657,2242,-5828,954,-1009,-177,-9877,22039,-599,-1597,-3259,-2776,35559,9,34,127,0,0,5695,-736,0,1396,601,253,725,0,3,165,90,609633,0
609667,1627,-5015,1085,-861,-1284,-10478,21422,-1701,-2631,-2395,-5744,35556,24,34,127,0,0,5556,-1373,0,1396,601,253,735,0,3,165,90,609633,0
609677,2308,-4656,851,-1003,-1897,-10296,20335,-2647,-2077,-1905,-6504,35532,136,34,127,0,0,5436,-1186,0,1396,601,253,745,0,3,165,90,609680,0
609687,2034,-4226,621,-1038,-2424,-10488,19454,-965,-674,5996,3336,35512,198,34,127,0,0,5332,-1021,0,1396,601,253,755,0,3,165,90,609680,0
609697,2497,-3754,294,-986,-3792,-9659,20154,1961,3633,2404,3912,35489,275,34,127,0,0,5282,-351,0,1396,601,253,765,0,3,165,90,609680,0
609707,2301,-3478,192,-955,-4153,-9297,20928,1574,3238,-213,2272,35507,186,34,127,0,0,5280,0,0,1396,601,253,775,0,3,165,90,609680,0
609717,1996,-2413,441,-716,-6286,-7850,21496,1100,-364,-298,1440,35524,102,34,127,0,0,5363,999,0,1396,601,253,785,0,3,165,90,609696,0
609727,1963,-2550,-525,-991,-5451,-8446,21905,858,-713,194,1888,35543,60,34,127,0,0,5438,582,0,1396,601,253,795,0,3,165,90,609758,0
609737,1579,-2524,-151,-775,-5104,-7945,22259,750,-402,288,1448,35558,14,34,127,0,0,5458,153,0,1396,601,253,805,0,3,165,90,609774,0
609747,1379,-2436,-211,-522,-4758,-7612,22547,575,-229,179,624,35557,4,34,127,0,0,5420,-406,0,1396,601,253,815,0,3,165,90,609774,0
609757,607,-1833,52,-100,-3936,-7175,22683,81,-389,-889,-704,35556,16,34,127,0,0,5302,-1219,0,1396,601,253,825,0,3,165,90,609774,0
609767,444,-1355,119,50,-3173,-7122,22478,-578,-965,-1000,-2048,35552,17,34,127,0,0,5115,-1999,0,1396,601,253,835,0,3,165,90,609774,0
609777,97,-733,209,158,-2196,-6774,22025,-1194,-1119,-1479,-3728,35547,40,34,127,0,0,4849,-2735,0,1396,601,253,845,0,3,165,90,609774,0
609787,-80,-390,75,280,-1598,-6344,21272,-1855,-1057,-1676,-5664,35536,65,34,127,0,0,4526,-3339,0,1396,601,253,855,0,3,165,90,609774,0
609797,-437,-26,-273,495,-943,-5001,20209,-2548,-1174,-1627,-7296,35520,139,34,127,0,0,4172,-3581,0,1396,601,253,865,0,3,165,90,609774,0
609807,-751,47,-459,609,-690,-3696,18834,-3195,-1202,-1105,-7976,35501,229,34,127,0,0,3860,-3032,0,1396,601,253,875,0,3,165,90,609790,0
609817,-959,319,-492,1016,-289,-1587,17324,-3318,-876,-446,-7808,35496,271,34,127,0,0,3614,-2395,0,1396,601,253,885,0,3,165,90,609790,0
609827,-992,478,-521,1339,139,-356,15852,-3217,-172,-165,-6936,35506,228,34,127,0,0,3429,-1790,0,1396,601,253,895,0,3,165,90,609821,0
609837,-1077,821,-454,1933,1264,1070,14451,-2993,208,95,-5816,35546,130,34,127,0,0,3265,-1625,0,1396,601,253,905,0,3,165,90,609821,0
609847,-1196,976,-459,2180,2126,1940,13236,-2535,491,133,-5088,35562,51,34,127,0,0,3098,-1658,0,1396,601,253,915,0,3,165,90,609836,0
609857,-1355,937,-255,2345,3255,3279,12209,-2157,727,55,-4584,35569,7,34,127,0,0,2942,-1483,0,1396,601,253,925,0,3,165,90,609836,0
609867,-1398,853,-152,2399,3871,4209,11305,-1927,598,-12,-4016,35562,7,34,127,0,0,2816,-1219,0,1396,601,253,935,0,3,165,90,609852,0
609877,-1254,654,-93,2492,4702,5540,10500,-1708,414,-22,-3304,35563,15,34,127,0,0,2729,-845,0,1396,601,253,945,0,3,165,90,609852,0
609887,-1038,696,-68,2668,5390,6313,9811,-1433,403,-7,-2552,35565,6,34,127,0,0,2660,-670,0,1396,601,253,955,0,3,165,90,609852,0
609897,-720,856,-37,2794,5866,7242,9250,-1157,468,-6,-2008,35574,-10,34,127,0,0,2605,-538,0,1396,601,253,965,0,3,165,90,609868,0
609908,-542,935,40,2770,5911,7757,8769,-888,470,-60,-1512,35572,-10,34,127,0,0,2553,-417,0,1396,601,253,976,0,3,165,90,609899,0
609918,-88,863,104,2643,5640,8358,8423,-702,387,-110,-1112,35583,-17,34,127,0,0,2526,-230,0,1396,601,253,986,0,3,165,90,609915,0
609928,218,800,168,2496,5432,8622,8149,-562,300,-130,-736,35586,8,34,127,0,0,2507,-148,0,1396,601,253,996,0,3,165,90,609915,0
609938,617,766,296,2290,5197,8700,7932,-443,246,-117,-376,35583,2,34,127,0,0,2501,-98,0,1396,601,253,1006,0,3,165,90,609915,0
609948,954,825,260,2130,4975,8505,7787,-304,214,-28,-88,35574,17,34,127,0,0,2497,-49,0,1396,601,253,1016,0,3,165,90,609915,0
609958,1528,723,65,1854,4661,7849,7729,-63,328,-108,-120,35572,-10,34,127,0,0,2481,-159,0,1396,601,253,1026,0,3,165,90,609950,0
609968,1936,578,-13,1661,4389,7330,7719,-32,284,-491,-176,35579,-28,34,127,0,0,2473,-38,0,1396,601,253,1036,0,3,165,90,609950,0
609978,2366,612,-136,1293,4161,6256,7681,-95,6,-354,-120,35577,-14,34,127,0,0,2474,-27,0,1396,601,253,1046,0,3,165,90,609950,0
609988,2619,505,-232,929,3996,5457,7665,12,-2,-122,56,35576,0,34,127,0,0,2496,214,0,1396,601,253,1056,0,3,165,90,609966,0
609998,2975,509,-288,329,3819,4331,7709,110,176,293,336,35585,-3,34,127,0,0,2542,494,0,1396,601,253,1066,0,3,165,90,609981,0
610008,3075,534,-243,-135,3815,3633,7814,300,228,580,760,35598,-6,34,127,0,0,2623,818,0,1396,601,253,1076,0,3,165,90,609997,0
610018,3524,376,-62,-857,3536,2415,8000,443,288,645,1328,35595,-2,34,127,0,0,2741,1224,0,1396,601,253,1086,0,3,165,90,609997,0
610028,13998,-4306,1182,-460,1558,-5418,8312,774,394,272,544,35578,19,34,127,0,0,2562,-2466,0,1331,586,254,0,1,3,127,117,610028,0
610038,1904,779,226,570,3282,-6177,8320,-705,-440,-3745,-4264,35557,29,34,127,0,0,2015,-5300,0,1331,586,254,10,1,3,127,117,610028,0
610048,3803,1618,-1020,-1601,3400,-3716,7461,-2218,-2545,-1607,-6096,35543,97,34,127,0,0,1662,-3499,0,1331,586,254,20,1,3,127,117,610028,0
610058,4187,-1381,-110,-3663,-1742,-1480,6258,-2779,-2017,-1106,-7056,35523,160,34,127,0,0,1362,-2856,0,1331,586,254,30,1,3,127,117,610028,0
610068,2344,-4906,1073,-2856,-1507,-1477,4937,-2922,-894,-973,-7848,35509,216,34,127,0,0,1075,-2883,0,1331,586,254,40,1,3,127,117,610044,0
610078,-1469,-5997,691,-849,-4,-1161,3528,-3173,-610,-809,-7056,35501,221,34,127,0,0,806,-2658,0,1331,586,254,50,1,3,127,117,610059,0
610088,188,-5422,1124,-2084,-163,-1070,2164,-2838,-108,425,-4328,35518,178,34,127,0,0,629,-1785,0,1331,586,254,60,1,3,127,117,610075,0
610098,-1574,-9065,1997,-611,667,-513,1157,-1949,776,858,-2312,35552,87,34,127,0,0,503,-1104,0,1331,586,254,70,1,3,127,117,610075,0
610108,1825,-1561,-814,-2526,-667,575,518,-1204,1412,527,-1032,35581,-2,34,127,0,0,542,549,0,1331,586,254,80,1,3,127,117,610106,0
610118,1543,-2810,-1339,-2558,-1496,1241,143,-684,1209,227,-280,35588,-48,34,127,0,0,604,648,0,1331,586,254,90,1,3,127,117,610106,0
610128,1488,-1262,-1008,-2297,-678,1608,-16,-169,900,544,208,35585,-30,34,127,0,0,705,972,0,1331,586,254,100,1,3,127,117,610122,0
610138,1441,194,-937,-850,-170,942,70,271,902,398,400,35574,-14,34,127,0,0,781,719,0,1331,586,254,110,1,3,127,117,610122,0
610148,1081,65,-1093,-320,291,513,207,271,573,-38,-152,35578,0,34,127,0,0,786,60,0,1331,586,254,120,1,3,127,117,610122,0
610158,1540,-604,-690,174,701,432,170,-212,-240,-709,-344,35574,-2,34,127,0,0,760,-214,0,1331,586,254,130,1,3,127,117,610137,0
610169,2350,-2041,-173,241,984,552,62,-183,-463,-258,-152,35583,11,34,127,0,0,714,-417,0,1331,586,254,141,1,3,127,117,610137,0
610179,906,-5057,1244,955,788,920,16,-64,37,-152,-32,35591,1,34,127,0,0,685,-219,0,1331,586,254,151,1,3,127,117,610247,0
610189,1604,-1705,817,635,258,1896,29,36,211,-156,-8,35597,5,34,127,0,0,731,560,0,1331,586,254,161,1,3,127,117,610262,0
610199,1671,-1067,780,164,-111,1997,40,44,103,252,160,35593,-1,34,127,0,0,795,637,0,1331,586,254,171,1,3,127,117,610262,0
610209,1091,-1651,381,151,28,2142,83,119,59,328,144,35588,2,34,127,0,0,854,593,0,1331,586,254,181,1,3,127,117,610262,0
610219,1082,-1688,185,399,163,2028,145,117,102,129,80,35577,2,34,127,0,0,911,538,0,1331,586,254,191,1,3,127,117,610262,0
610229,744,-1919,144,425,356,2009,166,-7,-45,27,24,35578,8,34,127,0,0,962,483,0,1331,586,254,201,1,3,127,117,610262,0
610239,871,-1848,510,353,355,1989,160,0,-146,29,8,35577,6,34,127,0,0,1015,538,0,1331,586,254,211,1,3,127,117,610262,0
610249,1024,-1740,806,162,256,2031,165,16,-29,237,360,35576,2,34,127,0,0,1070,549,0,1331,586,254,221,1,3,127,117,610262,0
610259,1061,-1804,806,-1,146,2080,261,315,186,792,888,35576,-10,34,127,0,0,1127,571,0,1331,586,254,231,1,3,127,117,610262,0
610269,1247,-1797,673,-180,44,2279,454,476,384,607,1232,35576,-14,34,127,0,0,1182,571,0,1331,586,254,241,1,3,127,117,610262,0
610279,1157,-1848,637,-246,-24,2459,707,596,292,582,1496,35585,-5,34,127,0,0,1248,648,0,1331,586,254,251,1,3,127,117,610278,0
610289,1087,-1812,503,-302,-148,2686,1012,696,217,506,1632,35586,9,34,127,0,0,1316,692,0,1331,586,254,261,1,3,127,117,610278,0
610299,915,-1832,454,-379,-226,2785,1349,761,157,549,1856,35588,-1,34,127,0,0,1395,758,0,1331,586,254,271,1,3,127,117,610278,0
610309,738,-1855,338,-429,-191,2796,1724,849,138,506,1976,35582,6,34,127,0,0,1474,780,0,1331,586,254,281,1,3,127,117,610278,0
610319,642,-1840,306,-390,-141,2761,2120,883,116,489,2024,35590,17,34,127,0,0,1555,802,0,1331,586,254,291,1,3,127,117,610309,0
610329,568,-1888,270,-257,-44,2673,2532,916,70,410,2032,35600,31,34,127,0,0,1632,769,0,1331,586,254,301,1,3,127,117,610309,0
610339,544,-1890,302,-220,31,2595,2939,885,21,380,1952,35600,31,34,127,0,0,1705,736,0,1331,586,254,311,1,3,127,117,610325,0
610349,575,-1895,416,-236,40,2523,3331,852,-42,413,1944,35588,19,34,127,0,0,1777,714,0,1331,586,254,321,1,3,127,117,610325,0
610359,618,-1928,409,-279,40,2493,3710,828,-48,403,1904,35583,19,34,127,0,0,1847,692,0,1331,586,254,331,1,3,127,117,610341,0
610369,587,-1939,450,-373,-61,2514,4077,793,-44,347,1824,35573,35,34,127,0,0,1922,725,0,1331,586,254,341,1,3,127,117,610356,0
610379,515,-1945,443,-379,-90,2495,4429,781,-47,393,1872,35573,36,34,127,0,0,1995,780,0,1331,586,254,351,1,3,127,117,610356,0
610389,396,-1910,344,-373,-104,2403,4784,786,-19,375,1792,35570,33,34,127,0,0,2067,703,0,1331,586,254,361,1,3,127,117,610372,0
610399,341,-1943,261,-349,-71,2324,5137,778,8,350,1736,35573,22,34,127,0,0,2144,758,0,1331,586,254,371,1,3,127,117,610387,0
610409,221,-1927,229,-324,-97,2140,5489,779,-4,383,1728,35576,15,34,127,0,0,2208,670,0,1331,586,254,381,1,3,127,117,610387,0
610420,122,-1976,242,-291,-143,2016,5871,757,-11,294,1520,35586,18,34,127,0,0,2273,587,0,1331,586,254,392,1,3,127,117,610387,0
610430,-47,-1957,331,-232,-325,1715,6202,709,-36,267,1392,35592,12,34,127,0,0,2329,527,0,1331,586,254,402,1,3,127,117,610419,0
610440,-173,-1968,392,-175,-363,1449,6516,685,-61,261,1272,35590,7,34,127,0,0,2382,499,0,1331,586,254,412,1,3,127,117,610419,0
610450,-231,-2043,452,-233,-175,1018,6821,644,-54,190,1040,35582,2,34,127,0,0,2418,379,0,1331,586,254,422,1,3,127,117,610419,0
610460,-323,-1998,497,-317,-29,669,7095,578,-76,150,752,35563,-1,34,127,0,0,2436,159,0,1331,586,254,432,1,3,127,117,610512,0
610470,-68,-2006,591,-433,131,249,7315,440,-161,159,424,35570,4,34,127,0,0,2453,87,0,1331,586,254,442,1,3,127,117,610512,0
610480,110,-2103,505,-495,330,101,7474,297,-215,110,192,35568,-13,34,127,0,0,2457,104,0,1331,586,254,452,1,3,127,117,610512,0
610490,323,-2088,357,-593,40,-44,7540,77,-292,-23,-24,35573,1,34,127,0,0,2454,-10,0,1331,586,254,462,1,3,127,117,610512,0
610500,392,-2105,272,-571,-55,-64,7522,-53,-348,-35,-16,35570,-12,34,127,0,0,2455,43,0,1331,586,254,472,1,3,127,117,610512,0
610510,454,-2046,294,-563,-98,-78,7519,5,-130,34,16,35573,0,34,127,0,0,2454,0,0,1331,586,254,482,1,3,127,117,610528,0
610520,491,-2043,354,-603,-130,-64,7522,-1,40,20,8,35572,-24,34,127,0,0,2454,16,0,1331,586,254,492,1,3,127,117,610528,0
610530,438,-2133,499,-631,-260,-73,7523,7,6,78,32,35571,-13,34,127,0,0,2459,49,0,1331,586,254,502,1,3,127,117,610528,0
610540,299,-2294,559,-597,-361,-69,7531,6,14,117,48,35573,-6,34,127,0,0,2464,87,0,1331,586,254,512,1,3,127,117,610528,0
610550,64,-2733,899,-400,-680,77,7541,24,13,301,136,35586,-10,34,127,0,0,2481,219,0,1331,586,254,522,1,3,127,117,610528,0
610560,32,-3412,638,-654,-720,286,7576,89,42,604,408,35601,-36,34,127,0,0,2530,538,0,1331,586,254,532,1,3,127,117,610559,0
610570,-11,-3065,841,-884,-903,652,7685,303,185,790,968,35600,-39,34,127,0,0,2621,988,0,1331,586,254,542,1,3,127,117,610559,0
610580,-139,-2666,549,-787,-1368,573,7896,546,347,893,1592,35584,-5,34,127,0,0,2731,1148,0,1331,586,254,552,1,3,127,117,610559,0
610590,-370,-2953,-162,-933,-1077,509,8206,744,393,853,2016,35565,26,34,127,0,0,2847,1126,0,1331,586,254,562,1,3,127,117,610559,0
610600,-492,-3278,-102,-934,-892,487,8597,902,348,799,2456,35572,36,34,127,0,0,2969,1307,0,1331,586,254,572,1,3,127,117,610575,0
610610,-747,-3287,244,-591,-736,356,9068,1087,299,753,2928,35568,32,34,127,0,0,3127,1587,0,1331,586,254,582,1,3,127,117,610590,0
610620,-670,-3234,292,-548,-802,245,9634,1320,334,868,3488,35565,35,34,127,0,0,3301,1752,0,1331,586,254,592,1,3,127,117,610590,0
610630,-712,-3056,581,-547,-1045,97,10311,1560,395,894,4064,35548,64,34,127,0,0,3483,1889,0,1331,586,254,602,1,3,127,117,610606,0
610640,-905,-3077,484,-545,-1112,6,11083,1741,400,778,4464,35553,78,34,127,0,0,3679,1972,0,1331,586,254,612,1,3,127,117,610622,0
610650,-844,-2566,-25,-895,-786,-208,11919,1884,298,851,4992,35546,99,34,127,0,0,3883,2109,0,1331,586,254,622,1,3,127,117,610622,0
610661,-1059,-2949,327,-1056,-913,-285,12922,2071,259,840,5376,35549,148,34,127,0,0,4122,2197,0,1331,586,254,633,1,3,127,117,610653,0
610671,-1079,-3097,425,-998,-1215,-647,13933,2294,323,840,5816,35530,178,34,127,0,0,4352,2362,0,1331,586,254,643,1,3,127,117,610653,0
610681,-1336,-3877,96,-941,-787,-1432,15057,2523,397,686,5840,35527,163,34,127,0,0,4557,1988,0,1331,586,254,653,1,3,127,117,610653,0
610691,-784,-3995,310,-883,-416,-1901,16176,2417,213,456,5648,35530,139,34,127,0,0,4757,1988,0,1331,586,254,663,1,3,127,117,610669,0
610701,-403,-4204,391,-1009,554,-2797,17248,2341,-110,418,5368,35539,118,34,127,0,0,4915,1560,0,1331,586,254,673,1,3,127,117,610684,0
610711,272,-3798,240,-1340,734,-3329,18263,2201,-196,347,5248,35546,91,34,127,0,0,5115,2054,0,1331,586,254,683,1,3,127,117,610684,0
610721,1273,-3767,447,-1746,785,-4715,19276,2256,-117,749,5664,35546,111,34,127,0,0,5363,2504,0,1331,586,254,693,1,3,127,117,610684,0
610731,1935,-4735,546,-1749,256,-6541,20348,2413,118,884,5504,35535,112,34,127,0,0,5603,2307,0,1331,586,254,703,1,3,127,117,610715,0
610741,2354,-5681,865,-1455,-528,-9470,21358,2072,32,-539,2352,35545,62,34,127,0,0,5701,878,0,1331,586,254,713,1,3,127,117,610715,0
610751,2467,-5315,1024,-1475,-1338,-10422,21869,557,-1027,-3078,-1352,35556,10,34,127,0,0,5695,-164,0,1331,586,254,723,1,3,127,117,610715,0
610761,2700,-4832,893,-1628,-2434,-10973,21521,-1062,-2660,-1839,-3832,35545,20,34,127,0,0,5638,-670,0,1331,586,254,733,0,3,127,117,610762,0
610771,2765,-4264,594,-1812,-3556,-10775,20760,-1921,-2416,-1875,-5840,35527,95,34,127,0,0,5570,-681,0,1331,586,254,743,0,3,127,117,610762,0
610781,2412,-3543,296,-2002,-5235,-10415,19672,-2578,-1416,-1341,-6992,35494,217,34,127,0,0,5510,-593,0,1331,586,254,753,0,3,127,117,610762,0
610791,2168,-3219,71,-2032,-6267,-10019,18344,-3027,-1080,-869,-6328,35498,222,34,127,0,0,5466,-417,0,1331,586,254,763,0,3,127,117,610762,0
610801,1344,-2935,-124,-1917,-7175,-10001,17480,-719,263,6552,3456,35522,156,34,127,0,0,5422,-494,0,1331,586,254,773,0,3,127,117,610794,0
610811,1492,-2980,-48,-1780,-7592,-8838,18265,2300,4258,3437,7664,35503,242,34,127,0,0,5396,-142,0,1331,586,254,783,0,3,127,117,610794,0
610821,975,-2875,199,-1433,-6506,-7546,19696,3210,4454,1008,5992,35499,258,34,127,0,0,5387,-98,0,1331,586,254,793,0,3,127,117,610794,0
610831,850,-2562,240,-1265,-5603,-6814,20897,2369,758,-842,3448,35498,282,34,127,0,0,5370,-186,0,1331,586,254,803,0,3,127,117,610809,0
610841,157,-1571,533,-1080,-4248,-6837,21688,1474,-1290,-1066,1120,35561,81,34,127,0,0,5275,-1032,0,1331,586,254,813,0,3,127,117,610840,0
610851,-306,-988,521,-891,-3447,-7107,21964,35,-1732,-2560,-1424,35598,-66,34,127,0,0,5075,-2109,0,1331,586,254,823,0,3,127,117,610872,0
610861,-334,-516,-194,-343,-1601,-7214,21615,-1002,-2244,-1651,-3680,35576,-5,34,127,0,0,4768,-3218,0,1331,586,254,833,0,3,127,117,610872,0
610871,-218,-379,-554,79,-972,-6637,20862,-1930,-1968,-2012,-5936,35534,122,34,127,0,0,4409,-3603,0,1331,586,254,843,0,3,127,117,610887,0
610881,-635,-178,-774,712,305,-5083,19726,-2743,-1511,-1761,-7664,35502,231,34,127,0,0,4040,-3647,0,1331,586,254,853,0,3,127,117,610887,0
610891,-941,28,-637,1136,894,-3832,18263,-3363,-1368,-988,-8264,35480,265,34,127,0,0,3728,-3076,0,1331,586,254,863,0,3,127,117,610887,0
610901,-1060,342,-341,1630,1612,-1854,16708,-3415,-816,-465,-8008,35487,228,34,127,0,0,3476,-2438,0,1331,586,254,873,0,3,127,117,610887,0
610911,-1079,489,-359,1944,2166,-731,15171,-3367,-126,-125,-7184,35510,153,34,127,0,0,3267,-2054,0,1331,586,254,883,0,3,127,117,610887,0
610922,-1085,630,-301,2329,3027,908,13595,-3003,235,87,-6048,35552,72,34,127,0,0,3078,-1691,0,1331,586,254,894,0,3,127,117,610903,0
610932,-1200,706,-268,2587,3633,1976,12380,-2542,620,151,-5104,35577,22,34,127,0,0,2930,-1351,0,1331,586,254,904,0,3,127,117,610903,0
610942,-1278,663,-168,2828,4237,3502,11336,-2210,736,163,-4128,35577,2,34,127,0,0,2808,-1137,0,1331,586,254,914,0,3,127,117,610934,0
610952,-1138,607,-121,3009,4508,4536,10518,-1912,595,167,-3176,35571,-7,34,127,0,0,2732,-812,0,1331,586,254,924,0,3,127,117,610934,0
610962,-761,653,-58,3215,4679,5978,9766,-1535,593,190,-2224,35566,-9,34,127,0,0,2682,-488,0,1331,586,254,934,0,3,127,117,610934,0
610972,-562,767,2,3274,4712,6775,9192,-1158,660,154,-1448,35569,-7,34,127,0,0,2643,-411,0,1331,586,254,944,0,3,127,117,610981,0
610982,-422,766,70,3254,4606,7744,8776,-833,629,67,-984,35567,-6,34,127,0,0,2607,-368,0,1331,586,254,954,0,3,127,117,610997,0
610992,-253,633,100,3162,4439,8307,8478,-592,514,-37,-712,35567,10,34,127,0,0,2571,-324,0,1331,586,254,964,0,3,127,117,610997,0
611002,14,322,151,2885,4174,8988,8255,-451,357,-162,-448,35567,2,34,127,0,0,2562,-76,0,1331,586,254,974,0,3,127,117,610997,0
611012,222,272,259,2702,4145,9134,8087,-320,240,-103,-136,35564,0,34,127,0,0,2559,10,0,1331,586,254,984,0,3,127,117,610997,0
611022,621,348,314,2399,4163,8861,8000,-119,270,206,40,35563,-15,34,127,0,0,2556,-32,0,1331,586,254,994,0,3,127,117,611012,0
611032,992,371,220,2122,4181,8541,8012,26,348,-51,-48,35566,-25,34,127,0,0,2556,-38,0,1331,586,254,1004,0,3,127,117,611012,0
611042,1648,546,-102,1627,4280,7857,8002,-12,111,-93,-24,35573,-17,34,127,0,0,2556,71,0,1331,586,254,1014,0,3,127,117,611012,0
611052,1911,582,-357,1357,4265,7268,8004,-16,-24,-121,8,35576,-10,34,127,0,0,2557,98,0,1331,586,254,1024,0,3,127,117,611028,0
611062,2490,485,-598,858,4261,6176,8012,18,26,110,120,35581,-13,34,127,0,0,2580,258,0,1331,586,254,1034,0,3,127,117,611043,0
611072,2848,240,-426,509,4174,5259,8043,92,57,572,424,35573,-30,34,127,0,0,2620,422,0,1331,586,254,1044,0,3,127,117,611043,0
611082,3324,153,-100,-131,3894,3682,8156,303,190,528,688,35575,-38,34,127,0,0,2682,620,0,1331,586,254,1054,0,3,127,117,611075,0
611092,3611,205,135,-693,3635,2672,8332,421,277,519,1056,35573,-28,34,127,0,0,2766,807,0,1331,586,254,1064,0,3,127,117,611075,0
611102,9052,-2584,517,-1217,537,-879,8570,588,232,550,1552,35572,-15,34,127,0,0,2859,972,0,1331,586,254,1074,0,3,127,117,611090,0
611112,9907,-2214,1651,-854,2066,-6882,8896,713,296,8,-440,35568,-17,34,127,0,0,2575,-3499,0,1794,820,255,4,1,3,140,106,611090,0
611122,2917,566,-290,-898,3514,-4852,8726,-972,-732,-2860,-3616,35564,38,34,127,0,0,2234,-3087,0,1794,820,255,14,1,3,140,106,611090,0
611132,1423,493,110,-2550,2941,-3552,8023,-1703,-2108,-1108,-4856,35562,92,34,127,0,0,1935,-3147,0,1794,820,255,24,1,3,140,106,611122,0
611142,2328,-643,-479,-3516,-1042,-1523,7088,-2163,-1414,-894,-5288,35558,147,34,127,0,0,1724,-1983,0,1794,820,255,34,1,3,140,106,611122,0
611152,1368,-3125,893,-2430,-396,-2950,6092,-2215,-563,-1005,-5976,35549,167,34,127,0,0,1432,-2999,0,1794,820,255,44,1,3,140,106,611122,0
611163,291,-4270,-497,-1446,473,-2672,4859,-2591,-330,-1384,-7120,35530,188,34,127,0,0,1127,-2702,0,1794,820,255,55,1,3,140,106,611137,0
611173,1955,-5300,1143,-1504,92,-1638,3578,-2910,-543,-998,-7152,35515,228,34,127,0,0,925,-1922,0,1794,820,255,65,1,3,140,106,611153,0
611183,1836,-5257,934,-1328,-128,-1062,2270,-2787,-364,200,-4536,35526,179,34,127,0,0,793,-1230,0,1794,820,255,75,1,3,140,106,611153,0
611193,1695,-4612,742,-1735,-894,352,1232,-2014,464,840,-2464,35560,71,34,127,0,0,755,-208,0,1794,820,255,85,1,3,140,106,611168,0
611203,1022,-3614,289,-1597,-942,902,571,-1244,1273,498,-1136,35597,-34,34,127,0,0,799,527,0,1794,820,255,95,1,3,140,106,611215,0
611213,908,-1840,-768,-1585,-618,1190,177,-715,1235,233,-352,35604,-64,34,127,0,0,878,791,0,1794,820,255,105,1,3,140,106,611215,0
611223,648,-808,-1068,-1347,-276,1069,-7,-260,908,274,32,35600,-50,34,127,0,0,958,758,0,1794,820,255,115,1,3,140,106,611215,0
611233,751,-55,-1202,-681,743,392,15,135,802,168,32,35585,-27,34,127,0,0,1006,351,0,1794,820,255,125,1,3,140,106,611215,0
