state_time,accelx,accely,accelz,gyrox,gyroy,gyroz,mot_ang,mot_vel,mot_acc,mot_cur,mot_volt,batt_volt,batt_curr,temperature,status_mn,status_ex,status_re,ank_ang,ank_vel,ank_torque,peak_ank_torque,step_energy,step_count,step_time,gait_state,movement,speed,incline,sys_time,eventFlags
244997,-70,-2063,335,-87,31,125,14741,7,0,-226,-96,35719,20,32,127,0,0,3893,-10,0,2419,418,76,18365,-4,0,56,10,244984,0
245007,-83,-2064,334,-82,37,124,14739,-6,-5,-240,-48,35733,18,32,127,0,0,3891,0,0,2419,418,76,18375,-4,0,56,10,244984,0
245017,-68,-2065,334,-88,38,115,14740,-6,0,-247,-40,35732,26,32,127,0,0,3891,0,0,2419,418,76,18385,-4,0,56,10,245015,0
245027,-63,-2070,331,-85,31,118,14740,0,-6,-241,-40,35732,31,32,127,0,0,3891,0,0,2419,418,76,18395,-4,0,56,10,245015,0
245037,-76,-2058,342,-86,39,120,14740,-1,2,-244,-48,35719,23,32,127,0,0,3891,0,0,2419,418,76,18405,-4,0,56,10,245015,0
245047,-61,-2067,335,-85,33,115,14739,-12,1,-252,-40,35728,22,32,127,0,0,3891,10,0,2419,418,76,18415,-4,0,56,10,245031,0
245057,-60,-2068,335,-85,29,115,14740,-10,-2,-263,-80,35731,22,32,127,0,0,3891,10,0,2419,418,76,18425,-4,0,56,10,245047,0
245067,-52,-2063,335,-92,32,119,14741,0,-2,-265,-40,35725,32,32,127,0,0,3891,0,0,2419,418,76,18435,-4,0,56,10,245062,0
245077,-52,-2068,339,-86,31,119,14737,-12,-7,-307,-64,35727,22,32,127,0,0,3891,32,0,2419,418,76,18445,-4,0,56,10,245062,0
245087,-52,-2070,334,-83,31,122,14741,8,3,-255,-40,35726,18,32,127,0,0,3891,0,0,2419,418,76,18455,-4,0,56,10,245062,0
245097,-67,-2060,333,-85,28,116,14738,-2,1,-278,-64,35728,22,32,127,0,0,3889,-10,0,2419,418,76,18465,-4,0,56,10,245094,0
245107,-44,-2060,336,-89,42,119,14739,1,0,-276,-80,35734,37,32,127,0,0,3891,0,0,2419,418,76,18475,-4,0,56,10,245094,0
245118,-55,-2065,333,-84,38,122,14739,-2,1,-285,-80,35722,18,32,127,0,0,3888,-16,0,2419,418,76,18486,-4,0,56,10,245109,0
245128,-34,-2060,336,-87,37,121,14738,0,-4,-293,-72,35735,10,32,127,0,0,3888,-16,0,2419,418,76,18496,-4,0,56,10,245109,0
245138,-74,-2067,330,-84,34,123,14739,0,4,-265,-80,35728,6,32,127,0,0,3891,-10,0,2419,418,76,18506,-4,0,56,10,245140,0
245148,-62,-2059,331,-87,31,129,14737,-8,-5,-274,-48,35729,18,32,127,0,0,3890,32,0,2419,418,76,18516,-4,0,56,10,245140,0
245158,-63,-2065,330,-84,31,124,14739,-5,2,-255,-80,35717,37,32,127,0,0,3891,0,0,2419,418,76,18526,-4,0,56,10,245140,0
245168,-55,-2065,333,-85,29,126,14738,0,-1,-305,-96,35712,21,32,127,0,0,3892,27,0,2419,418,76,18536,-4,0,56,10,245156,0
245178,-66,-2068,333,-84,36,126,14741,9,6,-253,-80,35728,17,32,127,0,0,3891,0,0,2419,418,76,18546,-4,0,56,10,245156,0
245188,-76,-2061,339,-83,33,134,14736,-14,-4,-316,-72,35726,3,32,127,0,0,3891,60,0,2419,418,76,18556,-4,0,56,10,245187,0
245198,-64,-2065,335,-82,28,126,14740,8,2,-250,-80,35721,-12,32,127,0,0,3891,-5,0,2419,418,76,18566,-4,0,56,10,245203,0
245208,-65,-2064,332,-82,38,126,14739,5,6,-277,-80,35719,1,32,127,0,0,3891,5,0,2419,418,76,18576,-4,0,56,10,245203,0
245218,-57,-2064,338,-90,32,130,14738,0,-1,-273,-72,35726,0,32,127,0,0,3891,16,0,2419,418,76,18586,-4,0,56,10,245203,0
245228,-48,-2060,335,-85,37,128,14738,-2,3,-279,-72,35729,0,32,127,0,0,3891,5,0,2419,418,76,18596,-4,0,56,10,245219,0
245238,-59,-2060,331,-82,39,125,14739,4,-2,-283,-80,35735,8,32,127,0,0,3891,5,0,2419,418,76,18606,-4,0,56,10,245234,0
245248,-61,-2060,334,-84,33,125,14739,10,4,-253,-80,35726,22,32,127,0,0,3891,0,0,2419,418,76,18616,-4,0,56,10,245234,0
245258,-63,-2066,331,-85,38,126,14737,1,-3,-253,-72,35727,28,32,127,0,0,3891,0,0,2419,418,76,18626,-4,0,56,10,245234,0
245268,-65,-2063,328,-84,35,130,14738,3,-1,-271,-72,35717,21,32,127,0,0,3891,27,0,2419,418,76,18636,-4,0,56,10,245265,0
245278,-66,-2067,339,-83,34,126,14738,-5,4,-253,-96,35724,1,32,127,0,0,3892,-5,0,2419,418,76,18646,-4,0,56,10,245265,0
245288,-65,-2063,339,-86,40,130,14737,2,-3,-313,-72,35715,-12,32,127,0,0,3888,27,0,2419,418,76,18656,-4,0,56,10,245265,0
245298,-65,-2069,335,-81,35,133,14737,1,2,-268,-72,35719,1,32,127,0,0,3891,-10,0,2419,418,76,18666,-4,0,56,10,245281,0
245308,-67,-2066,331,-87,41,131,14737,-2,4,-255,-96,35729,-2,32,127,0,0,3892,-5,0,2419,418,76,18676,-4,0,56,10,245297,0
245318,-71,-2061,336,-84,32,128,14737,5,-6,-277,-72,35725,-2,32,127,0,0,3891,5,0,2419,418,76,18686,-4,0,56,10,245312,0
245328,-78,-2056,338,-78,35,131,14738,2,4,-255,-72,35736,-8,32,127,0,0,3891,0,0,2419,418,76,18696,-4,0,56,10,245312,0
245338,-66,-2064,341,-78,36,124,14738,5,4,-253,-72,35724,-8,32,127,0,0,3891,0,0,2419,418,76,18706,-4,0,56,10,245328,0
245348,-64,-2058,339,-83,31,121,14738,2,5,-254,-96,35729,-13,32,127,0,0,3892,-21,0,2419,418,76,18716,-4,0,56,10,245343,0
245358,-71,-2058,337,-85,32,124,14738,9,2,-253,-96,35727,-15,32,127,0,0,3892,-5,0,2419,418,76,18726,-4,0,56,10,245343,0
245369,-57,-2069,331,-82,40,119,14738,10,4,-255,-72,35720,-8,32,127,0,0,3891,0,0,2419,418,76,18737,-4,0,56,10,245359,0
245379,-64,-2067,336,-83,41,123,14736,-8,-3,-283,-104,35732,17,32,127,0,0,3891,21,0,2419,418,76,18747,-4,0,56,10,245359,0
245389,-54,-2059,336,-84,35,118,14739,8,6,-257,-80,35740,22,32,127,0,0,3891,0,0,2419,418,76,18757,-4,0,56,10,245422,0
245399,-65,-2070,336,-83,34,120,14739,7,6,-238,-40,35745,25,32,127,0,0,3891,-21,0,2419,418,76,18767,-4,0,56,10,245422,0
245409,-66,-2065,332,-85,32,120,14738,8,-2,-226,-48,35740,18,32,127,0,0,3891,0,0,2419,418,76,18777,-4,0,56,10,245422,0
245419,-51,-2070,332,-84,25,121,14736,-10,-5,-268,-64,35720,15,32,127,0,0,3891,0,0,2419,418,76,18787,-4,0,56,10,245422,0
245429,-47,-2063,331,-80,29,126,14739,0,3,-259,-72,35715,7,32,127,0,0,3891,-21,0,2419,418,76,18797,-4,0,56,10,245422,0
245439,-64,-2062,334,-83,30,123,14738,10,-1,-234,-88,35713,16,32,127,0,0,3891,-10,0,2419,418,76,18807,-4,0,56,10,245437,0
245449,-76,-2057,339,-80,35,125,14737,-3,-7,-247,-72,35709,20,32,127,0,0,3891,0,0,2419,418,76,18817,-4,0,56,10,245437,0
245459,-61,-2064,334,-83,34,122,14738,6,0,-232,-56,35704,22,32,127,0,0,3891,-10,0,2419,418,76,18827,-4,0,56,10,245468,0
245469,-70,-2059,337,-82,27,125,14738,-2,3,-251,-72,35708,30,32,127,0,0,3891,0,0,2419,418,76,18837,-4,0,56,10,245484,0
245479,-67,-2064,339,-82,34,124,14737,-5,-5,-250,-72,35725,23,32,127,0,0,3889,-43,0,2419,418,76,18847,-4,0,56,10,245484,0
245489,-91,-2060,333,-84,26,129,14736,9,0,-270,-72,35731,4,31,127,0,0,3891,0,0,2419,418,76,18857,-4,0,56,10,245484,0
245499,-66,-2061,334,-84,41,126,14737,-5,2,-288,-104,35726,-7,32,127,0,0,3891,21,0,2419,418,76,18867,-4,0,56,10,245484,0
245509,-62,-2060,338,-87,24,120,14736,-4,-2,-307,-144,35724,-15,32,127,0,0,3886,-21,0,2419,418,76,18877,-4,0,56,10,245500,0
245519,-59,-2061,335,-85,32,121,14734,0,-2,-287,-72,35724,0,32,127,0,0,3891,0,0,2419,418,76,18887,-4,0,56,10,245500,0
245529,-77,-2060,331,-79,27,122,14736,-6,0,-264,-104,35732,11,32,127,0,0,3886,-43,0,2419,418,76,18897,-4,0,56,10,245578,0
245539,-52,-2063,336,-86,29,117,14734,-1,-4,-324,-40,35729,14,31,127,0,0,3891,21,0,2419,418,76,18907,-4,0,56,10,245578,0
245549,-55,-2059,335,-81,36,112,14735,-1,4,-283,-144,35723,18,32,127,0,0,3886,-65,0,2419,418,76,18917,-4,0,56,10,245593,0
245559,-81,-2066,334,-85,31,118,14729,-3,-11,-299,-48,35713,21,32,127,0,0,3889,10,0,2419,418,76,18927,-4,0,56,10,245593,0
245569,-60,-2065,334,-78,32,109,14733,11,5,-254,-64,35708,8,32,127,0,0,3891,-21,0,2419,418,76,18937,-4,0,56,10,245593,0
245579,-95,-2069,329,-82,34,115,14730,-8,6,-278,-128,35698,24,32,127,0,0,3891,43,0,2419,418,76,18947,-4,0,56,10,245593,0
245589,-43,-2063,333,-87,38,119,14731,2,-4,-261,-136,35696,23,32,127,0,0,3891,-21,0,2419,418,76,18957,-4,0,56,10,245593,0
245599,-94,-2064,330,-76,33,115,14731,16,3,-221,-56,35701,15,32,127,0,0,3889,-43,0,2419,418,76,18967,-4,0,56,10,245593,0
245609,-90,-2069,337,-75,32,115,14730,2,-2,-206,-72,35709,9,32,127,0,0,3891,-10,0,2419,418,76,18977,-4,0,56,10,245593,0
245620,-75,-2062,345,-75,30,119,14730,-9,0,-252,-104,35723,31,32,127,0,0,3886,-71,0,2419,418,76,18988,-4,0,56,10,245609,0
245630,-57,-2058,342,-85,36,122,14729,3,-1,-252,-56,35729,33,32,127,0,0,3884,-60,0,2419,418,76,18998,-4,0,56,10,245609,0
245640,-35,-2064,340,-79,34,117,14728,-2,4,-230,-56,35741,20,32,127,0,0,3891,-21,0,2419,418,76,19008,-4,0,56,10,245640,0
245650,-61,-2060,342,-77,32,126,14728,-7,1,-290,-56,35740,22,32,127,0,0,3891,27,0,2419,418,76,19018,-4,0,56,10,245640,0
245660,-66,-2064,338,-84,39,136,14729,0,1,-309,-80,35729,26,32,127,0,0,3889,27,0,2419,418,76,19028,-4,0,56,10,245640,0
245670,-80,-2059,335,-83,37,133,14730,12,5,-262,-56,35716,25,32,127,0,0,3888,-38,0,2419,418,76,19038,-4,0,56,10,245656,0
245680,-61,-2060,334,-83,33,134,14729,0,-4,-276,-56,35724,21,32,127,0,0,3891,0,0,2419,418,76,19048,-4,0,56,10,245656,0
245690,-12,-2069,332,-83,48,125,14729,2,-2,-266,-104,35734,25,32,127,0,0,3893,43,0,2419,418,76,19058,-4,0,56,10,245687,0
245700,-70,-2066,334,-80,38,124,14727,-4,0,-267,-56,35726,27,32,127,0,0,3888,5,0,2419,418,76,19068,-4,0,56,10,245687,0
245710,-32,-2071,337,-78,43,132,14728,1,1,-292,-56,35708,30,32,127,0,0,3884,-16,0,2419,418,76,19078,-4,0,56,10,245687,0
245720,-17,-2071,331,-77,43,133,14729,5,2,-265,-80,35711,18,32,127,0,0,3892,0,0,2419,418,76,19088,-4,0,56,10,245734,0
245730,-66,-2059,329,-76,36,150,14730,0,5,-240,-56,35715,25,32,127,0,0,3888,-16,0,2419,418,76,19098,-4,0,56,10,245734,0
245740,-61,-2052,336,-77,46,135,14728,-4,-1,-258,-104,35713,31,31,127,0,0,3890,-38,0,2419,418,76,19108,-4,0,56,10,245734,0
245750,-104,-2061,334,-77,32,139,14727,8,-1,-259,-56,35711,33,32,127,0,0,3891,21,0,2419,418,76,19118,-4,0,56,10,245734,0
245760,-54,-2063,335,-77,32,135,14727,-9,0,-282,-56,35704,35,32,127,0,0,3884,-27,0,2419,418,76,19128,-4,0,56,10,245765,0
245770,-61,-2067,325,-74,39,126,14728,2,2,-278,-56,35714,26,32,127,0,0,3891,21,0,2419,418,76,19138,-4,0,56,10,245765,0
245780,-55,-2062,332,-70,37,135,14727,-5,-2,-252,-80,35716,26,32,127,0,0,3892,0,0,2419,418,76,19148,-4,0,56,10,245781,0
245790,-58,-2066,334,-70,40,129,14728,10,-1,-264,-56,35726,14,32,127,0,0,3891,32,0,2419,418,76,19158,-4,0,56,10,245781,0
245800,-68,-2066,335,-70,35,130,14730,5,10,-230,-80,35716,9,32,127,0,0,3892,-5,0,2419,418,76,19168,-4,0,56,10,245781,0
245810,-69,-2066,342,-66,37,124,14730,14,-1,-186,-56,35727,10,32,127,0,0,3891,5,0,2419,418,76,19178,-4,0,56,10,245812,0
245820,-64,-2070,340,-73,34,128,14729,-11,0,-210,-56,35724,19,31,127,0,0,3888,-32,0,2419,418,76,19188,-4,0,56,10,245812,0
245830,-60,-2064,335,-70,39,125,14727,-7,-8,-293,-56,35723,39,31,127,0,0,3888,-5,0,2419,418,76,19198,-4,0,56,10,245812,0
245840,-52,-2055,338,-71,39,129,14730,7,10,-264,-56,35713,31,32,127,0,0,3891,-5,0,2419,418,76,19208,-4,0,56,10,245828,0
245850,-49,-2062,345,-70,36,123,14729,0,-2,-255,-56,35716,19,32,127,0,0,3891,54,0,2419,418,76,19218,-4,0,56,10,245843,0
245860,-52,-2065,349,-76,37,116,14730,-7,-1,-227,-104,35717,21,32,127,0,0,3893,-10,0,2419,418,76,19228,-4,0,56,10,245859,0
245870,-70,-2060,347,-74,35,117,14729,4,-3,-195,-56,35719,31,32,127,0,0,3891,21,0,2419,418,76,19238,-4,0,56,10,245859,0
245881,-81,-2062,343,-78,35,117,14727,-16,-4,-242,-40,35720,43,32,127,0,0,3891,10,0,2419,418,76,19249,-4,0,56,10,245859,0
245891,-48,-2060,345,-83,36,121,14731,14,1,-217,-104,35734,35,32,127,0,0,3891,-10,0,2419,418,76,19259,-4,0,56,10,245937,0
245901,-69,-2054,341,-82,38,120,14729,-1,8,-219,-56,35737,22,32,127,0,0,3891,0,0,2419,418,76,19269,-4,0,56,10,245937,0
245911,-55,-2059,341,-85,33,122,14729,-8,-10,-260,-32,35732,24,32,127,0,0,3891,21,0,2419,418,76,19279,-4,0,56,10,245953,0
245921,-42,-2060,340,-84,27,121,14729,-1,2,-233,-56,35712,30,32,127,0,0,3891,0,0,2419,418,76,19289,-4,0,56,10,245953,0
245931,-58,-2058,343,-92,36,132,14729,1,0,-238,-56,35708,35,32,127,0,0,3891,21,0,2419,418,76,19299,-4,0,56,10,245953,0
245941,-55,-2061,352,-93,40,139,14729,-5,-2,-221,-56,35717,29,32,127,0,0,3893,0,0,2419,418,76,19309,-4,0,56,10,245953,0
245951,-81,-2065,343,-89,38,145,14731,15,4,-161,-72,35717,22,32,127,0,0,3891,-10,0,2419,418,76,19319,-4,0,56,10,245953,0
245961,-68,-2062,344,-96,38,155,14729,-2,-5,-196,-56,35713,23,32,127,0,0,3891,-21,0,2419,418,76,19329,-4,0,56,10,245953,0
245971,-58,-2067,336,-98,37,160,14730,0,-2,-223,-56,35710,31,32,127,0,0,3891,0,0,2419,418,76,19339,-4,0,56,10,245953,0
245981,-62,-2066,334,-90,32,176,14732,13,11,-172,-72,35724,35,32,127,0,0,3893,0,0,2419,418,76,19349,-4,0,56,10,245968,0
245991,-48,-2071,332,-89,31,171,14733,10,2,-131,-40,35737,32,32,127,0,0,3895,10,0,2419,418,76,19359,-4,0,56,10,245984,0
246001,-54,-2061,336,-88,36,182,14735,2,1,-84,-16,35739,34,32,127,0,0,3895,21,0,2419,418,76,19369,-4,0,56,10,246000,0
246011,-64,-2064,335,-88,27,188,14737,15,5,-23,-8,35729,29,32,127,0,0,3897,-10,0,2419,418,76,19379,-4,0,56,10,246000,0
246021,-86,-2067,331,-94,39,180,14739,19,0,34,-16,35721,16,32,127,0,0,3897,0,0,2419,418,76,19389,-4,0,56,10,246000,0
246031,-62,-2064,338,-88,30,180,14742,4,0,58,48,35734,-2,32,127,0,0,3902,21,0,2419,418,76,19399,-4,0,56,10,246062,0
246041,-80,-2064,335,-90,33,177,14747,12,3,154,64,35734,17,32,127,0,0,3904,32,0,2419,418,76,19409,-4,0,56,10,246062,0
246051,-66,-2056,345,-93,29,177,14751,0,-2,186,64,35735,29,32,127,0,0,3904,10,0,2419,418,76,19419,-4,0,56,10,246062,0
246061,-72,-2061,338,-91,26,167,14751,-3,-15,180,80,35725,19,32,127,0,0,3906,32,0,2419,418,76,19429,-4,0,56,10,246062,0
246071,-77,-2055,335,-94,37,168,14753,-7,-5,202,56,35723,3,32,127,0,0,3906,21,0,2419,418,76,19439,-4,0,56,10,246062,0
246081,-97,-2068,327,-93,30,160,14757,11,5,260,88,35720,15,32,127,0,0,3908,0,0,2419,418,76,19449,-4,0,56,10,246062,0
246091,-71,-2057,335,-86,32,149,14762,9,12,296,64,35720,20,32,127,0,0,3906,-43,0,2419,418,76,19459,-4,0,56,10,246078,0
246101,-85,-2062,331,-88,30,146,14767,5,2,240,88,35730,22,32,127,0,0,3911,21,0,2419,418,76,19469,-4,0,56,10,246109,0
246111,-99,-2062,335,-93,28,144,14773,16,-3,250,80,35735,1,32,127,0,0,3911,21,0,2419,418,76,19479,-4,0,56,10,246109,0
246121,-86,-2064,328,-88,35,135,14782,34,14,215,80,35729,3,32,127,0,0,3911,0,0,2419,418,76,19489,-4,0,56,10,246109,0
246132,-65,-2061,338,-85,27,133,14803,30,23,-6,8,35717,17,32,127,0,0,3914,32,0,2419,418,76,19500,-4,0,56,10,246109,0
246142,-80,-2058,335,-89,28,132,14802,-8,-27,59,8,35711,27,32,127,0,0,3911,21,0,2419,418,76,19510,-4,0,56,10,246140,0
246152,-67,-2068,334,-87,35,121,14805,4,-29,124,0,35721,24,32,127,0,0,3914,-21,0,2419,418,76,19520,-4,0,56,10,246140,0
246162,-86,-2060,338,-80,27,121,14804,-6,-3,76,0,35722,21,32,127,0,0,3911,5,0,2419,418,76,19530,-4,0,56,10,246140,0
246172,-63,-2070,336,-81,35,117,14806,1,-4,63,0,35730,36,32,127,0,0,3911,-21,0,2419,418,76,19540,-4,0,56,10,246171,0
246182,-103,-2060,338,-93,33,122,14804,-5,1,57,24,35725,20,32,127,0,0,3913,32,0,2419,418,76,19550,-4,0,56,10,246187,0
246192,-74,-2066,332,-81,34,113,14807,-5,1,102,24,35735,8,32,127,0,0,3913,0,0,2419,418,76,19560,-4,0,56,10,246187,0
246202,-56,-2061,340,-81,29,113,14806,-6,-6,48,0,35729,-9,32,127,0,0,3914,27,0,2419,418,76,19570,-4,0,56,10,246203,0
246212,-99,-2063,340,-79,31,115,14805,-5,-6,28,24,35721,14,32,127,0,0,3913,49,0,2419,418,76,19580,-4,0,56,10,246203,0
246222,-39,-2061,337,-85,33,110,14807,-5,3,80,48,35719,29,32,127,0,0,3912,21,0,2419,418,76,19590,-4,0,56,10,246203,0
246232,-22,-2062,335,-81,38,123,14807,-1,-4,77,24,35735,18,32,127,0,0,3910,-5,0,2419,418,76,19600,-4,0,56,10,246234,0
246242,-88,-2069,329,-82,31,119,14805,-9,-6,9,0,35745,11,32,127,0,0,3911,0,0,2419,418,76,19610,-4,0,56,10,246234,0
246252,-70,-2067,337,-80,37,120,14808,16,6,50,-8,35746,34,32,127,0,0,3914,-10,0,2419,418,76,19620,-4,0,56,10,246234,0
246262,-42,-2054,340,-79,34,134,14809,11,10,68,-8,35735,40,32,127,0,0,3914,0,0,2419,418,76,19630,-4,0,56,10,246250,0
246272,-84,-2058,344,-77,40,139,14807,2,-1,78,0,35736,41,32,127,0,0,3914,21,0,2419,418,76,19640,-4,0,56,10,246328,0
246282,-70,-2065,331,-81,34,131,14805,-4,-4,70,24,35737,31,32,127,0,0,3913,43,0,2419,418,76,19650,-4,0,56,10,246328,0
246292,-50,-2063,336,-80,42,130,14806,-10,0,47,0,35734,15,32,127,0,0,3911,-16,0,2419,418,76,19660,-4,0,56,10,246328,0
246302,-61,-2061,336,-76,37,135,14808,14,5,19,-8,35712,32,32,127,0,0,3914,16,0,2419,418,76,19670,-4,0,56,10,246328,0
246312,-97,-2059,337,-73,41,142,14805,-4,0,99,0,35702,32,32,127,0,0,3917,65,0,2419,418,76,19680,-4,0,56,10,246343,0
246322,-61,-2062,342,-75,31,146,14808,-14,-2,91,16,35709,12,32,127,0,0,3913,10,0,2419,418,76,19690,-4,0,56,10,246343,0
246332,-72,-2063,337,-78,35,151,14809,1,0,126,16,35711,1,32,127,0,0,3916,0,0,2419,418,76,19700,-4,0,56,10,246343,0
246342,-64,-2059,345,-80,26,154,14809,0,-1,114,16,35712,2,32,127,0,0,3919,71,0,2419,418,76,19710,-4,0,56,10,246343,0
246352,-86,-2065,342,-79,30,160,14809,0,-5,166,40,35711,37,32,127,0,0,3918,71,0,2419,418,76,19720,-4,0,56,10,246343,0
246362,-60,-2052,341,-85,30,160,14810,-9,1,179,40,35732,38,32,127,0,0,3915,10,0,2419,418,76,19730,-4,0,56,10,246343,0
246373,-70,-2060,330,-80,27,162,14813,4,6,228,56,35741,29,32,127,0,0,3917,10,0,2419,418,76,19741,-4,0,56,10,246359,0
246383,-67,-2055,340,-87,34,162,14814,-6,-2,227,56,35749,21,32,127,0,0,3917,10,0,2419,418,76,19751,-4,0,56,10,246392,0
246393,-75,-2070,338,-80,29,157,14816,5,-6,278,72,35737,11,32,127,0,0,3919,10,0,2419,418,76,19761,-4,0,56,10,246392,0
246403,-73,-2065,338,-78,37,158,14818,3,0,287,72,35724,-2,32,127,0,0,3917,-10,0,2419,418,76,19771,-4,0,56,10,246392,0
246413,-83,-2066,336,-78,31,149,14819,7,1,325,96,35717,-5,32,127,0,0,3922,0,0,2419,418,76,19781,-4,0,56,10,246392,0
246423,-77,-2062,331,-75,30,150,14820,6,0,348,88,35723,2,32,127,0,0,3922,10,0,2419,418,76,19791,-4,0,56,10,246423,0
246433,-88,-2059,338,-75,37,141,14822,6,2,375,120,35721,10,32,127,0,0,3922,-10,0,2419,418,76,19801,-4,0,56,10,246423,0
246443,-76,-2053,334,-78,38,140,14823,0,-3,382,56,35720,18,32,127,0,0,3919,-43,0,2419,418,76,19811,-4,0,56,10,246423,0
246453,-115,-2057,339,-72,38,125,14822,3,-6,351,72,35721,5,32,127,0,0,3922,0,0,2419,418,76,19821,-4,0,56,10,246454,0
246463,-89,-2057,344,-76,39,121,14825,0,7,414,88,35720,14,32,127,0,0,3924,-10,0,2419,418,76,19831,-4,0,56,10,246454,0
246473,-94,-2061,343,-72,30,118,14826,4,4,409,104,35719,22,32,127,0,0,3924,0,0,2419,418,76,19841,-4,0,56,10,246454,0
246483,-85,-2062,336,-73,40,109,14824,-5,-7,408,104,35723,17,32,127,0,0,3924,0,0,2419,418,76,19851,-4,0,56,10,246485,0
246493,-73,-2061,342,-70,41,111,14825,1,0,390,120,35727,11,32,127,0,0,3922,-10,0,2419,418,76,19861,-4,0,56,10,246485,0
246503,-53,-2066,333,-71,33,109,14825,-2,5,369,64,35726,0,32,127,0,0,3924,21,0,2419,418,76,19871,-4,0,56,10,246485,0
246513,-63,-2068,341,-71,36,115,14825,-2,-1,410,96,35720,15,32,127,0,0,3924,0,0,2419,418,76,19881,-4,0,56,10,246501,0
246523,-68,-2062,344,-68,32,124,14825,-4,-3,390,104,35718,13,32,127,0,0,3924,10,0,2419,418,76,19891,-4,0,56,10,246532,0
246533,-69,-2066,336,-75,36,118,14825,3,-2,371,64,35728,1,32,127,0,0,3919,-32,0,2419,418,76,19901,-4,0,56,10,246532,0
246543,-56,-2062,344,-71,40,119,14824,0,1,349,72,35729,-15,32,127,0,0,3919,-43,0,2419,418,76,19911,-4,0,56,10,246532,0
246553,-82,-2053,341,-72,35,124,14824,-5,-1,332,120,35714,10,32,127,0,0,3924,21,0,2419,418,76,19921,-4,0,56,10,246548,0
246563,-65,-2056,334,-73,37,132,14823,-15,-1,303,96,35709,26,32,127,0,0,3919,10,0,2419,418,76,19931,-4,0,56,10,246548,0
246573,-69,-2062,341,-77,38,133,14824,5,2,311,80,35723,23,32,127,0,0,3919,-32,0,2419,418,76,19941,-4,0,56,10,246563,0
246583,-75,-2057,346,-69,37,137,14822,-1,-4,279,48,35731,-2,32,127,0,0,3922,32,0,2419,418,76,19951,-4,0,56,10,246563,0
246593,-53,-2050,349,-75,39,154,14824,-9,-2,311,88,35726,-6,32,127,0,0,3922,10,0,2419,418,76,19961,-4,0,56,10,246579,0
246603,-53,-2053,334,-74,39,148,14826,8,6,345,80,35723,6,32,127,0,0,3922,0,0,2419,418,76,19971,-4,0,56,10,246595,0
246613,-79,-2062,342,-79,37,164,14825,10,-1,376,64,35717,28,32,127,0,0,3924,21,0,2419,418,76,19981,-4,0,56,10,246610,0
246623,-55,-2066,340,-73,30,170,14824,-6,-1,428,88,35724,15,32,127,0,0,3926,10,0,2419,418,76,19991,-4,0,56,10,246610,0
246634,-56,-2061,340,-75,28,191,14827,1,0,432,104,35716,12,32,127,0,0,3927,27,0,2419,418,76,20002,-4,0,56,10,246610,0
246644,-69,-2058,344,-81,35,191,14830,5,7,490,136,35705,24,32,127,0,0,3925,-27,0,2419,418,76,20012,-4,0,56,10,246626,0
246654,-65,-2060,341,-80,27,200,14834,11,8,494,128,35699,33,32,127,0,0,3928,-10,0,2419,418,76,20022,-4,0,56,10,246688,0
246664,-59,-2061,348,-78,22,207,14839,17,0,480,144,35708,31,32,127,0,0,3930,21,0,2419,418,76,20032,-4,0,56,10,246688,0
246674,-87,-2058,345,-83,25,205,14849,38,13,536,176,35709,26,32,127,0,0,3935,21,0,2419,418,76,20042,-4,0,56,10,246688,0
246684,-90,-2060,339,-85,29,207,14879,72,59,376,120,35708,31,32,127,0,0,3935,0,0,2419,418,76,20052,-4,0,56,10,246704,0
246694,-78,-2066,340,-84,19,205,14889,-5,-7,410,112,35708,43,32,127,0,0,3940,16,0,2419,418,76,20062,-4,0,56,10,246704,0
246704,-117,-2067,338,-83,28,194,14890,14,-62,493,160,35709,37,32,127,0,0,3941,32,0,2419,418,76,20072,-4,0,56,10,246704,0
246714,-89,-2060,337,-79,35,188,14894,3,2,505,176,35715,39,32,127,0,0,3947,54,0,2419,418,76,20082,-4,0,56,10,246704,0
246724,-102,-2054,338,-79,31,181,14904,20,10,526,184,35709,43,32,127,0,0,3946,38,0,2419,418,76,20092,-4,0,56,10,246704,0
246734,-104,-2061,338,-78,38,172,14925,66,35,440,144,35709,44,32,127,0,0,3949,32,0,2419,418,76,20102,-4,0,56,10,246751,0
246744,-101,-2065,347,-74,34,173,14962,75,59,243,96,35711,41,32,127,0,0,3951,38,0,2419,418,76,20112,-4,0,56,10,246751,0
246754,-103,-2066,347,-77,22,162,14961,-15,-54,373,88,35719,26,32,127,0,0,3951,43,0,2419,418,76,20122,-4,0,56,10,246751,0
246764,-115,-2070,343,-80,30,147,14962,-8,-69,333,88,35723,12,32,127,0,0,3955,82,0,2419,418,76,20132,-4,0,56,10,246751,0
246774,-92,-2063,344,-81,34,122,14963,-1,0,395,128,35724,20,32,127,0,0,3952,54,0,2419,418,76,20142,-4,0,56,10,246767,0
246784,-102,-2062,340,-84,30,119,14964,-5,1,369,80,35740,4,32,127,0,0,3948,-27,0,2419,418,76,20152,-4,0,56,10,246767,0
246794,-118,-2057,338,-77,25,114,14962,1,-12,334,80,35750,-6,32,127,0,0,3955,60,0,2419,418,76,20162,-4,0,56,10,246782,0
246804,-114,-2055,340,-75,30,106,14964,1,4,399,104,35742,1,32,127,0,0,3950,5,0,2419,418,76,20172,-4,0,56,10,246782,0
246814,-100,-2058,338,-71,35,94,14963,-4,-3,366,104,35726,10,32,127,0,0,3953,32,0,2419,418,76,20182,-4,0,56,10,246829,0
246824,-96,-2061,344,-71,29,100,14967,12,1,419,96,35712,19,32,127,0,0,3950,-38,0,2419,418,76,20192,-4,0,56,10,246829,0
246834,-90,-2061,337,-73,32,88,14965,2,2,357,104,35715,9,32,127,0,0,3947,-5,0,2419,418,76,20202,-4,0,56,10,246829,0
246844,-70,-2065,336,-69,31,88,14965,0,-3,368,104,35723,-3,32,127,0,0,3947,-21,0,2419,418,76,20212,-4,0,56,10,246845,0
246854,-93,-2061,331,-64,27,76,14965,-7,3,324,104,35718,13,32,127,0,0,3947,-21,0,2419,418,76,20222,-4,0,56,10,246845,0
246864,-81,-2057,333,-62,40,83,14965,4,-1,313,56,35723,22,32,127,0,0,3952,10,0,2419,418,76,20232,-4,0,56,10,246845,0
246875,-104,-2054,346,-58,40,79,14965,8,7,289,48,35737,22,32,127,0,0,3948,0,0,2419,418,76,20243,-4,0,56,10,246860,0
246885,-99,-2051,348,-64,31,67,14964,-1,3,268,48,35758,-2,32,127,0,0,3944,-32,0,2419,418,76,20253,-4,0,56,10,246892,0
246895,-85,-2064,343,-63,48,54,14959,-8,-13,173,40,35750,9,32,127,0,0,3944,-21,0,2419,418,76,20263,-4,0,56,10,246892,0
246905,-90,-2063,347,-60,45,55,14961,1,3,157,8,35731,25,32,127,0,0,3941,-32,0,2419,418,76,20273,-4,0,56,10,246892,0
246915,-90,-2069,347,-60,38,40,14957,2,2,98,24,35715,32,32,127,0,0,3939,-32,0,2419,418,76,20283,-4,0,56,10,246892,0
246925,-91,-2061,347,-63,35,33,14954,-3,0,49,8,35719,35,32,127,0,0,3939,0,0,2419,418,76,20293,-4,0,56,10,246923,0
246935,-92,-2062,349,-63,41,42,14951,-28,-1,-64,-40,35722,23,32,127,0,0,3933,-43,0,2419,418,76,20303,-4,0,56,10,246938,0
246945,-101,-2051,351,-69,48,27,14943,-4,-18,-123,0,35714,23,32,127,0,0,3930,-32,0,2419,418,76,20313,-4,0,56,10,246938,0
246955,-71,-2058,356,-66,39,23,14938,-15,5,-255,-80,35715,21,32,127,0,0,3928,-21,0,2419,418,76,20323,-4,0,56,10,246938,0
246965,-99,-2057,345,-66,47,18,14932,-11,4,-291,-88,35717,21,32,127,0,0,3926,-32,0,2419,418,76,20333,-4,0,56,10,246954,0
246975,-82,-2059,353,-68,46,5,14921,-24,-12,-305,-88,35733,24,32,127,0,0,3922,-32,0,2419,418,76,20343,-4,0,56,10,246970,0
246985,-73,-2062,349,-71,43,-1,14886,-106,-54,-250,-64,35735,25,32,127,0,0,3917,-32,0,2419,418,76,20353,-4,0,56,10,246970,0
246995,-147,-2061,340,-68,69,-20,14840,-78,-65,-34,-72,35744,11,32,127,0,0,3913,-32,0,2419,418,76,20363,-4,0,56,10,247063,0
247005,-70,-2060,354,-65,67,-33,14819,-47,42,-58,-24,35732,14,32,127,0,0,3908,-21,0,2419,418,76,20373,-4,0,56,10,247063,0
247015,-80,-2062,353,-67,64,-28,14815,-7,70,-207,-96,35729,-2,32,127,0,0,3904,-54,0,2419,418,76,20383,-4,0,56,10,247063,0
247025,-85,-2057,354,-72,51,-36,14807,-10,22,-290,-96,35718,3,32,127,0,0,3900,-54,0,2419,418,76,20393,-4,0,56,10,247063,0
247035,-65,-2055,359,-81,49,-42,14802,-14,1,-397,-168,35716,14,32,127,0,0,3895,-65,0,2419,418,76,20403,-4,0,56,10,247079,0
247045,-66,-2064,354,-85,49,-37,14791,-39,-11,-508,-200,35717,15,32,127,0,0,3889,-54,0,2419,418,76,20413,-4,0,56,10,247079,0
247055,-61,-2057,364,-83,43,-34,14764,-73,-38,-483,-184,35720,0,32,127,0,0,3886,-21,0,2419,418,76,20423,-4,0,56,10,247079,0
247065,-72,-2061,352,-85,58,-35,14717,-101,-72,-339,-168,35719,-1,32,127,0,0,3878,-43,0,2419,418,76,20433,-4,0,56,10,247079,0
247075,-21,-2063,345,-93,59,-31,14664,-119,-46,-197,-80,35717,12,32,127,0,0,3878,-32,0,2419,418,76,20443,-4,0,56,10,247079,0
247085,-50,-2063,341,-86,50,-10,14647,-18,56,-216,-80,35718,24,32,127,0,0,3869,-87,0,2419,418,76,20453,-4,0,56,10,247079,0
247095,-2,-2057,347,-88,52,-7,14631,-57,80,-337,-136,35733,29,32,127,0,0,3864,-76,0,2419,418,76,20463,-4,0,56,10,247079,0
247105,-43,-2056,339,-77,39,5,14601,-55,-34,-280,-120,35744,29,32,127,0,0,3862,-21,0,2419,418,76,20473,-4,0,56,10,247110,0
247115,-35,-2060,338,-75,44,27,14601,-1,32,-408,-128,35757,39,32,127,0,0,3860,0,0,2419,418,76,20483,-4,0,56,10,247110,0
247125,-25,-2062,344,-76,34,46,14598,0,54,-469,-144,35747,40,32,127,0,0,3860,32,0,2419,418,76,20493,-4,0,56,10,247110,0
247136,-33,-2059,342,-72,35,65,14596,-1,-6,-517,-192,35741,17,32,127,0,0,3857,-5,0,2419,418,76,20504,-4,0,56,10,247141,0
247146,-26,-2061,342,-68,33,85,14581,-31,-20,-445,-160,35734,17,32,127,0,0,3854,10,0,2419,418,76,20514,-4,0,56,10,247141,0
247156,-22,-2068,345,-62,40,100,14550,-80,-57,-285,-120,35732,25,32,127,0,0,3855,-5,0,2419,418,76,20524,-4,0,56,10,247141,0
247166,-46,-2055,336,-61,47,110,14526,-18,-14,-212,-72,35729,39,32,127,0,0,3851,-10,0,2419,418,76,20534,-4,0,56,10,247141,0
247176,-20,-2060,343,-50,40,128,14527,7,78,-263,-72,35730,19,32,127,0,0,3851,0,0,2419,418,76,20544,-4,0,56,10,247173,0
247186,-23,-2056,336,-50,30,145,14527,10,40,-248,-72,35739,-14,32,127,0,0,3851,-10,0,2419,418,76,20554,-4,0,56,10,247173,0
247196,-32,-2056,337,-48,35,153,14527,0,0,-265,-72,35741,-13,32,127,0,0,3851,-21,0,2419,418,76,20564,-4,0,56,10,247173,0
247206,-36,-2053,347,-42,50,156,14527,1,1,-266,-96,35740,-3,32,127,0,0,3852,-5,0,2419,418,76,20574,-4,0,56,10,247204,0
247216,-53,-2056,342,-41,44,159,14526,3,-2,-256,-72,35739,-4,32,127,0,0,3851,0,0,2419,418,76,20584,-4,0,56,10,247204,0
247226,-62,-2059,349,-38,36,166,14528,2,4,-205,-72,35738,-23,32,127,0,0,3851,-49,0,2419,418,76,20594,-4,0,56,10,247220,0
247236,-49,-2063,354,-38,38,160,14527,3,0,-203,-72,35740,-28,32,127,0,0,3855,-16,0,2419,418,76,20604,-4,0,56,10,247220,0
247246,-62,-2060,353,-39,40,166,14527,2,-3,-196,-48,35722,-1,32,127,0,0,3854,0,0,2419,418,76,20614,-4,0,56,10,247251,0
247256,-56,-2062,353,-45,35,166,14527,-6,1,-205,-48,35726,13,32,127,0,0,3854,0,0,2419,418,76,20624,-4,0,56,10,247251,0
247266,-58,-2064,361,-42,26,170,14527,0,-1,-166,0,35717,-7,32,127,0,0,3855,38,0,2419,418,76,20634,-4,0,56,10,247251,0
247276,-45,-2065,360,-38,25,180,14532,-10,10,-150,-16,35717,-17,32,127,0,0,3861,98,0,2419,418,76,20644,-4,0,56,10,247266,0
247286,-60,-2057,357,-45,26,168,14538,20,8,-17,-24,35721,-22,32,127,0,0,3858,-10,0,2419,418,76,20654,-4,0,56,10,247282,0
247296,-76,-2058,360,-43,26,161,14535,1,-4,-11,0,35720,-8,32,127,0,0,3863,49,0,2419,418,76,20664,-4,0,56,10,247282,0
247306,-67,-2068,357,-48,33,152,14540,9,-2,65,-8,35720,-11,32,127,0,0,3863,21,0,2419,418,76,20674,-4,0,56,10,247298,0
247316,-70,-2060,370,-50,37,143,14539,1,1,55,16,35720,-14,32,127,0,0,3862,5,0,2419,418,76,20684,-4,0,56,10,247345,0
247326,-75,-2056,363,-57,26,131,14541,9,-3,42,-8,35731,-15,32,127,0,0,3863,0,0,2419,418,76,20694,-4,0,56,10,247345,0
247336,-111,-2065,363,-57,35,125,14542,13,11,82,16,35728,-1,32,127,0,0,3862,-16,0,2419,418,76,20704,-4,0,56,10,247360,0
247346,-82,-2055,369,-61,25,110,14542,7,3,81,16,35731,-5,32,127,0,0,3862,-16,0,2419,418,76,20714,-4,0,56,10,247376,0
247356,-89,-2061,365,-70,26,104,14540,-1,-4,110,16,35718,-5,32,127,0,0,3862,-32,0,2419,418,76,20724,-4,0,56,10,247407,0
247366,-94,-2057,363,-66,27,95,14541,4,6,74,16,35708,-4,32,127,0,0,3866,5,0,2419,418,76,20734,-4,0,56,10,247407,0
247376,-101,-2058,359,-80,23,104,14543,2,5,83,8,35705,14,32,127,0,0,3862,-16,0,2419,418,76,20744,-4,0,56,10,247407,0
247387,-59,-2068,363,-79,29,87,14540,6,-6,38,16,35712,18,32,127,0,0,3862,0,0,2419,418,76,20755,-4,0,56,10,247423,0
247397,-62,-2060,357,-76,28,83,14540,8,-4,19,-16,35721,11,32,127,0,0,3860,-32,0,2419,418,76,20765,-4,0,56,10,247423,0
247407,-70,-2062,356,-79,32,70,14540,4,2,-3,-8,35723,28,32,127,0,0,3860,10,0,2419,418,76,20775,-4,0,56,10,247423,0
247417,-58,-2055,370,-81,37,68,14539,-6,0,-8,-8,35713,26,32,127,0,0,3858,-32,0,2419,418,76,20785,-4,0,56,10,247423,0
247427,-54,-2055,363,-83,27,50,14539,6,-4,-59,-24,35709,29,32,127,0,0,3858,-21,0,2419,418,76,20795,-4,0,56,10,247423,0
247437,-71,-2054,363,-88,40,50,14538,0,0,-74,-24,35713,-10,32,127,0,0,3856,-32,0,2419,418,76,20805,-4,0,56,10,247423,0
247447,-51,-2057,360,-91,36,52,14535,-15,-2,-194,-96,35732,-20,32,127,0,0,3854,-21,0,2419,418,76,20815,-4,0,56,10,247470,0
247457,-54,-2060,371,-92,35,50,14530,1,-6,-232,-96,35741,-23,32,127,0,0,3851,-10,0,2419,418,76,20825,-4,0,56,10,247470,0
247467,-38,-2065,366,-94,35,43,14530,-8,14,-276,-112,35733,-13,32,127,0,0,3849,-32,0,2419,418,76,20835,-4,0,56,10,247470,0
247477,-47,-2057,364,-100,32,50,14522,-22,-13,-352,-120,35720,-1,32,127,0,0,3845,-10,0,2419,418,76,20845,-4,0,56,10,247470,0
247487,-51,-2056,360,-102,38,52,14510,-33,-22,-396,-136,35714,-6,32,127,0,0,3843,-21,0,2419,418,76,20855,-4,0,56,10,247470,0
247497,-45,-2061,355,-104,41,40,14474,-85,-58,-226,-56,35718,-4,32,127,0,0,3838,-43,0,2419,418,76,20865,-4,0,56,10,247485,0
247507,-45,-2056,359,-103,45,52,14464,9,11,-283,-136,35729,-23,32,127,0,0,3836,-65,0,2419,418,76,20875,-4,0,56,10,247485,0
247517,-43,-2058,358,-102,35,66,14462,-6,72,-338,-120,35732,-17,32,127,0,0,3836,-32,0,2419,418,76,20885,-4,0,56,10,247516,0
247527,-29,-2066,355,-107,26,70,14462,-2,8,-383,-104,35734,-32,32,127,0,0,3836,0,0,2419,418,76,20895,-4,0,56,10,247516,0
247537,-23,-2063,356,-106,40,77,14461,-10,5,-411,-136,35721,-23,32,127,0,0,3836,10,0,2419,418,76,20905,-4,0,56,10,247532,0
247547,-43,-2060,359,-105,34,87,14457,0,-5,-400,-120,35725,-13,32,127,0,0,3834,-10,0,2419,418,76,20915,-4,0,56,10,247548,0
247557,-24,-2061,358,-100,37,104,14454,-3,2,-391,-152,35728,-5,32,127,0,0,3832,-32,0,2419,418,76,20925,-4,0,56,10,247548,0
247567,-19,-2065,357,-104,43,117,14440,-41,-21,-370,-88,35723,-22,32,127,0,0,3829,-43,0,2419,418,76,20935,-4,0,56,10,247563,0
247577,-33,-2062,347,-104,39,122,14409,-76,-55,-169,-64,35731,-33,32,127,0,0,3832,0,0,2419,418,76,20945,-4,0,56,10,247563,0
247587,-55,-2060,337,-103,43,132,14404,8,25,-233,-48,35720,-25,32,127,0,0,3829,0,0,2419,418,76,20955,-4,0,56,10,247563,0
247597,-8,-2060,349,-97,39,139,14405,0,63,-192,-40,35726,-5,32,127,0,0,3834,32,0,2419,418,76,20965,-4,0,56,10,247594,0
247607,-33,-2058,347,-91,40,152,14409,0,8,-118,-48,35717,3,32,127,0,0,3834,10,0,2419,418,76,20975,-4,0,56,10,247594,0
247617,2,-2058,356,-92,38,152,14407,-3,-6,-119,-8,35722,12,32,127,0,0,3832,0,0,2419,418,76,20985,-4,0,56,10,247610,0
247628,-35,-2065,361,-93,47,141,14409,14,0,-105,0,35716,14,32,127,0,0,3833,0,0,2419,418,76,20996,-4,0,56,10,247610,0
247638,-27,-2057,361,-89,40,151,14406,-14,-7,-156,-16,35719,20,32,127,0,0,3834,49,0,2419,418,76,21006,-4,0,56,10,247641,0
247648,-44,-2057,355,-93,41,161,14411,4,4,-81,-24,35720,13,32,127,0,0,3834,0,0,2419,418,76,21016,-4,0,56,10,247641,0
247658,-61,-2055,345,-89,37,165,14410,16,2,-53,-24,35719,7,32,127,0,0,3834,0,0,2419,418,76,21026,-4,0,56,10,247641,0
247668,-46,-2059,346,-88,40,156,14408,-6,-5,-76,-16,35720,-2,32,127,0,0,3837,32,0,2419,418,76,21036,-4,0,56,10,247657,0
247678,-47,-2060,354,-89,34,162,14410,-2,0,-3,0,35721,5,32,127,0,0,3836,0,0,2419,418,76,21046,-4,0,56,10,247657,0
247688,-49,-2056,357,-90,34,167,14410,-2,3,22,-8,35717,1,32,127,0,0,3836,-5,0,2419,418,76,21056,-4,0,56,10,247688,0
247698,-50,-2058,357,-91,35,157,14411,-3,-4,-26,-8,35732,-3,32,127,0,0,3836,5,0,2419,418,76,21066,-4,0,56,10,247688,0
247708,-67,-2065,358,-91,39,162,14412,7,-2,15,16,35725,-2,32,127,0,0,3838,32,0,2419,418,76,21076,-4,0,56,10,247688,0
247718,-49,-2059,355,-90,30,156,14413,2,1,91,40,35727,10,32,127,0,0,3837,0,0,2419,418,76,21086,-4,0,56,10,247798,0
247728,-33,-2058,353,-90,35,163,14415,0,-1,99,16,35717,19,32,127,0,0,3845,43,0,2419,418,76,21096,-4,0,56,10,247798,0
247738,-53,-2058,345,-88,34,159,14416,4,1,130,32,35710,13,32,127,0,0,3844,49,0,2419,418,76,21106,-4,0,56,10,247798,0
247748,-68,-2056,350,-92,30,159,14420,23,10,182,56,35707,8,32,127,0,0,3843,16,0,2419,418,76,21116,-4,0,56,10,247813,0
247758,-69,-2063,355,-88,35,153,14420,0,5,242,72,35714,5,32,127,0,0,3845,5,0,2419,418,76,21126,-4,0,56,10,247813,0
247768,-66,-2056,357,-88,31,148,14421,0,-4,255,40,35710,7,32,127,0,0,3846,-5,0,2419,418,76,21136,-4,0,56,10,247813,0
247778,-73,-2052,351,-86,32,141,14423,4,3,250,64,35709,-2,32,127,0,0,3841,-16,0,2419,418,76,21146,-4,0,56,10,247813,0
247788,-54,-2058,354,-93,31,130,14422,1,-1,256,64,35710,-14,32,127,0,0,3845,-10,0,2419,418,76,21156,-4,0,56,10,247813,0
247798,-77,-2056,352,-91,39,131,14424,-4,8,269,64,35711,-9,32,127,0,0,3845,-27,0,2419,418,76,21166,-4,0,56,10,247813,0
247808,-68,-2052,348,-88,31,120,14423,7,-4,243,64,35717,12,32,127,0,0,3845,0,0,2419,418,76,21176,-4,0,56,10,247813,0
247818,-71,-2062,353,-88,36,119,14424,6,4,297,64,35721,20,32,127,0,0,3848,21,0,2419,418,76,21186,-4,0,56,10,247813,0
247828,-52,-2071,353,-87,26,116,14427,-1,7,257,48,35723,-3,32,127,0,0,3848,16,0,2419,418,76,21196,-4,0,56,10,247813,0
247838,-46,-2057,358,-84,30,122,14428,6,2,266,80,35726,-10,32,127,0,0,3847,-5,0,2419,418,76,21206,-4,0,56,10,247813,0
247848,-43,-2055,357,-91,33,122,14430,15,-1,333,96,35740,-7,32,127,0,0,3843,-32,0,2419,418,76,21216,-4,0,56,10,247844,0
247858,-66,-2067,351,-92,32,113,14432,-7,4,248,48,35742,-3,32,127,0,0,3845,-38,0,2419,418,76,21226,-4,0,56,10,247844,0
247868,-34,-2060,344,-82,36,116,14432,9,-8,251,48,35737,-17,32,127,0,0,3848,0,0,2419,418,76,21236,-4,0,56,10,247844,0
247879,-36,-2052,353,-87,31,117,14430,-3,-2,242,120,35730,-30,32,127,0,0,3845,0,0,2419,418,76,21247,-4,0,56,10,247876,0
247889,-63,-2069,352,-84,37,123,14431,-3,1,207,48,35733,-39,32,127,0,0,3845,0,0,2419,418,76,21257,-4,0,56,10,247891,0
247899,-51,-2061,353,-81,33,129,14432,0,0,213,48,35730,-13,32,127,0,0,3845,0,0,2419,418,76,21267,-4,0,56,10,247891,0
247909,-66,-2050,351,-79,41,132,14434,18,8,285,16,35727,-11,32,127,0,0,3845,-65,0,2419,418,76,21277,-4,0,56,10,247891,0
247919,-76,-2058,353,-86,40,125,14435,10,6,266,56,35723,-13,32,127,0,0,3849,21,0,2419,418,76,21287,-4,0,56,10,247923,0
247929,-31,-2055,358,-81,39,124,14440,9,8,249,88,35733,-17,32,127,0,0,3845,-21,0,2419,418,76,21297,-4,0,56,10,247923,0
247939,-28,-2059,356,-83,33,118,14444,16,7,210,32,35732,-11,32,127,0,0,3845,-43,0,2419,418,76,21307,-4,0,56,10,247923,0
247949,-40,-2061,359,-84,38,122,14447,-6,-3,76,48,35729,-14,32,127,0,0,3847,43,0,2419,418,76,21317,-4,0,56,10,247985,0
247959,-24,-2066,353,-79,37,121,14453,5,2,110,-16,35735,-19,32,127,0,0,3845,-10,0,2419,418,76,21327,-4,0,56,10,247985,0
247969,-75,-2055,357,-84,32,119,14451,0,-11,66,-8,35728,-25,31,127,0,0,3845,0,0,2419,418,76,21337,-4,0,56,10,248001,0
247979,-61,-2051,354,-82,34,117,14456,13,2,141,8,35730,-14,32,127,0,0,3845,-32,0,2419,418,76,21347,-4,0,56,10,248016,0
247989,-58,-2064,357,-85,32,110,14464,8,14,47,40,35720,-22,32,127,0,0,3845,-43,0,2419,418,76,21357,-4,0,56,10,248032,0
247999,-43,-2058,360,-85,29,104,14460,-4,-22,34,48,35715,-39,32,127,0,0,3849,43,0,2419,418,76,21367,-4,0,56,10,248032,0
248009,-75,-2065,359,-87,32,110,14466,6,-4,56,0,35714,-37,32,127,0,0,3847,-21,0,2419,418,76,21377,-4,0,56,10,248032,0
248019,-78,-2058,351,-85,28,118,14463,3,-3,16,8,35722,-29,32,127,0,0,3847,32,0,2419,418,76,21387,-4,0,56,10,248032,0
248029,-36,-2065,353,-87,30,101,14462,-17,-4,-14,-24,35737,-15,32,127,0,0,3845,-10,0,2419,418,76,21397,-4,0,56,10,248032,0
248039,-52,-2065,345,-89,34,102,14463,6,-8,-44,-16,35746,-28,32,127,0,0,3845,0,0,2419,418,76,21407,-4,0,56,10,248032,0
248049,-69,-2064,355,-85,37,111,14462,0,4,-23,-16,35746,-36,32,127,0,0,3845,-21,0,2419,418,76,21417,-4,0,56,10,248032,0
248059,-59,-2058,347,-82,33,112,14463,1,-3,-39,-16,35744,-35,32,127,0,0,3845,0,0,2419,418,76,21427,-4,0,56,10,248047,0
248069,-59,-2056,346,-78,37,113,14466,15,1,18,-32,35741,0,32,127,0,0,3845,-54,0,2419,418,76,21437,-4,0,56,10,248063,0
248079,-71,-2059,349,-76,32,109,14463,2,-1,-30,-48,35738,-6,32,127,0,0,3845,-21,0,2419,418,76,21447,-4,0,56,10,248063,0
248089,-30,-2061,356,-79,37,115,14463,6,1,-44,-16,35730,-15,32,127,0,0,3845,0,0,2419,418,76,21457,-4,0,56,10,248079,0
248099,-48,-2061,358,-80,33,116,14462,4,7,-65,-48,35726,-31,32,127,0,0,3847,21,0,2419,418,76,21467,-4,0,56,10,248157,0
248109,-15,-2054,355,-74,37,115,14462,-7,1,-44,-16,35739,-28,32,127,0,0,3845,21,0,2419,418,76,21477,-4,0,56,10,248157,0
248119,-36,-2057,350,-79,30,118,14461,-2,-5,-41,-16,35734,-8,32,127,0,0,3845,10,0,2419,418,76,21487,-4,0,56,10,248172,0
248129,-41,-2061,343,-78,35,112,14463,-1,-1,-1,8,35735,-26,32,127,0,0,3845,-10,0,2419,418,76,21497,-4,0,56,10,248172,0
248139,-56,-2071,345,-75,31,106,14463,2,-2,14,-40,35718,-36,32,127,0,0,3845,-21,0,2419,418,76,21507,-4,0,56,10,248172,0
248149,-95,-2057,358,-71,28,130,14463,3,-1,2,-16,35717,-30,32,127,0,0,3847,-21,0,2419,418,76,21517,-4,0,56,10,248172,0
248159,-74,-2057,356,-71,38,121,14462,1,0,-19,-16,35718,-16,32,127,0,0,3845,0,0,2419,418,76,21527,-4,0,56,10,248172,0
248169,-50,-2062,359,-72,29,108,14463,3,2,-43,-16,35717,-29,32,127,0,0,3843,-21,0,2419,418,76,21537,-4,0,56,10,248172,0
248179,-41,-2057,359,-75,34,110,14461,0,3,-67,-16,35716,-20,32,127,0,0,3845,0,0,2419,418,76,21547,-4,0,56,10,248172,0
248190,-56,-2069,359,-77,38,112,14462,-2,1,-43,-16,35714,10,32,127,0,0,3835,-98,0,2419,418,76,21558,-4,0,56,10,248188,0
248200,-36,-2064,363,-74,35,104,14459,-4,-5,-114,-32,35721,-5,32,127,0,0,3846,-5,0,2419,418,76,21568,-4,0,56,10,248188,0
248210,-59,-2057,359,-78,33,113,14461,5,3,-47,-16,35740,-31,32,127,0,0,3845,0,0,2419,418,76,21578,-4,0,56,10,248219,0
248220,-59,-2060,352,-75,32,108,14460,-2,4,-77,-8,35740,-38,32,127,0,0,3841,10,0,2419,418,76,21588,-4,0,56,10,248219,0
248230,-47,-2057,354,-75,26,108,14458,-17,-10,-137,-32,35739,-37,32,127,0,0,3843,16,0,2419,418,76,21598,-4,0,56,10,248219,0
248240,-51,-2051,357,-79,38,104,14460,13,2,-112,-56,35717,-17,32,127,0,0,3840,-54,0,2419,418,76,21608,-4,0,56,10,248219,0
248250,-42,-2063,353,-76,34,104,14453,-16,-6,-132,-40,35730,-25,32,127,0,0,3844,38,0,2419,418,76,21618,-4,0,56,10,248235,0
248260,-40,-2054,355,-79,34,102,14457,7,2,-122,-24,35726,-33,32,127,0,0,3839,-27,0,2419,418,76,21628,-4,0,56,10,248266,0
248270,-59,-2058,356,-75,33,109,14455,6,14,-118,-48,35724,-36,32,127,0,0,3844,-10,0,2419,418,76,21638,-4,0,56,10,248266,0
248280,-66,-2061,360,-78,25,121,14454,-8,-3,-137,-48,35713,-38,31,127,0,0,3837,0,0,2419,418,76,21648,-4,0,56,10,248266,0
248290,-78,-2067,354,-75,34,113,14454,5,4,-125,-48,35734,-41,31,127,0,0,3840,-43,0,2419,418,76,21658,-4,0,56,10,248266,0
248300,-54,-2064,361,-79,30,109,14455,0,8,-108,-48,35741,-43,32,127,0,0,3840,-32,0,2419,418,76,21668,-4,0,56,10,248329,0
248310,-60,-2058,363,-74,37,119,14453,0,-5,-176,-40,35739,-31,32,127,0,0,3844,10,0,2419,418,76,21678,-4,0,56,10,248329,0
248320,-92,-2059,366,-73,26,126,14453,-7,-1,-208,-64,35725,-24,32,127,0,0,3838,-5,0,2419,418,76,21688,-4,0,56,10,248344,0
248330,-47,-2065,362,-78,36,105,14449,-2,-8,-133,-56,35716,-23,32,127,0,0,3835,-60,0,2419,418,76,21698,-4,0,56,10,248344,0
248340,-20,-2062,353,-75,36,103,14445,-16,-8,-218,-24,35717,-1,32,127,0,0,3837,-5,0,2419,418,76,21708,-4,0,56,10,248344,0
248350,-49,-2065,358,-81,34,109,14441,-7,-3,-178,-40,35715,-9,32,127,0,0,3838,0,0,2419,418,76,21718,-4,0,56,10,248344,0
248360,-53,-2064,352,-79,35,106,14439,-7,6,-202,-40,35711,17,32,127,0,0,3838,21,0,2419,418,76,21728,-4,0,56,10,248360,0
248371,-55,-2056,352,-77,35,103,14432,-11,-7,-140,-48,35718,8,32,127,0,0,3836,-21,0,2419,418,76,21739,-4,0,56,10,248360,0
248381,-58,-2053,355,-83,40,101,14420,-34,-14,-81,-24,35731,-10,32,127,0,0,3836,0,0,2419,418,76,21749,-4,0,56,10,248376,0
248391,-41,-2053,351,-82,44,101,14421,6,5,-54,-24,35747,-26,32,127,0,0,3836,0,0,2419,418,76,21759,-4,0,56,10,248376,0
248401,-53,-2056,358,-83,33,102,14419,1,17,-43,-24,35753,-34,32,127,0,0,3834,-21,0,2419,418,76,21769,-4,0,56,10,248422,0
248411,-26,-2063,363,-79,33,108,14416,-21,-12,-129,0,35732,-34,32,127,0,0,3834,10,0,2419,418,76,21779,-4,0,56,10,248422,0
248421,-41,-2062,357,-79,29,113,14415,-1,-3,-143,-40,35723,-19,32,127,0,0,3834,-21,0,2419,418,76,21789,-4,0,56,10,248422,0
248431,-47,-2050,361,-78,38,108,14414,3,7,-118,-32,35709,-18,32,127,0,0,3834,0,0,2419,418,76,21799,-4,0,56,10,248438,0
248441,-44,-2059,360,-84,36,114,14414,-2,3,-119,-32,35715,14,32,127,0,0,3834,0,0,2419,418,76,21809,-4,0,56,10,248438,0
248451,-27,-2057,360,-83,36,121,14413,-2,0,-144,-24,35729,9,32,127,0,0,3834,10,0,2419,418,76,21819,-4,0,56,10,248438,0
248461,-24,-2056,356,-78,31,126,14415,2,6,-123,-40,35747,3,32,127,0,0,3834,0,0,2419,418,76,21829,-4,0,56,10,248532,0
248471,-50,-2064,349,-78,31,135,14414,-1,-3,-111,-32,35741,4,32,127,0,0,3834,0,0,2419,418,76,21839,-4,0,56,10,248532,0
248481,-45,-2061,350,-79,42,134,14413,1,-10,-102,-32,35736,21,32,127,0,0,3834,0,0,2419,418,76,21849,-4,0,56,10,248532,0
248491,-45,-2069,347,-71,40,135,14412,-7,-6,-132,-32,35720,35,32,127,0,0,3834,21,0,2419,418,76,21859,-4,0,56,10,248532,0
248501,-43,-2063,353,-69,37,133,14412,-11,0,-128,0,35715,18,31,127,0,0,3834,21,0,2419,418,76,21869,-4,0,56,10,248532,0
248511,-37,-2066,357,-70,37,126,14414,-4,4,-109,-32,35714,16,31,127,0,0,3834,0,0,2419,418,76,21879,-4,0,56,10,248547,0
248521,-45,-2057,358,-70,41,134,14414,7,-2,-109,-32,35707,9,32,127,0,0,3834,0,0,2419,418,76,21889,-4,0,56,10,248547,0
248531,-47,-2063,357,-68,39,134,14414,4,6,-103,-32,35706,6,32,127,0,0,3834,-21,0,2419,418,76,21899,-4,0,56,10,248547,0
248541,-50,-2049,364,-68,36,132,14412,7,-4,-116,-40,35708,-13,32,127,0,0,3834,0,0,2419,418,76,21909,-4,0,56,10,248547,0
248551,-51,-2056,358,-68,36,132,14412,3,1,-108,-32,35712,-10,32,127,0,0,3836,21,0,2419,418,76,21919,-4,0,56,10,248547,0
248561,-40,-2059,356,-73,32,135,14413,-5,0,-95,-32,35717,10,31,127,0,0,3836,21,0,2419,418,76,21929,-4,0,56,10,248547,0
248571,-51,-2048,365,-65,42,134,14412,-3,-5,-105,-32,35729,24,32,127,0,0,3836,21,0,2419,418,76,21939,-4,0,56,10,248563,0
248581,-38,-2055,362,-70,36,135,14413,0,-1,-74,-32,35728,21,32,127,0,0,3836,0,0,2419,418,76,21949,-4,0,56,10,248563,0
248591,-61,-2064,356,-68,31,132,14415,10,1,-32,-8,35728,18,31,127,0,0,3834,-32,0,2419,418,76,21959,-4,0,56,10,248579,0
248601,-83,-2058,363,-67,32,135,14412,1,-7,-80,0,35720,10,32,127,0,0,3834,-10,0,2419,418,76,21969,-4,0,56,10,248610,0
248611,-30,-2056,364,-68,38,134,14412,-12,4,-118,-32,35717,9,32,127,0,0,3834,10,0,2419,418,76,21979,-4,0,56,10,248610,0
248621,-52,-2057,361,-70,32,130,14414,-8,7,-97,0,35716,13,32,127,0,0,3834,-10,0,2419,418,76,21989,-4,0,56,10,248610,0
248632,-44,-2059,360,-70,34,126,14413,-3,-2,-102,-32,35713,9,32,127,0,0,3834,-27,0,2419,418,76,22000,-4,0,56,10,248610,0
248642,-48,-2052,361,-70,33,126,14413,-3,-2,-118,-32,35716,20,32,127,0,0,3834,0,0,2419,418,76,22010,-4,0,56,10,248657,0
248652,-56,-2064,365,-76,34,118,14414,3,0,-69,-8,35718,24,32,127,0,0,3833,-27,0,2419,418,76,22020,-4,0,56,10,248657,0
248662,-47,-2059,360,-75,27,113,14412,-5,-3,-105,-8,35722,25,32,127,0,0,3836,38,0,2419,418,76,22030,-4,0,56,10,248672,0
248672,-45,-2048,365,-79,27,125,14412,-17,-3,-93,-32,35720,13,32,127,0,0,3834,5,0,2419,418,76,22040,-4,0,56,10,248672,0
248682,-54,-2063,350,-81,29,117,14414,2,-1,-64,-16,35717,10,32,127,0,0,3836,16,0,2419,418,76,22050,-4,0,56,10,248672,0
248692,-59,-2054,357,-77,23,121,14412,-14,-4,-84,-32,35723,6,32,127,0,0,3837,38,0,2419,418,76,22060,-4,0,56,10,248672,0
248702,-56,-2059,363,-73,23,122,14414,1,-2,-53,-16,35732,2,32,127,0,0,3833,-16,0,2419,418,76,22070,-4,0,56,10,248688,0
248712,-34,-2058,362,-74,37,117,14415,3,6,-65,-8,35735,-12,32,127,0,0,3833,-16,0,2419,418,76,22080,-4,0,56,10,248688,0
248722,-80,-2060,355,-73,31,119,14412,-5,-6,-98,-32,35735,-25,32,127,0,0,3834,-27,0,2419,418,76,22090,-4,0,56,10,248735,0
248732,-40,-2056,362,-72,32,122,14414,5,7,-60,-8,35722,-12,32,127,0,0,3833,-16,0,2419,418,76,22100,-4,0,56,10,248735,0
248742,-66,-2064,364,-71,26,115,14412,-7,-3,-106,-32,35717,3,32,127,0,0,3837,16,0,2419,418,76,22110,-4,0,56,10,248750,0
248752,-62,-2058,357,-78,29,123,14413,-9,-6,-99,-32,35716,6,32,127,0,0,3834,-16,0,2419,418,76,22120,-4,0,56,10,248750,0
248762,-38,-2062,356,-68,32,123,14416,18,7,-73,-32,35716,0,32,127,0,0,3834,-43,0,2419,418,76,22130,-4,0,56,10,248750,0
248772,-51,-2060,357,-71,30,125,14413,7,1,-107,-32,35721,-17,32,127,0,0,3834,0,0,2419,418,76,22140,-4,0,56,10,248782,0
248782,-51,-2061,359,-68,26,126,14412,-8,-2,-73,-32,35724,-17,32,127,0,0,3837,27,0,2419,418,76,22150,-4,0,56,10,248782,0
248792,-53,-2062,360,-69,35,129,14413,-3,2,-66,-8,35730,-11,32,127,0,0,3833,10,0,2419,418,76,22160,-4,0,56,10,248782,0
248802,-57,-2060,362,-67,38,129,14413,-7,-2,-74,-32,35725,-12,32,127,0,0,3837,0,0,2419,418,76,22170,-4,0,56,10,248782,0
248812,-54,-2060,363,-65,41,136,14413,-5,-2,-45,-32,35722,13,32,127,0,0,3837,10,0,2419,418,76,22180,-4,0,56,10,248813,0
248822,-32,-2057,364,-66,38,131,14414,4,0,-43,-32,35723,16,32,127,0,0,3834,-10,0,2419,418,76,22190,-4,0,56,10,248813,0
248832,-55,-2050,363,-67,33,130,14412,-3,-6,-63,-8,35721,16,32,127,0,0,3833,0,0,2419,418,76,22200,-4,0,56,10,248813,0
248842,-58,-2062,360,-66,42,131,14411,-14,-10,-106,-32,35731,-5,32,127,0,0,3834,0,0,2419,418,76,22210,-4,0,56,10,248891,0
248852,-44,-2062,362,-63,42,132,14415,5,7,-59,-8,35738,-3,32,127,0,0,3833,-16,0,2419,418,76,22220,-4,0,56,10,248891,0
248862,-72,-2058,363,-62,44,137,14412,0,-1,-66,-32,35736,-7,32,127,0,0,3834,-32,0,2419,418,76,22230,-4,0,56,10,248907,0
248872,-55,-2067,366,-69,28,131,14413,3,-4,-106,-56,35728,7,32,127,0,0,3835,-5,0,2419,418,76,22240,-4,0,56,10,248907,0
248882,-66,-2055,363,-68,36,137,14413,13,3,-101,-32,35719,-1,32,127,0,0,3834,0,0,2419,418,76,22250,-4,0,56,10,248907,0
248892,-52,-2064,365,-69,39,133,14414,7,6,-52,-32,35721,-3,32,127,0,0,3837,10,0,2419,418,76,22260,-4,0,56,10,248907,0
248902,-71,-2057,367,-69,35,138,14414,0,3,-17,-8,35715,13,32,127,0,0,3836,0,0,2419,418,76,22270,-4,0,56,10,248907,0
248912,-53,-2056,370,-70,36,133,14412,-7,-2,-51,-32,35710,13,32,127,0,0,3834,-21,0,2419,418,76,22280,-4,0,56,10,248907,0
248923,-72,-2060,364,-74,31,134,14416,16,4,-14,-16,35719,4,32,127,0,0,3836,-21,0,2419,418,76,22291,-4,0,56,10,248922,0
248933,-58,-2051,362,-76,40,129,14414,0,2,-24,-8,35736,-20,32,127,0,0,3836,0,0,2419,418,76,22301,-4,0,56,10,248922,0
248943,-50,-2064,365,-74,37,124,14413,-5,-11,-49,0,35751,-9,32,127,0,0,3836,10,0,2419,418,76,22311,-4,0,56,10,248954,0
248953,-36,-2051,372,-78,31,124,14415,1,5,-31,-16,35749,-8,32,127,0,0,3836,0,0,2419,418,76,22321,-4,0,56,10,248954,0
248963,-55,-2058,364,-74,31,129,14415,6,4,-29,-16,35737,5,32,127,0,0,3836,0,0,2419,418,76,22331,-4,0,56,10,248954,0
248973,-57,-2055,366,-78,37,134,14415,7,0,-14,-16,35726,7,32,127,0,0,3836,-21,0,2419,418,76,22341,-4,0,56,10,248954,0
248983,-51,-2057,366,-71,32,126,14416,10,3,-7,-24,35729,22,32,127,0,0,3836,-10,0,2419,418,76,22351,-4,0,56,10,248985,0
248993,-57,-2059,364,-75,28,126,14414,0,-3,-18,-16,35728,11,32,127,0,0,3836,0,0,2419,418,76,22361,-4,0,56,10,248985,0
249003,-53,-2059,371,-74,27,124,14414,0,0,-14,24,35726,14,32,127,0,0,3836,-10,0,2419,418,76,22371,-4,0,56,10,248985,0
249013,-77,-2061,370,-79,38,131,14414,0,0,-27,-8,35725,-3,32,127,0,0,3836,0,0,2419,418,76,22381,-4,0,56,10,249000,0
249023,-58,-2065,363,-72,39,124,14414,-6,-1,-26,-16,35736,-11,32,127,0,0,3836,10,0,2419,418,76,22391,-4,0,56,10,249032,0
249033,-46,-2055,366,-77,30,124,14415,2,2,-16,-24,35739,-5,32,127,0,0,3836,0,0,2419,418,76,22401,-4,0,56,10,249032,0
249043,-51,-2059,363,-77,38,129,14415,0,2,6,24,35742,2,32,127,0,0,3838,0,0,2419,418,76,22411,-4,0,56,10,249032,0
249053,-48,-2056,369,-75,32,134,14415,0,1,9,-16,35727,15,32,127,0,0,3838,0,0,2419,418,76,22421,-4,0,56,10,249047,0
249063,-61,-2047,373,-76,35,131,14416,3,2,39,8,35725,8,32,127,0,0,3838,0,0,2419,418,76,22431,-4,0,56,10,249047,0
249073,-57,-2051,369,-79,37,126,14415,-4,-1,50,8,35729,16,32,127,0,0,3836,-21,0,2419,418,76,22441,-4,0,56,10,249063,0
249083,-50,-2058,365,-79,35,122,14415,4,-4,10,8,35734,11,32,127,0,0,3836,0,0,2419,418,76,22451,-4,0,56,10,249078,0
249093,-85,-2058,366,-75,31,113,14415,-6,2,10,8,35734,13,32,127,0,0,3838,21,0,2419,418,76,22461,-4,0,56,10,249094,0
249103,-49,-2053,361,-76,30,114,14415,-12,-1,34,-24,35729,0,32,127,0,0,3838,0,0,2419,418,76,22471,-4,0,56,10,249094,0
249113,-50,-2048,364,-73,27,116,14419,26,6,93,-8,35717,8,32,127,0,0,3838,-21,0,2419,418,76,22481,-4,0,56,10,249094,0
249124,-64,-2057,369,-72,25,116,14417,5,0,57,8,35734,29,32,127,0,0,3838,-27,0,2419,418,76,22492,-4,0,56,10,249125,0
249134,-49,-2072,366,-80,29,107,14419,7,-2,61,-24,35734,28,32,127,0,0,3839,-21,0,2419,418,76,22502,-4,0,56,10,249125,0
249144,-78,-2056,368,-76,31,107,14417,12,4,16,8,35734,15,32,127,0,0,3838,5,0,2419,418,76,22512,-4,0,56,10,249157,0
249154,-18,-2063,364,-80,25,98,14419,8,11,36,-24,35729,6,32,127,0,0,3836,-76,0,2419,418,76,22522,-4,0,56,10,249157,0
249164,89,-2271,364,-82,6,61,14416,10,3,-14,8,35721,25,32,127,0,0,3838,10,0,2419,418,76,22532,-4,0,56,10,249157,0
249174,745,-2153,112,-245,79,-530,14415,-10,-2,-12,-64,35723,23,32,127,0,0,3828,-126,0,2419,418,76,22542,-4,0,56,10,249157,0
249184,-386,-2075,335,-204,46,-445,14392,-82,-53,-448,-272,35733,3,32,127,0,0,3804,-208,0,2419,418,76,22552,-4,0,56,10,249188,0
249194,-73,-2050,465,-108,-45,2,14325,-183,-143,-451,-256,35743,-4,32,127,0,0,3796,-5,0,2419,418,76,22562,-4,0,56,10,249188,0
249204,123,-2223,299,-153,-8,-71,14256,-141,-81,-243,-120,35742,3,32,127,0,0,3796,-16,0,2419,418,76,22572,-4,0,56,10,249188,0
249214,350,-2097,139,-230,85,-666,14214,-93,62,-233,-152,35736,3,32,127,0,0,3779,-181,0,2419,418,76,22582,-4,0,56,10,249203,0
249224,129,-2036,208,-251,108,-777,14169,-102,33,-569,-368,35722,1,32,127,0,0,3750,-258,0,2419,418,76,22592,-4,0,56,10,249203,0
249234,13,-2039,466,-224,7,-513,14075,-229,-107,-514,-440,35724,4,32,127,0,0,3723,-263,0,2419,418,76,22602,-4,0,56,10,249219,0
249244,203,-2100,367,-235,6,-541,13949,-258,-155,-358,-376,35724,18,32,127,0,0,3712,-175,0,2419,418,76,22612,-4,0,56,10,249250,0
249254,233,-2066,165,-288,61,-818,13834,-258,-23,-336,-376,35720,37,32,127,0,0,3680,-351,0,2419,418,76,22622,-4,0,56,10,249266,0
249264,227,-2027,195,-300,101,-936,13713,-274,4,-366,-440,35726,36,32,127,0,0,3658,-318,0,2419,418,76,22632,-4,0,56,10,249282,0
249274,213,-2073,365,-271,99,-784,13582,-305,-33,-427,-488,35718,8,32,127,0,0,3626,-247,0,2419,418,76,22642,-4,0,56,10,249313,0
249284,402,-2082,360,-222,62,-601,13448,-289,-23,-384,-456,35717,3,32,127,0,0,3611,-175,0,2419,418,76,22652,-4,0,56,10,249313,0
249294,575,-2081,242,-222,-24,-452,13316,-282,7,-307,-304,35723,3,32,127,0,0,3596,-120,0,2419,418,76,22662,-4,0,56,10,249313,0
249304,567,-2033,171,-221,-7,-440,13202,-230,45,-236,-216,35728,30,32,127,0,0,3587,-142,0,2419,418,76,22672,-4,0,56,10,249313,0
249314,460,-2070,121,-171,56,-323,13128,-148,114,-317,-184,35731,30,32,127,0,0,3572,-142,0,2419,418,76,22682,-4,0,56,10,249313,0
249324,415,-2124,135,-102,46,-214,13065,-124,87,-311,-152,35730,31,32,127,0,0,3570,-5,0,2419,418,76,22692,-4,0,56,10,249313,0
249334,429,-2102,219,-22,29,-68,13012,-110,34,-185,-88,35731,6,32,127,0,0,3566,-10,0,2419,418,76,22702,-4,0,56,10,249328,0
249344,414,-2104,286,-21,18,-5,12998,-17,98,-232,-80,35732,17,32,127,0,0,3563,-32,0,2419,418,76,22712,-4,0,56,10,249328,0
249354,351,-2082,339,-29,18,58,12992,-17,81,-236,-48,35747,4,32,127,0,0,3562,21,0,2419,418,76,22722,-4,0,56,10,249375,0
249364,262,-2079,341,-39,10,92,12979,-33,0,-205,-64,35744,4,32,127,0,0,3565,65,0,2419,418,76,22732,-4,0,56,10,249375,0
249374,113,-2083,339,-18,-7,78,12976,7,7,-126,-16,35736,1,32,127,0,0,3562,16,0,2419,418,76,22742,-4,0,56,10,249375,0
249384,45,-2053,382,-33,-18,37,12975,-16,18,-135,-32,35719,8,32,127,0,0,3567,32,0,2419,418,76,22752,-4,0,56,10,249375,0
249395,24,-2102,423,-84,-33,-54,12977,-1,0,-130,-40,35716,8,32,127,0,0,3561,-43,0,2419,418,76,22763,-4,0,56,10,249375,0
249405,28,-2029,476,-135,-30,-207,12976,4,2,-203,-56,35736,-3,32,127,0,0,3559,-43,0,2419,418,76,22773,-4,0,56,10,249407,0
249415,-35,-2027,446,-188,-39,-262,12969,-17,-10,-303,-192,35736,-9,32,127,0,0,3548,-120,0,2419,418,76,22783,-4,0,56,10,249407,0
249425,-46,-2050,345,-227,-30,-398,12950,-37,-34,-458,-200,35731,2,32,127,0,0,3539,-109,0,2419,418,76,22793,-4,0,56,10,249422,0
249435,-60,-2073,298,-236,-25,-468,12908,-127,-65,-486,-264,35719,-5,32,127,0,0,3528,-109,0,2419,418,76,22803,-4,0,56,10,249422,0
249445,-50,-2061,295,-230,-3,-608,12834,-176,-114,-372,-240,35724,-16,32,127,0,0,3509,-175,0,2419,418,76,22813,-4,0,56,10,249438,0
249455,6,-2069,309,-243,15,-687,12763,-154,-48,-497,-344,35729,-26,32,127,0,0,3491,-175,0,2419,418,76,22823,-4,0,56,10,249438,0
249465,194,-2058,326,-259,39,-729,12681,-204,-12,-430,-376,35728,-8,32,127,0,0,3467,-186,0,2419,418,76,22833,-4,0,56,10,249453,0
249475,174,-2083,304,-252,24,-705,12580,-226,-67,-434,-400,35724,-9,32,127,0,0,3445,-208,0,2419,418,76,22843,-4,0,56,10,249469,0
249485,186,-2163,350,-230,-2,-630,12469,-237,-47,-356,-376,35712,18,32,127,0,0,3429,-186,0,2419,418,76,22853,-4,0,56,10,249485,0
249495,250,-2057,355,-210,-20,-571,12369,-217,8,-385,-296,35714,19,32,127,0,0,3412,-164,0,2419,418,76,22863,-4,0,56,10,249485,0
249505,253,-2107,336,-219,-9,-496,12282,-198,47,-386,-280,35706,40,32,127,0,0,3399,-142,0,2419,418,76,22873,-4,0,56,10,249485,0
249515,196,-2138,316,-224,33,-426,12198,-166,26,-324,-224,35713,54,32,127,0,0,3390,-120,0,2419,418,76,22883,-4,0,56,10,249516,0
249525,242,-2055,276,-202,93,-315,12141,-137,60,-370,-184,35711,29,32,127,0,0,3390,21,0,2419,418,76,22893,-4,0,56,10,249516,0
249535,282,-1988,255,-184,20,-325,12096,-88,54,-203,-96,35713,8,32,127,0,0,3388,0,0,2419,418,76,22903,-4,0,56,10,249516,0
249545,308,-2064,227,-161,2,-292,12088,17,102,-254,-48,35711,-22,32,127,0,0,3381,-21,0,2419,418,76,22913,-4,0,56,10,249532,0
249555,326,-2098,260,-155,0,-229,12084,-8,79,-384,-104,35718,-14,32,127,0,0,3381,0,0,2419,418,76,22923,-4,0,56,10,249532,0
249565,231,-2055,321,-143,-10,-169,12085,-3,4,-372,-56,35716,3,32,127,0,0,3381,-10,0,2419,418,76,22933,-4,0,56,10,249625,0
249575,199,-2047,309,-141,-3,-175,12088,10,14,-346,-120,35709,5,32,127,0,0,3381,-32,0,2419,418,76,22943,-4,0,56,10,249625,0
249585,141,-2052,302,-133,23,-160,12086,7,-1,-361,-104,35706,16,32,127,0,0,3383,0,0,2419,418,76,22953,-4,0,56,10,249625,0
249595,136,-2048,307,-132,26,-167,12086,8,2,-316,-80,35706,21,32,127,0,0,3381,-10,0,2419,418,76,22963,-4,0,56,10,249641,0
249605,155,-2048,337,-135,19,-190,12085,7,-1,-339,-112,35713,18,32,127,0,0,3383,0,0,2419,418,76,22973,-4,0,56,10,249641,0
249615,167,-2079,336,-146,18,-200,12085,-1,-1,-306,-80,35714,13,32,127,0,0,3383,0,0,2419,418,76,22983,-4,0,56,10,249641,0
249625,158,-2073,324,-149,35,-223,12087,9,3,-277,-56,35711,17,32,127,0,0,3385,21,0,2419,418,76,22993,-4,0,56,10,249641,0
249635,194,-2096,318,-149,42,-234,12087,-1,2,-237,-56,35709,32,32,127,0,0,3385,-10,0,2419,418,76,23003,-4,0,56,10,249641,0
249645,225,-2061,316,-139,35,-255,12087,-4,1,-261,-136,35709,35,32,127,0,0,3385,21,0,2419,418,76,23013,-4,0,56,10,249641,0
249656,244,-2048,291,-146,11,-253,12087,1,4,-259,-88,35708,29,32,127,0,0,3383,-60,0,2419,418,76,23024,-4,0,56,10,249641,0
249666,245,-2035,290,-140,9,-248,12088,11,3,-267,-80,35723,10,32,127,0,0,3383,-21,0,2419,418,76,23034,-4,0,56,10,249656,0
249676,254,-2039,280,-134,10,-240,12088,10,7,-191,-40,35731,18,32,127,0,0,3388,5,0,2419,418,76,23044,-4,0,56,10,249688,0
249686,261,-2040,268,-119,30,-233,12088,-9,0,-216,-40,35738,22,32,127,0,0,3388,49,0,2419,418,76,23054,-4,0,56,10,249688,0
249696,292,-2035,273,-116,32,-223,12088,-6,-1,-179,-40,35728,13,32,127,0,0,3388,0,0,2419,418,76,23064,-4,0,56,10,249688,0
249706,302,-1998,283,-116,38,-214,12090,10,2,-150,-48,35724,13,32,127,0,0,3388,-27,0,2419,418,76,23074,-4,0,56,10,249688,0
249716,300,-1996,278,-125,28,-194,12089,-2,-4,-176,-40,35715,10,32,127,0,0,3388,0,0,2419,418,76,23084,-4,0,56,10,249703,0
249726,315,-2014,274,-99,18,-175,12088,-3,-5,-133,-24,35725,25,32,127,0,0,3387,0,0,2419,418,76,23094,-4,0,56,10,249719,0
249736,347,-2014,277,-96,31,-174,12091,1,2,-69,-40,35736,19,32,127,0,0,3388,-49,0,2419,418,76,23104,-4,0,56,10,249735,0
249746,307,-1999,296,-98,14,-162,12091,7,-2,-136,-40,35735,21,32,127,0,0,3388,-16,0,2419,418,76,23114,-4,0,56,10,249735,0
249756,312,-2002,294,-103,13,-146,12090,1,4,-172,-40,35726,6,32,127,0,0,3391,32,0,2419,418,76,23124,-4,0,56,10,249735,0
249766,323,-2007,292,-89,-3,-112,12089,-8,2,-150,-40,35723,17,32,127,0,0,3394,76,0,2419,418,76,23134,-4,0,56,10,249766,0
249776,266,-2021,299,-72,-4,-98,12090,-5,3,-144,-40,35733,15,32,127,0,0,3391,54,0,2419,418,76,23144,-4,0,56,10,249766,0
249786,332,-2028,328,-73,3,-98,12089,0,-3,-161,-48,35736,17,32,127,0,0,3388,10,0,2419,418,76,23154,-4,0,56,10,249766,0
249796,298,-2040,341,-71,2,-84,12089,1,0,-200,-40,35733,15,32,127,0,0,3388,5,0,2419,418,76,23164,-4,0,56,10,249781,0
249806,305,-2055,305,-80,13,-80,12091,13,2,-151,-40,35726,17,32,127,0,0,3388,-16,0,2419,418,76,23174,-4,0,56,10,249797,0
249816,288,-2059,290,-71,12,-88,12089,-2,-1,-175,-40,35730,21,32,127,0,0,3388,0,0,2419,418,76,23184,-4,0,56,10,249797,0
249826,301,-2058,303,-62,15,-94,12088,0,-5,-176,-64,35724,13,32,127,0,0,3389,-5,0,2419,418,76,23194,-4,0,56,10,249813,0
249836,275,-2053,320,-67,18,-97,12089,1,4,-164,-40,35731,-8,32,127,0,0,3388,0,0,2419,418,76,23204,-4,0,56,10,249828,0
249846,272,-2064,326,-80,4,-115,12089,9,1,-179,-64,35730,3,32,127,0,0,3385,-38,0,2419,418,76,23214,-4,0,56,10,249844,0
249856,267,-2067,323,-85,10,-142,12088,0,1,-211,-88,35734,0,32,127,0,0,3383,-82,0,2419,418,76,23224,-4,0,56,10,249844,0
249866,223,-2051,332,-99,9,-187,12086,2,-5,-293,-80,35727,4,32,127,0,0,3380,-71,0,2419,418,76,23234,-4,0,56,10,249844,0
249877,246,-2056,326,-104,15,-236,12084,-4,-3,-407,-136,35726,-2,32,127,0,0,3381,0,0,2419,418,76,23245,-4,0,56,10,249906,0
249887,251,-2063,330,-107,12,-262,12083,-12,0,-452,-192,35733,-3,32,127,0,0,3375,-65,0,2419,418,76,23255,-4,0,56,10,249906,0
249897,252,-2059,355,-118,10,-273,12072,-22,-19,-534,-208,35734,-10,32,127,0,0,3370,-54,0,2419,418,76,23265,-4,0,56,10,249906,0
249907,285,-2089,347,-131,-13,-272,12060,-36,-22,-621,-184,35730,6,32,127,0,0,3364,-32,0,2419,418,76,23275,-4,0,56,10,249906,0
249917,293,-2081,325,-126,-15,-280,12034,-68,-33,-509,-240,35718,11,32,127,0,0,3361,-65,0,2419,418,76,23285,-4,0,56,10,249922,0
249927,289,-2068,298,-120,-14,-281,12003,-47,-33,-417,-184,35718,23,32,127,0,0,3357,-54,0,2419,418,76,23295,-4,0,56,10,249922,0
249937,351,-2108,319,-108,-22,-263,11978,-68,10,-401,-160,35723,37,32,127,0,0,3357,-10,0,2419,418,76,23305,-4,0,56,10,249922,0
249947,327,-2088,317,-105,-27,-265,11950,-25,3,-238,-96,35732,60,32,127,0,0,3359,10,0,2419,418,76,23315,-4,0,56,10,249922,0
249957,368,-2062,269,-112,-24,-259,11955,2,73,-264,-104,35722,59,32,127,0,0,3357,-21,0,2419,418,76,23325,-4,0,56,10,249973,0
249967,358,-2035,260,-108,-22,-253,11954,6,40,-285,-104,35726,41,32,127,0,0,3357,-10,0,2419,418,76,23335,-4,0,56,10,249973,0
249977,352,-2065,274,-91,-24,-248,11954,2,-3,-286,-136,35721,14,32,127,0,0,3359,0,0,2419,418,76,23345,-4,0,56,10,249973,0
249987,333,-2046,282,-86,-22,-253,11954,0,10,-295,-88,35723,-3,32,127,0,0,3359,32,0,2419,418,76,23355,-4,0,56,10,249989,0
249997,354,-2046,292,-101,-9,-276,11953,-1,1,-259,-72,35717,-13,32,127,0,0,3359,10,0,2419,418,76,23365,-4,0,56,10,249989,0
250007,339,-2053,308,-96,4,-285,11954,-3,1,-239,-72,35715,-16,32,127,0,0,3359,-10,0,2419,418,76,23375,-4,0,56,10,249989,0
250017,331,-2037,327,-90,-4,-293,11955,1,-2,-212,-48,35719,6,32,127,0,0,3361,10,0,2419,418,76,23385,-4,0,56,10,250020,0
250027,315,-2044,315,-91,-22,-308,11956,2,-5,-160,-48,35733,-13,32,127,0,0,3364,10,0,2419,418,76,23395,-4,0,56,10,250036,0
250037,319,-2063,306,-106,-15,-343,11957,7,3,-144,-88,35746,-22,32,127,0,0,3364,0,0,2419,418,76,23405,-4,0,56,10,250036,0
250047,308,-2041,306,-112,-8,-381,11958,12,11,-109,-64,35742,-25,32,127,0,0,3364,-21,0,2419,418,76,23415,-4,0,56,10,250036,0
250057,359,-2047,315,-119,-22,-418,11957,3,1,-72,-32,35730,-9,32,127,0,0,3361,-43,0,2419,418,76,23425,-4,0,56,10,250036,0
250067,378,-2050,319,-117,-16,-426,11957,3,-3,-136,-64,35728,13,32,127,0,0,3364,-10,0,2419,418,76,23435,-4,0,56,10,250067,0
250077,372,-2038,302,-120,-22,-454,11956,-4,-3,-144,-16,35732,18,32,127,0,0,3366,54,0,2419,418,76,23445,-4,0,56,10,250067,0
250087,352,-2026,289,-133,-18,-475,11958,-9,11,-123,-56,35732,0,32,127,0,0,3364,10,0,2419,418,76,23455,-4,0,56,10,250067,0
250097,374,-2041,290,-144,2,-513,11956,-6,1,-192,-56,35730,-5,32,127,0,0,3359,10,0,2419,418,76,23465,-4,0,56,10,250098,0
250107,414,-2064,295,-137,-4,-538,11956,0,1,-206,-56,35725,1,32,127,0,0,3364,32,0,2419,418,76,23475,-4,0,56,10,250098,0
250118,446,-2045,288,-133,12,-568,11957,-4,-3,-179,-80,35726,-5,32,127,0,0,3362,5,0,2419,418,76,23486,-4,0,56,10,250098,0
250128,426,-1984,287,-139,11,-578,11955,-1,-4,-266,-72,35724,5,32,127,0,0,3359,16,0,2419,418,76,23496,-4,0,56,10,250129,0
250138,482,-1986,255,-138,3,-602,11956,4,5,-291,-96,35729,1,32,127,0,0,3357,-5,0,2419,418,76,23506,-4,0,56,10,250129,0
250148,470,-1977,243,-128,19,-650,11954,1,-2,-337,-144,35726,3,32,127,0,0,3349,-104,0,2419,418,76,23516,-4,0,56,10,250129,0
250158,452,-1979,212,-138,36,-695,11943,-31,-22,-461,-184,35729,-2,32,127,0,0,3349,-21,0,2419,418,76,23526,-4,0,56,10,250161,0
250168,430,-1996,235,-136,43,-683,11923,-59,-39,-453,-216,35720,-3,32,127,0,0,3339,-60,0,2419,418,76,23536,-4,0,56,10,250161,0
250178,438,-2025,262,-114,52,-693,11882,-77,-61,-393,-184,35713,-12,32,127,0,0,3335,-54,0,2419,418,76,23546,-4,0,56,10,250161,0
250188,476,-2039,271,-101,30,-676,11855,-74,-3,-459,-176,35712,6,32,127,0,0,3327,-38,0,2419,418,76,23556,-4,0,56,10,250176,0
250198,536,-1993,296,-88,12,-680,11811,-91,-16,-289,-112,35722,1,32,127,0,0,3328,-16,0,2419,418,76,23566,-4,0,56,10,250207,0
250208,595,-1957,234,-74,-26,-658,11786,-60,10,-276,-104,35720,4,32,127,0,0,3327,21,0,2419,418,76,23576,-4,0,56,10,250207,0
250218,582,-1923,212,-53,-79,-634,11774,4,58,-233,-80,35721,7,32,127,0,0,3324,-5,0,2419,418,76,23586,-4,0,56,10,250207,0
250228,558,-1951,224,-56,-104,-628,11774,0,60,-286,-80,35720,17,32,127,0,0,3324,5,0,2419,418,76,23596,-4,0,56,10,250223,0
250238,412,-2032,289,-102,-108,-703,11773,0,16,-326,-104,35718,32,32,127,0,0,3318,-38,0,2419,418,76,23606,-4,0,56,10,250223,0
250248,350,-2082,269,-126,-76,-805,11770,0,-4,-376,-120,35726,42,32,127,0,0,3316,-60,0,2419,418,76,23616,-4,0,56,10,250254,0
250258,340,-2104,248,-139,7,-921,11764,-17,-12,-530,-200,35724,40,32,127,0,0,3311,-82,0,2419,418,76,23626,-4,0,56,10,250254,0
250268,431,-2096,288,-157,26,-958,11741,-53,-41,-486,-176,35726,41,32,127,0,0,3305,-21,0,2419,418,76,23636,-4,0,56,10,250254,0
250278,536,-2003,269,-164,2,-1000,11698,-107,-70,-394,-184,35723,34,32,127,0,0,3296,-82,0,2419,418,76,23646,-4,0,56,10,250270,0
250288,507,-1927,219,-168,-18,-1064,11665,-69,-20,-418,-160,35731,27,32,127,0,0,3292,-71,0,2419,418,76,23656,-4,0,56,10,250270,0
250298,496,-1868,250,-174,-15,-1159,11632,-57,24,-458,-192,35726,24,32,127,0,0,3280,-109,0,2419,418,76,23666,-4,0,56,10,250364,0
250308,528,-1864,301,-174,-11,-1196,11611,-56,21,-625,-264,35727,20,32,127,0,0,3272,-120,0,2419,418,76,23676,-4,0,56,10,250364,0
250318,635,-1883,338,-207,17,-1259,11553,-141,-62,-436,-264,35720,35,32,127,0,0,3258,-142,0,2419,418,76,23686,-4,0,56,10,250364,0
250328,721,-1926,361,-260,32,-1240,11479,-153,-93,-437,-280,35717,38,32,127,0,0,3246,-98,0,2419,418,76,23696,-4,0,56,10,250364,0
250338,837,-1931,379,-288,32,-1218,11417,-125,7,-501,-296,35714,31,32,127,0,0,3233,-115,0,2419,418,76,23706,-4,0,56,10,250379,0
250348,998,-1975,336,-302,-9,-1223,11344,-168,3,-439,-264,35714,6,32,127,0,0,3225,-54,0,2419,418,76,23716,-4,0,56,10,250379,0
250358,917,-1908,371,-295,-81,-1175,11280,-113,-2,-518,-296,35715,2,32,127,0,0,3206,-126,0,2419,418,76,23726,-4,0,56,10,250379,0
250368,879,-1933,389,-302,-139,-971,11216,-146,26,-491,-240,35712,10,32,127,0,0,3200,-32,0,2419,418,76,23736,-4,0,56,10,250379,0
250378,929,-2039,376,-303,-175,-831,11153,-114,-6,-320,-160,35708,19,32,127,0,0,3202,10,0,2419,418,76,23746,-4,0,56,10,250379,0
250389,1028,-1896,293,-351,-151,-854,11122,-14,91,-256,-72,35707,6,32,127,0,0,3201,0,0,2419,418,76,23757,-4,0,56,10,250379,0
250399,1039,-1812,249,-365,-165,-763,11124,7,124,-280,-80,35711,6,32,127,0,0,3201,0,0,2419,418,76,23767,-4,0,56,10,250379,0
250409,941,-1843,211,-327,-174,-619,11124,1,37,-281,-72,35724,1,32,127,0,0,3201,0,0,2419,418,76,23777,-4,0,56,10,250395,0
250419,910,-1901,245,-308,-185,-582,11124,2,-3,-248,-40,35742,2,32,127,0,0,3205,43,0,2419,418,76,23787,-4,0,56,10,250426,0
250429,952,-1980,304,-335,-192,-500,11128,12,12,-113,0,35735,-5,32,127,0,0,3214,98,0,2419,418,76,23797,-4,0,56,10,250426,0
250439,857,-1986,269,-376,-212,-432,11139,43,21,169,104,35722,-10,32,127,0,0,3225,142,0,2419,418,76,23807,-4,0,56,10,250426,0
250449,772,-1982,217,-377,-263,-380,11166,78,51,379,216,35703,8,32,127,0,0,3240,186,0,2419,418,76,23817,-4,0,56,10,250442,0
250459,614,-1969,263,-375,-256,-428,11236,176,117,336,200,35709,14,32,127,0,0,3256,164,0,2419,418,76,23827,-4,0,56,10,250457,0
250469,570,-2028,363,-442,-216,-535,11333,234,131,249,208,35714,18,32,127,0,0,3271,109,0,2419,418,76,23837,-4,0,56,10,250457,0
250479,597,-2054,356,-489,-221,-587,11421,167,20,264,184,35712,12,32,127,0,0,3284,164,0,2419,418,76,23847,-4,0,56,10,250473,0
250489,565,-1979,303,-516,-248,-687,11496,166,-50,276,208,35705,11,32,127,0,0,3304,186,0,2419,418,76,23857,-4,0,56,10,250473,0
250499,652,-1972,315,-529,-296,-761,11571,152,-15,355,232,35714,0,32,127,0,0,3317,142,0,2419,418,76,23867,-4,0,-25,0,250489,0
250509,607,-1960,333,-548,-320,-886,11646,171,-6,315,240,35713,1,32,127,0,0,3335,197,0,2419,418,76,23877,-4,0,-25,0,250551,0
250519,609,-1978,332,-589,-347,-941,11733,202,30,301,216,35712,6,32,127,0,0,3346,153,0,2419,418,76,23887,-4,0,-25,0,250551,0
250529,622,-2020,312,-618,-386,-1052,11811,158,9,309,184,35711,15,32,127,0,0,3361,131,0,2419,418,76,23897,-4,0,-25,0,250551,0
250539,622,-2022,267,-626,-421,-1120,11877,138,-44,336,232,35713,21,32,127,0,0,3377,153,0,2419,418,76,23907,-4,0,-25,0,250551,0
250549,687,-2029,230,-629,-481,-1216,11954,180,-2,342,232,35710,17,32,127,0,0,3392,142,0,2419,418,76,23917,-4,0,-24,0,250582,0
250559,652,-2016,221,-626,-550,-1232,12032,177,25,354,256,35708,15,32,127,0,0,3412,197,0,2419,418,76,23927,-4,0,-24,0,250582,0
250569,574,-2033,227,-648,-584,-1300,12121,202,21,356,312,35708,6,32,127,0,0,3434,230,0,2419,418,76,23937,-4,0,-24,0,250582,0
250579,554,-2030,244,-680,-587,-1403,12206,198,15,502,376,35708,7,32,127,0,0,3458,197,0,2419,418,76,23947,-4,0,-24,0,250582,0
250589,572,-2035,261,-714,-621,-1536,12309,218,24,427,384,35718,6,32,127,0,0,3478,230,0,2419,418,76,23957,-4,0,-24,0,250598,0
250599,612,-2026,265,-731,-645,-1643,12418,255,34,430,408,35723,18,32,127,0,0,3504,241,0,2419,418,76,23967,-4,0,-24,0,250598,0
250610,662,-2040,264,-752,-741,-1706,12552,264,45,405,456,35719,44,32,127,0,0,3536,329,0,2419,418,76,23978,-4,0,-23,0,250598,0
250620,628,-2061,292,-760,-820,-1780,12673,280,16,450,528,35726,24,32,127,0,0,3563,285,0,2419,418,76,23988,-4,0,-23,0,250614,0
250630,575,-2092,292,-793,-912,-1930,12805,298,24,443,584,35725,10,32,127,0,0,3594,340,0,2419,418,76,23998,-4,0,-23,0,250629,0
250640,482,-2066,295,-814,-982,-2024,12947,306,41,497,648,35723,-9,32,127,0,0,3634,379,0,2419,418,76,24008,-4,0,-23,0,250629,0
250650,400,-2057,265,-867,-1033,-2220,13101,352,42,495,752,35722,4,32,127,0,0,3668,368,0,2419,418,76,24018,-4,0,-22,0,250645,0
250660,409,-2043,209,-898,-1070,-2373,13273,402,67,469,848,35712,9,32,127,0,0,3710,379,0,2419,418,76,24028,-4,0,-22,0,250660,0
250670,380,-2009,158,-951,-1124,-2647,13456,402,52,481,880,35715,11,32,127,0,0,3750,417,0,2419,418,76,24038,-4,0,-22,0,250660,0
250680,309,-1994,138,-972,-1186,-2843,13648,434,31,498,928,35715,4,32,127,0,0,3790,384,0,2419,418,76,24048,-4,0,-22,0,250676,0
250690,297,-2107,74,-1036,-1248,-3159,13850,452,42,499,992,35709,7,32,127,0,0,3834,411,0,2419,418,76,24058,-4,0,-21,0,250676,0
250700,165,-1844,31,-1074,-1246,-3308,14065,513,47,516,1008,35711,23,32,127,0,0,3875,379,0,2419,418,76,24068,-4,0,-21,0,250692,0
250710,-196,-2104,-40,-1099,-1371,-3021,14287,473,46,445,1080,35716,34,32,127,0,0,3940,736,0,2419,418,76,24078,-4,0,-20,0,250723,0
250720,1370,-2144,-337,-1416,-998,-3591,14546,622,80,716,1600,35716,28,32,127,0,0,4024,812,0,2419,418,76,24088,-4,0,-20,0,250723,0
250730,-134,-3264,469,-2056,-600,-3560,14863,691,194,388,1296,35710,22,32,127,0,0,4053,318,0,2419,418,76,24098,-4,0,-19,0,250723,0
250740,-147,-3721,665,-2056,-803,-2940,15146,614,21,551,1600,35703,20,32,127,0,0,4169,1224,0,2419,418,76,24108,-4,0,-19,0,250723,0
250750,533,-4321,458,-2145,-539,-3982,15492,850,70,930,2264,35712,26,32,127,0,0,4289,1197,0,2419,418,76,24118,-4,0,-18,0,250739,0
250760,-146,-4109,470,-1925,-162,-4488,15935,991,340,625,2304,35717,21,32,127,0,0,4370,802,0,2419,418,76,24128,-4,0,-17,0,250770,0
250770,-316,-3594,744,-1732,-92,-4651,16380,973,158,527,2328,35723,6,32,127,0,0,4461,939,0,2419,418,76,24138,-4,0,-16,0,250770,0
250780,-123,-3743,1164,-1820,-205,-4723,16826,985,-7,618,2408,35710,1,32,127,0,0,4557,917,0,2419,418,76,24148,-4,0,-15,0,250770,0
250790,234,-4089,1405,-2069,-530,-4749,17296,1057,56,684,2720,35703,23,32,127,0,0,4666,1142,0,2419,418,76,24158,-4,0,-13,0,250785,0
250800,310,-4208,1282,-2185,-686,-4632,17809,1158,139,747,2976,35700,71,32,127,0,0,4798,1268,0,2419,418,76,24168,-4,0,-12,0,250785,0
250810,-10,-3613,965,-2186,-690,-3859,18376,1274,192,773,3256,35699,76,32,127,0,0,4937,1466,0,2419,418,76,24178,-4,0,-9,0,250785,0
250820,-352,-2598,872,-2010,-565,-3018,19001,1431,214,945,3736,35694,102,32,127,0,0,5106,1752,0,2419,418,76,24188,-4,0,-8,0,250817,0
250830,-376,-1513,388,-1704,-508,-1719,19707,1596,278,994,4352,35687,99,32,127,0,0,5314,2175,0,2419,418,76,24198,-4,0,-5,0,250817,0
250840,11,-529,195,-1390,1312,-871,20526,1913,375,1319,5216,35675,148,32,127,0,0,5579,2790,0,2419,418,76,24208,-4,0,-3,0,250832,0
250850,971,-711,-449,-913,5056,-2855,21421,1886,358,-245,2280,35690,91,32,127,0,0,5643,313,0,2419,418,76,24218,-4,0,0,0,250832,0
250860,940,-1046,-203,-270,6138,-3393,21839,177,-934,-4057,-2312,35700,65,32,127,0,0,5509,-1521,0,2419,418,76,24228,-4,0,0,0,250848,0
250870,980,-1151,490,200,6337,-3517,21323,-1378,-2925,-1062,-1704,35702,46,32,127,0,0,5262,-2565,0,2419,418,76,24238,-4,0,3,0,250864,0
250881,739,-996,788,265,5335,-2868,21082,257,-574,2349,-552,35710,42,32,127,0,0,4970,-2680,0,2419,418,76,24249,-4,0,6,0,250864,0
250891,2032,-1472,697,182,4697,-1617,20879,-759,847,-1872,-2728,35708,79,32,127,0,0,4757,-2076,0,2419,418,76,24259,-4,0,8,0,250879,0
250901,1536,-1241,518,230,3395,-383,20333,-1353,-969,-1191,-3880,35713,51,32,127,0,0,4554,-1944,0,2419,418,76,24269,-4,0,11,0,250895,0
250911,1594,-1119,397,247,2346,559,19598,-1706,-936,-712,-4344,35700,88,32,127,0,0,4381,-1735,0,2419,418,76,24279,-4,0,13,0,250895,0
250921,1544,-997,193,470,899,1836,18769,-1862,-511,-460,-4320,35700,104,32,127,0,0,4231,-1472,0,2419,418,76,24289,-4,0,16,0,250926,0
250931,1427,-962,82,636,142,2638,17931,-1831,-171,-257,-4064,35705,85,32,127,0,0,4102,-1307,0,2419,418,76,24299,-4,0,18,0,250926,0
250941,1435,-972,52,894,-628,3703,17142,-1694,96,-177,-3728,35713,61,32,127,0,0,3979,-1230,0,2419,418,76,24309,-4,0,21,0,250942,0
250951,1507,-962,77,1034,-844,4272,16412,-1580,215,-228,-3592,35707,34,32,127,0,0,3845,-1373,0,2419,418,76,24319,-4,0,23,0,250942,0
250961,1301,-786,212,1219,-891,5106,15699,-1582,128,-407,-3768,35710,26,32,127,0,0,3691,-1582,0,2419,418,76,24329,-4,0,26,46,250942,0
250971,1078,-723,233,1295,-911,5735,14946,-1695,-68,-549,-4024,35720,27,32,127,0,0,3526,-1647,0,2419,418,76,24339,-4,0,28,41,250973,0
250981,746,-754,218,1380,-1087,6776,14153,-1751,-159,-430,-4000,35719,44,32,127,0,0,3375,-1472,0,2419,418,76,24349,-4,0,31,35,250973,0
250991,669,-832,222,1480,-1222,7442,13382,-1670,-20,-313,-3768,35715,52,32,127,0,0,3267,-1021,0,2419,418,76,24359,-4,0,33,32,250973,0
251001,686,-917,145,1642,-1158,8189,12679,-1484,189,-149,-3224,35720,44,32,127,0,0,3188,-758,0,2419,418,76,24369,-4,0,36,26,251004,0
251011,691,-940,80,1750,-940,8525,12071,-1271,326,-110,-2672,35723,41,32,127,0,0,3124,-615,0,2419,418,76,24379,-4,0,38,23,251004,0
251021,669,-914,-84,1842,-520,8940,11556,-1077,473,-142,-2208,35724,26,32,127,0,0,3062,-626,0,2419,418,76,24389,-4,0,41,19,251004,0
251031,585,-998,-132,1831,-294,9281,11125,-907,370,-256,-1888,35721,2,32,127,0,0,3014,-472,0,2419,418,76,24399,-4,0,43,16,251020,0
251041,584,-1302,-131,1801,-23,9828,10753,-764,143,-199,-1376,35721,19,32,127,0,0,2997,-175,0,2419,418,76,24409,-4,0,46,13,251020,0
251051,736,-1531,-105,1807,271,10024,10464,-576,276,-187,-800,35735,9,32,127,0,0,2999,32,0,2419,418,76,24419,-4,0,48,10,251035,0
251061,708,-1955,-37,1852,640,10330,10259,-410,319,-181,-352,35731,6,32,127,0,0,3010,153,0,2419,418,76,24429,-4,0,51,7,251051,0
251071,819,-2147,2,1863,893,10568,10149,-141,332,271,104,35731,10,32,127,0,0,3034,274,0,2419,418,76,24439,-4,0,54,6,251082,0
251081,1045,-2375,97,1804,1135,11036,10211,191,521,505,448,35718,12,32,127,0,0,3082,527,0,2419,418,76,24449,-4,0,57,3,251082,0
251091,1035,-2439,164,1722,1173,11261,10351,356,476,538,832,35717,38,32,127,0,0,3159,769,0,2419,418,76,24459,-4,0,59,2,251082,0
251101,1135,-2463,164,1574,1135,11344,10563,529,287,575,1392,35715,18,32,127,0,0,3251,922,0,2419,418,76,24469,-4,0,63,1,251082,0
251111,1162,-2530,114,1498,1026,11237,10855,682,297,588,1776,35725,7,31,127,0,0,3344,933,0,2419,418,76,24479,-4,0,65,0,251113,0
251121,1226,-2712,43,1486,807,10903,11175,808,277,523,1984,35721,23,31,127,0,0,3432,834,0,2419,418,76,24489,-4,0,68,0,251129,0
251131,1302,-2857,54,1525,734,10585,11562,859,186,417,1936,35723,38,32,127,0,0,3500,670,0,2419,418,76,24499,-4,0,70,-1,251129,0
251141,1413,-2926,12,1591,742,10054,11946,825,45,288,1680,35710,40,32,127,0,0,3537,362,0,2419,418,76,24509,-4,0,73,-1,251129,0
251152,1182,-2798,-70,1565,794,9724,12320,694,-112,141,1032,35713,35,32,127,0,0,3539,-60,0,2419,418,76,24520,-4,0,75,-1,251145,0
251162,1025,-2575,-45,1520,710,9428,12579,515,-251,91,464,35713,32,32,127,0,0,3535,-60,0,2419,418,76,24530,-4,0,78,-1,251160,0
251172,925,-2493,-72,1525,586,9201,12747,297,-330,-13,64,35720,23,32,127,0,0,3528,-43,0,2419,418,76,24540,-4,0,80,-1,251160,0
251182,862,-2525,-92,1538,430,8734,12792,-12,-423,-330,-136,35724,16,32,127,0,0,3517,-82,0,2419,418,76,24550,-4,0,82,-1,251160,0
251192,762,-2539,-108,1549,365,8380,12748,-83,-405,-259,-184,35733,1,32,127,0,0,3504,-153,0,2419,418,76,24560,-4,0,84,-1,251176,0
251202,720,-2596,-141,1538,304,7879,12686,-149,-165,-211,-144,35735,-6,32,127,0,0,3495,-76,0,2419,418,76,24570,-4,0,86,-1,251207,0
251212,598,-2585,-131,1503,309,7411,12631,-71,-12,-85,-56,35736,-1,32,127,0,0,3496,-5,0,2419,418,76,24580,-4,0,88,-1,251207,0
251222,451,-2547,-118,1361,285,6390,12639,26,160,-213,-56,35734,-8,32,127,0,0,3495,27,0,2419,418,76,24590,-4,0,89,-1,251207,0
251232,472,-2566,-145,1187,289,5586,12644,16,102,-38,24,35723,2,32,127,0,0,3504,60,0,2419,418,76,24600,-4,0,90,-1,251207,0
251242,405,-2583,-154,837,353,4133,12662,43,21,208,120,35717,13,32,127,0,0,3524,164,0,2419,418,76,24610,-4,0,92,-1,251238,0
251252,387,-2612,-183,547,472,3027,12689,73,48,453,248,35715,3,32,127,0,0,3538,175,0,2419,418,76,24620,-4,0,93,-1,251238,0
251262,459,-2596,-152,53,860,1196,12756,159,100,370,200,35716,10,32,127,0,0,3547,38,0,2419,418,76,24630,-4,0,93,-1,251238,0
251272,487,-2464,-140,-274,1118,16,12841,178,100,61,32,35730,7,32,127,0,0,3544,-32,0,2419,418,76,24640,-4,0,93,-1,251270,0
251282,794,-2262,-57,-648,1540,-1556,12845,-59,-146,40,-40,35721,12,32,127,0,0,3534,-98,0,2419,418,76,24650,-4,0,93,-1,251270,0
251292,768,-2184,21,-776,1658,-2406,12826,-31,-206,-320,-160,35718,21,32,127,0,0,3512,-225,0,2419,418,76,24660,-4,0,93,-1,251270,0
251302,-386,-7457,-239,-1466,-838,-2302,12783,-131,-63,-342,128,35724,26,32,127,0,0,3594,1043,0,2419,418,76,24670,-4,0,93,-1,251301,0
251312,236,-3480,2329,-756,1027,-1778,12884,487,259,1727,2368,35726,28,32,127,0,0,3835,2384,0,1357,249,77,8,1,0,93,-1,251301,0
251322,591,-2139,1653,413,-364,-2347,13346,1207,1077,1241,3344,35714,60,32,127,0,0,3986,1433,0,1357,249,77,18,1,0,93,-1,251301,0
251332,-454,-2534,1581,289,-979,-1620,13969,1412,951,722,3600,35704,79,32,127,0,0,4147,1664,0,1357,249,77,28,1,0,93,-1,251317,0
251342,-14,-1858,877,124,-1443,-1391,14672,1603,408,719,3960,35685,110,32,127,0,0,4322,1746,0,1357,249,77,38,1,0,93,-1,251317,0
251352,-602,-1638,-368,-383,-1708,-1787,15447,1740,291,667,4112,35694,101,32,127,0,0,4481,1565,0,1357,249,77,48,1,0,93,-1,251363,0
251362,-1074,-2115,-743,-504,-1176,-2101,16241,1737,156,560,4160,35687,108,32,127,0,0,4634,1554,0,1357,249,77,58,1,0,93,-1,251363,0
251372,-1200,-2314,-1016,-239,-577,-2410,17022,1710,-8,517,4016,35685,105,32,127,0,0,4755,1241,0,1357,249,77,68,1,0,93,-1,251363,0
251382,-959,-2154,-757,26,-76,-2821,17776,1620,-81,307,3568,35685,106,32,127,0,0,4848,950,0,1357,249,77,78,1,0,93,-1,251363,0
251393,-354,-2392,-18,83,467,-3304,18522,1413,-220,208,2888,35699,93,32,127,0,0,4908,505,0,1357,249,77,89,1,0,93,-1,251395,0
251403,173,-2354,293,77,-116,-3724,19091,1166,-360,110,2128,35708,75,32,127,0,0,4935,219,0,1357,249,77,99,1,0,93,-1,251395,0
251413,435,-2128,694,176,-364,-3716,19532,880,-460,94,1368,35716,63,32,127,0,0,4930,-54,0,1357,249,77,109,1,0,93,-1,251395,0
251423,361,-2025,745,62,-414,-3692,19837,583,-513,67,512,35718,46,32,127,0,0,4906,-230,0,1357,249,77,119,1,0,93,-1,251410,0
251433,286,-2011,1044,-223,-490,-3568,20005,254,-528,-398,-184,35711,34,32,127,0,0,4871,-318,0,1357,249,77,129,1,0,93,-1,251410,0
251443,276,-2130,1053,-394,-467,-3495,19944,-252,-716,-534,-512,35723,12,32,127,0,0,4833,-384,0,1357,249,77,139,1,0,93,-1,251457,0
251453,558,-2701,1105,-403,-237,-3502,19794,-349,-588,-365,-664,35717,29,32,127,0,0,4781,-571,0,1357,249,77,149,1,0,93,-1,251457,0
251463,-65,-1859,947,-254,9,-3667,19604,-447,-205,-490,-1232,35714,31,32,127,0,0,4693,-911,0,1357,249,77,159,1,0,93,-1,251457,0
251473,46,-1994,847,-464,161,-3593,19345,-626,-215,-632,-1600,35707,32,32,127,0,0,4605,-911,0,1357,249,77,169,1,0,93,-1,251457,0
251483,193,-1873,497,-603,140,-3560,19005,-799,-297,-582,-1992,35710,13,32,127,0,0,4508,-966,0,1357,249,77,179,1,0,93,-1,251504,0
251493,219,-1951,39,-664,73,-3207,18603,-911,-274,-515,-2176,35718,30,32,127,0,0,4409,-988,0,1357,249,77,189,1,0,93,-1,251504,0
251503,166,-2018,-165,-547,18,-3001,18159,-993,-188,-451,-2304,35717,42,32,127,0,0,4319,-900,0,1357,249,77,199,1,0,93,-1,251504,0
251513,-36,-2007,-55,-311,-5,-2812,17701,-1008,-96,-386,-2232,35707,57,32,127,0,0,4238,-812,0,1357,249,77,209,1,0,93,-1,251504,0
251523,-76,-2048,139,-212,34,-2674,17243,-1001,-16,-339,-2200,35700,51,32,127,0,0,4155,-791,0,1357,249,77,219,1,0,93,-1,251504,0
251533,124,-2074,497,-154,83,-2537,16801,-965,28,-288,-2072,35718,37,32,127,0,0,4080,-780,0,1357,249,77,229,1,0,93,-1,251520,0
251543,266,-2046,592,-177,61,-2429,16378,-918,62,-325,-1984,35723,33,32,127,0,0,4010,-681,0,1357,249,77,239,1,0,93,-1,251551,0
251553,279,-2028,607,-230,-34,-2234,15965,-902,61,-287,-1864,35722,33,32,127,0,0,3939,-681,0,1357,249,77,249,1,0,93,-1,251566,0
251563,182,-1950,523,-260,-104,-2114,15572,-852,53,-305,-1736,35708,25,32,127,0,0,3878,-615,0,1357,249,77,259,1,0,93,-1,251566,0
251573,22,-1950,427,-267,-131,-2027,15195,-821,64,-273,-1584,35700,42,32,127,0,0,3821,-604,0,1357,249,77,269,1,0,93,-1,251566,0
251583,-39,-1940,445,-265,-95,-2060,14843,-756,82,-319,-1512,35702,33,32,127,0,0,3761,-604,0,1357,249,77,279,1,0,93,-1,251566,0
251593,60,-1918,565,-279,-25,-2168,14511,-724,86,-356,-1536,35706,45,32,127,0,0,3700,-648,0,1357,249,77,289,1,0,93,-1,251582,0
251603,154,-1896,630,-317,11,-2176,14183,-709,39,-383,-1528,35713,44,32,127,0,0,3634,-637,0,1357,249,77,299,1,0,93,-1,251598,0
251613,304,-1948,619,-373,-29,-2036,13853,-725,7,-416,-1624,35711,47,32,127,0,0,3570,-648,0,1357,249,77,309,1,0,93,-1,251598,0
251624,441,-1987,536,-392,-75,-1966,13486,-720,-11,-351,-1520,35707,28,32,127,0,0,3507,-543,0,1357,249,77,320,1,0,93,-1,251629,0
251634,474,-1995,407,-408,-128,-1929,13170,-693,30,-379,-1512,35702,43,32,127,0,0,3446,-593,0,1357,249,77,330,1,0,93,-1,251629,0
251644,388,-2009,362,-404,-143,-1872,12864,-672,45,-372,-1472,35706,45,32,127,0,0,3389,-582,0,1357,249,77,340,1,0,93,-1,251629,0
251654,306,-2010,254,-386,-152,-1782,12571,-633,45,-401,-1480,35708,38,32,127,0,0,3332,-582,0,1357,249,77,350,1,0,93,-1,251629,0
251664,308,-1970,242,-371,-151,-1788,12279,-632,33,-412,-1448,35708,36,32,127,0,0,3276,-560,0,1357,249,77,360,1,0,93,-1,251660,0
251674,201,-1985,276,-356,-128,-1872,11994,-621,18,-515,-1480,35695,32,32,127,0,0,3222,-565,0,1357,249,77,370,1,0,93,-1,251660,0
251684,188,-1994,329,-352,-107,-1908,11705,-643,-2,-495,-1544,35697,41,32,127,0,0,3160,-615,0,1357,249,77,380,1,0,93,-1,251660,0
251694,283,-2044,434,-340,-84,-1972,11408,-656,-28,-459,-1528,35706,25,32,127,0,0,3098,-604,0,1357,249,77,390,1,0,93,-1,251691,0
251704,358,-2038,500,-363,-102,-2026,11108,-668,-20,-541,-1584,35708,44,32,127,0,0,3030,-653,0,1357,249,77,400,1,0,93,-1,251691,0
251714,427,-2001,528,-415,-146,-2050,10795,-689,-33,-489,-1560,35706,49,32,127,0,0,2971,-543,0,1357,249,77,410,1,0,93,-1,251723,0
251724,439,-2036,505,-444,-187,-2026,10488,-669,-10,-485,-1536,35706,66,32,127,0,0,2910,-587,0,1357,249,77,420,1,0,93,-1,251723,0
251734,521,-2035,421,-471,-252,-2002,10186,-673,22,-487,-1480,35712,37,32,127,0,0,2849,-565,0,1357,249,77,430,1,0,93,-1,251738,0
251744,477,-1995,390,-469,-308,-2018,9887,-650,8,-490,-1456,35713,38,32,127,0,0,2797,-538,0,1357,249,77,440,1,0,93,-1,251738,0
251754,426,-2061,447,-435,-439,-1989,9598,-630,30,-463,-1392,35708,35,32,127,0,0,2742,-538,0,1357,249,77,450,1,0,93,-1,251738,0
251764,541,-2278,567,-334,-537,-1937,9318,-610,30,-416,-1280,35709,42,32,127,0,0,2690,-494,0,1357,249,77,460,1,0,93,-1,251770,0
251774,668,-2184,666,-381,-779,-1787,9059,-555,58,-403,-1128,35715,48,32,127,0,0,2657,-318,0,1357,249,77,470,1,0,93,-1,251770,0
251784,412,-2350,543,-521,-794,-1715,8822,-501,86,-363,-912,35720,39,32,127,0,0,2632,-219,0,1357,249,77,480,1,0,93,-1,251801,0
251794,182,-2222,474,-668,-790,-1732,8616,-430,104,-312,-680,35718,28,32,127,0,0,2615,-153,0,1357,249,77,490,1,0,93,-1,251801,0
251804,169,-2127,400,-749,-733,-1880,8451,-333,138,-331,-464,35714,23,32,127,0,0,2599,-181,0,1357,249,77,500,1,0,93,-1,251816,0
251814,249,-2215,262,-854,-626,-2026,8318,-275,138,-309,-376,35717,29,32,127,0,0,2582,-175,0,1357,249,77,510,1,0,93,-1,251895,0
251824,203,-2391,324,-846,-834,-2039,8208,-233,98,-322,-232,35721,29,32,127,0,0,2570,-65,0,1357,249,77,520,1,0,93,-1,251895,0
251834,115,-2288,466,-780,-983,-2278,8125,-154,95,-255,-120,35725,12,32,127,0,0,2574,0,0,1357,249,77,530,1,0,93,-1,251895,0
251844,102,-2302,508,-763,-982,-2512,8108,-5,182,-330,-112,35724,0,32,127,0,0,2566,-10,0,1357,249,77,540,1,0,93,-1,251895,0
251854,211,-2393,570,-887,-950,-2747,8104,-13,141,-441,-152,35729,-7,32,127,0,0,2562,-10,0,1357,249,77,550,1,0,93,-1,251910,0
251864,244,-2333,598,-1015,-972,-2836,8083,-61,-25,-348,-112,35725,-7,32,127,0,0,2558,-21,0,1357,249,77,560,1,0,93,-1,251910,0
251874,188,-2246,508,-1178,-1026,-3065,8054,-29,-48,-164,-48,35721,-4,32,127,0,0,2562,5,0,1357,249,77,570,1,0,93,-1,251910,0
251884,246,-2292,426,-1281,-1071,-3202,8056,11,65,-92,-8,35723,0,32,127,0,0,2572,98,0,1357,249,77,580,1,0,93,-1,251910,0
251894,166,-2270,392,-1378,-1168,-3350,8065,30,64,174,72,35728,5,32,127,0,0,2583,148,0,1357,249,77,590,1,0,93,-1,251910,0
251904,161,-2347,384,-1416,-1274,-3476,8090,63,40,424,232,35727,10,32,127,0,0,2605,236,0,1357,249,77,600,1,0,93,-1,251910,0
251915,79,-2474,306,-1443,-1256,-3683,8170,213,131,467,416,35718,5,32,127,0,0,2641,340,0,1357,249,77,611,1,0,93,-1,251910,0
251925,87,-2549,222,-1474,-1234,-3857,8287,265,181,484,544,35714,6,32,127,0,0,2685,461,0,1357,249,77,621,1,0,8,0,251910,0
251935,-118,-2381,222,-1460,-1274,-3857,8429,334,114,525,736,35715,12,32,127,0,0,2739,538,0,1357,249,77,631,1,0,10,0,251926,0
251945,-174,-2443,16,-1584,-1458,-3617,8598,402,104,621,1104,35732,39,32,127,0,0,2827,955,0,1357,249,77,641,1,0,12,0,251926,0
251955,570,-2381,136,-1661,-1301,-4159,8847,617,215,784,1672,35745,42,32,127,0,0,2935,1021,0,1357,249,77,651,1,0,14,0,251957,0
251965,-914,-2642,514,-1642,-1288,-4154,9179,748,325,532,1768,35738,67,32,127,0,0,3014,845,0,1357,249,77,661,1,0,17,0,251957,0
251975,-73,-3171,609,-1677,-1602,-4101,9540,834,193,692,2280,35727,56,32,127,0,0,3155,1483,0,1357,249,77,671,1,0,20,0,251973,0
251985,-243,-3560,923,-1530,-1884,-4724,9999,1069,251,766,2816,35715,68,32,127,0,0,3295,1417,0,1357,249,77,681,1,0,24,0,251973,0
251995,-257,-3889,689,-1470,-2015,-4863,10553,1276,377,724,3264,35714,55,32,127,0,0,3445,1516,0,1357,249,77,691,1,0,27,0,251973,0
252005,-152,-3671,780,-1676,-2224,-5325,11185,1439,321,693,3608,35721,64,32,127,0,0,3610,1614,0,1357,249,77,701,1,0,32,0,252004,0
252015,-52,-4142,927,-1662,-2267,-5823,11871,1544,246,663,3912,35712,60,32,127,0,0,3752,1428,0,1357,249,77,711,1,0,35,0,252020,0
252025,-143,-4430,1133,-1634,-2249,-6364,12586,1577,-6,533,3952,35706,75,32,127,0,0,3893,1395,0,1357,249,77,721,1,0,41,0,252020,0
252035,-145,-4097,1344,-1714,-2231,-6442,13316,1610,148,516,3984,35698,81,32,127,0,0,4029,1340,0,1357,249,77,731,1,0,45,0,252020,0
252045,-428,-3752,1350,-1677,-2559,-6092,14055,1617,201,494,3832,35706,85,32,127,0,0,4161,1362,0,1357,249,77,741,1,0,52,0,252051,0
252055,-568,-3258,1310,-1782,-2998,-5341,14793,1624,7,577,3912,35717,78,32,127,0,0,4333,1801,0,1357,249,77,751,1,0,57,0,252051,0
252065,-561,-2272,1205,-1833,-3181,-3887,15570,1771,68,1006,4552,35714,89,32,127,0,0,4548,2197,0,1357,249,77,761,1,0,66,0,252066,0
252075,-575,-1627,913,-1710,-3529,-2819,16457,2030,295,1182,5384,35699,104,32,127,0,0,4803,2603,0,1357,249,77,771,1,0,72,0,252066,0
252085,1416,-1420,163,-1492,-2624,-1747,17497,2424,498,1330,6456,35688,172,32,127,0,0,5095,2922,0,1357,249,77,781,1,0,82,0,252066,0
252095,1312,-1102,-228,-1268,-872,-2336,18716,2712,662,572,6120,35680,206,32,127,0,0,5229,1153,0,1357,249,77,791,1,0,89,0,252082,0
252105,1045,-878,-552,-609,1699,-2840,19838,2312,164,-156,3776,35693,177,32,127,0,0,5174,-736,0,1357,249,77,801,1,0,99,0,252113,0
252115,682,-784,-355,-109,2530,-2593,20608,1354,-860,-1360,592,35712,94,32,127,0,0,5000,-1845,0,1357,249,77,811,0,0,105,71,252113,0
252125,805,-777,-62,335,3051,-1528,20690,-348,-2059,-2786,-1808,35727,2,32,127,0,0,4794,-2043,0,1357,249,77,821,0,0,115,65,252113,0
252135,304,-706,219,625,3065,-783,20308,-1021,-2373,-1265,-3336,35726,12,32,127,0,0,4590,-2054,0,1357,249,77,831,0,0,121,62,252113,0
252146,419,-860,227,809,3016,519,19612,-1530,-1183,-849,-4040,35711,52,32,127,0,0,4396,-1713,0,1357,249,77,842,0,0,130,56,252129,0
252156,528,-946,334,946,3029,1293,18839,-1757,-662,-559,-4256,35707,126,32,127,0,0,4234,-1604,0,1357,249,77,852,0,0,136,53,252144,0
252166,715,-930,311,1154,3151,2363,18016,-1824,-311,-359,-4200,35711,130,32,127,0,0,4080,-1516,0,1357,249,77,862,0,0,145,47,252160,0
252176,798,-850,243,1232,3250,3050,17204,-1766,-56,-285,-4048,35722,109,32,127,0,0,3938,-1422,0,1357,249,77,872,0,0,151,44,252160,0
252186,914,-734,155,1232,3332,4142,16420,-1723,86,-339,-4048,35719,71,32,127,0,0,3794,-1450,0,1357,249,77,882,0,0,160,39,252176,0
252196,951,-653,67,1212,3356,4921,15633,-1742,32,-331,-3904,35710,64,32,127,0,0,3660,-1301,0,1357,249,77,892,0,0,166,36,252191,0
252206,946,-622,3,1071,3266,6093,14851,-1706,-5,-256,-3696,35707,45,32,127,0,0,3543,-1120,0,1357,249,77,902,0,0,175,32,252191,0
252216,936,-672,67,997,3180,6816,14115,-1571,107,-167,-3312,35710,45,32,127,0,0,3438,-1016,0,1357,249,77,912,0,0,182,29,252191,0
252226,888,-784,53,951,2954,7760,13455,-1389,250,-152,-2984,35716,37,32,127,0,0,3345,-878,0,1357,249,77,922,0,0,191,25,252238,0
252236,831,-896,103,961,2756,8330,12876,-1222,306,-202,-2728,35721,35,32,127,0,0,3259,-845,0,1357,249,77,932,0,0,197,23,252238,0
252246,850,-1026,152,1004,2342,9166,12356,-1107,264,-236,-2424,35718,45,32,127,0,0,3195,-615,0,1357,249,77,942,0,0,205,19,252238,0
252256,896,-1107,225,1029,2021,9662,11894,-971,224,-240,-2016,35706,43,32,127,0,0,3148,-455,0,1357,249,77,952,0,0,211,17,252238,0
252266,917,-1176,334,1039,1403,10237,11493,-830,228,-172,-1512,35706,32,32,127,0,0,3121,-214,0,1357,249,77,962,0,0,220,14,252254,0
252276,950,-1265,355,1045,854,10555,11171,-654,270,-187,-1080,35713,46,32,127,0,0,3109,-115,0,1357,249,77,972,0,0,226,13,252269,0
252286,1091,-1462,239,1079,39,10883,10919,-507,281,-168,-576,35723,37,32,127,0,0,3109,49,0,1357,249,77,982,0,0,235,10,252285,0
252296,936,-1709,139,1146,-402,11084,10744,-338,283,-153,-200,35720,39,32,127,0,0,3121,131,0,1357,249,77,992,0,0,240,9,252285,0
252306,1194,-2253,4,1327,-708,11613,10674,-52,351,260,168,35719,31,32,127,0,0,3148,384,0,1357,249,77,1002,0,0,248,7,252285,0
252316,1127,-2500,121,1524,-712,11973,10751,233,500,457,528,35708,29,32,127,0,0,3208,626,0,1357,249,77,1012,0,0,254,6,252316,0
252326,949,-2647,325,1775,-747,12295,10907,399,412,549,1032,35714,34,32,127,0,0,3291,840,0,1357,249,77,1022,0,0,261,4,252316,0
252336,841,-2605,398,1896,-889,12208,11141,573,301,631,1552,35712,33,32,127,0,0,3385,972,0,1357,249,77,1032,0,0,266,4,252316,0
252346,761,-2695,308,2100,-1036,11617,11456,739,307,562,1848,35724,27,32,127,0,0,3469,845,0,1357,249,77,1042,0,0,274,3,252332,0
252356,743,-2811,186,2328,-984,11134,11812,793,222,375,1760,35710,33,32,127,0,0,3527,587,0,1357,249,77,1052,0,0,278,2,252332,0
252366,682,-2911,-44,2695,-692,10531,12162,753,50,215,1392,35712,33,32,127,0,0,3550,274,0,1357,249,77,1062,0,0,285,2,252348,0
252377,622,-2718,-76,2953,-163,10042,12483,596,-146,161,912,35714,22,32,127,0,0,3559,65,0,1357,249,77,1073,0,0,291,1,252379,0
252387,678,-2593,-10,2985,153,9874,12708,449,-238,153,424,35714,34,32,127,0,0,3559,0,0,1357,249,77,1083,0,0,294,1,252379,0
252397,844,-2493,81,2862,619,9686,12866,307,-252,60,112,35716,20,32,127,0,0,3555,-43,0,1357,249,77,1093,0,0,299,1,252379,0
252407,925,-2557,47,2721,861,9505,12911,-9,-351,-134,-48,35710,14,32,127,0,0,3548,-54,0,1357,249,77,1103,0,0,303,1,252394,0
252417,736,-2834,-54,2539,1107,8995,12869,-93,-394,-195,-168,35709,11,32,127,0,0,3526,-197,0,1357,249,77,1113,0,0,307,1,252410,0
252427,730,-3056,-82,2399,1239,8554,12798,-150,-185,-311,-232,35715,8,32,127,0,0,3504,-208,0,1357,249,77,1123,0,0,310,1,252410,0
252437,578,-3211,-25,2169,1344,7550,12735,-136,-33,-391,-256,35714,5,32,127,0,0,3498,-65,0,1357,249,77,1133,0,0,313,1,252426,0
252447,457,-3146,-7,1932,1372,6387,12665,-140,5,-174,-56,35711,6,32,127,0,0,3502,32,0,1357,249,77,1143,0,0,315,1,252441,0
252457,523,-2993,-47,1449,1385,4086,12655,48,122,-97,-32,35719,16,32,127,0,0,3500,0,0,1357,249,77,1153,0,0,317,1,252441,0
252467,738,-2909,-57,1022,1439,2360,12654,-22,147,-115,-16,35723,4,32,127,0,0,3498,-32,0,1357,249,77,1163,0,0,318,1,252441,0
252477,1030,-2720,-66,365,1621,-375,12651,-23,-16,-305,-136,35737,11,32,127,0,0,3487,-120,0,1357,249,77,1173,0,0,319,1,252488,0
252487,1167,-2564,-105,-67,1789,-2076,12635,-46,-32,-652,-352,35720,15,32,127,0,0,3458,-274,0,1357,249,77,1183,0,0,319,1,252488,0
252497,1477,-2340,-50,-546,2172,-4010,12558,-223,-153,-613,-560,35717,20,32,127,0,0,3423,-362,0,1357,249,77,1193,0,0,318,1,252551,0
252507,-621,-6484,-951,-943,2044,-4364,12418,-336,-248,-441,-600,35704,23,32,127,0,0,3438,230,0,1357,249,77,1203,0,0,318,1,252551,0
252517,227,-3697,3402,-465,3837,-2862,12351,145,66,1850,2192,35700,18,32,127,0,0,3724,2977,0,2186,574,78,5,1,1,318,1,252551,0
252527,-859,-1519,1574,1864,1949,-4064,12804,1244,1282,1342,3520,35693,73,32,127,0,0,3893,1516,0,2186,574,78,15,1,1,318,1,252566,0
252537,-281,-1034,322,751,-331,-2990,13504,1714,1453,1506,4992,35686,111,32,127,0,0,4062,1724,0,2186,574,78,25,1,1,318,1,252566,0
252547,848,-49,-816,-659,-120,-2910,14496,2410,1012,1557,6456,35665,182,32,127,0,0,4267,2032,0,2186,574,78,35,1,1,318,1,252566,0
252557,-632,-3072,-1295,-1296,-76,-3727,15765,2895,1096,1092,7104,35647,220,32,127,0,0,4442,1724,0,2186,574,78,45,1,1,318,1,252566,0
252567,-842,-3312,-1103,-515,-326,-4082,17119,3004,632,761,7304,35629,231,32,127,0,0,4579,1351,0,2186,574,78,55,1,1,318,1,252566,0
252577,-263,-2512,-544,-105,-1397,-4173,18493,3012,171,470,7000,35634,223,32,127,0,0,4680,966,0,2186,574,78,65,1,1,318,1,252566,0
252587,185,-2479,275,-288,-1784,-4168,19793,2772,-128,347,6552,35658,178,32,127,0,0,4765,812,0,2186,574,78,75,1,1,318,1,252566,0
252597,537,-2775,603,-475,-1760,-4848,20969,2525,-412,272,5688,35689,144,32,127,0,0,4807,384,0,2186,574,78,85,1,1,318,1,252613,0
252607,411,-2086,410,-474,-1365,-5199,22032,2233,-449,-236,3480,35703,112,32,127,0,0,4787,-230,0,2186,574,78,95,1,1,318,1,252613,0
252617,93,-1649,755,-511,-432,-5271,22846,1554,-729,-850,1232,35709,64,32,127,0,0,4726,-626,0,2186,574,78,105,1,1,318,1,252613,0
252627,412,-1770,814,-538,-53,-5124,23259,617,-1309,-1479,-392,35709,12,32,127,0,0,4660,-659,0,2186,574,78,115,1,1,318,1,252613,0
252638,1267,-2322,1202,-548,444,-5512,23145,-354,-1733,-219,-56,35717,-9,32,127,0,0,4545,-1197,640,2186,574,78,126,1,1,318,1,252613,0
252648,-222,-1272,1641,-420,-450,-3871,23025,-323,-794,474,-120,35733,6,32,127,0,0,4475,-494,840,2186,574,78,136,1,1,318,1,252644,0
252658,2363,-2288,1480,-683,-988,-3301,22693,-942,-422,391,-1304,35727,14,32,127,0,0,4418,-560,1040,2186,574,78,146,1,1,318,1,252660,0
252668,933,-2116,573,-939,-1300,-3307,22061,-1539,-1044,445,-2376,35718,14,32,127,0,0,4322,-1082,1240,2186,574,78,156,1,1,318,1,252660,0
252678,-2028,-2032,-296,-826,126,-4052,21326,-1585,-722,609,-2088,35717,-14,32,127,0,0,4197,-1307,1440,2186,574,78,166,1,1,318,1,252660,0
252688,-1197,-1816,-386,-673,785,-4218,20683,-1339,65,873,-1464,35728,7,32,127,0,0,4067,-1257,1500,2186,574,78,176,1,1,318,1,252691,0
252698,807,-2048,402,-581,375,-3522,20103,-1253,312,888,-1280,35729,4,32,127,0,0,3958,-1148,1500,2186,574,78,186,1,1,318,1,252691,0
252708,898,-2056,440,-630,13,-3130,19550,-1191,151,854,-1072,35731,-5,32,127,0,0,3858,-1005,1500,2186,574,78,196,1,1,318,1,252691,0
252718,269,-1896,289,-556,-191,-2924,19044,-1076,140,840,-736,35727,-15,32,127,0,0,3766,-922,1500,2186,574,78,206,1,1,318,1,252738,0
252728,238,-1794,327,-446,-37,-2723,18597,-942,211,929,-368,35735,-41,32,127,0,0,3691,-752,1500,2186,574,78,216,1,1,318,1,252738,0
252738,463,-1947,787,-384,-39,-2281,18198,-854,201,918,-280,35737,-41,32,127,0,0,3619,-659,1500,2186,574,78,226,1,1,318,1,252738,0
252748,601,-1985,808,-462,-130,-2142,17832,-764,151,954,-136,35732,-39,32,127,0,0,3554,-571,1500,2186,574,78,236,1,1,318,1,252738,0
252758,600,-1910,563,-528,-258,-1933,17522,-666,175,966,-136,35721,-28,32,127,0,0,3498,-516,1500,2186,574,78,246,1,1,318,1,252754,0
252768,390,-1889,365,-497,-335,-1773,17234,-630,135,918,-144,35719,-27,32,127,0,0,3445,-505,1500,2186,574,78,256,1,1,318,1,252754,0
252778,55,-1962,211,-438,-253,-1668,16954,-605,51,917,-96,35726,3,32,127,0,0,3394,-483,1500,2186,574,78,266,1,1,318,1,252769,0
252788,111,-1996,217,-457,-95,-1731,16689,-583,42,918,-120,35724,5,32,127,0,0,3343,-488,1500,2186,574,78,276,1,1,318,1,252785,0
252798,376,-1936,327,-450,-57,-1753,16417,-617,4,883,-200,35725,6,32,127,0,0,3292,-494,1500,2186,574,78,286,1,1,318,1,252785,0
252808,446,-1944,360,-429,-80,-1714,16120,-683,-71,826,-176,35720,-20,32,127,0,0,3236,-609,1500,2186,574,78,296,1,1,318,1,252816,0
252818,290,-1989,384,-384,-69,-1709,15805,-671,-81,874,-104,35731,9,32,127,0,0,3184,-560,1500,2186,574,78,306,1,1,318,1,252816,0
252828,341,-2031,462,-392,-72,-1673,15539,-536,86,1068,48,35725,18,32,127,0,0,3131,-494,1640,2186,574,78,316,1,1,318,1,252816,0
252838,600,-2070,558,-421,-272,-1506,15342,-396,237,1128,32,35726,22,32,127,0,0,3091,-368,1780,2186,574,78,326,1,1,318,1,252816,0
252848,589,-1965,524,-431,-428,-1437,15153,-435,133,1095,-40,35724,-2,32,127,0,0,3056,-362,1910,2186,574,78,336,1,1,318,1,252847,0
252858,412,-1903,389,-561,-417,-1474,14952,-453,-29,1162,0,35726,15,32,127,0,0,3022,-379,2060,2186,574,78,346,1,1,318,1,252847,0
252868,406,-2098,414,-630,-257,-1544,14745,-463,-33,1278,-8,35726,27,32,127,0,0,2986,-340,2210,2186,574,78,356,1,1,318,1,252863,0
252879,311,-2235,677,-521,-696,-1645,14516,-444,-9,1360,40,35723,34,32,127,0,0,2946,-373,2280,2186,574,78,367,1,1,318,1,252879,0
252889,-118,-2055,584,-494,-850,-1809,14319,-419,31,1401,72,35724,26,32,127,0,0,2911,-362,2340,2186,574,78,377,1,1,318,1,252910,0
252899,93,-2357,469,-587,-937,-1933,14152,-352,84,1443,72,35731,-3,32,127,0,0,2882,-307,2410,2186,574,78,387,1,1,318,1,252910,0
252909,-86,-2329,524,-695,-696,-2041,14008,-316,99,1492,88,35736,-12,32,127,0,0,2858,-219,2490,2186,574,78,397,1,1,318,1,252926,0
252919,77,-2364,365,-731,-734,-2187,13897,-212,100,1555,184,35736,-7,32,127,0,0,2836,-208,2590,2186,574,78,407,1,1,318,1,252926,0
252929,258,-2272,223,-794,-784,-2315,13824,-130,141,1586,240,35730,-2,32,127,0,0,2823,-120,2700,2186,574,78,417,1,1,318,1,252926,0
252939,173,-2198,162,-819,-829,-2380,13778,-80,126,1634,328,35725,16,32,127,0,0,2814,-98,2820,2186,574,78,427,1,1,318,1,252926,0
252949,296,-2223,290,-837,-875,-2511,13755,-50,88,1724,408,35723,15,32,127,0,0,2808,-43,2960,2186,574,78,437,1,1,318,1,252926,0
252959,276,-2278,418,-845,-958,-2639,13746,1,64,1778,520,35727,28,32,127,0,0,2808,10,3120,2186,574,78,447,1,1,318,1,252972,0
252969,129,-2319,560,-1000,-971,-2857,13751,9,56,1941,520,35736,36,32,127,0,0,2808,32,3290,2186,574,78,457,1,1,318,1,252972,0
252979,-48,-2401,606,-1114,-929,-3061,13754,6,13,2015,576,35726,47,32,127,0,0,2812,21,3490,2186,574,78,467,1,1,318,1,252972,0
252989,-175,-2491,645,-1225,-931,-3463,13764,31,10,2143,656,35720,46,32,127,0,0,2810,-10,3720,2186,574,78,477,1,1,318,1,252972,0
252999,-215,-2509,596,-1278,-1013,-3696,13806,130,79,2192,952,35712,51,32,127,0,0,2819,76,3980,2186,574,78,487,1,1,318,1,253004,0
253009,-200,-2410,509,-1335,-1191,-3970,13898,240,167,2318,1384,35714,69,32,127,0,0,2834,131,4290,2186,574,78,497,1,1,318,1,253004,0
253019,-83,-2484,448,-1424,-1299,-4102,14073,448,264,2567,1928,35716,94,32,127,0,0,2865,318,4650,2186,574,78,507,1,1,318,1,253004,0
253029,-27,-2566,438,-1521,-1441,-4214,14356,710,334,2899,2744,35707,124,32,127,0,0,2913,494,5090,2186,574,78,517,1,1,318,1,253019,0
253039,-30,-2656,382,-1634,-1511,-4193,14793,1072,510,3238,3832,35698,155,32,127,0,0,2988,780,5640,2186,574,78,527,1,1,318,1,253019,0
253049,-153,-2747,311,-1734,-1563,-4077,15395,1441,617,3556,4704,35669,217,32,127,0,0,3095,1131,6330,2186,574,78,537,1,1,318,1,253051,0
253059,-217,-2795,203,-1759,-1612,-4019,16168,1807,653,3940,5752,35649,323,32,127,0,0,3236,1461,7220,2186,574,78,547,1,1,318,1,253051,0
253069,-571,-2824,252,-1728,-2178,-3754,17115,2205,655,4502,7000,35597,442,32,127,0,0,3407,1746,8220,2186,574,78,557,1,1,318,1,253051,0
253079,-1113,-2300,293,-1702,-1650,-3701,18293,2780,766,4998,8616,35543,608,32,127,0,0,3621,2164,9000,2186,574,78,567,1,1,318,1,253082,0
253089,-736,-3558,475,-1853,-2063,-3807,19730,3275,964,5597,9600,35476,830,32,127,0,0,3869,2537,9880,2186,574,78,577,1,1,318,1,253082,0
253099,-715,-4077,1174,-1818,-2327,-3708,21271,3433,694,5935,10320,35391,1120,32,127,0,0,4159,2867,10920,2186,574,78,587,1,1,318,1,253097,0
253109,-1119,-4154,804,-2044,-2313,-4192,22970,3896,467,6663,11432,35303,1409,32,127,0,0,4464,3131,12110,2186,574,78,597,1,1,318,1,253097,0
253119,-1104,-3561,1140,-2064,-2698,-4747,24858,4212,698,7180,11952,35205,1721,32,127,0,0,4779,3197,12120,2186,574,78,607,1,1,318,1,253097,0
253130,-373,-5184,1113,-2190,-2884,-5303,26711,3981,237,6965,10920,35050,2210,32,127,0,0,5127,3125,11600,2186,574,78,618,1,1,318,1,253144,0
253140,-857,-5044,1431,-2139,-3153,-5976,28276,3175,-713,6191,8416,35063,2106,32,127,0,0,5397,2653,7310,2186,574,78,628,1,1,318,1,253144,0
253150,-611,-4850,1796,-2197,-2792,-7907,29277,1693,-1738,3185,3232,35216,1561,32,127,0,0,5590,1785,2450,2186,574,78,638,1,1,318,1,253144,0
253160,-440,-4344,1672,-2465,-2537,-9305,29402,-356,-2881,582,-448,35426,865,32,127,0,0,5610,10,1140,2186,574,78,648,1,1,318,1,253144,0
253170,-1337,-2842,1494,-2380,-2178,-9143,28884,-1325,-2898,203,-2472,35617,297,32,127,0,0,5511,-1065,0,2186,574,78,658,0,1,318,1,253175,0
253180,-3232,-1238,1611,-1778,-1549,-7147,28327,-1076,-1077,-385,-4784,35704,78,32,127,0,0,5474,-241,0,2186,574,78,668,0,1,318,1,253175,0
253190,2251,-2638,-378,-1692,-2156,-2820,27443,-2214,-646,-1185,-6120,35689,124,32,127,0,0,5770,3010,0,2186,574,78,678,0,1,318,1,253175,0
253200,1058,-2275,-41,-1614,-29,-2863,26413,-2156,-961,615,-2296,35690,109,32,127,0,0,5908,1285,0,2186,574,78,688,0,1,318,1,253191,0
253210,668,-1399,-347,-496,2621,-2824,25778,-1087,704,849,-792,35693,80,32,127,0,0,5880,-521,0,2186,574,78,698,0,1,318,1,253191,0
253220,722,-1277,-332,103,3769,-2764,25446,-620,1389,-140,-1528,35725,-7,32,127,0,0,5711,-1906,0,2186,574,78,708,0,1,318,1,253222,0
253230,493,-1003,250,851,4276,-1735,25083,-996,389,-1664,-3488,35725,10,32,127,0,0,5459,-2493,0,2186,574,78,718,0,1,318,1,253222,0
253240,516,-776,418,989,4321,-827,24404,-1683,-798,-1482,-4816,35687,94,32,127,0,0,5200,-2554,0,2186,574,78,728,0,1,318,1,253222,0
253250,528,-781,573,1073,4104,733,23475,-2155,-1080,-955,-5392,35658,168,32,127,0,0,4981,-2175,0,2186,574,78,738,0,1,318,1,253300,0
253260,545,-802,497,1025,3875,1773,22448,-2278,-614,-559,-5416,35649,188,32,127,0,0,4791,-1856,0,2186,574,78,748,0,1,318,1,253300,0
253270,784,-956,483,943,3588,3186,21447,-2158,-91,-362,-5184,35661,150,32,127,0,0,4615,-1658,0,2186,574,78,758,0,1,318,1,253300,0
253280,942,-969,459,942,3518,4003,20510,-2026,194,-361,-4920,35682,96,32,127,0,0,4448,-1642,0,2186,574,78,768,0,1,318,1,253300,0
253290,1086,-823,339,901,3555,5144,19600,-1999,166,-359,-4864,35688,71,32,127,0,0,4280,-1735,0,2186,574,78,778,0,1,318,1,253316,0
253300,1111,-663,240,791,3599,5905,18681,-2026,19,-373,-4776,35687,76,32,127,0,0,4098,-1774,0,2186,574,78,788,0,1,318,1,253316,0
253310,1156,-523,103,668,3654,7046,17770,-1981,-2,-338,-4616,35689,75,32,127,0,0,3918,-1845,0,2186,574,78,798,0,1,318,1,253316,0
253320,1174,-516,73,643,3531,7780,16889,-1918,82,-384,-4616,35688,78,32,127,0,0,3754,-1741,0,2186,574,78,808,0,1,318,1,253316,0
253330,1154,-495,34,588,3186,8938,16012,-1939,63,-413,-4512,35692,88,32,127,0,0,3585,-1571,0,2186,574,78,818,0,1,318,1,253316,0
253340,1132,-504,78,536,2838,9681,15132,-1917,-5,-291,-4216,35694,98,32,127,0,0,3442,-1417,0,2186,574,78,828,0,1,318,1,253316,0
253350,1135,-595,132,566,2189,10789,14296,-1789,90,-191,-3776,35708,102,32,127,0,0,3323,-1137,0,2186,574,78,838,0,1,318,1,253347,0
253360,1031,-683,183,650,1528,11459,13549,-1574,270,-111,-3120,35712,59,31,127,0,0,3234,-802,0,2186,574,78,848,0,1,318,1,253347,0
253370,874,-871,430,844,146,12165,12923,-1297,410,-34,-2320,35714,22,32,127,0,0,3198,-351,0,2186,574,78,858,0,1,318,1,253363,0
253381,1084,-1118,582,1116,-1241,12482,12389,-967,494,22,-1296,35705,7,32,127,0,0,3192,-10,0,2186,574,78,869,0,1,318,1,253363,0
253391,1094,-1354,376,1309,-1843,12601,12055,-638,538,27,-512,35711,16,32,127,0,0,3197,76,0,2186,574,78,879,0,1,318,1,253410,0
253401,1263,-1916,9,1673,-2042,13135,11867,-312,559,101,-24,35712,19,32,127,0,0,3203,131,0,2186,574,78,889,0,1,318,1,253410,0
253411,1120,-2201,-164,1954,-2013,13595,11861,107,635,623,440,35709,7,32,127,0,0,3243,450,0,2186,574,78,899,0,1,318,1,253410,0
253421,954,-2563,70,2412,-2064,14087,11992,348,607,579,992,35704,-1,32,127,0,0,3322,845,0,2186,574,78,909,0,1,318,1,253410,0
253431,941,-2708,254,2677,-2215,13912,12219,568,424,738,1664,35702,-1,32,127,0,0,3423,1010,0,2186,574,78,919,0,1,318,1,253425,0
253441,604,-2929,501,2988,-2243,13030,12545,774,372,629,2000,35702,16,32,127,0,0,3487,626,0,2186,574,78,929,0,1,318,1,253425,0
253451,563,-3166,398,3130,-2053,12448,12917,827,267,332,1696,35709,17,32,127,0,0,3515,263,0,2186,574,78,939,0,1,318,1,253457,0
253461,343,-3309,88,3300,-1519,11862,13260,724,5,211,1200,35707,14,32,127,0,0,3515,0,0,2186,574,78,949,0,1,318,1,253457,0
253471,351,-3247,-7,3361,-1006,11575,13538,557,-198,146,712,35703,8,32,127,0,0,3515,0,0,2186,574,78,959,0,1,318,1,253457,0
253481,415,-3085,-135,3287,-104,11028,13743,407,-274,212,400,35705,-7,32,127,0,0,3515,0,0,2186,574,78,969,0,1,318,1,253488,0
253491,625,-2973,-177,3189,576,10553,13884,268,-252,206,216,35707,9,32,127,0,0,3502,-142,0,2186,574,78,979,0,1,318,1,253488,0
253501,637,-3069,-238,2998,1346,9772,13945,65,-276,-130,-80,35709,15,32,127,0,0,3484,-186,0,2186,574,78,989,0,1,318,1,253504,0
253511,672,-3165,-217,2857,1718,8980,13914,-85,-331,-205,-72,35702,18,32,127,0,0,3471,-109,0,2186,574,78,999,0,1,318,1,253504,0
253521,801,-3197,-130,2413,2078,7328,13889,-41,-139,-18,-24,35707,17,32,127,0,0,3467,-54,0,2186,574,78,1009,0,1,318,1,253504,0
253531,891,-3185,-117,2008,2291,5776,13897,51,91,250,96,35719,20,32,127,0,0,3465,-32,0,2186,574,78,1019,0,1,318,1,253535,0
253541,1129,-3076,-251,1241,2592,2758,13936,103,130,225,80,35718,20,32,127,0,0,3458,-98,0,2186,574,78,1029,0,1,318,1,253535,0
253551,1308,-3017,-276,713,2808,515,13959,-4,14,-134,-128,35710,9,32,127,0,0,3429,-285,0,2186,574,78,1039,0,1,318,1,253535,0
253561,1698,-2856,-149,-50,3057,-2697,13909,-128,-193,-472,-368,35708,4,32,127,0,0,3383,-461,0,2186,574,78,1049,0,1,318,1,253566,0
253571,2019,-2653,-1,-504,3222,-4440,13801,-283,-238,-521,-640,35708,7,32,127,0,0,3326,-571,0,2186,574,78,1059,0,1,318,1,253566,0
253581,-842,-8012,-1226,-1263,2584,-5580,13638,-387,-219,-504,-904,35707,4,32,127,0,0,3289,-329,0,2186,574,78,1069,0,1,318,1,253566,0
253591,875,-10046,2353,-1834,4139,-3746,13479,-180,-63,1709,2216,35702,1,32,127,0,0,3607,3559,0,16589,5267,79,7,1,1,383,1,253582,0
253601,-1652,-2809,440,2535,-767,-5961,13997,1535,1453,1919,4344,35674,71,32,127,0,0,3790,1669,0,16589,5267,79,17,1,1,383,1,253597,0
253611,-1012,766,135,784,-1380,-5723,14844,1946,1940,855,4728,35667,117,32,127,0,0,3930,1395,0,16589,5267,79,27,1,1,383,1,253613,0
253621,848,-677,-987,-2324,-106,-5267,15777,2103,648,886,5288,35659,170,32,127,0,0,4102,1724,0,16589,5267,79,37,1,1,383,1,253629,0
253632,65,-2902,-1721,-2152,-403,-5700,16889,2268,287,750,5584,35662,133,32,127,0,0,4262,1444,0,16589,5267,79,48,1,1,383,1,253629,0
253642,-189,-3111,-1717,-917,-1384,-5962,17937,2308,197,544,5512,35667,138,32,127,0,0,4391,1285,0,16589,5267,79,58,1,1,383,1,253629,0
253652,659,-2946,-518,-422,-1871,-5864,18976,2264,31,441,5184,35674,130,32,127,0,0,4482,845,0,16589,5267,79,68,1,1,383,1,253660,0
253662,1115,-2800,805,-647,-1772,-5947,19930,2020,-201,206,4384,35682,102,32,127,0,0,4524,324,0,16589,5267,79,78,1,1,383,1,253660,0
253672,1188,-2290,737,-800,-1348,-6423,20741,1687,-460,-10,2976,35692,53,32,127,0,0,4494,-291,0,16589,5267,79,88,1,1,383,1,253660,0
253682,1014,-1248,277,-1037,-528,-6905,21377,1240,-621,-510,784,35699,1,32,127,0,0,4397,-1043,0,16589,5267,79,98,1,1,383,1,253660,0
253692,1344,-1244,48,-961,-212,-6303,21596,-50,-1209,-2326,-912,35715,-11,32,127,0,0,4283,-1016,520,16589,5267,79,108,1,1,383,1,253722,0
253702,-1229,-790,859,-462,-578,-4626,21402,-486,-1674,390,-288,35721,-13,32,127,0,0,4173,-1148,720,16589,5267,79,118,1,1,383,1,253722,0
253712,3069,-2784,547,-631,-670,-4102,21013,-1068,-1048,424,-1792,35719,-4,32,127,0,0,4101,-763,920,16589,5267,79,128,1,1,383,1,253722,0
253722,1128,-2251,1175,-799,-1374,-3900,20321,-1685,-1015,466,-2976,35711,-10,32,127,0,0,3989,-1164,1120,16589,5267,79,138,1,1,383,1,253738,0
253732,-692,-2488,1018,-1042,-563,-4090,19506,-1790,-775,485,-2624,35714,-32,32,127,0,0,3861,-1367,1320,16589,5267,79,148,1,1,383,1,253738,0
253742,-1393,-2048,-235,-667,417,-4429,18769,-1532,-8,704,-1680,35722,-35,32,127,0,0,3732,-1389,1500,16589,5267,79,158,1,1,383,1,253738,0
253752,106,-2077,151,-529,522,-4048,18157,-1281,427,920,-1096,35731,-45,32,127,0,0,3615,-1164,1500,16589,5267,79,168,1,1,383,1,253738,0
253762,1370,-1824,288,-662,85,-3321,17617,-1160,359,952,-928,35734,-56,32,127,0,0,3510,-977,1500,16589,5267,79,178,1,1,383,1,253738,0
253772,1246,-1735,209,-620,-126,-3033,17111,-1087,187,888,-776,35742,-54,32,127,0,0,3416,-878,1500,16589,5267,79,188,1,1,383,1,253800,0
253782,801,-1622,116,-360,-199,-2632,16644,-999,142,902,-440,35745,-54,32,127,0,0,3333,-780,1700,16589,5267,79,198,1,1,383,1,253800,0
253792,540,-1915,352,-222,-195,-2209,16258,-762,239,1189,-16,35735,-42,32,127,0,0,3260,-670,1930,16589,5267,79,208,1,1,383,1,253800,0
253802,768,-2191,835,-272,-390,-1527,16036,-371,498,1558,88,35724,-37,32,127,0,0,3220,-362,2120,16589,5267,79,218,1,1,383,1,253800,0
253812,959,-2137,868,-420,-609,-1219,15932,-207,541,1378,136,35714,-16,32,127,0,0,3205,-131,2290,16589,5267,79,228,1,1,383,1,253800,0
253822,530,-1919,538,-588,-713,-1111,15818,-270,156,1411,72,35711,-3,32,127,0,0,3181,-197,2450,16589,5267,79,238,1,1,383,1,253816,0
253832,181,-1976,379,-483,-451,-1248,15652,-403,-138,1487,16,35720,-8,32,127,0,0,3151,-329,2630,16589,5267,79,248,1,1,383,1,253816,0
253842,350,-1940,314,-464,-26,-1527,15413,-560,-247,1514,-88,35727,-3,32,127,0,0,3109,-455,2820,16589,5267,79,258,1,1,383,1,253832,0
253852,588,-1931,421,-522,-67,-1587,15137,-622,-205,1634,-8,35731,-15,32,127,0,0,3055,-532,3030,16589,5267,79,268,1,1,383,1,253863,0
253862,369,-2074,365,-566,-330,-1382,14908,-414,41,2065,144,35734,-13,32,127,0,0,3013,-422,3240,16589,5267,79,278,1,1,383,1,253863,0
253872,572,-2075,347,-486,-503,-1172,14798,-210,349,2012,272,35731,6,32,127,0,0,2992,-175,3340,16589,5267,79,288,1,1,383,1,253863,0
253882,767,-2122,544,-353,-847,-1007,14750,-75,320,2022,368,35720,23,32,127,0,0,2991,-21,3430,16589,5267,79,298,1,1,383,1,253863,0
253893,530,-2270,758,-414,-1164,-973,14733,-14,160,2052,496,35708,41,32,127,0,0,2981,-21,3540,16589,5267,79,309,1,1,383,1,253894,0
253903,246,-2327,697,-543,-1072,-1006,14733,7,78,2148,520,35706,48,32,127,0,0,2983,0,3650,16589,5267,79,319,1,1,383,1,253894,0
253913,-19,-2190,353,-734,-1057,-1301,14733,4,20,2214,536,35709,59,32,127,0,0,2983,21,3760,16589,5267,79,329,1,1,383,1,253894,0
253923,-43,-2019,216,-950,-1061,-1475,14733,0,-2,2292,552,35707,55,32,127,0,0,2983,0,3900,16589,5267,79,339,1,1,383,1,253925,0
253933,-152,-2373,212,-866,-1109,-1791,14733,8,-4,2373,576,35705,52,32,127,0,0,2983,10,4060,16589,5267,79,349,1,1,383,1,253925,0
253943,-235,-2304,249,-814,-1110,-2039,14733,0,5,2486,600,35704,53,32,127,0,0,2979,-43,4240,16589,5267,79,359,1,1,383,1,253941,0
253953,-166,-2284,377,-866,-1160,-2448,14735,6,4,2597,616,35697,67,32,127,0,0,2983,0,4470,16589,5267,79,369,1,1,383,1,253941,0
253963,-41,-2301,470,-922,-1166,-2649,14737,14,3,2747,656,35703,80,32,127,0,0,2981,-10,4740,16589,5267,79,379,1,1,383,1,253957,0
253973,73,-2392,496,-1039,-1087,-2903,14739,3,6,2882,776,35700,98,32,127,0,0,2981,10,5040,16589,5267,79,389,1,1,383,1,253957,0
253983,98,-2444,466,-1124,-1098,-3115,14748,30,11,3076,896,35698,101,32,127,0,0,2983,-10,5400,16589,5267,79,399,1,1,383,1,253972,0
253993,96,-2519,468,-1189,-1182,-3456,14769,55,41,3300,1056,35698,111,32,127,0,0,2986,21,5840,16589,5267,79,409,1,1,383,1,253988,0
254003,-91,-2523,479,-1234,-1323,-3549,14832,190,112,3442,1576,35694,104,32,127,0,0,2994,54,6340,16589,5267,79,419,1,1,383,1,254019,0
254013,-266,-2507,522,-1352,-1501,-3653,14982,407,268,3727,2280,35688,142,32,127,0,0,3021,285,6930,16589,5267,79,429,1,1,383,1,254019,0
254023,-468,-2648,425,-1466,-1599,-3613,15302,853,413,4271,3752,35663,211,32,127,0,0,3076,571,7650,16589,5267,79,439,1,1,383,1,254019,0
254033,-553,-2822,359,-1668,-1778,-3385,15861,1403,724,4809,5200,35622,332,32,127,0,0,3177,1032,8610,16589,5267,79,449,1,1,383,1,254019,0
254043,-663,-2825,325,-1786,-1837,-3300,16659,1903,982,5419,6576,35563,508,32,127,0,0,3317,1450,9920,16589,5267,79,459,1,1,383,1,254035,0
254053,-967,-2672,240,-1922,-1833,-3303,17659,2339,842,6239,7856,35492,787,32,127,0,0,3502,1867,11670,16589,5267,79,469,1,1,383,1,254035,0
254063,-1085,-2627,345,-2068,-1783,-3380,18887,2851,816,7390,9192,35387,1155,32,127,0,0,3715,2186,13430,16589,5267,79,479,1,1,383,1,254082,0
254073,-1438,-2838,456,-2116,-1783,-3572,20295,3182,789,8229,10392,35248,1593,32,127,0,0,3961,2482,15130,16589,5267,79,489,1,1,383,1,254082,0
254083,-1199,-2742,556,-2078,-1922,-3848,21808,3413,552,9238,11280,35089,2072,32,127,0,0,4242,2812,17140,16589,5267,79,499,1,1,383,1,254082,0
254093,-975,-3192,665,-2218,-2301,-4015,23476,3771,495,10468,12216,34913,2597,32,127,0,0,4535,2955,19280,16589,5267,79,509,1,1,383,1,254082,0
254103,-2340,-2865,1129,-2063,-2595,-4534,25278,4042,559,11394,13760,34748,3120,32,127,0,0,4833,3065,20860,16589,5267,79,519,1,1,383,1,254082,0
254113,-1195,-5307,1461,-2721,-2341,-5008,27168,4152,436,12092,13384,34581,3666,32,127,0,0,5159,3229,20570,16589,5267,79,529,1,1,383,1,254097,0
254124,-1022,-4546,1579,-2744,-2586,-5768,28914,3674,-166,11445,11968,34482,3986,32,127,0,0,5508,3224,19680,16589,5267,79,540,1,1,383,1,254128,0
254134,-1095,-5633,1086,-2763,-2794,-7061,30466,3340,-703,10923,10664,34477,3973,32,127,0,0,5800,2861,17990,16589,5267,79,550,1,1,383,1,254128,0
254144,-1236,-5414,1312,-2644,-3199,-7615,31904,3046,-557,9274,8304,34574,3596,32,127,0,0,6062,2526,10010,16589,5267,79,560,1,1,383,1,254128,0
254154,-842,-5697,1707,-2561,-3263,-8969,32845,1449,-1265,4254,2216,34810,2760,32,127,0,0,6239,1604,3250,16589,5267,79,570,1,1,383,1,254144,0
254164,-1271,-4861,1845,-3202,-3090,-10440,32700,-1044,-3272,714,-2112,35149,1672,32,127,0,0,6211,-483,1130,16589,5267,79,580,1,1,383,1,254160,0
254174,-2800,-2876,2504,-2652,-2580,-10034,31827,-2177,-3454,1103,-1272,35465,687,32,127,0,0,6061,-1609,0,16589,5267,79,590,0,1,383,1,254160,0
254184,-4440,144,2399,-2058,-1998,-6342,30919,-2486,-1269,-4394,-9456,35645,155,32,127,0,0,6063,368,0,16589,5267,79,600,0,1,383,1,254175,0
254194,2283,-3959,-988,-2172,1595,-3887,29322,-3352,-1509,1435,-4176,35626,236,32,127,0,0,6262,1713,0,16589,5267,79,610,0,1,383,1,254191,0
254204,-656,-2543,-68,-1223,4763,-4243,28358,-1735,162,1098,-2448,35651,162,32,127,0,0,6182,-944,0,16589,5267,79,620,0,1,383,1,254191,0
254214,90,-1594,-304,455,7231,-4004,27724,-1300,1907,-71,-3176,35650,152,32,127,0,0,5967,-2367,0,16589,5267,79,630,0,1,383,1,254207,0
254224,16,-1045,393,1001,6958,-3302,27069,-1625,421,-1597,-4968,35719,-48,32,127,0,0,5667,-2949,0,16589,5267,79,640,0,1,383,1,254222,0
254234,492,-810,739,1348,6707,-1531,26097,-2335,-775,-1453,-6288,35673,136,32,127,0,0,5370,-2922,0,16589,5267,79,650,0,1,383,1,254238,0
254244,782,-748,753,1307,6411,-275,24916,-2679,-997,-881,-6672,35650,212,32,127,0,0,5128,-2416,0,16589,5267,79,660,0,1,383,1,254238,0
254254,1115,-884,705,1189,5883,1608,23670,-2760,-469,-519,-6544,35637,232,32,127,0,0,4904,-2191,0,16589,5267,79,670,0,1,383,1,254238,0
254264,1252,-937,645,990,5380,2842,22428,-2695,-86,-319,-6200,35643,154,32,127,0,0,4693,-2070,0,16589,5267,79,680,0,1,383,1,254253,0
254274,1356,-952,613,796,4551,4648,21273,-2473,202,-294,-5928,35657,128,32,127,0,0,4503,-1933,0,16589,5267,79,690,0,1,383,1,254269,0
254284,1381,-883,495,667,3939,5796,20200,-2322,334,-285,-5616,35670,109,32,127,0,0,4322,-1845,0,16589,5267,79,700,0,1,383,1,254269,0
254294,1376,-761,326,510,3174,7268,19153,-2304,185,-235,-5208,35682,111,32,127,0,0,4150,-1713,0,16589,5267,79,710,0,1,383,1,254285,0
254304,1326,-671,228,470,2702,8138,18136,-2198,99,-176,-4784,35681,84,32,127,0,0,3983,-1658,0,16589,5267,79,720,0,1,383,1,254285,0
254314,1304,-554,138,432,2093,9351,17197,-2005,225,-163,-4480,35687,79,32,127,0,0,3827,-1609,0,16589,5267,79,730,0,1,383,1,254300,0
254324,1388,-516,109,384,1719,10104,16328,-1881,285,-267,-4344,35681,80,32,127,0,0,3667,-1554,0,16589,5267,79,740,0,1,383,1,254331,0
254334,1396,-384,160,330,1296,11148,15482,-1881,157,-434,-4352,35682,75,32,127,0,0,3491,-1675,0,16589,5267,79,750,0,1,383,1,254331,0
254344,1136,-343,174,356,928,11952,14623,-1885,-2,-403,-4272,35679,76,32,127,0,0,3328,-1598,0,16589,5267,79,760,0,1,383,1,254456,0
254354,750,-526,225,440,-330,13322,13795,-1779,50,-242,-3816,35674,61,32,127,0,0,3224,-933,0,16589,5267,79,770,0,1,383,1,254456,0
254364,677,-632,458,641,-1436,13986,13064,-1511,270,-50,-2784,35675,67,32,127,0,0,3197,-175,0,16589,5267,79,780,0,1,383,1,254456,0
254374,900,-901,379,1121,-2617,14373,12485,-1159,502,110,-1520,35685,37,32,127,0,0,3200,43,0,16589,5267,79,790,0,1,383,1,254456,0
254384,1268,-1198,75,1399,-2893,14637,12087,-756,650,147,-528,35694,12,32,127,0,0,3209,76,0,16589,5267,79,800,0,1,383,1,254456,0
254394,1160,-1520,-348,1878,-2948,15277,11880,-320,714,430,160,35693,-5,32,127,0,0,3227,197,0,16589,5267,79,810,0,1,383,1,254456,0
254404,998,-1895,-486,2264,-3087,15771,11928,220,861,556,632,35689,-2,32,127,0,0,3288,686,0,16589,5267,79,820,0,1,383,1,254456,0
254414,857,-2426,-358,3003,-3427,15902,12094,439,683,703,1368,35686,3,32,127,0,0,3396,1087,0,16589,5267,79,830,0,1,383,1,254456,0
254424,798,-2682,-149,3430,-3494,15427,12373,689,422,809,2000,35687,24,32,127,0,0,3480,867,0,16589,5267,79,840,0,1,383,1,254472,0
254434,641,-3216,157,3722,-3070,14368,12748,856,396,505,1984,35690,43,32,127,0,0,3527,368,0,16589,5267,79,850,0,1,383,1,254472,0
254444,371,-3684,152,3737,-2279,13790,13125,801,153,229,1416,35692,58,32,127,0,0,3520,-71,0,16589,5267,79,860,0,1,383,1,254472,0
254454,151,-4140,170,3687,-608,13074,13437,625,-151,63,624,35694,55,32,127,0,0,3495,-225,0,16589,5267,79,870,0,1,383,1,254472,0
254464,512,-3861,85,3569,502,12456,13645,395,-340,22,160,35694,23,32,127,0,0,3485,-126,0,16589,5267,79,880,0,1,383,1,254472,0
254474,674,-3689,-216,3184,1689,11162,13723,56,-456,-296,-112,35692,1,32,127,0,0,3461,-203,0,16589,5267,79,890,0,1,383,1,254472,0
254485,807,-3577,-352,2871,2569,9357,13667,-155,-489,-344,-184,35690,-17,32,127,0,0,3427,-340,0,16589,5267,79,901,0,1,383,1,254472,0
254495,1067,-3467,-423,2544,2990,7955,13580,-209,-253,-420,-336,35704,3,32,127,0,0,3399,-263,0,16589,5267,79,911,0,1,383,1,254472,0
254505,1404,-3460,-171,1843,3380,5302,13495,-164,-47,-392,-256,35721,33,32,127,0,0,3379,-175,0,16589,5267,79,921,0,1,383,1,254503,0
254515,1736,-3334,-125,1278,3626,3148,13425,-142,44,-319,-176,35721,24,32,127,0,0,3364,-164,0,16589,5267,79,931,0,1,383,1,254503,0
254525,2068,-3149,-131,400,3968,-514,13389,-43,89,-512,-312,35713,3,32,127,0,0,3324,-428,0,16589,5267,79,941,0,1,383,1,254519,0
254535,2446,-2962,-119,-39,4035,-2766,13317,-227,-14,-760,-592,35687,-8,32,127,0,0,3269,-527,0,16589,5267,79,951,0,1,383,1,254519,0
254545,2724,-2571,-162,-446,4222,-5438,13173,-339,-239,-636,-912,35691,5,32,127,0,0,3201,-725,0,16589,5267,79,961,0,1,383,1,254535,0
254555,1343,-5134,-658,-794,4228,-6462,12985,-462,-206,-584,-1160,35697,26,32,127,0,0,3170,-274,0,16589,5267,79,971,0,1,383,1,254550,0
254565,1370,-3704,7222,323,5118,-4463,12807,-194,-50,1714,1256,35694,30,32,127,0,0,3539,4031,0,26015,9587,80,5,1,1,541,-12,254550,0
254575,-2023,-4004,-150,2776,-169,-5527,13198,1238,1251,2324,4240,35681,74,32,127,0,0,3770,2241,0,26015,9587,80,15,1,1,541,-12,254550,0
254585,698,-680,-689,-398,-1958,-5058,14034,2057,1997,1556,5640,35656,138,32,127,0,0,3990,2186,0,26015,9587,80,25,1,1,541,-12,254581,0
254595,1632,-1158,-1352,-2747,-1483,-5737,15157,2626,1337,1124,6496,35647,206,32,127,0,0,4183,1867,0,26015,9587,80,35,1,1,541,-12,254581,0
254605,140,-3666,-2265,-2113,-1863,-7117,16400,2720,726,524,6376,35636,226,32,127,0,0,4308,1208,0,26015,9587,80,45,1,1,541,-12,254597,0
254615,-267,-3170,-1790,-1187,-1941,-7268,17586,2552,43,209,5592,35639,197,32,127,0,0,4374,626,0,26015,9587,80,55,1,1,541,-12,254597,0
