state_time,accelx,accely,accelz,gyrox,gyroy,gyroz,mot_ang,mot_vel,mot_acc,mot_cur,mot_volt,batt_volt,batt_curr,temperature,status_mn,status_ex,status_re,ank_ang,ank_vel,ank_torque,peak_ank_torque,step_energy,step_count,step_time,gait_state,movement,speed,incline,sys_time,eventFlags
358696,118,-2019,331,-41,-6,-39,13141,-7,-1,281,48,35838,-66,32,127,0,0,3606,16,0,8777,-1140,143,8592,-4,0,65,-6,358682,0
358706,130,-2018,334,-33,-5,-41,13142,-5,-4,249,48,35839,-71,32,127,0,0,3606,0,0,8777,-1140,143,8602,-4,0,65,-6,358713,0
358716,109,-2019,341,-35,-9,-43,13143,12,4,288,72,35846,-61,32,127,0,0,3602,-65,0,8777,-1140,143,8612,-4,0,65,-6,358713,0
358726,122,-2020,329,-38,-7,-47,13140,-8,-11,233,72,35846,-56,32,127,0,0,3609,21,0,8777,-1140,143,8622,-4,0,65,-6,358713,0
358736,128,-2028,344,-39,-11,-45,13144,0,1,259,88,35839,-53,32,127,0,0,3604,-10,0,8777,-1140,143,8632,-4,0,65,-6,358713,0
358746,166,-2025,339,-42,2,-56,13142,-3,3,236,48,35831,-62,32,127,0,0,3606,21,0,8777,-1140,143,8642,-4,0,65,-6,358744,0
358756,138,-2034,341,-45,-8,-51,13141,-12,-8,187,48,35828,-70,32,127,0,0,3606,71,0,8777,-1140,143,8652,-4,0,65,-6,358744,0
358766,146,-2028,341,-49,-13,-46,13143,1,6,232,48,35832,-79,32,127,0,0,3610,27,0,8777,-1140,143,8662,-4,0,65,-6,358744,0
358776,126,-2027,325,-44,-10,-48,13144,4,4,274,64,35837,-74,32,127,0,0,3605,-16,0,8777,-1140,143,8672,-4,0,65,-6,358776,0
358786,156,-2039,325,-42,-7,-46,13142,-3,-10,191,96,35840,-72,32,127,0,0,3601,38,0,8777,-1140,143,8682,-4,0,65,-6,358776,0
358796,169,-2032,334,-45,-8,-45,13143,-2,3,192,48,35841,-57,32,127,0,0,3606,0,0,8777,-1140,143,8692,-4,0,65,-6,358776,0
358806,130,-2024,330,-36,-18,-42,13143,8,1,241,48,35842,-45,32,127,0,0,3610,32,0,8777,-1140,143,8702,-4,0,65,-6,358791,0
358816,107,-2028,331,-34,-13,-40,13144,5,0,259,88,35864,-57,32,127,0,0,3604,21,0,8777,-1140,143,8712,-4,0,65,-6,358807,0
358826,155,-2018,326,-46,-1,-46,13143,-1,-2,256,72,35854,-47,32,127,0,0,3605,-5,0,8777,-1140,143,8722,-4,0,65,-6,358807,0
358836,157,-2023,341,-41,-7,-46,13142,-11,-2,230,96,35850,-59,32,127,0,0,3604,43,0,8777,-1140,143,8732,-4,0,65,-6,358822,0
358846,121,-2010,344,-41,-17,-37,13144,1,8,234,64,35842,-55,32,127,0,0,3609,10,0,8777,-1140,143,8742,-4,0,65,-6,358838,0
358856,86,-2024,338,-47,-14,-40,13144,9,2,254,24,35851,-29,32,127,0,0,3607,5,0,8777,-1140,143,8752,-4,0,65,-6,358854,0
358866,114,-2024,334,-47,-8,-47,13144,13,-4,252,48,35844,-19,32,127,0,0,3603,-10,0,8777,-1140,143,8762,-4,0,65,-6,358854,0
358876,135,-2016,337,-42,-10,-58,13143,0,5,230,48,35836,-29,32,127,0,0,3606,-10,0,8777,-1140,143,8772,-4,0,65,-6,358854,0
358886,125,-2030,339,-51,-14,-49,13143,-3,7,234,72,35840,-82,32,127,0,0,3605,-10,0,8777,-1140,143,8782,-4,0,65,-6,358885,0
358896,130,-2029,338,-49,-17,-51,13142,-7,-1,204,24,35841,-69,32,127,0,0,3607,27,0,8777,-1140,143,8792,-4,0,65,-6,358901,0
358906,121,-2034,331,-51,-16,-52,13142,0,-3,190,72,35840,-62,32,127,0,0,3602,5,0,8777,-1140,143,8802,-4,0,65,-6,358901,0
358916,161,-2026,331,-51,-17,-59,13141,-8,5,173,72,35839,-49,32,127,0,0,3602,-5,0,8777,-1140,143,8812,-4,0,65,-6,358916,0
358926,172,-2034,338,-51,-16,-63,13141,-6,-4,148,72,35844,-42,32,127,0,0,3602,49,0,8777,-1140,143,8822,-4,0,65,-6,358916,0
358936,164,-2030,326,-52,-11,-59,13145,8,4,223,48,35849,-36,32,127,0,0,3600,-76,0,8777,-1140,143,8832,-4,0,65,-6,358916,0
358946,116,-2024,330,-51,-14,-63,13140,0,-2,205,72,35857,-61,32,127,0,0,3605,-16,0,8777,-1140,143,8842,-4,0,65,-6,358947,0
358956,150,-2021,328,-50,-14,-55,13141,-20,-8,173,24,35873,-80,32,127,0,0,3604,32,0,8777,-1140,143,8852,-4,0,65,-6,358947,0
358966,151,-2018,331,-49,-15,-54,13141,2,0,130,24,35868,-91,32,127,0,0,3601,10,0,8777,-1140,143,8862,-4,0,65,-6,358963,0
358976,147,-2022,322,-45,-14,-50,13140,3,6,121,32,35864,-73,32,127,0,0,3604,32,0,8777,-1140,143,8872,-4,0,65,-6,358963,0
358986,159,-2022,321,-41,-10,-51,13142,6,1,183,48,35848,-53,32,127,0,0,3603,10,0,8777,-1140,143,8882,-4,0,65,-6,358979,0
358996,147,-2024,319,-38,-12,-46,13141,-9,-7,159,32,35860,-64,32,127,0,0,3604,21,0,8777,-1140,143,8892,-4,0,65,-6,359010,0
359006,123,-2023,328,-31,-13,-41,13142,2,-2,148,24,35861,-79,32,127,0,0,3601,-16,0,8777,-1140,143,8902,-4,0,65,-6,359010,0
359016,131,-2021,325,-26,-13,-43,13141,3,1,136,32,35867,-69,32,127,0,0,3601,-16,0,8777,-1140,143,8912,-4,0,65,-6,359010,0
359026,134,-2030,328,-26,-13,-39,13140,0,-1,142,48,35859,-64,32,127,0,0,3600,-10,0,8777,-1140,143,8922,-4,0,65,-6,359026,0
359036,141,-2021,335,-23,-9,-43,13141,-3,0,154,48,35849,-61,32,127,0,0,3600,-54,0,8777,-1140,143,8932,-4,0,65,-6,359026,0
359046,156,-2033,329,-22,0,-52,13140,2,4,149,48,35847,-69,32,127,0,0,3603,16,0,8777,-1140,143,8942,-4,0,65,-6,359026,0
359056,155,-2021,330,-21,-7,-48,13143,4,-1,208,48,35849,-80,32,127,0,0,3603,-27,0,8777,-1140,143,8952,-4,0,65,-6,359057,0
359066,159,-2022,335,-16,-10,-46,13139,-3,-4,151,32,35855,-78,32,127,0,0,3601,5,0,8777,-1140,143,8962,-4,0,65,-6,359057,0
359076,152,-2025,340,-23,-1,-50,13140,0,-1,150,48,35854,-70,32,127,0,0,3603,-5,0,8777,-1140,143,8972,-4,0,65,-6,359057,0
359086,149,-2008,343,-27,-15,-53,13139,-13,-1,151,56,35848,-63,32,127,0,0,3603,43,0,8777,-1140,143,8982,-4,0,65,-6,359072,0
359096,163,-2019,340,-32,-9,-51,13142,-9,0,176,48,35843,-64,32,127,0,0,3603,-10,0,8777,-1140,143,8992,-4,0,65,-6,359119,0
359106,137,-2021,339,-29,-13,-58,13140,-1,1,165,24,35855,-77,32,127,0,0,3601,-21,0,8777,-1140,143,9002,-4,0,65,-6,359119,0
359116,145,-2018,341,-34,-20,-60,13141,6,-5,135,72,35856,-68,32,127,0,0,3599,-16,0,8777,-1140,143,9012,-4,0,65,-6,359119,0
359126,171,-2019,339,-30,-10,-62,13139,-7,5,107,24,35864,-57,32,127,0,0,3604,32,0,8777,-1140,143,9022,-4,0,65,-6,359135,0
359136,146,-2019,334,-33,-9,-56,13142,9,4,161,24,35864,-57,32,127,0,0,3601,-10,0,8777,-1140,143,9032,-4,0,65,-6,359135,0
359146,133,-2027,332,-33,-13,-45,13139,-1,1,137,24,35870,-55,32,127,0,0,3601,-27,0,8777,-1140,143,9042,-4,0,65,-6,359135,0
359156,142,-2023,340,-34,-14,-48,13141,9,-2,136,24,35863,-58,32,127,0,0,3601,-16,0,8777,-1140,143,9052,-4,0,65,-6,359135,0
359166,139,-2036,336,-35,-11,-42,13141,0,2,113,0,35851,-40,32,127,0,0,3602,-27,0,8777,-1140,143,9062,-4,0,65,-6,359166,0
359176,122,-2024,338,-36,-14,-44,13140,11,0,102,32,35838,-39,32,127,0,0,3604,38,0,8777,-1140,143,9072,-4,0,65,-6,359166,0
359186,183,-2030,332,-38,-10,-37,13141,6,4,161,24,35835,-37,32,127,0,0,3601,-10,0,8777,-1140,143,9082,-4,0,65,-6,359182,0
359196,152,-2027,335,-35,-9,-39,13139,-5,-2,125,32,35838,-51,32,127,0,0,3601,0,0,8777,-1140,143,9092,-4,0,65,-6,359182,0
359206,139,-2028,340,-38,-15,-29,13140,0,1,128,56,35843,-65,32,127,0,0,3600,-21,0,8777,-1140,143,9102,-4,0,65,-6,359213,0
359216,164,-2029,333,-32,-4,-30,13137,-13,-6,62,56,35863,-70,32,127,0,0,3600,49,0,8777,-1140,143,9112,-4,0,65,-6,359213,0
359226,172,-2021,335,-33,-5,-36,13142,1,4,113,24,35866,-73,32,127,0,0,3601,-5,0,8777,-1140,143,9122,-4,0,65,-6,359213,0
359236,147,-2022,331,-29,-11,-33,13140,0,-3,122,32,35868,-59,32,127,0,0,3601,0,0,8777,-1140,143,9132,-4,0,65,-6,359213,0
359246,131,-2017,333,-28,-6,-23,13140,0,-5,111,32,35851,-51,32,127,0,0,3601,-10,0,8777,-1140,143,9142,-4,0,65,-6,359229,0
359256,140,-2021,329,-29,-6,-28,13140,0,5,132,32,35862,-61,32,127,0,0,3601,-5,0,8777,-1140,143,9152,-4,0,65,-6,359275,0
359266,114,-2028,333,-28,-15,-29,13141,1,0,133,48,35859,-67,32,127,0,0,3600,-21,0,8777,-1140,143,9162,-4,0,65,-6,359275,0
359276,131,-2019,342,-24,-9,-28,13140,-1,-1,114,56,35859,-74,32,127,0,0,3600,5,0,8777,-1140,143,9172,-4,0,65,-6,359275,0
359286,150,-2021,331,-30,-4,-42,13140,-5,3,131,72,35846,-74,32,127,0,0,3599,-5,0,8777,-1140,143,9182,-4,0,65,-6,359275,0
359296,154,-2021,327,-21,-7,-31,13140,-10,0,128,72,35843,-68,32,127,0,0,3602,38,0,8777,-1140,143,9192,-4,0,65,-6,359275,0
359306,177,-2023,333,-21,-10,-30,13142,-4,1,147,24,35844,-71,32,127,0,0,3601,-5,0,8777,-1140,143,9202,-4,0,65,-6,359291,0
359316,130,-2015,329,-18,-5,-29,13140,7,-6,141,56,35851,-59,32,127,0,0,3603,21,0,8777,-1140,143,9212,-4,0,65,-6,359338,0
359326,140,-2023,339,-14,-2,-25,13142,3,-1,191,48,35855,-45,32,127,0,0,3603,0,0,8777,-1140,143,9222,-4,0,65,-6,359338,0
359336,145,-2022,334,-15,1,-23,13142,0,3,194,48,35853,-28,32,127,0,0,3603,0,0,8777,-1140,143,9232,-4,0,65,-6,359338,0
359346,151,-2022,334,-12,-5,-21,13139,-9,-2,164,56,35849,-27,32,127,0,0,3603,38,0,8777,-1140,143,9242,-4,0,65,-6,359338,0
359356,163,-2019,334,-7,-5,-17,13142,-6,6,201,48,35841,-39,32,127,0,0,3603,-16,0,8777,-1140,143,9252,-4,0,65,-6,359354,0
359366,149,-2015,334,-1,2,-20,13140,-3,-8,177,56,35840,-44,32,127,0,0,3603,16,0,8777,-1140,143,9262,-4,0,65,-6,359354,0
359376,135,-2026,343,-7,-5,-19,13144,11,1,214,48,35851,-61,32,127,0,0,3603,-43,0,8777,-1140,143,9272,-4,0,65,-6,359369,0
359386,122,-2019,348,-3,-4,-5,13142,6,1,241,48,35867,-78,32,127,0,0,3610,-5,0,8777,-1140,143,9282,-4,0,65,-6,359369,0
359396,152,-2016,348,-11,-7,2,13146,14,5,316,88,35874,-90,32,127,0,0,3607,0,0,8777,-1140,143,9292,-4,0,65,-6,359510,0
359406,132,-2023,340,-9,-14,2,13145,-5,1,320,88,35875,-105,32,127,0,0,3611,32,0,8777,-1140,143,9302,-4,0,65,-6,359510,0
359416,122,-2016,348,-14,-9,-2,13148,14,0,376,104,35852,-79,32,127,0,0,3610,0,0,8777,-1140,143,9312,-4,0,65,-6,359525,0
359426,128,-2027,344,-17,-13,-15,13152,6,10,383,120,35835,-62,32,127,0,0,3612,21,0,8777,-1140,143,9322,-4,0,65,-6,359525,0
359436,113,-2024,349,-13,-9,-15,13151,-5,-11,358,128,35829,-46,32,127,0,0,3612,49,0,8777,-1140,143,9332,-4,0,65,-6,359525,0
359446,107,-2019,340,-20,-6,-26,13154,5,2,402,144,35835,-51,32,127,0,0,3611,-10,0,8777,-1140,143,9342,-4,0,65,-6,359525,0
359456,126,-2027,333,-17,-3,-35,13156,4,5,374,112,35839,-51,32,127,0,0,3612,0,0,8777,-1140,143,9352,-4,0,65,-6,359525,0
359466,117,-2014,342,-14,5,-47,13156,5,-7,395,136,35835,-51,32,127,0,0,3611,-5,0,8777,-1140,143,9362,-4,0,65,-6,359525,0
359476,146,-2024,347,-26,-8,-50,13158,-5,2,392,112,35831,-60,32,127,0,0,3612,-21,0,8777,-1140,143,9372,-4,0,65,-6,359525,0
359486,119,-2024,345,-18,-8,-50,13159,1,-4,393,128,35831,-66,32,127,0,0,3614,21,0,8777,-1140,143,9382,-4,0,65,-6,359525,0
359496,117,-2020,342,-19,-8,-52,13161,8,2,396,104,35835,-66,32,127,0,0,3615,-5,0,8777,-1140,143,9392,-4,0,65,-6,359541,0
359506,126,-2021,344,-26,-2,-59,13170,19,14,338,88,35835,-59,32,127,0,0,3609,-54,0,8777,-1140,143,9402,-4,0,65,-6,359541,0
359516,147,-2023,342,-21,-3,-58,13178,22,3,253,96,35833,-56,32,127,0,0,3611,-38,0,8777,-1140,143,9412,-4,0,65,-6,359541,0
359526,119,-2020,348,-20,-7,-57,13195,32,17,163,56,35830,-64,32,127,0,0,3614,0,0,8777,-1140,143,9422,-4,0,65,-6,359541,0
359536,148,-2024,349,-20,-13,-56,13201,-6,-13,138,48,35833,-83,32,127,0,0,3607,-38,0,8777,-1140,143,9432,-4,0,65,-6,359541,0
359546,111,-2021,349,-22,-4,-60,13198,-4,-41,61,8,35831,-93,32,127,0,0,3619,54,0,8777,-1140,143,9442,-4,0,65,-6,359541,0
359556,93,-2023,347,-24,-7,-55,13202,12,4,142,24,35840,-99,32,127,0,0,3612,5,0,8777,-1140,143,9452,-4,0,65,-6,359541,0
359566,133,-2030,345,-19,-5,-58,13200,4,1,138,48,35844,-75,32,127,0,0,3614,5,0,8777,-1140,143,9462,-4,0,65,-6,359541,0
359576,157,-2026,352,-21,-5,-58,13199,-10,-5,113,32,35856,-72,32,127,0,0,3612,21,0,8777,-1140,143,9472,-4,0,65,-6,359572,0
359586,123,-2026,349,-26,-11,-57,13199,-2,2,75,32,35846,-65,32,127,0,0,3609,-27,0,8777,-1140,143,9482,-4,0,65,-6,359572,0
359596,144,-2022,346,-24,-5,-59,13198,2,1,58,8,35847,-79,32,127,0,0,3613,-10,0,8777,-1140,143,9492,-4,0,65,-6,359572,0
359606,144,-2033,340,-24,-6,-53,13200,9,-1,76,24,35828,-84,32,127,0,0,3609,-27,0,8777,-1140,143,9502,-4,0,65,-6,359682,0
359616,142,-2025,344,-19,-12,-51,13199,5,4,55,32,35839,-95,32,127,0,0,3609,-27,0,8777,-1140,143,9512,-4,0,65,-6,359697,0
359626,133,-2016,350,-27,-5,-58,13199,0,-1,38,32,35833,-96,32,127,0,0,3615,54,0,8777,-1140,143,9522,-4,0,65,-6,359697,0
359636,119,-2017,349,-27,-3,-51,13201,7,11,110,0,35833,-82,32,127,0,0,3613,-5,0,8777,-1140,143,9532,-4,0,65,-6,359697,0
359646,141,-2017,340,-28,-10,-50,13198,4,-11,51,32,35829,-85,32,127,0,0,3612,49,0,8777,-1140,143,9542,-4,0,65,-6,359697,0
359656,147,-2015,345,-28,-10,-54,13200,3,2,67,24,35832,-64,32,127,0,0,3609,-27,0,8777,-1140,143,9552,-4,0,65,-6,359697,0
359666,131,-2020,339,-26,-7,-56,13198,7,5,76,32,35833,-74,32,127,0,0,3612,-10,0,8777,-1140,143,9562,-4,0,65,-6,359697,0
359676,136,-2019,344,-28,-7,-58,13199,-5,-4,117,8,35829,-74,32,127,0,0,3610,-54,0,8777,-1140,143,9572,-4,0,65,-6,359697,0
359686,123,-2022,340,-22,-3,-61,13196,-13,-6,21,-16,35826,-84,32,127,0,0,3611,-5,0,8777,-1140,143,9582,-4,0,65,-6,359697,0
359696,140,-2024,347,-24,-5,-60,13197,0,2,8,8,35825,-87,32,127,0,0,3606,-32,0,8777,-1140,143,9592,-4,0,65,-6,359697,0
359706,138,-2025,346,-29,-2,-61,13197,-2,4,0,8,35825,-77,32,127,0,0,3610,-10,0,8777,-1140,143,9602,-4,0,65,-6,359713,0
359716,146,-2013,351,-26,-4,-57,13198,0,-4,-8,8,35829,-75,32,127,0,0,3606,-16,0,8777,-1140,143,9612,-4,0,65,-6,359713,0
359726,151,-2017,357,-32,-6,-60,13197,1,-3,-14,8,35837,-80,32,127,0,0,3610,16,0,8777,-1140,143,9622,-4,0,65,-6,359713,0
359736,135,-2025,357,-31,-5,-58,13197,-8,-2,-3,-16,35846,-90,32,127,0,0,3607,-10,0,8777,-1140,143,9632,-4,0,65,-6,359713,0
359746,134,-2025,362,-37,-10,-56,13197,3,-5,-21,8,35860,-95,32,127,0,0,3606,0,0,8777,-1140,143,9642,-4,0,65,-6,359728,0
359756,148,-2018,359,-38,2,-58,13197,5,3,-29,-16,35867,-90,32,127,0,0,3607,-27,0,8777,-1140,143,9652,-4,0,65,-6,359775,0
359766,136,-2023,349,-38,-5,-61,13198,5,1,-27,-16,35855,-89,32,127,0,0,3604,-32,0,8777,-1140,143,9662,-4,0,65,-6,359775,0
359776,148,-2023,349,-37,-3,-66,13193,-11,-6,-95,-8,35845,-99,32,127,0,0,3607,5,0,8777,-1140,143,9672,-4,0,65,-6,359775,0
359786,149,-2035,349,-40,-1,-73,13194,-9,-3,-77,-56,35843,-88,32,127,0,0,3610,16,0,8777,-1140,143,9682,-4,0,65,-6,359775,0
359796,123,-2026,360,-41,-2,-86,13194,10,2,-72,-8,35838,-73,32,127,0,0,3601,-54,0,8777,-1140,143,9692,-4,0,65,-6,359775,0
359806,115,-2031,357,-40,-2,-90,13190,-2,-1,-146,-24,35833,-62,32,127,0,0,3602,-65,0,8777,-1140,143,9702,-4,0,65,-6,359791,0
359816,134,-2012,356,-45,-3,-97,13190,-4,-2,-213,-48,35849,-67,32,127,0,0,3600,-38,0,8777,-1140,143,9712,-4,0,65,-6,359807,0
359826,127,-2018,356,-48,1,-105,13183,-6,-8,-216,-56,35855,-60,32,127,0,0,3601,-10,0,8777,-1140,143,9722,-4,0,65,-6,359807,0
359836,128,-2023,349,-43,-8,-97,13174,-22,0,-256,-64,35853,-70,32,127,0,0,3599,10,0,8777,-1140,143,9732,-4,0,65,-6,359822,0
359846,153,-2009,347,-49,-6,-102,13157,-52,-23,-208,-72,35838,-74,32,127,0,0,3598,-5,0,8777,-1140,143,9742,-4,0,65,-6,359853,0
359856,121,-2013,341,-48,-5,-114,13139,-15,-27,-21,-16,35849,-82,32,127,0,0,3593,-21,0,8777,-1140,143,9752,-4,0,65,-6,359853,0
359866,174,-2013,355,-40,-8,-103,13139,-5,44,-164,-40,35853,-80,32,127,0,0,3594,-5,0,8777,-1140,143,9762,-4,0,65,-6,359853,0
359876,150,-2022,347,-43,-9,-99,13137,-21,20,-222,-56,35854,-73,32,127,0,0,3592,10,0,8777,-1140,143,9772,-4,0,65,-6,359853,0
359886,159,-2017,342,-45,-11,-93,13135,-4,-8,-253,-128,35844,-74,32,127,0,0,3592,-10,0,8777,-1140,143,9782,-4,0,65,-6,359885,0
359896,151,-2021,348,-48,-13,-90,13127,-7,-7,-244,-88,35856,-81,32,127,0,0,3584,-71,0,8777,-1140,143,9792,-4,0,65,-6,359885,0
359906,140,-2016,350,-44,-17,-81,13124,-9,2,-304,-56,35862,-82,32,127,0,0,3580,-98,0,8777,-1140,143,9802,-4,0,65,-6,359885,0
359916,159,-2022,351,-51,-18,-78,13119,-23,6,-361,-96,35862,-75,32,127,0,0,3589,21,0,8777,-1140,143,9812,-4,0,65,-6,359900,0
359926,124,-2023,348,-48,-17,-78,13108,-24,-20,-281,-56,35860,-49,32,127,0,0,3584,10,0,8777,-1140,143,9822,-4,0,65,-6,359932,0
359936,136,-2008,350,-45,-15,-87,13088,-55,-25,-191,-56,35846,-29,32,127,0,0,3583,-16,0,8777,-1140,143,9832,-4,0,65,-6,359932,0
359946,121,-2031,342,-49,-8,-94,13074,-4,-12,-110,-48,35842,-36,32,127,0,0,3584,-5,0,8777,-1140,143,9842,-4,0,65,-6,359932,0
359956,167,-2023,343,-43,-13,-84,13076,-7,46,-161,-32,35832,-41,32,127,0,0,3583,21,0,8777,-1140,143,9852,-4,0,65,-6,359947,0
359966,174,-2024,345,-42,-16,-74,13075,2,17,-154,-72,35850,-59,32,127,0,0,3582,10,0,8777,-1140,143,9862,-4,0,65,-6,359947,0
359976,166,-2028,345,-41,-12,-72,13074,1,-5,-196,-48,35846,-62,32,127,0,0,3578,-32,0,8777,-1140,143,9872,-4,0,65,-6,360041,0
359986,156,-2017,350,-33,-11,-61,13072,-7,-1,-269,-56,35854,-62,32,127,0,0,3574,-38,0,8777,-1140,143,9882,-4,0,65,-6,360041,0
359996,170,-2017,344,-30,-5,-59,13072,4,2,-269,-48,35853,-52,32,127,0,0,3581,5,0,8777,-1140,143,9892,-4,0,65,-6,360041,0
360006,175,-2022,342,-27,-14,-54,13072,-6,0,-263,-48,35853,-49,32,127,0,0,3581,54,0,8777,-1140,143,9902,-4,0,65,-6,360041,0
360016,149,-2029,336,-32,-12,-43,13071,-12,-2,-261,-96,35842,-43,32,127,0,0,3583,76,0,8777,-1140,143,9912,-4,0,65,-6,360057,0
360026,172,-2012,330,-23,-10,-48,13069,-13,2,-272,-64,35840,-61,32,127,0,0,3582,93,0,8777,-1140,143,9922,-4,0,65,-6,360057,0
360036,148,-2021,346,-18,-9,-31,13070,-9,0,-273,-88,35841,-69,32,127,0,0,3580,54,0,8777,-1140,143,9932,-4,0,65,-6,360057,0
360046,143,-2017,349,-22,-11,-24,13072,10,4,-229,-64,35843,-59,32,127,0,0,3582,16,0,8777,-1140,143,9942,-4,0,65,-6,360057,0
360056,163,-2020,344,-18,-4,-28,13069,-15,-6,-258,-64,35845,-50,32,127,0,0,3576,0,0,8777,-1140,143,9952,-4,0,65,-6,360057,0
360066,164,-2018,345,-18,1,-27,13069,1,-1,-264,-40,35845,-53,32,127,0,0,3581,54,0,8777,-1140,143,9962,-4,0,65,-6,360057,0
360076,158,-2015,345,-7,-4,-18,13070,-11,3,-240,-40,35849,-65,32,127,0,0,3581,43,0,8777,-1140,143,9972,-4,0,65,-6,360057,0
360086,174,-2018,347,-15,-5,-14,13070,0,3,-239,-48,35857,-65,32,127,0,0,3581,43,0,8777,-1140,143,9982,-4,0,65,-6,360072,0
360096,149,-2022,350,-15,2,-15,13069,-6,-1,-232,-40,35857,-65,32,127,0,0,3581,60,0,8777,-1140,143,9992,-4,0,65,-6,360088,0
360106,159,-2023,352,-19,-4,-25,13070,-8,-2,-218,-48,35875,-61,32,127,0,0,3581,21,0,8777,-1140,143,10002,-4,0,65,-6,360103,0
360116,126,-2021,351,-19,-2,-24,13072,4,1,-193,-48,35866,-60,32,127,0,0,3581,16,0,8777,-1140,143,10012,-4,0,65,-6,360103,0
360126,145,-2023,354,-20,-4,-29,13070,3,-3,-213,-16,35855,-61,32,127,0,0,3580,38,0,8777,-1140,143,10022,-4,0,65,-6,360103,0
360136,164,-2032,352,-25,-4,-26,13073,4,-3,-196,-24,35851,-67,32,127,0,0,3580,5,0,8777,-1140,143,10032,-4,0,65,-6,360135,0
360146,152,-2020,356,-28,-7,-33,13070,-9,-1,-227,-48,35844,-50,32,127,0,0,3581,21,0,8777,-1140,143,10042,-4,0,65,-6,360135,0
360156,131,-2027,357,-33,-11,-31,13072,7,-1,-173,-24,35842,-45,32,127,0,0,3583,38,0,8777,-1140,143,10052,-4,0,65,-6,360135,0
360166,163,-2027,346,-29,-6,-38,13071,-10,1,-162,-64,35839,-39,32,127,0,0,3582,5,0,8777,-1140,143,10062,-4,0,65,-6,360181,0
360176,134,-2028,349,-31,-10,-36,13073,18,-6,-166,-48,35861,-56,32,127,0,0,3578,-32,0,8777,-1140,143,10072,-4,0,65,-6,360181,0
360186,105,-2020,358,-28,-8,-39,13070,-8,2,-169,-40,35853,-41,32,127,0,0,3584,-5,0,8777,-1140,143,10082,-4,0,65,-6,360181,0
360196,119,-2017,365,-30,-16,-36,13071,-3,0,-168,-48,35853,-46,32,127,0,0,3581,10,0,8777,-1140,143,10092,-4,0,65,-6,360181,0
360206,135,-2020,355,-29,-8,-41,13072,7,1,-155,-24,35845,-56,32,127,0,0,3580,-21,0,8777,-1140,143,10102,-4,0,65,-6,360181,0
360216,144,-2019,354,-33,-14,-40,13072,0,4,-158,-24,35851,-72,32,127,0,0,3580,-10,0,8777,-1140,143,10112,-4,0,65,-6,360213,0
360226,149,-2022,354,-41,-11,-42,13070,-8,-6,-195,-40,35856,-65,32,127,0,0,3581,0,0,8777,-1140,143,10122,-4,0,65,-6,360213,0
360236,140,-2018,355,-37,-11,-46,13074,16,4,-144,-48,35853,-64,32,127,0,0,3584,-10,0,8777,-1140,143,10132,-4,0,65,-6,360228,0
360246,123,-2025,352,-32,-11,-50,13072,-2,0,-130,-48,35847,-66,32,127,0,0,3584,16,0,8777,-1140,143,10142,-4,0,65,-6,360228,0
360256,118,-2018,353,-30,-13,-54,13072,0,-4,-165,-24,35847,-67,32,127,0,0,3580,16,0,8777,-1140,143,10152,-4,0,65,-6,360228,0
360266,136,-2024,358,-36,-7,-71,13073,7,11,-145,-48,35846,-52,32,127,0,0,3581,-32,0,8777,-1140,143,10162,-4,0,65,-6,360306,0
360276,154,-2016,364,-35,-7,-62,13069,-7,-8,-179,-40,35841,-39,32,127,0,0,3581,21,0,8777,-1140,143,10172,-4,0,65,-6,360306,0
360286,132,-2015,368,-44,-17,-64,13072,-1,3,-165,-24,35839,-44,32,127,0,0,3583,10,0,8777,-1140,143,10182,-4,0,65,-6,360306,0
360296,140,-2018,360,-45,-19,-58,13072,0,2,-174,-48,35840,-40,32,127,0,0,3581,10,0,8777,-1140,143,10192,-4,0,65,-6,360306,0
360306,138,-2015,355,-44,-16,-71,13070,0,-8,-188,-40,35849,-63,32,127,0,0,3578,-5,0,8777,-1140,143,10202,-4,0,65,-6,360322,0
360316,161,-2014,351,-45,-21,-71,13071,-1,2,-203,-48,35841,-51,32,127,0,0,3581,-10,0,8777,-1140,143,10212,-4,0,65,-6,360322,0
360326,156,-2015,358,-43,-13,-67,13072,0,3,-159,-72,35839,-56,32,127,0,0,3582,-21,0,8777,-1140,143,10222,-4,0,65,-6,360322,0
360336,139,-2015,352,-41,-18,-68,13071,7,0,-188,-24,35836,-63,32,127,0,0,3583,54,0,8777,-1140,143,10232,-4,0,65,-6,360322,0
360346,204,-2021,354,-45,-6,-68,13071,-16,1,-199,-48,35843,-58,32,127,0,0,3584,87,0,8777,-1140,143,10242,-4,0,65,-6,360322,0
360356,166,-2028,354,-50,-15,-59,13072,7,6,-208,-88,35847,-28,32,127,0,0,3583,38,0,8777,-1140,143,10252,-4,0,65,-6,360353,0
360366,165,-2022,361,-41,-11,-58,13070,9,0,-182,-40,35847,-27,32,127,0,0,3584,60,0,8777,-1140,143,10262,-4,0,65,-6,360353,0
360376,159,-2020,347,-48,-12,-54,13073,-9,3,-164,-48,35841,-30,32,127,0,0,3581,10,0,8777,-1140,143,10272,-4,0,65,-6,360369,0
360386,154,-2028,343,-49,-8,-58,13071,10,1,-174,-48,35839,-53,32,127,0,0,3581,0,0,8777,-1140,143,10282,-4,0,65,-6,360385,0
360396,136,-2021,349,-41,-14,-53,13068,-16,-4,-169,-40,35850,-57,32,127,0,0,3581,10,0,8777,-1140,143,10292,-4,0,65,-6,360385,0
360406,145,-2023,352,-39,-8,-59,13071,0,-2,-160,-48,35854,-41,32,127,0,0,3581,-16,0,8777,-1140,143,10302,-4,0,65,-6,360385,0
360416,137,-2016,348,-42,-10,-60,13071,0,6,-195,-48,35847,-49,32,127,0,0,3581,5,0,8777,-1140,143,10312,-4,0,65,-6,360431,0
360426,158,-2022,349,-38,-4,-58,13071,6,-2,-163,-48,35849,-49,32,127,0,0,3578,-60,0,8777,-1140,143,10322,-4,0,65,-6,360431,0
360436,148,-2019,363,-38,-15,-61,13069,0,0,-204,-40,35841,-50,32,127,0,0,3581,5,0,8777,-1140,143,10332,-4,0,65,-6,360431,0
360446,153,-2014,360,-37,-12,-56,13071,0,0,-173,-48,35841,-56,32,127,0,0,3581,-27,0,8777,-1140,143,10342,-4,0,65,-6,360431,0
360456,138,-2016,353,-44,-11,-57,13071,5,6,-197,-48,35836,-56,32,127,0,0,3581,16,0,8777,-1140,143,10352,-4,0,65,-6,360431,0
360466,158,-2014,345,-40,-12,-51,13070,0,0,-209,-64,35840,-51,32,127,0,0,3579,-21,0,8777,-1140,143,10362,-4,0,65,-6,360463,0
360476,165,-2019,347,-36,-11,-53,13071,16,3,-208,-64,35850,-45,32,127,0,0,3582,-10,0,8777,-1140,143,10372,-4,0,65,-6,360463,0
360486,183,-2016,352,-35,-9,-47,13069,-2,3,-187,-40,35853,-56,32,127,0,0,3581,54,0,8777,-1140,143,10382,-4,0,65,-6,360478,0
360496,177,-2016,353,-36,-9,-46,13071,-11,3,-189,-64,35852,-45,32,127,0,0,3582,-5,0,8777,-1140,143,10392,-4,0,65,-6,360478,0
360506,146,-2010,352,-36,-6,-32,13073,19,7,-155,-96,35848,-65,32,127,0,0,3583,-16,0,8777,-1140,143,10402,-4,0,65,-6,360478,0
360516,136,-2011,360,-35,-6,-34,13069,-10,-2,-136,-40,35846,-57,32,127,0,0,3581,5,0,8777,-1140,143,10412,-4,0,65,-6,360510,0
360526,151,-2015,363,-37,-10,-28,13068,-17,-6,-232,-80,35847,-47,32,127,0,0,3583,49,0,8777,-1140,143,10422,-4,0,65,-6,360510,0
360536,131,-2014,364,-41,-7,-29,13070,12,10,-201,-40,35845,-41,32,127,0,0,3578,10,0,8777,-1140,143,10432,-4,0,65,-6,360525,0
360546,148,-2020,359,-42,0,-37,13070,6,4,-208,-64,35845,-38,32,127,0,0,3579,-43,0,8777,-1140,143,10442,-4,0,65,-6,360541,0
360556,132,-2018,356,-42,-9,-36,13067,-1,-11,-260,-40,35844,-45,32,127,0,0,3581,76,0,8777,-1140,143,10452,-4,0,65,-6,360541,0
360566,161,-2021,356,-43,-2,-39,13071,-6,5,-206,-64,35838,-43,32,127,0,0,3582,10,0,8777,-1140,143,10462,-4,0,65,-6,360556,0
360576,135,-2019,354,-44,-5,-37,13071,17,1,-167,-48,35829,-39,32,127,0,0,3581,27,0,8777,-1140,143,10472,-4,0,65,-6,360556,0
360586,136,-2024,362,-43,-10,-43,13068,-12,-7,-159,-40,35822,-54,32,127,0,0,3578,-38,0,8777,-1140,143,10482,-4,0,65,-6,360572,0
360596,182,-2020,362,-46,-9,-44,13069,-7,0,-190,-40,35833,-52,32,127,0,0,3581,-10,0,8777,-1140,143,10492,-4,0,65,-6,360588,0
360606,153,-2018,359,-49,-8,-43,13070,2,4,-172,-40,35851,-57,32,127,0,0,3578,-32,0,8777,-1140,143,10502,-4,0,65,-6,360603,0
360616,174,-2017,353,-49,1,-44,13068,1,-2,-210,-64,35849,-46,32,127,0,0,3582,0,0,8777,-1140,143,10512,-4,0,65,-6,360603,0
360626,159,-2023,356,-45,-3,-32,13069,0,-2,-207,-16,35839,-46,32,127,0,0,3580,38,0,8777,-1140,143,10522,-4,0,65,-6,360603,0
360636,191,-2022,357,-51,-6,-30,13071,-3,5,-210,-48,35840,-59,32,127,0,0,3581,27,0,8777,-1140,143,10532,-4,0,65,-6,360634,0
360646,161,-2018,360,-43,-4,-27,13069,-9,-8,-230,-40,35845,-59,32,127,0,0,3581,49,0,8777,-1140,143,10542,-4,0,65,-6,360634,0
360656,162,-2024,355,-45,-9,-23,13070,-2,-3,-214,-16,35844,-64,32,127,0,0,3580,49,0,8777,-1140,143,10552,-4,0,65,-6,360650,0
360666,164,-2017,351,-54,0,-30,13069,-8,2,-181,-40,35834,-65,32,127,0,0,3581,0,0,8777,-1140,143,10562,-4,0,65,-6,360650,0
360676,140,-2013,349,-47,-8,-31,13070,0,-4,-166,-16,35827,-71,32,127,0,0,3580,5,0,8777,-1140,143,10572,-4,0,65,-6,360666,0
360686,161,-2009,367,-53,0,-29,13069,-7,-7,-173,-40,35837,-71,32,127,0,0,3581,0,0,8777,-1140,143,10582,-4,0,65,-6,360666,0
360696,154,-2014,358,-54,-9,-29,13069,-3,-2,-233,-40,35841,-67,32,127,0,0,3581,49,0,8777,-1140,143,10592,-4,0,65,-6,360681,0
360706,157,-2016,350,-57,-4,-30,13073,12,4,-184,-48,35846,-64,32,127,0,0,3581,0,0,8777,-1140,143,10602,-4,0,65,-6,360759,0
360716,121,-2017,350,-55,-11,-36,13069,1,0,-176,-40,35829,-52,32,127,0,0,3581,5,0,8777,-1140,143,10612,-4,0,65,-6,360759,0
360726,160,-2016,352,-65,-6,-44,13070,-5,-1,-171,-40,35831,-40,32,127,0,0,3581,21,0,8777,-1140,143,10622,-4,0,65,-6,360759,0
360736,157,-2026,362,-60,-2,-53,13070,-2,4,-164,-40,35827,-54,32,127,0,0,3584,27,0,8777,-1140,143,10632,-4,0,65,-6,360759,0
360746,164,-2018,363,-60,-9,-46,13070,-7,0,-162,-40,35837,-56,32,127,0,0,3584,43,0,8777,-1140,143,10642,-4,0,65,-6,360759,0
360756,153,-2026,351,-61,-10,-47,13072,11,3,-141,-48,35834,-64,32,127,0,0,3581,-16,0,8777,-1140,143,10652,-4,0,65,-6,360775,0
360766,146,-2030,342,-58,-13,-41,13069,-4,-6,-169,-64,35834,-60,32,127,0,0,3585,38,0,8777,-1140,143,10662,-4,0,65,-6,360775,0
360776,161,-2023,340,-61,-10,-43,13071,-4,3,-167,-64,35836,-59,32,127,0,0,3582,21,0,8777,-1140,143,10672,-4,0,65,-6,360775,0
360786,152,-2027,357,-59,-8,-40,13074,16,3,-130,-48,35838,-55,32,127,0,0,3581,-21,0,8777,-1140,143,10682,-4,0,65,-6,360775,0
360796,160,-2023,351,-51,-4,-39,13070,-3,1,-144,-40,35835,-38,32,127,0,0,3578,-60,0,8777,-1140,143,10692,-4,0,65,-6,360775,0
360806,148,-2019,352,-55,-6,-36,13070,1,-5,-204,-64,35842,-37,32,127,0,0,3585,32,0,8777,-1140,143,10702,-4,0,65,-6,360806,0
360816,130,-2017,346,-52,-6,-29,13071,0,12,-157,-48,35849,-41,32,127,0,0,3581,10,0,8777,-1140,143,10712,-4,0,65,-6,360806,0
360826,153,-2020,344,-50,-3,-33,13070,0,0,-182,-40,35853,-49,32,127,0,0,3581,5,0,8777,-1140,143,10722,-4,0,65,-6,360806,0
360836,136,-2020,345,-49,-1,-31,13069,-3,1,-176,-40,35850,-57,32,127,0,0,3581,0,0,8777,-1140,143,10732,-4,0,65,-6,360822,0
360846,154,-2016,358,-50,-9,-35,13069,-9,-3,-210,-88,35840,-61,32,127,0,0,3583,32,0,8777,-1140,143,10742,-4,0,65,-6,360853,0
360856,136,-2021,353,-51,-6,-34,13072,10,6,-139,-48,35852,-62,32,127,0,0,3584,27,0,8777,-1140,143,10752,-4,0,65,-6,360853,0
360866,151,-2021,354,-49,-5,-30,13069,-11,1,-154,-40,35854,-55,32,127,0,0,3581,10,0,8777,-1140,143,10762,-4,0,65,-6,360853,0
360876,155,-2018,350,-55,-7,-32,13071,3,0,-137,-48,35847,-51,32,127,0,0,3581,-32,0,8777,-1140,143,10772,-4,0,65,-6,360853,0
360886,124,-2019,353,-54,-9,-29,13070,-3,0,-138,-16,35838,-58,32,127,0,0,3583,5,0,8777,-1140,143,10782,-4,0,65,-6,360869,0
360896,153,-2018,354,-54,-8,-25,13072,-6,-3,-136,-24,35848,-55,32,127,0,0,3580,0,0,8777,-1140,143,10792,-4,0,65,-6,360900,0
360906,139,-2023,353,-50,-10,-35,13073,7,5,-118,-24,35861,-45,32,127,0,0,3580,-43,0,8777,-1140,143,10802,-4,0,65,-6,360900,0
360916,153,-2012,346,-57,-12,-41,13069,-16,-3,-164,-16,35865,-48,32,127,0,0,3580,5,0,8777,-1140,143,10812,-4,0,65,-6,360900,0
360926,156,-2016,348,-55,-6,-38,13073,5,2,-146,-24,35852,-48,32,127,0,0,3583,5,0,8777,-1140,143,10822,-4,0,65,-6,360931,0
360936,146,-2018,351,-51,-5,-33,13072,1,3,-93,-24,35852,-52,32,127,0,0,3583,0,0,8777,-1140,143,10832,-4,0,65,-6,360931,0
360946,142,-2017,352,-50,-8,-34,13071,-6,-5,-108,-24,35849,-48,32,127,0,0,3583,5,0,8777,-1140,143,10842,-4,0,65,-6,360931,0
360956,140,-2018,349,-51,-7,-33,13070,-4,0,-145,-24,35849,-50,32,127,0,0,3583,43,0,8777,-1140,143,10852,-4,0,65,-6,360931,0
360966,144,-2020,360,-52,-9,-41,13074,7,4,-63,-24,35846,-52,32,127,0,0,3580,-54,0,8777,-1140,143,10862,-4,0,65,-6,360963,0
360976,136,-2019,353,-60,-9,-46,13070,-4,-12,-144,-16,35846,-51,32,127,0,0,3580,-10,0,8777,-1140,143,10872,-4,0,65,-6,360963,0
360986,160,-2016,346,-52,-11,-45,13071,-6,-1,-155,-24,35848,-48,32,127,0,0,3583,27,0,8777,-1140,143,10882,-4,0,65,-6,360978,0
360996,183,-2030,341,-57,-6,-47,13070,-18,3,-167,-24,35846,-56,32,127,0,0,3583,49,0,8777,-1140,143,10892,-4,0,65,-6,360978,0
361006,163,-2025,351,-53,-15,-43,13074,14,1,-102,-24,35854,-72,32,127,0,0,3583,0,0,8777,-1140,143,10902,-4,0,65,-6,361025,0
361016,144,-2028,346,-50,-14,-49,13072,-3,-5,-82,-24,35854,-69,32,127,0,0,3580,-32,0,8777,-1140,143,10912,-4,0,65,-6,361025,0
361026,136,-2023,342,-52,-11,-44,13073,6,-10,-114,-24,35856,-68,32,127,0,0,3583,-10,0,8777,-1140,143,10922,-4,0,65,-6,361025,0
361036,143,-2021,345,-59,-6,-42,13072,-5,8,-89,-24,35851,-72,32,127,0,0,3583,0,0,8777,-1140,143,10932,-4,0,65,-6,361025,0
361046,161,-2024,356,-51,-10,-44,13073,4,0,-94,-24,35849,-60,32,127,0,0,3583,0,0,8777,-1140,143,10942,-4,0,65,-6,361025,0
361056,148,-2016,346,-51,-11,-44,13072,1,1,-110,-24,35848,-61,32,127,0,0,3580,-27,0,8777,-1140,143,10952,-4,0,65,-6,361056,0
361066,141,-2015,344,-44,-10,-39,13072,3,1,-140,-24,35854,-54,32,127,0,0,3580,-27,0,8777,-1140,143,10962,-4,0,65,-6,361056,0
361076,171,-2016,348,-42,-7,-44,13070,-14,-7,-140,-16,35860,-55,32,127,0,0,3583,5,0,8777,-1140,143,10972,-4,0,65,-6,361072,0
361086,154,-2019,350,-48,-4,-40,13073,1,0,-97,-24,35857,-50,32,127,0,0,3583,0,0,8777,-1140,143,10982,-4,0,65,-6,361072,0
361096,138,-2019,351,-44,-5,-37,13073,-1,-2,-111,-24,35847,-58,32,127,0,0,3580,-27,0,8777,-1140,143,10992,-4,0,65,-6,361103,0
361106,139,-2014,346,-46,-6,-40,13073,7,4,-117,-24,35853,-54,32,127,0,0,3583,-10,0,8777,-1140,143,11002,-4,0,65,-6,361103,0
361116,141,-2019,363,-47,-7,-48,13074,0,-2,-87,-16,35858,-63,32,127,0,0,3583,0,0,8777,-1140,143,11012,-4,0,65,-6,361119,0
361126,136,-2011,357,-49,-12,-44,13072,7,-2,-109,-24,35867,-57,32,127,0,0,3583,5,0,8777,-1140,143,11022,-4,0,65,-6,361119,0
361136,130,-2027,344,-45,-15,-48,13074,6,0,-83,-24,35866,-61,32,127,0,0,3583,-5,0,8777,-1140,143,11032,-4,0,65,-6,361119,0
361146,125,-2018,347,-47,-10,-55,13071,-7,-4,-85,-24,35870,-61,32,127,0,0,3583,0,0,8777,-1140,143,11042,-4,0,65,-6,361134,0
361156,143,-2019,355,-48,-11,-55,13073,-1,-4,-94,-24,35863,-57,32,127,0,0,3583,0,0,8777,-1140,143,11052,-4,0,65,-6,361134,0
361166,150,-2027,354,-44,-14,-54,13072,2,4,-89,-24,35865,-57,32,127,0,0,3583,0,0,8777,-1140,143,11062,-4,0,65,-6,361197,0
361176,141,-2018,346,-51,-14,-60,13072,5,0,-75,-24,35849,-26,32,127,0,0,3583,-5,0,8777,-1140,143,11072,-4,0,65,-6,361197,0
361186,127,-2019,345,-51,-11,-61,13072,-4,2,-85,-48,35844,-22,32,127,0,0,3584,-5,0,8777,-1140,143,11082,-4,0,65,-6,361197,0
361196,131,-2027,345,-49,-11,-61,13073,14,1,-90,-24,35836,-17,32,127,0,0,3580,-32,0,8777,-1140,143,11092,-4,0,65,-6,361197,0
361206,140,-2024,343,-47,-10,-54,13072,0,-2,-134,-16,35845,-45,32,127,0,0,3580,-27,0,8777,-1140,143,11102,-4,0,65,-6,361212,0
361216,172,-2022,349,-48,-9,-57,13072,0,-1,-142,-24,35845,-65,32,127,0,0,3583,5,0,8777,-1140,143,11112,-4,0,65,-6,361212,0
361226,151,-2021,348,-46,-8,-53,13074,7,2,-95,-24,35843,-76,32,127,0,0,3580,-32,0,8777,-1140,143,11122,-4,0,65,-6,361212,0
361236,164,-2020,347,-50,-13,-54,13070,-6,-7,-140,-40,35855,-66,32,127,0,0,3584,10,0,8777,-1140,143,11132,-4,0,65,-6,361212,0
361246,137,-2019,349,-48,-12,-48,13072,-4,-4,-114,-48,35869,-55,32,127,0,0,3584,10,0,8777,-1140,143,11142,-4,0,65,-6,361228,0
361256,138,-2014,349,-43,-15,-53,13069,-11,-5,-144,-16,35882,-59,32,127,0,0,3583,43,0,8777,-1140,143,11152,-4,0,65,-6,361259,0
361266,164,-2018,352,-45,-9,-56,13070,-17,-11,-144,-16,35870,-53,32,127,0,0,3583,43,0,8777,-1140,143,11162,-4,0,65,-6,361259,0
361276,166,-2021,343,-48,2,-59,13073,8,-2,-102,-24,35861,-51,32,127,0,0,3580,-32,0,8777,-1140,143,11172,-4,0,65,-6,361259,0
361286,132,-2015,346,-45,-12,-52,13073,10,5,-107,0,35847,-43,32,127,0,0,3579,-49,0,8777,-1140,143,11182,-4,0,65,-6,361259,0
361296,145,-2009,352,-44,-8,-48,13071,-8,-4,-140,-24,35847,-39,32,127,0,0,3580,-27,0,8777,-1140,143,11192,-4,0,65,-6,361291,0
361306,133,-2016,353,-38,-8,-55,13073,3,7,-119,-24,35859,-55,32,127,0,0,3583,-10,0,8777,-1140,143,11202,-4,0,65,-6,361306,0
361316,138,-2016,354,-40,-15,-49,13072,-2,0,-110,-72,35858,-67,32,127,0,0,3582,-16,0,8777,-1140,143,11212,-4,0,65,-6,361306,0
361326,123,-2021,354,-40,-13,-47,13070,-3,-7,-157,-40,35859,-73,32,127,0,0,3581,-5,0,8777,-1140,143,11222,-4,0,65,-6,361306,0
361336,162,-2014,361,-43,-11,-58,13071,0,4,-104,-24,35851,-75,32,127,0,0,3580,-49,0,8777,-1140,143,11232,-4,0,65,-6,361337,0
361346,135,-2028,350,-43,-14,-55,13070,-14,-2,-164,-40,35860,-80,32,127,0,0,3581,-5,0,8777,-1140,143,11242,-4,0,65,-6,361337,0
361356,160,-2021,355,-46,-14,-54,13072,1,-2,-135,-24,35859,-75,32,127,0,0,3583,16,0,8777,-1140,143,11252,-4,0,65,-6,361337,0
361366,152,-2020,351,-43,-14,-55,13071,-10,-1,-135,-48,35855,-86,32,127,0,0,3584,38,0,8777,-1140,143,11262,-4,0,65,-6,361369,0
361376,145,-2018,350,-48,-10,-57,13073,12,-4,-135,-48,35852,-88,32,127,0,0,3584,16,0,8777,-1140,143,11272,-4,0,65,-6,361369,0
361386,163,-2013,345,-45,-14,-56,13072,6,7,-117,-24,35844,-66,32,127,0,0,3583,27,0,8777,-1140,143,11282,-4,0,65,-6,361369,0
361396,164,-2017,349,-42,-15,-57,13069,-17,-10,-135,-40,35842,-73,32,127,0,0,3581,5,0,8777,-1140,143,11292,-4,0,65,-6,361384,0
361406,141,-2016,348,-39,-12,-55,13072,5,0,-162,-24,35835,-60,32,127,0,0,3583,10,0,8777,-1140,143,11302,-4,0,65,-6,361400,0
361416,140,-2017,345,-46,-14,-53,13072,-1,5,-121,-24,35847,-64,32,127,0,0,3580,-16,0,8777,-1140,143,11312,-4,0,65,-6,361416,0
361426,144,-2017,342,-38,-15,-57,13070,-6,-10,-178,-16,35845,-55,32,127,0,0,3583,27,0,8777,-1140,143,11322,-4,0,65,-6,361416,0
361436,137,-2027,343,-35,-16,-53,13071,0,-3,-167,-48,35841,-57,32,127,0,0,3581,10,0,8777,-1140,143,11332,-4,0,65,-6,361416,0
361446,155,-2032,348,-31,-6,-55,13072,13,1,-145,-48,35835,-56,32,127,0,0,3584,16,0,8777,-1140,143,11342,-4,0,65,-6,361509,0
361456,128,-2016,355,-34,-13,-56,13070,-1,-4,-124,-40,35844,-49,32,127,0,0,3581,-5,0,8777,-1140,143,11352,-4,0,65,-6,361509,0
361466,153,-2023,351,-38,-12,-50,13071,-4,0,-178,-24,35846,-48,32,127,0,0,3580,-5,0,8777,-1140,143,11362,-4,0,65,-6,361509,0
361476,140,-2019,353,-36,-17,-49,13072,0,4,-140,-48,35839,-54,32,127,0,0,3581,-21,0,8777,-1140,143,11372,-4,0,65,-6,361509,0
361486,130,-2017,350,-31,-9,-61,13070,-3,0,-137,-40,35830,-68,32,127,0,0,3584,10,0,8777,-1140,143,11382,-4,0,65,-6,361525,0
361496,145,-2015,346,-34,-10,-56,13070,-11,-5,-140,-40,35831,-66,32,127,0,0,3581,5,0,8777,-1140,143,11392,-4,0,65,-6,361525,0
361506,158,-2017,350,-37,-12,-56,13071,1,1,-175,-24,35831,-63,32,127,0,0,3580,0,0,8777,-1140,143,11402,-4,0,65,-6,361525,0
361516,173,-2017,356,-36,-7,-49,13069,-11,-2,-183,-16,35831,-67,32,127,0,0,3580,5,0,8777,-1140,143,11412,-4,0,65,-6,361525,0
361526,172,-2018,353,-43,-12,-51,13071,-3,2,-196,-48,35829,-65,32,127,0,0,3581,0,0,8777,-1140,143,11422,-4,0,65,-6,361525,0
361536,150,-2020,354,-39,-11,-50,13070,-5,-5,-186,-16,35831,-72,32,127,0,0,3580,32,0,8777,-1140,143,11432,-4,0,65,-6,361525,0
361546,143,-2017,351,-41,-13,-47,13072,-12,-2,-155,-48,35843,-81,32,127,0,0,3578,-60,0,8777,-1140,143,11442,-4,0,65,-6,361525,0
361556,149,-2020,344,-41,-11,-51,13071,9,-6,-176,-64,35849,-46,32,127,0,0,3582,-16,0,8777,-1140,143,11452,-4,0,65,-6,361587,0
361566,139,-2021,341,-38,-18,-50,13070,0,4,-165,-40,35848,-28,32,127,0,0,3578,-32,0,8777,-1140,143,11462,-4,0,65,-6,361587,0
361576,160,-2022,351,-39,-12,-52,13070,6,2,-190,-40,35838,-5,32,127,0,0,3581,-10,0,8777,-1140,143,11472,-4,0,65,-6,361587,0
361586,144,-2021,354,-39,-13,-47,13070,-1,-5,-203,-64,35831,-29,32,127,0,0,3582,10,0,8777,-1140,143,11482,-4,0,65,-6,361587,0
361596,150,-2019,356,-40,-9,-51,13071,0,-3,-195,-64,35831,-47,32,127,0,0,3576,-54,0,8777,-1140,143,11492,-4,0,65,-6,361587,0
361606,130,-2025,347,-41,-4,-52,13069,11,-6,-204,-40,35831,-51,32,127,0,0,3581,5,0,8777,-1140,143,11502,-4,0,65,-6,361603,0
361616,156,-2027,352,-39,-13,-48,13068,-20,-3,-185,-40,35829,-58,32,127,0,0,3581,0,0,8777,-1140,143,11512,-4,0,65,-6,361603,0
361626,190,-2024,352,-37,-7,-45,13069,-7,1,-221,-88,35838,-51,32,127,0,0,3580,27,0,8777,-1140,143,11522,-4,0,65,-6,361619,0
361636,143,-2022,351,-39,-2,-50,13071,14,2,-172,-88,35848,-46,32,127,0,0,3583,-21,0,8777,-1140,143,11532,-4,0,65,-6,361619,0
361646,144,-2019,360,-36,-7,-39,13069,0,-3,-163,-64,35853,-52,32,127,0,0,3582,21,0,8777,-1140,143,11542,-4,0,65,-6,361619,0
361656,160,-2017,351,-37,-6,-46,13069,-3,-2,-195,-40,35844,-54,32,127,0,0,3584,49,0,8777,-1140,143,11552,-4,0,65,-6,361681,0
361666,185,-2020,354,-40,-10,-46,13071,-7,7,-179,-48,35842,-66,32,127,0,0,3581,38,0,8777,-1140,143,11562,-4,0,65,-6,361681,0
361676,149,-2013,349,-41,-12,-43,13071,9,1,-178,-48,35838,-64,32,127,0,0,3581,38,0,8777,-1140,143,11572,-4,0,65,-6,361681,0
361686,123,-2010,354,-37,-12,-40,13071,3,1,-158,-48,35847,-56,32,127,0,0,3581,-10,0,8777,-1140,143,11582,-4,0,65,-6,361681,0
361696,116,-2006,347,-39,-10,-38,13071,5,-1,-158,-48,35849,-73,32,127,0,0,3581,0,0,8777,-1140,143,11592,-4,0,65,-6,361697,0
361706,130,-2021,357,-42,-3,-47,13071,4,0,-179,-64,35856,-76,32,127,0,0,3582,0,0,8777,-1140,143,11602,-4,0,65,-6,361697,0
361716,114,-2016,359,-41,-12,-49,13069,1,3,-186,-64,35848,-74,32,127,0,0,3576,-54,0,8777,-1140,143,11612,-4,0,65,-6,361697,0
361726,132,-2019,351,-40,-6,-54,13069,0,-2,-210,-40,35849,-43,32,127,0,0,3581,5,0,8777,-1140,143,11622,-4,0,65,-6,361712,0
361736,152,-2016,355,-40,-12,-48,13067,-21,0,-195,-40,35836,-36,32,127,0,0,3578,21,0,8777,-1140,143,11632,-4,0,65,-6,361728,0
361746,155,-2010,353,-39,-12,-47,13070,-5,-3,-225,-40,35839,-28,32,127,0,0,3581,21,0,8777,-1140,143,11642,-4,0,65,-6,361728,0
361756,131,-2024,354,-46,-19,-44,13068,-1,2,-208,-40,35837,-50,32,127,0,0,3578,27,0,8777,-1140,143,11652,-4,0,65,-6,361759,0
361766,155,-2018,356,-45,-15,-58,13068,-3,-2,-219,-64,35853,-44,32,127,0,0,3582,27,0,8777,-1140,143,11662,-4,0,65,-6,361759,0
361776,146,-2019,352,-42,-11,-53,13070,-1,4,-206,-40,35854,-34,32,127,0,0,3581,21,0,8777,-1140,143,11672,-4,0,65,-6,361759,0
361786,179,-2021,340,-44,-6,-57,13068,-7,-4,-228,-64,35850,-34,32,127,0,0,3579,21,0,8777,-1140,143,11682,-4,0,65,-6,361759,0
361796,177,-2019,342,-44,-3,-58,13068,-2,-1,-204,-40,35849,-61,32,127,0,0,3578,-16,0,8777,-1140,143,11692,-4,0,65,-6,361790,0
361806,153,-2019,366,-48,-12,-59,13070,-4,-4,-224,-40,35849,-34,32,127,0,0,3574,-32,0,8777,-1140,143,11702,-4,0,65,-6,361790,0
361816,188,-2019,361,-47,-15,-65,13070,-1,-4,-226,-64,35846,-38,32,127,0,0,3576,-76,0,8777,-1140,143,11712,-4,0,65,-6,361869,0
361826,136,-2018,368,-51,-12,-55,13069,0,-3,-227,-40,35842,-28,32,127,0,0,3578,-10,0,8777,-1140,143,11722,-4,0,65,-6,361869,0
361836,175,-2015,349,-49,-12,-60,13066,-29,-2,-250,-80,35838,-64,32,127,0,0,3580,5,0,8777,-1140,143,11732,-4,0,65,-6,361869,0
361846,167,-2019,343,-39,-8,-59,13068,-3,0,-243,-80,35836,-65,32,127,0,0,3580,43,0,8777,-1140,143,11742,-4,0,65,-6,361884,0
361856,161,-2011,353,-48,-10,-63,13069,1,4,-230,-88,35838,-77,32,127,0,0,3577,-10,0,8777,-1140,143,11752,-4,0,65,-6,361884,0
361866,156,-2015,351,-43,-11,-64,13066,-1,-6,-311,-104,35837,-72,32,127,0,0,3578,21,0,8777,-1140,143,11762,-4,0,65,-6,361884,0
361876,155,-2028,349,-44,-6,-65,13066,0,0,-298,-104,35839,-69,32,127,0,0,3574,-49,0,8777,-1140,143,11772,-4,0,65,-6,361884,0
361886,147,-2014,354,-36,-7,-65,13066,4,1,-276,-80,35837,-66,32,127,0,0,3583,38,0,8777,-1140,143,11782,-4,0,65,-6,361884,0
361896,138,-2014,348,-39,-13,-61,13068,0,2,-259,-64,35836,-60,32,127,0,0,3572,-5,0,8777,-1140,143,11792,-4,0,65,-6,361884,0
361906,167,-2012,355,-44,-5,-60,13064,-8,-5,-332,-96,35838,-69,32,127,0,0,3574,-10,0,8777,-1140,143,11802,-4,0,65,-6,361884,0
361916,169,-2017,357,-51,-4,-58,13065,-1,-1,-360,-96,35852,-63,32,127,0,0,3574,0,0,8777,-1140,143,11812,-4,0,65,-6,361915,0
361926,154,-2014,358,-53,-6,-66,13062,-8,-4,-371,-72,35866,-68,32,127,0,0,3570,0,0,8777,-1140,143,11822,-4,0,65,-6,361915,0
361936,173,-2013,358,-59,-11,-56,13062,-12,0,-363,-112,35868,-46,32,127,0,0,3572,-27,0,8777,-1140,143,11832,-4,0,65,-6,361915,0
361946,152,-2020,351,-52,-13,-61,13062,-3,-4,-384,-88,35856,-32,32,127,0,0,3574,38,0,8777,-1140,143,11842,-4,0,65,-6,361947,0
361956,155,-2022,344,-46,-10,-58,13061,-6,0,-377,-112,35854,-38,32,127,0,0,3576,43,0,8777,-1140,143,11852,-4,0,65,-6,361947,0
361966,159,-2025,345,-51,-7,-61,13061,2,-1,-363,-112,35856,-58,32,127,0,0,3572,10,0,8777,-1140,143,11862,-4,0,65,-6,361947,0
361976,152,-2025,350,-53,-10,-59,13058,-4,-5,-412,-128,35854,-61,32,127,0,0,3573,38,0,8777,-1140,143,11872,-4,0,65,-6,361962,0
361986,146,-2019,344,-50,-10,-65,13057,5,-2,-384,-104,35851,-57,32,127,0,0,3569,-27,0,8777,-1140,143,11882,-4,0,65,-6,361978,0
361996,163,-2019,349,-49,-11,-64,13056,-1,5,-388,-120,35844,-70,32,127,0,0,3570,-49,0,8777,-1140,143,11892,-4,0,65,-6,361978,0
362006,157,-2022,354,-52,-15,-61,13053,-6,0,-405,-96,35849,-71,32,127,0,0,3569,5,0,8777,-1140,143,11902,-4,0,65,-6,361978,0
362016,164,-2016,351,-44,-8,-59,13052,0,-4,-396,-120,35848,-75,32,127,0,0,3570,-27,0,8777,-1140,143,11912,-4,0,65,-6,362009,0
362026,158,-2019,351,-52,-13,-51,13049,-13,1,-398,-112,35847,-47,32,127,0,0,3570,10,0,8777,-1140,143,11922,-4,0,65,-6,362009,0
362036,154,-2022,355,-51,-12,-56,13048,-2,0,-364,-112,35844,-49,32,127,0,0,3563,-82,0,8777,-1140,143,11932,-4,0,65,-6,362009,0
362046,159,-2020,353,-51,-2,-58,13043,-24,-5,-406,-120,35844,-49,32,127,0,0,3568,-5,0,8777,-1140,143,11942,-4,0,65,-6,362040,0
362056,156,-2021,353,-53,-9,-56,13032,-29,-26,-351,-120,35856,-76,32,127,0,0,3569,5,0,8777,-1140,143,11952,-4,0,65,-6,362040,0
362066,133,-2014,346,-54,-13,-61,13018,-26,-16,-263,-96,35852,-66,32,127,0,0,3566,-60,0,8777,-1140,143,11962,-4,0,65,-6,362040,0
362076,144,-2013,345,-60,-5,-58,13013,-5,20,-284,-88,35858,-60,32,127,0,0,3562,-49,0,8777,-1140,143,11972,-4,0,65,-6,362056,0
362086,149,-2018,344,-46,-8,-60,13013,2,29,-315,-80,35856,-53,32,127,0,0,3566,-38,0,8777,-1140,143,11982,-4,0,65,-6,362087,0
362096,160,-2018,354,-47,-10,-57,13014,7,6,-317,-64,35864,-46,32,127,0,0,3565,5,0,8777,-1140,143,11992,-4,0,65,-6,362087,0
362106,175,-2021,345,-48,-6,-52,13012,-13,-7,-342,-80,35858,-43,32,127,0,0,3566,16,0,8777,-1140,143,12002,-4,0,65,-6,362087,0
362116,164,-2019,343,-51,-9,-45,13011,-1,2,-334,-104,35852,-38,32,127,0,0,3563,-21,0,8777,-1140,143,12012,-4,0,65,-6,362119,0
362126,170,-2020,347,-50,-9,-46,13011,0,0,-346,-80,35838,-29,32,127,0,0,3566,16,0,8777,-1140,143,12022,-4,0,65,-6,362119,0
362136,159,-2024,344,-48,-6,-40,13011,4,-2,-331,-80,35839,-33,32,127,0,0,3566,5,0,8777,-1140,143,12032,-4,0,65,-6,362119,0
362146,167,-2020,343,-41,-5,-41,13011,3,-2,-326,-80,35839,-47,32,127,0,0,3562,-16,0,8777,-1140,143,12042,-4,0,65,-6,362150,0
362156,177,-2015,346,-48,-6,-43,13009,-1,2,-327,-80,35859,-68,32,127,0,0,3566,-10,0,8777,-1140,143,12052,-4,0,65,-6,362165,0
362166,163,-2019,349,-45,-5,-32,13010,-2,-4,-310,-80,35855,-66,32,127,0,0,3566,0,0,8777,-1140,143,12062,-4,0,65,-6,362212,0
362176,172,-2015,348,-43,-6,-29,13010,2,0,-328,-96,35859,-67,32,127,0,0,3563,-10,0,8777,-1140,143,12072,-4,0,65,-6,362228,0
362186,120,-2018,346,-44,-15,-33,13009,0,0,-321,-80,35850,-68,32,127,0,0,3566,-10,0,8777,-1140,143,12082,-4,0,65,-6,362228,0
362196,156,-2016,348,-40,-7,-31,13010,-2,5,-299,-104,35855,-64,32,127,0,0,3567,-32,0,8777,-1140,143,12092,-4,0,65,-6,362228,0
362206,158,-2015,352,-45,-7,-28,13011,5,-2,-306,-80,35852,-67,32,127,0,0,3566,0,0,8777,-1140,143,12102,-4,0,65,-6,362228,0
362216,168,-2015,352,-41,-4,-30,13011,3,-3,-283,-32,35852,-65,32,127,0,0,3563,-21,0,8777,-1140,143,12112,-4,0,65,-6,362228,0
362226,167,-2013,363,-51,1,-29,13010,-7,0,-319,-80,35850,-61,32,127,0,0,3566,0,0,8777,-1140,143,12122,-4,0,65,-6,362228,0
362236,149,-2019,351,-45,0,-29,13011,3,2,-313,-80,35844,-62,32,127,0,0,3566,0,0,8777,-1140,143,12132,-4,0,65,-6,362228,0
362246,155,-2025,351,-47,-2,-27,13008,-6,-4,-329,-72,35840,-66,32,127,0,0,3572,82,0,8777,-1140,143,12142,-4,0,65,-6,362243,0
362256,138,-2027,348,-51,-8,-33,13014,16,8,-202,-88,35842,-66,32,127,0,0,3566,-60,0,8777,-1140,143,12152,-4,0,65,-6,362243,0
362266,120,-2020,351,-48,-3,-35,13008,-13,-10,-281,-72,35849,-51,32,127,0,0,3566,0,0,8777,-1140,143,12162,-4,0,65,-6,362259,0
362276,151,-2026,355,-49,-4,-36,13012,18,0,-285,-80,35868,-63,32,127,0,0,3566,-27,0,8777,-1140,143,12172,-4,0,65,-6,362259,0
362286,144,-2021,353,-54,-8,-42,13009,4,10,-280,-56,35870,-66,32,127,0,0,3565,0,0,8777,-1140,143,12182,-4,0,65,-6,362259,0
362296,171,-2021,348,-54,-9,-45,13011,-7,-1,-287,-80,35861,-78,32,127,0,0,3566,-16,0,8777,-1140,143,12192,-4,0,65,-6,362306,0
362306,138,-2018,346,-48,-11,-43,13010,3,4,-299,-80,35857,-72,32,127,0,0,3566,0,0,8777,-1140,143,12202,-4,0,65,-6,362306,0
362316,170,-2015,352,-50,-4,-49,13011,5,4,-271,-56,35855,-66,32,127,0,0,3565,-49,0,8777,-1140,143,12212,-4,0,65,-6,362306,0
362326,188,-2022,336,-52,-4,-41,13010,0,1,-275,-80,35857,-62,32,127,0,0,3566,-43,0,8777,-1140,143,12222,-4,0,65,-6,362306,0
362336,149,-2015,345,-45,-10,-35,13010,2,-4,-275,-56,35850,-58,32,127,0,0,3568,21,0,8777,-1140,143,12232,-4,0,65,-6,362322,0
362346,158,-2019,342,-43,-10,-28,13011,-1,3,-252,-80,35849,-67,32,127,0,0,3566,-21,0,8777,-1140,143,12242,-4,0,65,-6,362337,0
362356,159,-2014,343,-42,-4,-31,13011,7,-3,-243,-56,35863,-62,32,127,0,0,3568,0,0,8777,-1140,143,12252,-4,0,65,-6,362353,0
362366,158,-2009,338,-44,-9,-35,13009,-26,-1,-252,-32,35861,-62,32,127,0,0,3563,10,0,8777,-1140,143,12262,-4,0,65,-6,362353,0
362376,204,-2021,346,-45,-6,-30,13011,-3,-1,-283,-56,35858,-54,32,127,0,0,3565,-16,0,8777,-1140,143,12272,-4,0,65,-6,362353,0
362386,152,-2013,353,-39,-8,-32,13011,3,3,-257,-56,35856,-50,32,127,0,0,3568,5,0,8777,-1140,143,12282,-4,0,65,-6,362400,0
362396,142,-2017,354,-37,-8,-26,13010,-4,-2,-235,-80,35865,-50,32,127,0,0,3566,-16,0,8777,-1140,143,12292,-4,0,65,-6,362400,0
362406,123,-2024,346,-42,-10,-27,13012,12,1,-233,-80,35864,-36,32,127,0,0,3572,-21,0,8777,-1140,143,12302,-4,0,65,-6,362400,0
362416,113,-2018,347,-36,-8,-24,13011,1,4,-220,-80,35853,-31,32,127,0,0,3566,-21,0,8777,-1140,143,12312,-4,0,65,-6,362400,0
362426,151,-2023,335,-35,0,-26,13010,1,0,-251,-80,35841,-22,32,127,0,0,3572,38,0,8777,-1140,143,12322,-4,0,65,-6,362400,0
362436,165,-2025,341,-31,-11,-16,13014,9,4,-185,-40,35843,-40,32,127,0,0,3570,16,0,8777,-1140,143,12332,-4,0,65,-6,362431,0
362446,164,-2024,348,-27,-4,1,13011,-1,0,-181,-32,35852,-37,32,127,0,0,3567,-32,0,8777,-1140,143,12342,-4,0,65,-6,362431,0
362456,164,-2027,351,-34,-9,0,13013,7,-1,-159,-16,35852,-47,32,127,0,0,3572,21,0,8777,-1140,143,12352,-4,0,65,-6,362431,0
362466,182,-2022,353,-31,-17,17,13015,-7,4,-122,-40,35843,-46,32,127,0,0,3573,21,0,8777,-1140,143,12362,-4,0,65,-6,362462,0
362476,137,-2021,352,-28,-5,8,13017,19,-1,-99,-24,35843,-62,32,127,0,0,3576,32,0,8777,-1140,143,12372,-4,0,65,-6,362462,0
362486,133,-2012,360,-38,-15,6,13017,0,0,-35,0,35846,-58,32,127,0,0,3574,5,0,8777,-1140,143,12382,-4,0,65,-6,362478,0
362496,139,-2018,361,-30,-11,4,13018,0,-3,-18,16,35845,-42,32,127,0,0,3577,32,0,8777,-1140,143,12392,-4,0,65,-6,362478,0
362506,149,-2021,354,-40,-9,-2,13022,9,7,51,-16,35837,-41,32,127,0,0,3584,43,0,8777,-1140,143,12402,-4,0,65,-6,362478,0
362516,122,-2019,362,-40,-10,-14,13028,27,7,195,16,35836,-48,32,127,0,0,3582,-5,0,8777,-1140,143,12412,-4,0,65,-6,362509,0
362526,142,-2015,364,-41,-10,-9,13031,8,3,162,56,35842,-57,32,127,0,0,3583,38,0,8777,-1140,143,12422,-4,0,65,-6,362509,0
362536,132,-2019,354,-44,-6,-11,13032,2,-6,176,56,35843,-56,32,127,0,0,3580,10,0,8777,-1140,143,12432,-4,0,65,-6,362540,0
362546,161,-2018,353,-44,-7,-21,13032,-7,-3,155,56,35840,-54,32,127,0,0,3583,27,0,8777,-1140,143,12442,-4,0,65,-6,362572,0
362556,154,-2025,346,-50,-6,-11,13038,9,4,159,48,35829,-47,32,127,0,0,3583,16,0,8777,-1140,143,12452,-4,0,65,-6,362587,0
362566,147,-2016,358,-51,-9,-8,13038,0,-3,173,64,35835,-48,32,127,0,0,3582,5,0,8777,-1140,143,12462,-4,0,65,-6,362587,0
362576,138,-2018,358,-51,-18,-15,13043,10,-2,152,32,35835,-52,32,127,0,0,3587,5,0,8777,-1140,143,12472,-4,0,65,-6,362587,0
362586,124,-2016,358,-58,-13,-15,13050,27,11,182,24,35826,-44,32,127,0,0,3587,0,0,8777,-1140,143,12482,-4,0,65,-6,362587,0
362596,134,-2017,355,-58,-11,-15,13053,8,0,129,40,35830,-49,32,127,0,0,3582,-5,0,8777,-1140,143,12492,-4,0,65,-6,362587,0
362606,134,-2021,350,-56,-7,-18,13059,3,3,42,0,35834,-43,32,127,0,0,3587,0,0,8777,-1140,143,12502,-4,0,65,-6,362587,0
362616,145,-2015,349,-61,-4,-25,13062,13,-5,132,40,35843,-56,32,127,0,0,3584,-43,0,8777,-1140,143,12512,-4,0,65,-6,362603,0
362626,128,-2021,348,-56,-7,-27,13069,3,3,74,8,35853,-55,32,127,0,0,3589,-27,0,8777,-1140,143,12522,-4,0,65,-6,362650,0
362636,133,-2018,348,-57,-12,-34,13068,6,-3,93,32,35848,-56,32,127,0,0,3588,5,0,8777,-1140,143,12532,-4,0,65,-6,362650,0
362646,150,-2023,350,-56,-9,-28,13068,0,-6,84,32,35848,-54,32,127,0,0,3588,16,0,8777,-1140,143,12542,-4,0,65,-6,362650,0
362656,150,-2033,348,-63,-10,-36,13071,18,12,150,0,35841,-64,32,127,0,0,3589,-49,0,8777,-1140,143,12552,-4,0,65,-6,362650,0
362666,117,-2023,346,-59,-13,-27,13072,12,0,153,24,35834,-62,32,127,0,0,3588,-32,0,8777,-1140,143,12562,-4,0,65,-6,362650,0
362676,157,-2018,350,-57,-7,-31,13071,0,-3,144,48,35829,-71,32,127,0,0,3587,-32,0,8777,-1140,143,12572,-4,0,65,-6,362650,0
362686,170,-2023,352,-53,-5,-28,13071,-7,4,89,48,35838,-66,32,127,0,0,3587,-10,0,8777,-1140,143,12582,-4,0,65,-6,362681,0
362696,157,-2021,346,-54,-11,-14,13072,0,-1,120,48,35853,-67,32,127,0,0,3590,5,0,8777,-1140,143,12592,-4,0,65,-6,362681,0
362706,162,-2019,339,-54,-17,-2,13073,-4,0,176,48,35856,-70,32,127,0,0,3593,32,0,8777,-1140,143,12602,-4,0,65,-6,362697,0
362716,149,-2015,332,-50,-14,5,13076,12,3,256,64,35847,-67,32,127,0,0,3592,-5,0,8777,-1140,143,12612,-4,0,65,-6,362712,0
362726,169,-2012,333,-44,-10,23,13078,1,3,233,80,35843,-55,32,127,0,0,3591,5,0,8777,-1140,143,12622,-4,0,65,-6,362728,0
362736,160,-2009,334,-41,-10,32,13083,13,-3,315,96,35841,-48,32,127,0,0,3596,-21,0,8777,-1140,143,12632,-4,0,65,-6,362728,0
362746,171,-2014,342,-39,-11,36,13087,-2,7,337,88,35844,-48,32,127,0,0,3603,65,0,8777,-1140,143,12642,-4,0,65,-6,362728,0
362756,143,-2016,338,-34,-7,46,13091,15,-7,430,128,35841,-44,32,127,0,0,3601,27,0,8777,-1140,143,12652,-4,0,65,-6,362759,0
362766,165,-2016,344,-28,-3,57,13101,30,20,430,128,35832,-44,32,127,0,0,3603,-10,0,8777,-1140,143,12662,-4,0,65,-6,362759,0
362776,164,-2030,351,-31,-6,64,13122,63,27,384,136,35832,-43,32,127,0,0,3607,-5,0,8777,-1140,143,12672,-4,0,65,-6,362775,0
362786,166,-2014,355,-33,-12,88,13154,59,44,255,120,35830,-49,32,127,0,0,3609,21,0,8777,-1140,143,12682,-4,0,65,-6,362775,0
362796,142,-2021,341,-33,-20,86,13162,0,-25,333,152,35844,-63,32,127,0,0,3616,87,0,8777,-1140,143,12692,-4,0,65,-6,362775,0
362806,120,-2018,341,-25,-7,80,13181,67,-25,418,160,35840,-53,32,127,0,0,3617,-5,0,8777,-1140,143,12702,-4,0,65,-6,362790,0
362816,143,-2022,353,-24,-11,88,13219,75,63,217,80,35844,-44,32,127,0,0,3621,16,0,8777,-1140,143,12712,-4,0,65,-6,362853,0
362826,121,-2027,346,-32,-15,87,13225,6,-24,313,120,35846,-48,32,127,0,0,3625,21,0,8777,-1140,143,12722,-4,0,65,-6,362853,0
362836,109,-2018,346,-27,-13,84,13233,30,-62,403,152,35844,-64,32,127,0,0,3629,21,0,8777,-1140,143,12732,-4,0,65,-6,362853,0
362846,105,-2032,345,-23,-2,70,13265,93,51,320,88,35838,-98,32,127,0,0,3639,49,0,8777,-1140,143,12742,-4,0,65,-6,362853,0
362856,162,-2030,356,-18,-5,78,13287,17,31,354,136,35832,-112,32,127,0,0,3638,65,0,8777,-1140,143,12752,-4,0,65,-6,362853,0
362866,113,-2027,355,-25,-14,76,13288,7,-69,449,160,35839,-114,32,127,0,0,3644,65,0,8777,-1140,143,12762,-4,0,65,-6,362853,0
362876,108,-2020,352,-23,-1,72,13299,36,-17,511,184,35842,-118,32,127,0,0,3645,32,0,8777,-1140,143,12772,-4,0,65,-6,362853,0
362886,103,-2029,360,-16,-7,69,13333,89,72,383,160,35843,-124,32,127,0,0,3649,21,0,8777,-1140,143,12782,-4,0,65,-6,362868,0
362896,147,-2016,358,-25,-16,72,13354,24,23,413,168,35837,-99,32,127,0,0,3650,43,0,8777,-1140,143,12792,-4,0,65,-6,362962,0
362906,95,-2026,350,-23,-9,63,13365,32,-48,446,192,35848,-74,32,127,0,0,3651,16,0,8777,-1140,143,12802,-4,0,65,-6,362962,0
362916,96,-2015,349,-28,-2,54,13393,63,22,308,136,35851,-59,32,127,0,0,3658,54,0,8777,-1140,143,12812,-4,0,65,-6,362978,0
362926,113,-2014,353,-29,-8,47,13415,34,21,342,120,35850,-53,32,127,0,0,3657,-16,0,8777,-1140,143,12822,-4,0,65,-6,362978,0
362936,106,-2018,348,-38,-5,43,13421,22,-45,345,128,35838,-66,32,127,0,0,3662,0,0,8777,-1140,143,12832,-4,0,65,-6,362978,0
362946,91,-2027,355,-33,-4,30,13431,31,-15,334,152,35836,-66,32,127,0,0,3670,148,0,8777,-1140,143,12842,-4,0,65,-6,362993,0
362956,77,-2025,357,-34,6,19,13462,67,48,256,72,35841,-67,32,127,0,0,3668,54,0,8777,-1140,143,12852,-4,0,65,-6,362993,0
362966,99,-2015,365,-38,-6,3,13462,-4,-18,353,112,35855,-61,32,127,0,0,3669,-10,0,8777,-1140,143,12862,-4,0,65,-6,362993,0
362976,81,-2027,359,-39,2,-1,13464,6,-55,372,112,35855,-52,32,127,0,0,3672,27,0,8777,-1140,143,12872,-4,0,65,-6,362993,0
362986,97,-2022,364,-45,-1,-17,13465,10,2,420,136,35856,-56,32,127,0,0,3671,27,0,8777,-1140,143,12882,-4,0,65,-6,362993,0
362996,98,-2018,363,-49,4,-25,13466,1,0,403,128,35850,-60,32,127,0,0,3671,16,0,8777,-1140,143,12892,-4,0,65,-6,362993,0
363006,102,-2015,366,-55,-7,-38,13465,-1,-5,417,128,35858,-45,32,127,0,0,3674,43,0,8777,-1140,143,12902,-4,0,65,-6,362993,0
363016,92,-2025,362,-59,-3,-45,13468,1,1,429,128,35865,-55,32,127,0,0,3671,10,0,8777,-1140,143,12912,-4,0,65,-6,362998,0
363026,94,-2014,366,-62,-6,-58,13468,2,0,427,96,35874,-38,32,127,0,0,3672,-5,0,8777,-1140,143,12922,-4,0,65,-6,363029,0
363036,88,-2018,361,-64,-11,-66,13467,-3,-2,430,128,35875,-49,32,127,0,0,3671,-5,0,8777,-1140,143,12932,-4,0,65,-6,363029,0
363046,100,-2025,366,-78,-15,-72,13468,-2,5,426,120,35865,-45,32,127,0,0,3668,-32,0,8777,-1140,143,12942,-4,0,65,-6,363029,0
363056,111,-2023,350,-70,-11,-76,13469,1,-6,396,128,35852,-39,32,127,0,0,3671,-10,0,8777,-1140,143,12952,-4,0,65,-6,363029,0
363066,113,-2036,347,-79,-19,-86,13468,-8,1,391,128,35850,-51,32,127,0,0,3671,27,0,8777,-1140,143,12962,-4,0,65,-6,363060,0
363076,117,-2028,344,-70,-9,-89,13468,-4,3,354,120,35862,-41,32,127,0,0,3671,49,0,8777,-1140,143,12972,-4,0,65,-6,363060,0
363086,124,-2020,340,-77,-19,-93,13471,8,2,391,120,35862,-43,32,127,0,0,3665,-60,0,8777,-1140,143,12982,-4,0,65,-6,363076,0
363096,127,-2018,337,-74,-17,-104,13466,-5,-7,328,104,35862,-20,32,127,0,0,3669,-5,0,8777,-1140,143,12992,-4,0,65,-6,363076,0
363106,111,-2034,351,-71,-8,-104,13467,-7,2,331,104,35848,-32,32,127,0,0,3666,-43,0,8777,-1140,143,13002,-4,0,65,-6,363091,0
363116,110,-2029,340,-66,0,-115,13465,-5,2,264,64,35851,-39,32,127,0,0,3665,-21,0,8777,-1140,143,13012,-4,0,65,-6,363107,0
363126,124,-2017,335,-62,-2,-106,13463,-10,-10,179,40,35855,-49,32,127,0,0,3659,-49,0,8777,-1140,143,13022,-4,0,65,-6,363107,0
363136,137,-2019,341,-56,-12,-100,13460,0,-2,90,24,35857,-51,32,127,0,0,3660,-5,0,8777,-1140,143,13032,-4,0,65,-6,363123,0
363146,137,-2014,342,-55,-8,-89,13459,-8,4,54,24,35852,-54,32,127,0,0,3657,-27,0,8777,-1140,143,13042,-4,0,65,-6,363154,0
363156,130,-2009,339,-56,-10,-88,13459,6,7,67,0,35849,-56,32,127,0,0,3658,-49,0,8777,-1140,143,13052,-4,0,65,-6,363154,0
363166,113,-2013,346,-47,-6,-90,13456,-5,2,37,-16,35855,-46,32,127,0,0,3659,-32,0,8777,-1140,143,13062,-4,0,65,-6,363154,0
363176,123,-2021,348,-55,-8,-90,13454,-9,0,-8,-40,35852,-50,32,127,0,0,3657,0,0,8777,-1140,143,13072,-4,0,65,-6,363169,0
363186,120,-2014,350,-48,-5,-85,13453,-5,-1,-84,-8,35844,-52,32,127,0,0,3649,-43,0,8777,-1140,143,13082,-4,0,65,-6,363169,0
363196,125,-2018,351,-48,-5,-86,13450,0,3,-108,-24,35849,-47,32,127,0,0,3650,-60,0,8777,-1140,143,13092,-4,0,65,-6,363185,0
363206,126,-2020,345,-46,-4,-82,13449,5,10,-131,-24,35864,-46,32,127,0,0,3654,-10,0,8777,-1140,143,13102,-4,0,65,-6,363201,0
363216,130,-2024,349,-47,-7,-77,13448,-9,4,-130,-72,35867,-45,32,127,0,0,3656,-5,0,8777,-1140,143,13112,-4,0,65,-6,363201,0
363226,117,-2029,355,-50,-13,-77,13442,-11,-11,-156,-16,35861,-45,32,127,0,0,3647,10,0,8777,-1140,143,13122,-4,0,65,-6,363232,0
363236,133,-2019,341,-50,-6,-74,13442,-11,0,-254,-80,35846,-35,32,127,0,0,3650,-5,0,8777,-1140,143,13132,-4,0,65,-6,363232,0
363246,115,-2018,343,-48,-8,-79,13436,-9,-1,-228,-48,35843,-27,32,127,0,0,3649,5,0,8777,-1140,143,13142,-4,0,65,-6,363247,0
363256,121,-2021,341,-43,-11,-70,13435,1,1,-280,-88,35837,-23,32,127,0,0,3648,10,0,8777,-1140,143,13152,-4,0,65,-6,363247,0
363266,141,-2031,345,-42,-10,-66,13422,-34,-13,-243,-16,35841,-40,32,127,0,0,3643,5,0,8777,-1140,143,13162,-4,0,65,-6,363247,0
363276,130,-2027,349,-40,-6,-59,13413,-23,-13,-186,0,35841,-41,32,127,0,0,3643,0,0,8777,-1140,143,13172,-4,0,65,-6,363341,0
363286,144,-2026,351,-33,-6,-59,13404,-8,8,-150,-32,35856,-61,32,127,0,0,3645,5,0,8777,-1140,143,13182,-4,0,65,-6,363341,0
363296,120,-2019,345,-43,-14,-54,13401,-7,18,-100,-24,35859,-70,32,127,0,0,3645,21,0,8777,-1140,143,13192,-4,0,65,-6,363341,0
363306,126,-2019,341,-34,-13,-51,13401,-7,12,-118,-24,35854,-65,32,127,0,0,3645,0,0,8777,-1140,143,13202,-4,0,65,-6,363341,0
363316,126,-2015,349,-42,-14,-49,13399,-4,0,-138,-40,35845,-54,32,127,0,0,3649,54,0,8777,-1140,143,13212,-4,0,65,-6,363357,0
363326,138,-2018,342,-35,-12,-45,13400,-3,2,-112,-48,35845,-61,32,127,0,0,3646,38,0,8777,-1140,143,13222,-4,0,65,-6,363357,0
363336,120,-2021,346,-36,-11,-53,13399,6,0,-116,-16,35846,-72,32,127,0,0,3641,-16,0,8777,-1140,143,13232,-4,0,65,-6,363357,0
363346,108,-2025,344,-37,-5,-56,13399,0,1,-110,-16,35843,-59,32,127,0,0,3645,-10,0,8777,-1140,143,13242,-4,0,65,-6,363357,0
363356,124,-2025,343,-34,-8,-55,13398,-11,1,-124,-16,35837,-44,32,127,0,0,3641,-27,0,8777,-1140,143,13252,-4,0,65,-6,363357,0
363366,115,-2016,351,-30,-7,-54,13399,5,-1,-120,-40,35837,-39,32,127,0,0,3643,-49,0,8777,-1140,143,13262,-4,0,65,-6,363357,0
363376,113,-2018,350,-31,-6,-55,13400,19,3,-84,-24,35843,-45,32,127,0,0,3645,-27,0,8777,-1140,143,13272,-4,0,65,-6,363357,0
363386,121,-2014,355,-32,-11,-56,13395,-17,-6,-156,-32,35854,-53,32,127,0,0,3643,10,0,8777,-1140,143,13282,-4,0,65,-6,363388,0
363396,122,-2022,343,-34,-4,-59,13395,7,-1,-130,-8,35871,-59,32,127,0,0,3641,-16,0,8777,-1140,143,13292,-4,0,65,-6,363388,0
363406,145,-2019,351,-38,-8,-61,13394,-25,5,-148,-32,35865,-63,32,127,0,0,3643,-5,0,8777,-1140,143,13302,-4,0,65,-6,363388,0
363416,140,-2027,346,-35,-11,-56,13394,0,-7,-215,-32,35858,-64,32,127,0,0,3639,-10,0,8777,-1140,143,13312,-4,0,65,-6,363419,0
363426,132,-2023,343,-34,-11,-53,13393,0,3,-194,-32,35855,-41,32,127,0,0,3643,5,0,8777,-1140,143,13322,-4,0,65,-6,363419,0
363436,136,-2016,351,-32,-5,-50,13391,-6,-2,-215,-72,35854,-40,32,127,0,0,3645,38,0,8777,-1140,143,13332,-4,0,65,-6,363419,0
363446,127,-2019,348,-29,-12,-48,13391,2,-5,-175,-24,35850,-43,32,127,0,0,3643,43,0,8777,-1140,143,13342,-4,0,65,-6,363435,0
363456,148,-2024,345,-31,-18,-42,13391,-6,3,-226,-48,35842,-49,32,127,0,0,3637,-27,0,8777,-1140,143,13352,-4,0,65,-6,363435,0
363466,111,-2025,345,-29,-4,-41,13387,7,-10,-194,-64,35845,-46,32,127,0,0,3645,-10,0,8777,-1140,143,13362,-4,0,65,-6,363451,0
363476,99,-2026,345,-29,-9,-37,13387,-6,3,-161,-40,35850,-46,32,127,0,0,3637,-10,0,8777,-1140,143,13372,-4,0,65,-6,363466,0
363486,100,-2025,342,-22,-8,-38,13389,14,5,-156,-48,35846,-62,32,127,0,0,3644,-27,0,8777,-1140,143,13382,-4,0,65,-6,363482,0
363496,105,-2025,341,-21,-12,-37,13387,-21,0,-191,-16,35843,-56,32,127,0,0,3643,54,0,8777,-1140,143,13392,-4,0,65,-6,363497,0
363506,193,-2024,338,-24,0,-38,13388,-1,-4,-185,-64,35849,-52,32,127,0,0,3645,60,0,8777,-1140,143,13402,-4,0,65,-6,363497,0
363516,135,-2027,340,-22,0,-43,13388,0,0,-158,-64,35852,-38,32,127,0,0,3641,-5,0,8777,-1140,143,13412,-4,0,65,-6,363497,0
363526,156,-2020,335,-15,-6,-28,13386,-5,-8,-184,-16,35849,-39,32,127,0,0,3639,27,0,8777,-1140,143,13422,-4,0,65,-6,363529,0
363536,197,-2024,342,-8,1,-27,13388,-11,5,-171,-40,35842,-27,32,127,0,0,3644,10,0,8777,-1140,143,13432,-4,0,65,-6,363544,0
363546,116,-2012,344,-7,-18,-17,13390,10,-1,-126,-48,35845,-33,32,127,0,0,3644,-5,0,8777,-1140,143,13442,-4,0,65,-6,363544,0
363556,112,-2017,353,-8,-6,-20,13388,-3,-2,-133,-24,35840,-38,32,127,0,0,3643,27,0,8777,-1140,143,13452,-4,0,65,-6,363544,0
363566,119,-2022,344,-5,-12,-25,13388,-11,-3,-150,-40,35845,-47,32,127,0,0,3644,10,0,8777,-1140,143,13462,-4,0,65,-6,363544,0
363576,116,-2022,350,-7,-6,-23,13390,9,2,-148,-24,35844,-47,32,127,0,0,3643,32,0,8777,-1140,143,13472,-4,0,65,-6,363576,0
363586,125,-2016,359,-11,-7,-28,13390,-7,-2,-144,-24,35855,-47,32,127,0,0,3643,5,0,8777,-1140,143,13482,-4,0,65,-6,363576,0
363596,116,-2022,362,-8,-12,-27,13390,4,2,-127,-48,35852,-60,32,127,0,0,3644,-16,0,8777,-1140,143,13492,-4,0,65,-6,363576,0
363606,111,-2021,356,-20,-11,-39,13388,-6,-4,-152,0,35846,-61,32,127,0,0,3641,49,0,8777,-1140,143,13502,-4,0,65,-6,363591,0
363616,146,-2021,357,-23,-6,-44,13389,-9,3,-209,0,35837,-54,32,127,0,0,3635,-16,0,8777,-1140,143,13512,-4,0,65,-6,363607,0
363626,137,-2026,342,-15,-3,-54,13389,13,7,-183,-48,35836,-33,32,127,0,0,3644,-10,0,8777,-1140,143,13522,-4,0,65,-6,363607,0
363636,134,-2033,347,-14,-11,-53,13387,-5,-2,-149,-40,35838,-37,32,127,0,0,3637,-60,0,8777,-1140,143,13532,-4,0,65,-6,363622,0
363646,133,-2027,359,-24,-10,-52,13385,-3,-7,-223,-16,35839,-31,32,127,0,0,3643,54,0,8777,-1140,143,13542,-4,0,65,-6,363700,0
363656,130,-2032,368,-25,-11,-48,13387,-20,6,-239,-64,35835,-16,32,127,0,0,3645,87,0,8777,-1140,143,13552,-4,0,65,-6,363700,0
363666,107,-2028,361,-26,-9,-70,13387,22,3,-175,-64,35836,-22,32,127,0,0,3645,43,0,8777,-1140,143,13562,-4,0,65,-6,363700,0
363676,97,-2021,349,-28,1,-99,13384,-6,-5,-198,-56,35832,-23,32,127,0,0,3635,-10,0,8777,-1140,143,13572,-4,0,65,-6,363700,0
363686,134,-2016,351,-22,10,-91,13383,-1,-2,-319,-80,35834,-65,32,127,0,0,3636,-27,0,8777,-1140,143,13582,-4,0,65,-6,363716,0
363696,162,-2017,352,-23,8,-80,13377,-2,-10,-315,-72,35834,-56,32,127,0,0,3636,16,0,8777,-1140,143,13592,-4,0,65,-6,363716,0
363706,189,-2022,343,-26,-10,-49,13372,-19,-1,-364,-80,35834,-54,32,127,0,0,3630,10,0,8777,-1140,143,13602,-4,0,65,-6,363716,0
363716,164,-2016,346,-20,-9,-30,13357,-47,-19,-254,-80,35835,-50,32,127,0,0,3632,-21,0,8777,-1140,143,13612,-4,0,65,-6,363716,0
363726,107,-2020,363,-18,-5,-16,13334,-55,-35,-58,-32,35834,-52,32,127,0,0,3635,0,0,8777,-1140,143,13622,-4,0,65,-6,363716,0
363736,121,-2023,365,-19,-2,-19,13334,20,35,-37,16,35836,-63,32,127,0,0,3633,5,0,8777,-1140,143,13632,-4,0,65,-6,363716,0
363746,149,-2022,358,-28,-5,-18,13332,-17,43,-68,0,35845,-77,32,127,0,0,3634,27,0,8777,-1140,143,13642,-4,0,65,-6,363732,0
363756,123,-2020,345,-27,1,-23,13335,4,-3,-82,-8,35856,-88,32,127,0,0,3634,-5,0,8777,-1140,143,13652,-4,0,65,-6,363763,0
363766,142,-2019,351,-22,4,-31,13335,12,2,-22,16,35868,-90,32,127,0,0,3636,43,0,8777,-1140,143,13662,-4,0,65,-6,363763,0
363776,135,-2024,362,-20,4,-28,13335,-5,0,15,-8,35861,-86,32,127,0,0,3640,54,0,8777,-1140,143,13672,-4,0,65,-6,363763,0
363786,143,-2017,367,-25,-9,-19,13335,0,0,3,-8,35852,-88,32,127,0,0,3637,38,0,8777,-1140,143,13682,-4,0,65,-6,363763,0
363796,134,-2026,370,-25,-1,-21,13334,8,2,-30,-8,35841,-84,32,127,0,0,3634,10,0,8777,-1140,143,13692,-4,0,65,-6,363794,0
363806,122,-2022,358,-24,2,-19,13335,7,-1,-68,16,35848,-81,32,127,0,0,3636,43,0,8777,-1140,143,13702,-4,0,65,-6,363794,0
363816,130,-2017,353,-27,-5,-17,13336,6,4,-1,16,35850,-75,32,127,0,0,3636,5,0,8777,-1140,143,13712,-4,0,65,-6,363810,0
363826,140,-2024,365,-30,4,-8,13336,3,2,9,16,35849,-73,32,127,0,0,3633,-27,0,8777,-1140,143,13722,-4,0,65,-6,363810,0
363836,125,-2017,363,-24,1,-6,13333,-7,-1,-13,16,35844,-71,32,127,0,0,3636,5,0,8777,-1140,143,13732,-4,0,65,-6,363825,0
363846,130,-2018,366,-30,6,1,13335,-2,3,21,40,35854,-64,32,127,0,0,3635,5,0,8777,-1140,143,13742,-4,0,65,-6,363825,0
363856,124,-2017,353,-25,-6,7,13337,2,2,52,32,35856,-67,32,127,0,0,3638,21,0,8777,-1140,143,13752,-4,0,65,-6,363841,0
363866,125,-2028,350,-32,-8,3,13337,-5,-4,100,8,35852,-71,32,127,0,0,3639,21,0,8777,-1140,143,13762,-4,0,65,-6,363857,0
363876,124,-2023,344,-26,-3,4,13338,8,-3,121,80,35847,-69,32,127,0,0,3639,43,0,8777,-1140,143,13772,-4,0,65,-6,363857,0
363886,131,-2021,348,-23,-4,18,13344,5,13,175,48,35843,-70,32,127,0,0,3644,32,0,8777,-1140,143,13782,-4,0,65,-6,363872,0
363896,125,-2024,363,-18,5,8,13344,7,-2,249,64,35844,-68,32,127,0,0,3643,16,0,8777,-1140,143,13792,-4,0,65,-6,363904,0
363906,135,-2021,361,-21,-5,27,13344,-3,-14,242,88,35851,-61,32,127,0,0,3645,38,0,8777,-1140,143,13802,-4,0,65,-6,363904,0
363916,136,-2023,358,-18,-5,38,13351,16,11,300,104,35849,-57,32,127,0,0,3647,38,0,8777,-1140,143,13812,-4,0,65,-6,363904,0
363926,139,-2025,359,-20,-4,53,13360,18,16,312,80,35849,-60,32,127,0,0,3650,32,0,8777,-1140,143,13822,-4,0,65,-6,363904,0
363936,126,-2017,357,-13,-1,52,13382,61,31,265,88,35842,-82,32,127,0,0,3648,5,0,8777,-1140,143,13832,-4,0,65,-6,363935,0
363946,143,-2023,360,-12,-10,69,13403,21,29,154,48,35852,-64,32,127,0,0,3655,16,0,8777,-1140,143,13842,-4,0,65,-6,363935,0
363956,114,-2021,350,-18,-4,56,13401,0,-58,269,120,35858,-59,32,127,0,0,3658,49,0,8777,-1140,143,13852,-4,0,65,-6,363935,0
363966,111,-2021,352,-7,7,60,13410,26,-18,350,128,35859,-58,32,127,0,0,3660,32,0,8777,-1140,143,13862,-4,0,65,-6,363950,0
363976,121,-2017,352,-1,3,61,13425,36,26,323,120,35862,-59,32,127,0,0,3662,38,0,8777,-1140,143,13872,-4,0,65,-6,363966,0
363986,100,-2019,355,-6,1,63,13449,54,32,231,72,35861,-52,32,127,0,0,3669,54,0,8777,-1140,143,13882,-4,0,65,-6,363966,0
363996,126,-2016,372,-6,-2,69,13462,3,4,256,88,35858,-56,32,127,0,0,3670,76,0,8777,-1140,143,13892,-4,0,65,-6,363997,0
364006,74,-2009,369,-10,2,66,13465,19,-58,384,136,35853,-38,32,127,0,0,3671,21,0,8777,-1140,143,13902,-4,0,65,-6,363997,0
364016,100,-2018,377,-17,2,56,13467,1,-11,418,128,35851,-52,32,127,0,0,3678,60,0,8777,-1140,143,13912,-4,0,65,-6,363997,0
364026,90,-2017,378,-23,-6,57,13470,1,1,462,184,35853,-45,32,127,0,0,3671,60,0,8777,-1140,143,13922,-4,0,65,-6,364013,0
364036,92,-2015,378,-30,-7,48,13480,22,4,473,176,35851,-33,32,127,0,0,3678,10,0,8777,-1140,143,13932,-4,0,65,-6,364029,0
364046,93,-2023,376,-35,0,33,13495,35,23,438,168,35852,-37,32,127,0,0,3680,65,0,8777,-1140,143,13942,-4,0,65,-6,364044,0
364056,84,-2022,378,-33,1,18,13525,66,40,353,112,35858,-25,32,127,0,0,3687,32,0,8777,-1140,143,13952,-4,0,65,-6,364044,0
364066,93,-2020,392,-51,-1,3,13534,6,-11,393,136,35853,-37,32,127,0,0,3681,10,0,8777,-1140,143,13962,-4,0,65,-6,364060,0
364076,63,-2014,391,-55,2,-18,13534,7,-61,417,112,35853,-31,32,127,0,0,3682,-49,0,8777,-1140,143,13972,-4,0,65,-6,364060,0
364086,47,-2029,372,-65,-11,-41,13533,-4,-20,395,136,35848,-33,32,127,0,0,3684,32,0,8777,-1140,143,13982,-4,0,65,-6,364060,0
364096,75,-2036,370,-67,-7,-56,13534,-7,1,405,136,35857,-47,32,127,0,0,3681,-27,0,8777,-1140,143,13992,-4,0,65,-6,364107,0
364106,78,-2024,378,-72,-13,-67,13535,3,1,412,136,35863,-46,32,127,0,0,3684,-10,0,8777,-1140,143,14002,-4,0,65,-6,364107,0
364116,89,-2023,380,-76,-20,-77,13534,-6,1,406,136,35861,-55,32,127,0,0,3681,-16,0,8777,-1140,143,14012,-4,0,65,-6,364122,0
364126,79,-2017,395,-102,-27,-95,13535,-3,-6,402,112,35854,-54,32,127,0,0,3682,-21,0,8777,-1140,143,14022,-4,0,65,-6,364138,0
364136,73,-2016,388,-116,-31,-116,13534,-6,-1,364,112,35845,-53,32,127,0,0,3679,0,0,8777,-1140,143,14032,-4,0,65,-6,364138,0
364146,40,-2021,373,-119,-1,-173,13532,-10,-3,303,64,35855,-57,32,127,0,0,3674,-65,0,8777,-1140,143,14042,-4,0,65,-6,364138,0
364156,58,-2021,373,-121,10,-197,13524,-24,-15,153,8,35855,-59,32,127,0,0,3668,-82,0,8777,-1140,143,14052,-4,0,65,-6,364138,0
364166,109,-2013,381,-128,5,-216,13515,-15,-17,14,-16,35859,-61,32,127,0,0,3663,-65,0,8777,-1140,143,14062,-4,0,65,-6,364138,0
364176,128,-2009,365,-137,-9,-206,13505,-29,5,-176,-48,35864,-55,32,127,0,0,3659,-43,0,8777,-1140,143,14072,-4,0,65,-6,364185,0
364186,93,-2022,355,-144,-16,-202,13482,-54,-19,-192,-96,35871,-54,32,127,0,0,3654,-65,0,8777,-1140,143,14082,-4,0,65,-6,364200,0
364196,118,-2022,354,-137,-1,-214,13442,-82,-57,-178,-64,35867,-54,32,127,0,0,3646,-54,0,8777,-1140,143,14092,-4,0,65,-6,364200,0
364206,125,-2019,341,-137,8,-208,13423,-31,6,-299,-96,35856,-50,32,127,0,0,3643,-21,0,8777,-1140,143,14102,-4,0,65,-6,364200,0
364216,163,-2028,351,-123,0,-203,13399,-70,36,-273,-120,35846,-42,32,127,0,0,3636,-60,0,8777,-1140,143,14112,-4,0,65,-6,364232,0
364226,142,-2018,340,-119,-4,-171,13370,-49,-29,-295,-112,35847,-35,32,127,0,0,3632,-32,0,8777,-1140,143,14122,-4,0,65,-6,364247,0
364236,165,-2020,337,-116,-7,-142,13345,-70,0,-268,-96,35856,-34,32,127,0,0,3627,-21,0,8777,-1140,143,14132,-4,0,65,-6,364247,0
364246,106,-2021,342,-108,0,-142,13309,-52,-12,-174,-48,35864,-45,32,127,0,0,3622,-21,0,8777,-1140,143,14142,-4,0,65,-6,364247,0
364256,164,-2021,353,-102,-1,-115,13301,-20,51,-302,-80,35868,-72,32,127,0,0,3621,-16,0,8777,-1140,143,14152,-4,0,65,-6,364247,0
364266,153,-2020,345,-102,-12,-102,13285,-53,22,-267,-72,35862,-99,32,127,0,0,3618,-5,0,8777,-1140,143,14162,-4,0,65,-6,364247,0
364276,125,-2018,337,-104,-1,-105,13269,-27,-23,-167,-64,35866,-105,32,127,0,0,3616,-32,0,8777,-1140,143,14172,-4,0,65,-6,364278,0
364286,123,-2018,345,-96,2,-98,13268,-3,37,-307,-88,35866,-107,32,127,0,0,3607,-76,0,8777,-1140,143,14182,-4,0,65,-6,364278,0
364296,132,-2026,352,-90,3,-103,13259,-17,13,-384,-112,35861,-114,32,127,0,0,3610,-43,0,8777,-1140,143,14192,-4,0,65,-6,364294,0
364306,136,-2024,342,-84,1,-88,13257,0,1,-397,-136,35852,-127,32,127,0,0,3607,-38,0,8777,-1140,143,14202,-4,0,65,-6,364294,0
364316,153,-2020,341,-84,-3,-72,13252,-17,4,-447,-128,35847,-133,32,127,0,0,3611,27,0,8777,-1140,143,14212,-4,0,65,-6,364325,0
364326,154,-2019,337,-75,0,-57,13253,1,2,-441,-128,35853,-124,32,127,0,0,3604,-21,0,8777,-1140,143,14222,-4,0,65,-6,364325,0
364336,162,-2023,339,-69,-12,-51,13249,-4,6,-470,-120,35856,-102,32,127,0,0,3607,-10,0,8777,-1140,143,14232,-4,0,65,-6,364325,0
364346,179,-2027,344,-67,-5,-34,13242,-16,-8,-455,-104,35854,-104,32,127,0,0,3607,60,0,8777,-1140,143,14242,-4,0,65,-6,364325,0
364356,146,-2018,330,-65,-2,-21,13239,-3,0,-407,-120,35848,-103,32,127,0,0,3609,-5,0,8777,-1140,143,14252,-4,0,65,-6,364357,0
364366,137,-2023,320,-51,-2,-13,13230,-31,-10,-380,-80,35851,-104,32,127,0,0,3604,10,0,8777,-1140,143,14262,-4,0,65,-6,364357,0
364376,152,-2016,324,-45,2,-14,13214,-29,-24,-246,-48,35852,-90,32,127,0,0,3604,-38,0,8777,-1140,143,14272,-4,0,65,-6,364357,0
364386,118,-2014,336,-40,0,-3,13209,7,16,-206,-64,35852,-92,32,127,0,0,3602,-82,0,8777,-1140,143,14282,-4,0,65,-6,364372,0
364396,131,-2014,341,-34,2,-14,13207,-7,31,-243,-56,35848,-90,32,127,0,0,3609,0,0,8777,-1140,143,14292,-4,0,65,-6,364388,0
364406,93,-2012,358,-42,-10,-8,13208,-5,4,-213,-64,35856,-93,32,127,0,0,3609,10,0,8777,-1140,143,14302,-4,0,65,-6,364403,0
364416,101,-2014,361,-41,0,-16,13208,7,0,-200,-64,35851,-90,32,127,0,0,3605,-32,0,8777,-1140,143,14312,-4,0,65,-6,364403,0
364426,80,-2026,354,-48,-5,-25,13207,11,0,-207,-32,35845,-90,32,127,0,0,3607,-10,0,8777,-1140,143,14322,-4,0,65,-6,364419,0
364436,106,-2022,357,-46,-5,-27,13208,-7,2,-190,-64,35841,-90,32,127,0,0,3609,-5,0,8777,-1140,143,14332,-4,0,65,-6,364419,0
364446,108,-2019,352,-52,-7,-33,13208,6,3,-156,-40,35847,-85,32,127,0,0,3607,-16,0,8777,-1140,143,14342,-4,0,65,-6,364419,0
364456,93,-2017,360,-57,-4,-39,13207,-7,-3,-181,-32,35846,-86,32,127,0,0,3607,0,0,8777,-1140,143,14352,-4,0,65,-6,364466,0
364466,126,-2016,360,-68,-5,-42,13208,0,-3,-212,-40,35844,-64,32,127,0,0,3607,32,0,8777,-1140,143,14362,-4,0,65,-6,364466,0
364476,111,-2015,346,-71,-9,-46,13208,1,11,-197,-64,35842,-59,32,127,0,0,3609,-5,0,8777,-1140,143,14372,-4,0,65,-6,364466,0
364486,108,-2033,357,-77,-7,-52,13208,3,1,-206,-64,35844,-63,32,127,0,0,3605,-21,0,8777,-1140,143,14382,-4,0,65,-6,364466,0
364496,132,-2026,361,-86,-7,-58,13210,17,6,-174,-40,35840,-77,32,127,0,0,3607,-21,0,8777,-1140,143,14392,-4,0,65,-6,364482,0
364506,115,-2021,350,-88,-11,-47,13207,-3,3,-195,-32,35846,-65,32,127,0,0,3607,5,0,8777,-1140,143,14402,-4,0,65,-6,364513,0
364516,116,-2017,349,-91,-7,-53,13208,5,3,-204,-64,35849,-64,32,127,0,0,3609,0,0,8777,-1140,143,14412,-4,0,65,-6,364513,0
364526,106,-2020,351,-94,-17,-54,13208,6,6,-188,-64,35852,-67,32,127,0,0,3609,-5,0,8777,-1140,143,14422,-4,0,65,-6,364513,0
364536,102,-2028,343,-96,-15,-61,13206,-7,-3,-192,-56,35845,-78,32,127,0,0,3609,21,0,8777,-1140,143,14432,-4,0,65,-6,364513,0
364546,105,-2031,355,-100,-12,-62,13209,13,-3,-198,-40,35841,-83,32,127,0,0,3607,5,0,8777,-1140,143,14442,-4,0,65,-6,364544,0
364556,103,-2034,354,-104,-13,-65,13206,-6,3,-249,-32,35847,-89,32,127,0,0,3607,38,0,8777,-1140,143,14452,-4,0,65,-6,364544,0
364566,138,-2041,356,-103,-8,-73,13207,3,2,-229,-32,35849,-103,32,127,0,0,3601,-43,0,8777,-1140,143,14462,-4,0,65,-6,364544,0
364576,125,-2038,364,-107,0,-83,13203,-14,-4,-316,-72,35845,-104,32,127,0,0,3603,-21,0,8777,-1140,143,14472,-4,0,65,-6,364560,0
364586,112,-2033,348,-117,-6,-95,13202,0,-7,-314,-96,35841,-100,32,127,0,0,3601,-5,0,8777,-1140,143,14482,-4,0,65,-6,364607,0
364596,131,-2037,349,-114,-1,-100,13200,0,6,-315,-88,35847,-78,32,127,0,0,3598,-54,0,8777,-1140,143,14492,-4,0,65,-6,364607,0
364606,124,-2023,343,-116,-4,-96,13198,-12,2,-370,-112,35841,-78,32,127,0,0,3599,-43,0,8777,-1140,143,14502,-4,0,65,-6,364607,0
364616,121,-2033,337,-123,-10,-89,13193,-8,-13,-419,-128,35838,-81,32,127,0,0,3593,-43,0,8777,-1140,143,14512,-4,0,65,-6,364607,0
364626,130,-2015,322,-112,0,-83,13181,-24,-12,-448,-104,35828,-78,32,127,0,0,3590,-38,0,8777,-1140,143,14522,-4,0,65,-6,364622,0
364636,155,-2016,318,-109,-6,-76,13170,-38,-14,-391,-104,35829,-83,32,127,0,0,3591,-49,0,8777,-1140,143,14532,-4,0,65,-6,364622,0
364646,155,-2018,317,-103,-6,-54,13151,-53,-15,-309,-88,35840,-72,32,127,0,0,3592,-27,0,8777,-1140,143,14542,-4,0,65,-6,364622,0
364656,137,-2021,321,-96,-6,-46,13136,-12,-12,-201,-32,35851,-64,32,127,0,0,3594,38,0,8777,-1140,143,14552,-4,0,65,-6,364669,0
364666,166,-2016,314,-89,-7,-35,13140,-3,60,-241,-64,35866,-49,32,127,0,0,3592,10,0,8777,-1140,143,14562,-4,0,65,-6,364669,0
364676,127,-2017,321,-88,-8,-29,13138,1,16,-259,-64,35859,-35,32,127,0,0,3595,54,0,8777,-1140,143,14572,-4,0,65,-6,364669,0
364686,157,-2020,326,-81,-7,-27,13137,-4,4,-219,-56,35853,-38,32,127,0,0,3592,10,0,8777,-1140,143,14582,-4,0,65,-6,364669,0
364696,124,-2020,328,-77,-6,-28,13138,6,1,-215,-16,35845,-54,32,127,0,0,3593,43,0,8777,-1140,143,14592,-4,0,65,-6,364669,0
364706,141,-2020,331,-77,-8,-26,13139,-12,-2,-218,-64,35849,-58,32,127,0,0,3592,-16,0,8777,-1140,143,14602,-4,0,65,-6,364700,0
364716,124,-2017,322,-66,-7,-27,13139,15,2,-184,-64,35854,-51,32,127,0,0,3592,-49,0,8777,-1140,143,14612,-4,0,65,-6,364700,0
364726,110,-2031,318,-62,-9,-24,13135,-18,-3,-207,-56,35850,-35,32,127,0,0,3595,27,0,8777,-1140,143,14622,-4,0,65,-6,364716,0
364736,134,-2025,314,-61,-11,-27,13139,0,0,-203,-40,35842,-53,32,127,0,0,3588,-32,0,8777,-1140,143,14632,-4,0,65,-6,364716,0
364746,124,-2024,330,-58,-9,-26,13137,1,0,-246,-56,35843,-78,32,127,0,0,3592,-10,0,8777,-1140,143,14642,-4,0,65,-6,364810,0
364756,131,-2035,330,-55,-15,-28,13138,0,-3,-220,-64,35855,-77,32,127,0,0,3592,0,0,8777,-1140,143,14652,-4,0,65,-6,364810,0
364766,141,-2029,317,-47,-11,-22,13138,4,4,-200,-64,35855,-67,32,127,0,0,3595,16,0,8777,-1140,143,14662,-4,0,65,-6,364825,0
364776,131,-2026,313,-37,-16,-23,13139,2,7,-131,-40,35850,-59,32,127,0,0,3591,-49,0,8777,-1140,143,14672,-4,0,65,-6,364825,0
364786,147,-2014,299,-28,-4,-14,13137,-7,-3,-201,-56,35844,-75,32,127,0,0,3599,49,0,8777,-1140,143,14682,-4,0,65,-6,364825,0
364796,134,-2058,302,-23,-32,-9,13141,-1,4,-130,-24,35851,-67,32,127,0,0,3593,0,0,8777,-1140,143,14692,-4,0,65,-6,364825,0
364806,192,-2014,313,-18,25,14,13140,-1,2,-149,-16,35850,-67,32,127,0,0,3593,-10,0,8777,-1140,143,14702,-4,0,65,-6,364825,0
364816,144,-2023,306,-6,6,23,13141,5,-5,-112,-24,35845,-54,32,127,0,0,3596,-10,0,8777,-1140,143,14712,-4,0,65,-6,364825,0
364826,124,-2030,339,-2,-17,34,13142,5,6,-73,24,35842,-65,32,127,0,0,3594,0,0,8777,-1140,143,14722,-4,0,65,-6,364825,0
364836,162,-2022,348,-8,-31,72,13142,-12,-1,-73,24,35840,-60,32,127,0,0,3601,49,0,8777,-1140,143,14732,-4,0,65,-6,364825,0
364846,127,-2026,339,-15,-34,72,13150,26,13,108,56,35839,-57,32,127,0,0,3609,43,0,8777,-1140,143,14742,-4,0,65,-6,364825,0
364856,104,-2017,331,-13,-35,70,13159,13,7,197,88,35841,-61,32,127,0,0,3610,65,0,8777,-1140,143,14752,-4,0,65,-6,364841,0
364866,99,-2021,330,-8,-16,51,13173,36,10,237,56,35858,-62,32,127,0,0,3613,27,0,8777,-1140,143,14762,-4,0,65,-6,364872,0
364876,101,-2028,339,-12,-18,35,13199,62,45,125,32,35870,-63,32,127,0,0,3618,54,0,8777,-1140,143,14772,-4,0,65,-6,364872,0
364886,113,-2027,335,-14,-21,33,13214,8,1,149,48,35867,-64,32,127,0,0,3619,32,0,8777,-1140,143,14782,-4,0,65,-6,364872,0
364896,81,-2029,340,-17,-9,31,13215,5,-60,268,88,35853,-75,32,127,0,0,3621,38,0,8777,-1140,143,14792,-4,0,65,-6,364872,0
364906,114,-2024,350,-21,-8,27,13220,13,-10,283,104,35844,-91,32,127,0,0,3619,5,0,8777,-1140,143,14802,-4,0,65,-6,364903,0
364916,125,-2027,363,-33,-7,26,13227,11,5,290,112,35859,-94,32,127,0,0,3625,27,0,8777,-1140,143,14812,-4,0,65,-6,364903,0
364926,111,-2028,372,-41,-23,21,13244,47,17,282,80,35861,-86,32,127,0,0,3625,27,0,8777,-1140,143,14822,-4,0,65,-6,364903,0
364936,100,-2026,364,-47,-26,29,13272,42,48,108,24,35853,-93,32,127,0,0,3625,-5,0,8777,-1140,143,14832,-4,0,65,-6,364919,0
364946,67,-2023,348,-62,-81,-15,13267,-20,-54,154,56,35844,-98,32,127,0,0,3627,16,0,8777,-1140,143,14842,-4,0,65,-6,364935,0
364956,63,-2036,319,-64,-59,-23,13272,3,-46,191,96,35857,-99,32,127,0,0,3625,-5,0,8777,-1140,143,14852,-4,0,65,-6,364935,0
364966,114,-2041,315,-76,-26,-48,13271,-1,6,213,72,35858,-99,32,127,0,0,3626,-5,0,8777,-1140,143,14862,-4,0,65,-6,364966,0
364976,384,-2375,291,-118,-28,-147,13272,-2,-11,188,48,35861,-111,32,127,0,0,3634,65,0,8777,-1140,143,14872,-4,0,65,-6,364966,0
364986,721,-1999,149,-235,-6,-611,13275,9,5,258,64,35851,-113,32,127,0,0,3626,-21,0,8777,-1140,143,14882,-4,0,65,-6,364966,0
364996,10,-1984,196,-203,3,-658,13260,-57,-22,-92,-224,35848,-124,32,127,0,0,3598,-285,0,8777,-1140,143,14892,-4,0,65,-6,364981,0
365006,290,-2108,399,-132,-66,-26,13199,-155,-127,-373,-176,35847,-124,32,127,0,0,3594,-49,0,8777,-1140,143,14902,-4,0,65,-6,364981,0
365016,205,-2195,348,-106,-107,-77,13142,-107,-90,-154,-8,35858,-101,32,127,0,0,3589,-32,0,8777,-1140,143,14912,-4,0,65,-6,365028,0
365026,612,-2043,138,-207,-40,-570,13142,27,112,-164,-16,35860,-70,32,127,0,0,3587,-65,0,8777,-1140,143,14922,-4,0,65,-6,365028,0
365036,217,-1932,121,-222,24,-794,13132,-55,90,-391,-264,35857,-52,32,127,0,0,3562,-357,0,8777,-1140,143,14932,-4,0,65,-6,365028,0
365046,384,-2020,377,-239,39,-468,13066,-195,-139,-497,-344,35849,-51,32,127,0,0,3549,-208,0,8777,-1140,143,14942,-4,0,65,-6,365028,0
365056,525,-2051,323,-177,-51,-373,12981,-183,-162,-394,-232,35844,-64,32,127,0,0,3543,-82,0,8777,-1140,143,14952,-4,0,65,-6,365028,0
365066,415,-2038,134,-223,-93,-533,12901,-173,-23,-336,-208,35847,-54,32,127,0,0,3529,-104,0,8777,-1140,143,14962,-4,0,65,-6,365060,0
365076,300,-2014,111,-207,11,-694,12838,-115,46,-369,-216,35847,-25,32,127,0,0,3510,-192,0,8777,-1140,143,14972,-4,0,65,-6,365060,0
365086,425,-1998,373,-164,46,-614,12787,-117,65,-530,-288,35849,-5,32,127,0,0,3499,-120,0,8777,-1140,143,14982,-4,0,65,-6,365075,0
365096,570,-1978,453,-205,-18,-449,12712,-179,-23,-411,-256,35850,10,32,127,0,0,3488,-131,0,8777,-1140,143,14992,-4,0,65,-6,365091,0
365106,474,-2048,228,-271,-164,-328,12642,-126,-39,-324,-128,35853,-4,32,127,0,0,3482,-76,0,8777,-1140,143,15002,-4,0,65,-6,365091,0
365116,278,-2058,146,-229,-180,-429,12613,-20,94,-276,-64,35860,-19,32,127,0,0,3482,-82,0,8777,-1140,143,15012,-4,0,65,-6,365169,0
365126,133,-1991,187,-183,-17,-654,12616,-9,147,-477,-176,35868,-29,32,127,0,0,3474,-87,0,8777,-1140,143,15022,-4,0,65,-6,365169,0
365136,247,-2072,261,-186,19,-675,12587,-90,-4,-598,-264,35864,-53,32,127,0,0,3461,-98,0,8777,-1140,143,15032,-4,0,65,-6,365169,0
365146,524,-2071,281,-188,-71,-575,12521,-144,-133,-422,-224,35859,-54,32,127,0,0,3449,-120,0,8777,-1140,143,15042,-4,0,65,-6,365169,0
365156,479,-2041,298,-183,-140,-514,12455,-123,-68,-382,-176,35849,-73,32,127,0,0,3444,-87,0,8777,-1140,143,15052,-4,0,65,-6,365185,0
365166,320,-2037,295,-193,-141,-556,12413,-62,53,-369,-176,35852,-88,32,127,0,0,3435,-115,0,8777,-1140,143,15062,-4,0,65,-6,365185,0
365176,241,-2072,318,-212,-119,-574,12385,-71,69,-488,-208,35850,-94,32,127,0,0,3429,-115,0,8777,-1140,143,15072,-4,0,65,-6,365185,0
365186,243,-2084,279,-181,-100,-583,12343,-77,1,-394,-176,35845,-82,32,127,0,0,3418,-120,0,8777,-1140,143,15082,-4,0,65,-6,365185,0
365196,288,-2062,204,-164,-108,-545,12299,-116,-24,-412,-200,35841,-72,32,127,0,0,3421,-5,0,8777,-1140,143,15092,-4,0,65,-6,365185,0
365206,336,-2054,239,-52,-137,-521,12272,-39,15,-427,-176,35844,-66,32,127,0,0,3406,-87,0,8777,-1140,143,15102,-4,0,65,-6,365185,0
365216,508,-2176,321,-54,-132,-458,12246,-53,45,-415,-136,35857,-58,32,127,0,0,3406,-71,0,8777,-1140,143,15112,-4,0,65,-6,365200,0
365226,424,-2084,353,-78,-144,-370,12235,-3,29,-458,-128,35866,-46,32,127,0,0,3411,38,0,8777,-1140,143,15122,-4,0,65,-6,365231,0
365236,281,-2011,287,-122,-122,-351,12236,0,54,-443,-128,35866,-53,32,127,0,0,3407,21,0,8777,-1140,143,15132,-4,0,65,-6,365231,0
365246,162,-2087,226,-169,-119,-393,12237,2,17,-414,-128,35858,-58,32,127,0,0,3411,10,0,8777,-1140,143,15142,-4,0,65,-6,365231,0
365256,154,-2121,229,-190,-136,-367,12239,3,3,-359,-72,35853,-73,32,127,0,0,3417,87,0,8777,-1140,143,15152,-4,0,65,-6,365231,0
365266,131,-2074,272,-226,-113,-402,12249,38,25,-37,24,35848,-60,32,127,0,0,3432,76,0,8777,-1140,143,15162,-4,0,65,-6,365263,0
365276,140,-2073,265,-242,-100,-448,12284,68,68,70,88,35853,-59,32,127,0,0,3438,98,0,8777,-1140,143,15172,-4,0,65,-6,365263,0
365286,176,-2088,310,-258,-66,-526,12325,86,52,116,48,35854,-53,32,127,0,0,3453,104,0,8777,-1140,143,15182,-4,0,65,-6,365278,0
365296,254,-2104,344,-275,-44,-577,12339,35,-40,365,152,35858,-53,32,127,0,0,3453,60,0,8777,-1140,143,15192,-4,0,65,-6,365278,0
365306,312,-2085,332,-316,-56,-558,12377,94,0,225,96,35855,-70,32,127,0,0,3461,82,0,8777,-1140,143,15202,-4,0,65,-6,365294,0
365316,345,-2035,283,-318,-72,-566,12416,89,48,299,136,35851,-52,32,127,0,0,3472,60,0,8777,-1140,143,15212,-4,0,65,-6,365294,0
365326,386,-2015,261,-304,-73,-555,12470,108,30,213,88,35855,-39,32,127,0,0,3479,38,0,8777,-1140,143,15222,-4,0,65,-6,365341,0
365336,372,-1995,274,-277,-102,-553,12515,80,5,166,88,35858,-44,32,127,0,0,3484,43,0,8777,-1140,143,15232,-4,0,65,-6,365341,0
365346,450,-1989,277,-281,-119,-515,12527,24,-84,414,152,35861,-70,32,127,0,0,3493,54,0,8777,-1140,143,15242,-4,0,65,-6,365341,0
365356,431,-1974,264,-273,-152,-468,12557,84,-12,348,160,35852,-106,32,127,0,0,3503,131,0,8777,-1140,143,15252,-4,0,65,-6,365341,0
365366,464,-1962,260,-265,-172,-402,12605,111,71,388,176,35843,-99,32,127,0,0,3514,60,0,8777,-1140,143,15262,-4,0,65,-6,365341,0
365376,434,-1938,233,-246,-208,-323,12667,128,54,285,208,35850,-87,32,127,0,0,3529,181,0,8777,-1140,143,15272,-4,0,65,-6,365372,0
365386,450,-1945,182,-221,-202,-257,12736,137,32,306,224,35859,-75,32,127,0,0,3541,131,0,8777,-1140,143,15282,-4,0,65,-6,365372,0
365396,444,-1939,172,-211,-197,-247,12800,132,-5,335,208,35860,-62,32,127,0,0,3556,142,0,8777,-1140,143,15292,-4,0,65,-6,365372,0
365406,445,-1916,143,-202,-141,-263,12880,185,23,306,184,35851,-51,32,127,0,0,3572,109,0,8777,-1140,143,15302,-4,0,65,-6,365403,0
365416,435,-1937,148,-201,-112,-245,12949,126,4,280,152,35841,-24,32,127,0,0,3583,153,0,8777,-1140,143,15312,-4,0,65,-6,365403,0
365426,346,-1955,187,-175,-95,-212,12987,70,-87,376,144,35847,-14,32,127,0,0,3590,98,0,8777,-1140,143,15322,-4,0,65,-6,365419,0
365436,313,-1976,203,-169,-98,-204,13035,104,-27,321,144,35849,-19,32,127,0,0,3595,93,0,8777,-1140,143,15332,-4,0,65,-6,365419,0
365446,312,-1999,228,-167,-85,-228,13088,132,30,334,176,35847,-42,32,127,0,0,3609,71,0,8777,-1140,143,15342,-4,0,65,-6,365419,0
365456,368,-1998,229,-191,-92,-241,13138,110,4,323,200,35842,-28,32,127,0,0,3613,82,0,8777,-1140,143,15352,-4,0,65,-6,365450,0
365466,298,-1993,190,-216,-40,-271,13184,99,-17,333,152,35848,-33,32,127,0,0,3627,76,0,8777,-1140,143,15362,-4,0,65,-6,365450,0
365476,316,-1989,203,-207,-17,-295,13235,95,4,286,120,35847,-29,32,127,0,0,3630,49,0,8777,-1140,143,15372,-4,0,65,-6,365466,0
365486,382,-1961,259,-197,-17,-331,13278,88,-13,234,80,35844,-67,32,127,0,0,3635,21,0,8777,-1140,143,15382,-4,0,65,-6,365466,0
365496,453,-1984,270,-211,-36,-331,13287,4,-84,378,112,35842,-69,32,127,0,0,3639,21,0,8777,-1140,143,15392,-4,0,65,-6,365481,0
365506,405,-1984,277,-218,-75,-313,13287,6,-81,449,160,35840,-61,32,127,0,0,3644,65,0,8777,-1140,143,15402,-4,0,65,-6,365497,0
365516,404,-1997,260,-217,-78,-308,13301,40,17,498,176,35846,-71,32,127,0,0,3645,21,0,8777,-1140,143,15412,-4,0,65,-6,365513,0
365526,361,-2002,268,-219,-121,-294,13341,95,76,356,120,35849,-92,32,127,0,0,3650,10,0,8777,-1140,143,15422,-4,0,65,-6,365513,0
365536,383,-2033,255,-224,-142,-287,13354,19,-6,455,168,35852,-101,32,127,0,0,3654,49,0,8777,-1140,143,15432,-4,0,65,-6,365528,0
365546,349,-2024,205,-217,-140,-306,13379,62,-27,391,184,35855,-98,32,127,0,0,3660,109,0,8777,-1140,143,15442,-4,0,65,-6,365528,0
365556,378,-2037,192,-223,-120,-306,13418,78,53,335,152,35854,-85,32,127,0,0,3665,65,0,8777,-1140,143,15452,-4,0,65,-6,365559,0
365566,377,-2039,202,-235,-94,-299,13455,91,23,278,128,35850,-59,32,127,0,0,3669,54,0,8777,-1140,143,15462,-4,0,65,-6,365559,0
365576,414,-2034,194,-247,-91,-288,13474,18,-36,343,160,35848,-38,32,127,0,0,3676,60,0,8777,-1140,143,15472,-4,0,65,-6,365559,0
365586,391,-2024,207,-250,-118,-307,13478,14,-69,552,224,35840,-35,32,127,0,0,3685,104,0,8777,-1140,143,15482,-4,0,65,-6,365559,0
365596,371,-2078,224,-263,-108,-317,13513,92,34,474,200,35840,-49,32,127,0,0,3690,65,0,8777,-1140,143,15492,-4,0,65,-6,365591,0
365606,346,-2072,219,-259,-101,-300,13554,83,68,431,192,35847,-61,32,127,0,0,3696,54,0,8777,-1140,143,15502,-4,0,65,-6,365591,0
365616,292,-2034,230,-251,-101,-307,13613,142,42,340,192,35845,-53,32,127,0,0,3707,109,0,8777,-1140,143,15512,-4,0,65,-6,365606,0
365626,326,-2064,254,-262,-117,-341,13673,119,38,322,160,35840,-33,32,127,0,0,3716,60,0,8777,-1140,143,15522,-4,0,65,-6,365622,0
365636,332,-2038,278,-279,-110,-382,13711,87,-39,377,160,35835,-22,32,127,0,0,3723,76,0,8777,-1140,143,15532,-4,0,65,-6,365622,0
365646,359,-2105,260,-327,-120,-439,13748,79,-51,458,176,35844,-13,32,127,0,0,3732,27,0,8777,-1140,143,15542,-4,0,65,-6,365653,0
365656,304,-2102,288,-323,-122,-460,13795,111,17,396,200,35849,-14,32,127,0,0,3739,76,0,8777,-1140,143,15552,-4,0,65,-6,365653,0
365666,346,-2047,255,-325,-135,-547,13850,128,43,356,136,35847,-22,32,127,0,0,3750,43,0,8777,-1140,143,15562,-4,0,65,-6,365669,0
365676,405,-2023,229,-323,-161,-577,13883,73,-24,402,192,35840,-38,32,127,0,0,3755,93,0,8777,-1140,143,15572,-4,0,65,-6,365669,0
365686,400,-2027,216,-325,-197,-585,13918,56,-33,341,144,35835,-45,32,127,0,0,3760,98,0,8777,-1140,143,15582,-4,0,65,-6,365669,0
365696,438,-2010,191,-331,-181,-615,13936,54,-37,461,128,35835,-53,32,127,0,0,3766,10,0,8777,-1140,143,15592,-4,0,65,-6,365700,0
365706,456,-1976,116,-339,-153,-612,13975,85,12,320,144,35841,-69,32,127,0,0,3768,27,0,8777,-1140,143,15602,-4,0,65,-6,365700,0
365716,483,-1965,103,-347,-142,-600,14006,75,26,360,128,35843,-75,32,127,0,0,3779,71,0,8777,-1140,143,15612,-4,0,65,-6,365700,0
365726,501,-1943,98,-346,-151,-553,14044,58,5,292,128,35842,-91,32,127,0,0,3782,93,0,8777,-1140,143,15622,-4,0,65,-6,365716,0
365736,506,-1986,112,-352,-121,-552,14057,29,-41,481,192,35832,-94,32,127,0,0,3788,71,0,8777,-1140,143,15632,-4,0,65,-6,365716,0
365746,481,-1983,91,-324,-72,-537,14092,92,-7,448,216,35842,-115,32,127,0,0,3796,87,0,8777,-1140,143,15642,-4,0,65,-6,365747,0
365756,563,-1956,100,-323,-38,-557,14137,96,65,417,176,35846,-79,32,127,0,0,3807,115,0,8777,-1140,143,15652,-4,0,65,-6,365747,0
365766,571,-1859,117,-341,-15,-553,14189,101,27,269,120,35855,-59,32,127,0,0,3808,82,0,8777,-1140,143,15662,-4,0,65,-6,365747,0
365776,575,-1858,129,-378,-13,-573,14226,69,-18,241,64,35846,-33,32,127,0,0,3807,-32,0,8777,-1140,143,15672,-4,0,65,-6,365763,0
365786,491,-1898,126,-389,-17,-575,14221,-11,-105,290,80,35841,-65,32,127,0,0,3807,-54,0,8777,-1140,143,15682,-4,0,65,-6,365778,0
365796,532,-1889,119,-379,-9,-580,14224,13,-67,285,72,35851,-68,32,127,0,0,3807,-60,0,8777,-1140,143,15692,-4,0,65,-6,365778,0
365806,542,-1849,132,-393,-46,-591,14221,-11,7,253,80,35853,-70,32,127,0,0,3804,-16,0,8777,-1140,143,15702,-4,0,65,-6,365778,0
365816,630,-1864,128,-398,-24,-710,14221,-10,-10,173,32,35853,-60,32,127,0,0,3796,-98,0,8777,-1140,143,15712,-4,0,65,-6,365809,0
365826,366,-1854,108,-360,-37,-852,14199,-77,-30,-247,-160,35851,-33,32,127,0,0,3778,-115,0,8777,-1140,143,15722,-4,0,65,-6,365809,0
365836,473,-1953,101,-376,6,-919,14139,-159,-125,-368,-256,35849,-35,32,127,0,0,3755,-192,0,8777,-1140,143,15732,-4,0,65,-6,365903,0
365846,521,-2038,180,-369,5,-882,14050,-223,-128,-362,-312,35854,-33,32,127,0,0,3736,-164,0,8777,-1140,143,15742,-4,0,65,-6,365919,0
365856,547,-2042,164,-369,4,-894,13947,-211,-86,-327,-312,35851,-58,32,127,0,0,3719,-186,0,8777,-1140,143,15752,-4,0,65,-6,365919,0
365866,547,-1981,155,-341,6,-947,13844,-232,-21,-300,-272,35846,-70,32,127,0,0,3697,-181,0,8777,-1140,143,15762,-4,0,65,-6,365919,0
365876,534,-1936,151,-307,14,-1046,13745,-214,7,-359,-336,35839,-75,32,127,0,0,3673,-263,0,8777,-1140,143,15772,-4,0,65,-6,365919,0
365886,575,-1949,168,-299,42,-1206,13637,-256,-3,-410,-448,35838,-72,32,127,0,0,3639,-335,0,8777,-1140,143,15782,-4,0,65,-6,365919,0
365896,527,-1949,192,-303,50,-1322,13515,-286,-42,-523,-624,35838,-53,32,127,0,0,3596,-417,0,8777,-1140,143,15792,-4,0,65,-6,365919,0
365906,590,-2022,125,-285,122,-1299,13356,-367,-101,-463,-744,35838,-30,32,127,0,0,3558,-379,0,8777,-1140,143,15802,-4,0,65,-6,365919,0
365916,557,-2056,56,-237,267,-1212,13180,-385,-108,-430,-816,35836,-33,32,127,0,0,3516,-379,0,8777,-1140,143,15812,-4,0,65,-6,365919,0
365926,461,-1957,-26,-150,448,-1044,12994,-409,-39,-457,-928,35833,-58,32,127,0,0,3472,-346,0,8777,-1140,143,15822,-4,0,65,-6,365919,0
365936,471,-1771,33,-128,509,-960,12795,-440,-38,-444,-936,35838,-77,32,127,0,0,3429,-406,0,8777,-1140,143,15832,-4,0,65,-6,365919,0
365946,80,-1340,147,116,787,-626,12591,-456,-42,-454,-992,35844,-63,32,127,0,0,3383,-494,0,8777,-1140,143,15842,-4,0,65,-6,365934,0
365956,-102,-1570,171,258,931,-331,12376,-476,-31,-497,-1024,35857,-39,32,127,0,0,3339,-411,0,8777,-1140,143,15852,-4,0,-26,0,365934,0
365966,-227,-1877,437,459,1119,-78,12163,-455,-22,-451,-1008,35876,-31,32,127,0,0,3303,-401,0,8777,-1140,143,15862,-4,0,-25,0,365950,0
365976,-166,-1996,569,525,1261,101,11949,-463,3,-455,-928,35880,-20,32,127,0,0,3270,-357,0,8777,-1140,143,15872,-4,0,-25,0,365981,0
365986,-23,-2151,558,544,1400,377,11742,-437,19,-419,-816,35875,-17,32,127,0,0,3245,-252,0,8777,-1140,143,15882,-4,0,-24,0,365985,0
365996,111,-2178,519,547,1348,504,11556,-395,50,-426,-696,35857,-14,32,127,0,0,3221,-164,0,8777,-1140,143,15892,-4,0,-24,0,365989,0
366006,238,-2190,446,590,1001,660,11386,-359,66,-431,-584,35845,-33,32,127,0,0,3192,-236,0,8777,-1140,143,15902,-4,0,-24,0,365989,0
366016,368,-2180,403,623,662,735,11228,-323,64,-373,-472,35845,-40,32,127,0,0,3182,-181,0,8777,-1140,143,15912,-4,0,-22,0,366013,0
366026,406,-2190,301,674,101,834,11095,-293,69,-328,-328,35854,-28,32,127,0,0,3172,-137,0,8777,-1140,143,15922,-4,0,-22,0,366013,0
366036,402,-2190,266,686,-266,846,10989,-205,98,-299,-192,35850,-18,32,127,0,0,3160,-98,0,8777,-1140,143,15932,-4,0,-21,0,366013,0
366046,388,-2182,202,699,-749,886,10926,-126,139,-295,-168,35845,-30,32,127,0,0,3146,-192,0,8777,-1140,143,15942,-4,0,-20,0,366076,0
366056,378,-2151,171,678,-1062,909,10889,-51,122,-409,-144,35837,-26,32,127,0,0,3139,-120,0,8777,-1140,143,15952,-4,0,-19,0,366076,0
366066,431,-2140,164,616,-1479,971,10863,-67,81,-476,-144,35846,-60,32,127,0,0,3142,0,0,8777,-1140,143,15962,-4,0,-18,0,366076,0
366076,377,-2148,162,565,-1711,974,10844,-9,31,-411,-120,35846,-68,32,127,0,0,3143,21,0,8777,-1140,143,15972,-4,0,-18,0,366091,0
366086,394,-2127,125,508,-1904,966,10845,1,58,-457,-104,35845,-105,32,127,0,0,3142,49,0,8777,-1140,143,15982,-4,0,-18,0,366091,0
366096,371,-2071,89,467,-1952,946,10846,4,36,-408,-104,35843,-88,32,127,0,0,3142,0,0,8777,-1140,143,15992,-4,0,-18,0,366091,0
366106,368,-1991,57,424,-1894,922,10846,6,1,-406,-104,35848,-89,32,127,0,0,3142,0,0,8777,-1140,143,16002,-4,0,-18,0,366091,0
366116,330,-1998,42,428,-1829,935,10847,17,4,-357,-88,35856,-95,32,127,0,0,3147,32,0,8777,-1140,143,16012,-4,0,-18,0,366091,0
366126,376,-1986,58,438,-1624,930,10850,9,7,-246,-8,35865,-90,32,127,0,0,3153,98,0,8777,-1140,143,16022,-4,0,-18,0,366122,0
366136,352,-1956,91,461,-1435,883,10866,28,21,-91,32,35865,-76,32,127,0,0,3162,98,0,8777,-1140,143,16032,-4,0,-18,0,366122,0
366146,397,-1990,131,473,-1097,823,10874,21,10,82,32,35862,-71,32,127,0,0,3158,10,0,8777,-1140,143,16042,-4,0,-18,0,366138,0
366156,443,-2000,140,483,-856,812,10877,11,-24,50,24,35851,-77,32,127,0,0,3165,27,0,8777,-1140,143,16052,-4,0,-18,0,366138,0
366166,427,-1958,170,490,-510,818,10883,18,-11,100,24,35850,-85,32,127,0,0,3161,-16,0,8777,-1140,143,16062,-4,0,-18,0,366185,0
366176,413,-1948,211,503,-306,802,10886,10,4,33,32,35856,-79,32,127,0,0,3164,38,0,8777,-1140,143,16072,-4,0,-18,0,366201,0
366186,451,-2011,315,512,-43,799,10894,20,4,12,-8,35846,-77,32,127,0,0,3161,-5,0,8777,-1140,143,16082,-4,0,-18,0,366201,0
366196,404,-2004,365,521,111,795,10896,-2,1,-35,-16,35844,-96,32,127,0,0,3161,-5,0,8777,-1140,143,16092,-4,0,-18,0,366201,0
366206,312,-2029,449,554,253,761,10898,9,-12,-40,-16,35838,-106,32,127,0,0,3165,27,0,8777,-1140,143,16102,-4,0,-18,0,366201,0
366216,270,-2112,537,591,290,738,10897,-6,-10,-121,-16,35843,-108,32,127,0,0,3161,60,0,8777,-1140,143,16112,-4,0,-18,0,366201,0
366226,173,-2246,732,653,229,664,10901,19,2,-66,24,35838,-102,32,127,0,0,3159,10,0,8777,-1140,143,16122,-4,0,-18,0,366232,0
366236,85,-2230,839,713,137,647,10903,-7,6,-123,-24,35855,-108,32,127,0,0,3161,0,0,8777,-1140,143,16132,-4,0,-18,0,366232,0
366246,66,-2027,814,840,42,774,10900,-1,-22,-156,-40,35863,-109,32,127,0,0,3162,43,0,8777,-1140,143,16142,-4,0,-18,0,366247,0
366256,46,-1923,760,974,31,1015,10899,-5,-8,-151,-16,35866,-114,32,127,0,0,3165,82,0,8777,-1140,143,16152,-4,0,-18,0,366263,0
366266,27,-1785,691,1198,32,1548,10902,7,14,-139,-48,35855,-113,32,127,0,0,3162,38,0,8777,-1140,143,16162,-4,0,-18,0,366263,0
366276,-49,-1712,687,1327,-23,1922,10898,0,-7,-109,-16,35849,-124,32,127,0,0,3161,27,0,8777,-1140,143,16172,-4,0,-18,0,366263,0
366286,-255,-1825,751,1466,-254,2520,10900,-26,-2,-96,0,35848,-127,32,127,0,0,3170,109,0,8777,-1140,143,16182,-4,0,-18,0,366263,0
366296,-247,-2043,882,1581,-431,2862,10913,42,21,179,144,35852,-118,32,127,0,0,3188,241,0,8777,-1140,143,16192,-4,0,-18,0,366294,0
366306,-409,-2183,902,1701,-796,3199,10956,103,88,492,384,35858,-104,32,127,0,0,3225,411,0,8777,-1140,143,16202,-4,0,-18,0,366294,0
366316,-463,-2276,880,1779,-1059,3211,11062,282,183,544,608,35857,-91,32,127,0,0,3260,384,0,8777,-1140,143,16212,-4,0,-18,0,366310,0
366326,-447,-2350,860,1864,-1352,3082,11217,360,219,430,624,35850,-74,32,127,0,0,3294,280,0,8777,-1140,143,16222,-4,0,-18,0,366310,0
366336,-507,-2399,859,1899,-1535,3053,11395,393,121,330,520,35840,-52,32,127,0,0,3318,263,0,8777,-1140,143,16232,-4,0,-18,0,366326,0
366346,-414,-2281,780,1843,-1733,3247,11559,352,6,316,496,35846,-30,32,127,0,0,3347,302,0,8777,-1140,143,16242,-4,0,-18,0,366326,0
366356,-379,-2129,638,1801,-1806,3459,11711,333,-48,365,584,35848,-30,32,127,0,0,3391,444,0,8777,-1140,143,16252,-4,0,-18,0,366341,0
366366,-429,-1933,472,1786,-1877,3705,11872,374,0,479,800,35849,-58,32,127,0,0,3437,488,0,8777,-1140,143,16262,-4,0,-18,0,366372,0
366376,-418,-1835,368,1814,-1879,3784,12059,421,77,480,936,35848,-71,32,127,0,0,3488,433,0,8777,-1140,143,16272,-4,0,-18,0,366372,0
366386,-418,-1748,308,1890,-1725,3743,12267,458,89,412,872,35848,-63,32,127,0,0,3526,274,0,8777,-1140,143,16282,-4,0,34,0,366372,0
366396,-469,-1769,338,1926,-1557,3694,12478,450,37,301,672,35849,-37,32,127,0,0,3538,115,0,8777,-1140,143,16292,-4,0,36,0,366372,0
366406,-484,-1889,429,1963,-1219,3733,12662,374,-57,232,304,35846,-51,32,127,0,0,3535,-38,0,8777,-1140,143,16302,-4,0,39,0,366404,0
366416,-444,-1948,519,1942,-924,3814,12785,211,-176,34,64,35855,-51,32,127,0,0,3528,-54,0,8777,-1140,143,16312,-4,0,41,0,366404,0
366426,-521,-1846,531,1906,-552,3799,12818,23,-301,-122,-24,35848,-48,32,127,0,0,3533,-43,0,8777,-1140,143,16322,-4,0,44,0,366404,0
366436,-396,-1779,443,1892,-264,3612,12806,-27,-246,-107,-48,35844,-21,32,127,0,0,3522,-87,0,8777,-1140,143,16332,-4,0,46,0,366419,0
366446,-381,-1796,362,1878,111,3465,12788,-62,-81,-380,-208,35841,-14,32,127,0,0,3505,-164,0,8777,-1140,143,16342,-4,0,49,0,366435,0
366456,-325,-1853,397,1838,423,3383,12716,-179,-128,-314,-176,35856,-15,32,127,0,0,3498,-54,0,8777,-1140,143,16352,-4,0,50,0,366435,0
366466,-321,-1815,387,1713,882,3141,12645,-122,-91,-195,-80,35853,-19,32,127,0,0,3490,-49,0,8777,-1140,143,16362,-4,0,53,0,366450,0
366476,-185,-1766,318,1571,1228,2818,12617,-12,115,-193,-72,35847,-26,32,127,0,0,3482,-104,0,8777,-1140,143,16372,-4,0,54,0,366482,0
366486,-112,-1816,230,1352,1794,2264,12615,-25,131,-500,-224,35844,-26,32,127,0,0,3467,-175,0,8777,-1140,143,16382,-4,0,56,0,366482,0
366496,-89,-1922,294,1144,2138,1943,12566,-149,-69,-561,-392,35848,-43,32,127,0,0,3440,-291,0,8777,-1140,143,16392,-4,0,57,0,366482,0
366506,15,-2032,439,833,2667,1426,12463,-250,-198,-446,-360,35847,-56,32,127,0,0,3423,-192,0,8777,-1140,143,16402,-4,0,58,0,366482,0
366516,150,-1980,439,600,3074,1031,12357,-234,-93,-393,-352,35836,-67,32,127,0,0,3403,-230,0,8777,-1140,143,16412,-4,0,59,0,366513,0
366526,340,-1914,385,244,3567,433,12257,-216,11,-409,-328,35838,-49,32,127,0,0,3382,-153,0,8777,-1140,143,16422,-4,0,59,0,366513,0
366536,302,-1869,390,75,3766,-71,12165,-210,24,-475,-392,35838,-55,32,127,0,0,3361,-258,0,8777,-1140,143,16432,-4,0,59,0,366529,0
366546,382,-1819,354,-17,3953,-952,12060,-227,-3,-473,-440,35843,-35,32,127,0,0,3334,-263,0,8777,-1140,143,16442,-4,0,59,0,366529,0
366556,565,-1755,343,-123,4067,-1439,11944,-262,-59,-479,-488,35842,-50,32,127,0,0,3311,-280,0,8777,-1140,143,16452,-4,0,58,0,366529,0
366566,791,-1549,292,-324,4346,-2043,11812,-285,-69,-451,-448,35844,-34,32,127,0,0,3289,-203,0,8777,-1140,143,16462,-4,0,56,0,366560,0
366576,834,-1390,174,-444,4513,-2359,11689,-271,-11,-438,-440,35855,-39,32,127,0,0,3270,-186,0,8777,-1140,143,16472,-4,0,55,0,366560,0
366586,342,-8148,125,-934,3002,-2273,11569,-259,25,-380,80,35847,-65,32,127,0,0,3353,1120,0,8777,-1140,143,16482,-4,0,52,0,366638,0
366596,1200,-2323,2751,278,4309,-2626,11654,523,361,1770,2216,35851,-75,32,127,0,0,3583,2169,0,8777,-1140,143,16492,-4,0,50,0,366638,0
366606,1286,-1071,665,213,2051,-2949,12101,1135,1156,1069,3144,35833,-42,32,127,0,0,3740,1554,0,8777,-1140,143,16502,-4,0,46,0,366654,0
366616,-38,-3077,1877,-377,1337,-2407,12691,1332,968,701,3392,35825,8,32,127,0,0,3878,1378,0,8777,-1140,143,16512,-4,0,43,0,366654,0
366626,137,-2284,1020,-288,-375,-2149,13323,1432,336,767,3784,35813,34,32,127,0,0,4027,1472,0,8777,-1140,143,16522,-4,0,39,0,366654,0
366636,181,-2131,-27,-910,-1323,-2510,14006,1519,187,547,3784,35808,28,32,127,0,0,4155,1268,0,8777,-1140,143,16532,-4,0,36,0,366654,0
366646,545,-3016,-614,-1189,-1751,-3373,14705,1525,123,331,3304,35807,20,32,127,0,0,4228,648,0,8777,-1140,143,16542,-4,0,31,0,366654,0
366656,-101,-2666,-581,-1069,-1923,-3799,15348,1350,-77,91,2320,35811,14,32,127,0,0,4240,60,0,8777,-1140,143,16552,-4,0,27,0,366654,0
366666,-698,-2521,-386,-978,-1658,-4116,15873,1065,-332,-63,1240,35818,-11,32,127,0,0,4235,-98,0,8777,-1140,143,16562,-4,0,21,0,366654,0
366676,-1103,-2367,-57,-842,-1025,-4755,16233,689,-551,-114,184,35824,-39,32,127,0,0,4185,-549,0,8777,-1140,143,16572,-4,0,18,0,366669,0
366686,-247,-1759,2,-853,-249,-5401,16313,-138,-829,-1296,-720,35835,-59,32,127,0,0,4106,-823,0,8777,-1140,143,16582,-4,0,12,0,366685,0
366696,77,-1547,271,-759,-121,-5380,16119,-493,-1124,-524,-1200,35851,-66,32,127,0,0,4020,-818,0,8777,-1140,143,16592,-4,0,9,0,366700,0
366706,1402,-2012,658,-728,-594,-4895,15845,-637,-661,-459,-1440,35855,-61,32,127,0,0,3947,-703,0,8777,-1140,143,16602,-4,0,4,0,366700,0
366716,1066,-1512,794,-626,-253,-5104,15525,-748,-232,-602,-1992,35849,-48,32,127,0,0,3818,-1318,0,8777,-1140,143,16612,-4,0,1,0,366700,0
366726,1020,-2006,1266,-707,-295,-4862,15119,-974,-254,-787,-2520,35831,-34,32,127,0,0,3687,-1263,0,8777,-1140,143,16622,-4,0,-3,0,366732,0
366736,787,-1547,1327,-824,-365,-4707,14621,-1150,-352,-778,-2936,35831,-10,32,127,0,0,3558,-1323,0,8777,-1140,143,16632,-4,0,-7,0,366732,0
366746,301,-1707,823,-1040,-377,-4333,14063,-1258,-291,-653,-3184,35833,-2,32,127,0,0,3431,-1290,0,8777,-1140,143,16642,-4,0,-12,0,366732,0
366756,306,-1723,462,-1058,-390,-4176,13471,-1308,-172,-528,-3264,35831,7,32,127,0,0,3311,-1213,0,8777,-1140,143,16652,-4,0,-15,0,366732,0
366766,391,-1793,406,-1040,-365,-4158,12866,-1343,-90,-506,-3304,35823,1,32,127,0,0,3182,-1224,0,8777,-1140,143,16662,-4,0,-20,0,366763,0
366776,365,-1759,363,-1078,-280,-4144,12243,-1380,-60,-504,-3320,35829,12,32,127,0,0,3058,-1290,0,8777,-1140,143,16672,-4,0,-23,0,366763,0
366786,560,-1933,480,-997,-267,-3797,11608,-1406,-62,-535,-3288,35825,21,32,127,0,0,2941,-1104,0,8777,-1140,143,16682,-4,0,-27,0,366810,0
366796,739,-1892,569,-939,-337,-3546,10978,-1365,-21,-353,-3000,35832,17,32,127,0,0,2843,-944,0,8777,-1140,143,16692,-4,0,-30,0,366810,0
366806,848,-1973,429,-949,-420,-3263,10400,-1226,111,-349,-2728,35833,9,32,127,0,0,2747,-966,0,8777,-1140,143,16702,-4,0,-34,0,366810,0
366816,754,-1951,274,-900,-439,-3112,9881,-1105,207,-428,-2488,35848,-1,32,127,0,0,2668,-796,0,8777,-1140,143,16712,-4,0,-36,0,366810,0
366826,618,-1959,195,-783,-370,-2867,9407,-1019,203,-459,-2320,35845,-18,32,127,0,0,2588,-736,0,8777,-1140,143,16722,-4,0,-40,0,366810,0
366836,610,-1959,240,-654,-307,-2712,8968,-932,149,-423,-2096,35839,-29,32,127,0,0,2518,-637,0,8777,-1140,143,16732,-4,0,-41,0,366810,0
366846,795,-1996,368,-535,-317,-2560,8557,-879,126,-440,-1952,35844,-22,32,127,0,0,2448,-637,0,8777,-1140,143,16742,-4,0,-41,0,366841,0
366856,846,-2027,374,-536,-314,-2452,8177,-828,119,-444,-1784,35853,-9,32,127,0,0,2378,-615,0,8777,-1140,143,16752,-4,0,-41,0,366841,0
366866,901,-2054,434,-503,-402,-2177,7824,-754,101,-434,-1592,35853,-17,32,127,0,0,2328,-516,0,8777,-1140,143,16762,-4,0,-41,0,366841,0
366876,874,-2114,550,-445,-478,-1974,7505,-677,116,-405,-1368,35850,-27,32,127,0,0,2281,-439,0,8777,-1140,143,16772,-4,0,-41,0,366857,0
366886,973,-2136,851,-336,-572,-1706,7217,-597,121,-352,-1144,35845,-32,32,127,0,0,2245,-395,0,8777,-1140,143,16782,-4,0,-41,0,366903,0
366896,862,-2078,707,-309,-616,-1578,6968,-518,132,-368,-920,35853,-38,32,127,0,0,2221,-252,0,8777,-1140,143,16792,-4,0,-41,0,366903,0
366906,1018,-1913,581,-365,-773,-1449,6755,-446,147,-316,-688,35854,-45,32,127,0,0,2199,-203,0,8777,-1140,143,16802,-4,0,-41,0,366903,0
366916,962,-1957,403,-403,-851,-1308,6574,-386,136,-320,-488,35848,-55,32,127,0,0,2188,-49,0,8777,-1140,143,16812,-4,0,-41,0,366919,0
366926,1097,-1881,260,-386,-969,-1091,6429,-293,121,-273,-304,35842,-53,32,127,0,0,2179,-5,0,8777,-1140,143,16822,-4,0,-41,0,366919,0
366936,1186,-1954,213,-411,-1012,-973,6328,-175,152,-213,-112,35844,-43,32,127,0,0,2177,-16,0,8777,-1140,143,16832,-4,0,-41,0,366919,0
366946,893,-1918,242,-462,-824,-908,6299,0,224,-175,-16,35849,-43,32,127,0,0,2179,43,0,8777,-1140,143,16842,-4,0,-41,0,367013,0
366956,791,-1840,138,-501,-702,-894,6315,19,236,-237,-24,35858,-24,32,127,0,0,2181,82,0,8777,-1140,143,16852,-4,0,-41,0,367013,0
366966,995,-1954,165,-496,-633,-715,6316,12,42,-54,32,35865,-30,32,127,0,0,2191,104,0,8777,-1140,143,16862,-4,0,-41,0,367013,0
366976,1079,-1913,153,-496,-633,-596,6337,71,10,261,152,35861,-31,32,127,0,0,2215,208,0,8777,-1140,143,16872,-4,0,-41,0,367013,0
366986,1093,-1938,168,-477,-637,-524,6395,161,116,363,280,35850,-48,32,127,0,0,2235,230,0,8777,-1140,143,16882,-4,0,-41,0,367013,0
366996,1007,-1905,221,-458,-628,-466,6473,184,110,427,320,35844,-46,32,127,0,0,2267,296,0,8777,-1140,143,16892,-4,0,-41,0,367028,0
367006,900,-1911,314,-456,-649,-401,6573,239,82,441,384,35845,-51,32,127,0,0,2296,302,0,8777,-1140,143,16902,-4,0,-41,0,367028,0
367016,986,-1914,324,-465,-649,-403,6691,253,78,448,440,35843,-43,32,127,0,0,2325,296,0,8777,-1140,143,16912,-4,0,-41,0,367028,0
367026,999,-1854,278,-505,-754,-368,6820,295,54,409,456,35846,-38,32,127,0,0,2359,318,0,8777,-1140,143,16922,-4,0,-41,0,367028,0
367036,913,-1895,310,-537,-805,-331,6953,299,28,417,528,35846,-37,32,127,0,0,2393,368,0,8777,-1140,143,16932,-4,0,-41,0,367028,0
367046,793,-1998,329,-592,-807,-301,7094,325,19,506,576,35852,-60,32,127,0,0,2435,351,0,8777,-1140,143,16942,-4,0,-41,0,367028,0
367056,750,-2020,329,-642,-793,-389,7249,349,44,456,696,35858,-62,32,127,0,0,2478,455,0,8777,-1140,143,16952,-4,0,-41,0,367060,0
367066,640,-1965,301,-673,-748,-546,7426,396,66,430,736,35876,-56,32,127,0,0,2520,433,0,8777,-1140,143,16962,-4,0,-41,0,367060,0
367076,650,-1999,275,-718,-763,-631,7605,400,47,418,768,35867,-35,32,127,0,0,2562,428,0,8777,-1140,143,16972,-4,0,-41,0,367060,0
367086,677,-2079,284,-733,-811,-732,7796,429,23,394,800,35861,-46,32,127,0,0,2605,439,0,8777,-1140,143,16982,-4,0,-41,0,367060,0
367096,665,-2089,256,-731,-851,-835,7993,442,41,377,832,35847,-62,32,127,0,0,2652,461,0,8777,-1140,143,16992,-4,0,-41,0,367075,0
367106,538,-2011,262,-755,-890,-953,8196,463,25,399,840,35858,-61,32,127,0,0,2705,516,0,8777,-1140,143,17002,-4,0,-41,0,367091,0
367116,516,-1988,268,-814,-934,-1018,8403,455,21,415,920,35856,-51,32,127,0,0,2752,488,0,8777,-1140,143,17012,-4,0,-41,0,367122,0
367126,449,-2016,282,-864,-950,-1190,8619,488,28,398,1000,35864,-30,32,127,0,0,2803,521,0,8777,-1140,143,17022,-4,0,19,0,367122,0
367136,492,-2035,257,-915,-934,-1335,8848,507,38,399,1048,35849,-39,32,127,0,0,2856,466,0,8777,-1140,143,17032,-4,0,20,0,367122,0
367146,513,-1949,307,-958,-932,-1571,9086,526,40,396,1080,35849,-40,32,127,0,0,2909,505,0,8777,-1140,143,17042,-4,0,21,0,367122,0
367156,635,-1888,306,-1029,-932,-1710,9326,522,32,383,1112,35836,-41,32,127,0,0,2965,516,0,8777,-1140,143,17052,-4,0,22,0,367153,0
367166,710,-1878,361,-1162,-1087,-1795,9573,546,14,395,1192,35852,-38,32,127,0,0,3021,587,0,8777,-1140,143,17062,-4,0,24,0,367153,0
367176,638,-1975,356,-1228,-1215,-1845,9832,578,38,418,1272,35861,-38,32,127,0,0,3089,626,0,8777,-1140,143,17072,-4,0,25,0,367153,0
367186,477,-2026,322,-1263,-1243,-2028,10110,626,60,413,1360,35857,-31,32,127,0,0,3158,686,0,8777,-1140,143,17082,-4,0,26,0,367169,0
367196,348,-2058,317,-1316,-1228,-2188,10409,667,71,407,1464,35847,-44,32,127,0,0,3225,692,0,8777,-1140,143,17092,-4,0,27,0,367185,0
367206,246,-2111,329,-1417,-1200,-2496,10726,703,65,425,1536,35849,2,32,127,0,0,3288,582,0,8777,-1140,143,17102,-4,0,29,0,367185,0
367216,173,-2131,302,-1469,-1172,-2727,11048,714,56,434,1584,35855,0,32,127,0,0,3354,615,0,8777,-1140,143,17112,-4,0,30,0,367216,0
367226,139,-2116,268,-1509,-1272,-3072,11378,727,23,424,1584,35855,6,32,127,0,0,3424,686,0,8777,-1140,143,17122,-4,0,32,0,367232,0
367236,104,-2116,291,-1497,-1389,-3315,11713,742,15,402,1608,35854,-18,32,127,0,0,3492,692,0,8777,-1140,143,17132,-4,0,34,0,367232,0
367246,-93,-2210,486,-1402,-2007,-3467,12009,725,7,411,1632,35847,-35,32,127,0,0,3560,692,0,8777,-1140,143,17142,-4,0,36,0,367232,0
367256,-262,-2117,293,-1494,-1596,-3356,12341,751,-1,595,2024,35845,-25,32,127,0,0,3678,1241,0,8777,-1140,143,17152,-4,0,38,0,367263,0
367266,257,-2951,555,-1839,-1918,-4542,12735,920,136,722,2248,35846,-38,32,127,0,0,3749,582,0,8777,-1140,143,17162,-4,0,41,0,367263,0
367276,-649,-3378,999,-2032,-2134,-3779,13155,899,171,449,2256,35845,-14,32,127,0,0,3855,1175,0,8777,-1140,143,17172,-4,0,42,0,367263,0
367286,618,-4195,1019,-2561,-1895,-4615,13588,1013,52,850,2888,35840,-9,32,127,0,0,3985,1290,0,8777,-1140,143,17182,-4,0,46,0,367263,0
367296,-133,-4029,1084,-2526,-2014,-5184,14110,1178,230,586,2904,35834,-1,32,127,0,0,4092,1109,0,8777,-1140,143,17192,-4,0,49,0,367294,0
367306,-26,-3778,670,-2440,-2336,-5525,14656,1226,202,594,3080,35842,-5,32,127,0,0,4217,1301,0,8777,-1140,143,17202,-4,0,54,0,367294,0
367316,-215,-3872,741,-2379,-2284,-5954,15239,1291,113,557,3104,35841,2,32,127,0,0,4325,1082,0,8777,-1140,143,17212,-4,0,57,0,367294,0
367326,-235,-3922,1187,-2197,-2359,-6064,15833,1301,88,505,3016,35832,12,32,127,0,0,4434,1038,0,8777,-1140,143,17222,-4,0,63,0,367341,0
367336,147,-3594,1355,-2333,-2688,-5849,16410,1264,-18,700,3200,35830,20,32,127,0,0,4571,1323,0,8777,-1140,143,17232,-4,0,67,0,367357,0
367346,371,-3268,1270,-2591,-3149,-4996,17008,1338,12,836,3488,35831,12,32,127,0,0,4716,1499,0,8777,-1140,143,17242,-4,0,74,0,367372,0
367356,212,-2826,978,-2520,-3181,-4121,17652,1459,141,1013,3936,35831,16,32,127,0,0,4885,1757,0,8777,-1140,143,17252,-4,0,80,0,367372,0
367366,24,-2013,701,-1840,-3421,-2696,18380,1658,259,1054,4464,35815,31,32,127,0,0,5075,1950,0,8777,-1140,143,17262,-4,0,88,0,367388,0
367376,428,-1146,340,-1198,-2484,-1898,19212,1913,372,1067,4944,35800,57,32,127,0,0,5266,1834,0,8777,-1140,143,17272,-4,0,94,40,367388,0
367386,417,-554,-746,-952,-132,-2890,20109,1938,319,391,3872,35793,68,32,127,0,0,5278,-104,0,8777,-1140,143,17282,-4,0,102,36,367388,0
367396,711,-587,-591,-529,827,-3047,20856,1497,-223,-214,1496,35799,38,32,127,0,0,5155,-1307,0,8777,-1140,143,17292,-4,0,108,34,367388,0
367406,477,-629,-296,325,1398,-2423,21256,477,-1034,-2372,-1152,35816,-8,32,127,0,0,4973,-1922,0,8777,-1140,143,17302,-4,0,116,31,367388,0
367416,595,-882,-137,705,1719,-1771,21001,-764,-2006,-1203,-2600,35834,-37,32,127,0,0,4788,-1878,0,8777,-1140,143,17312,-4,0,122,29,367435,0
367426,407,-1003,34,1007,1847,-443,20497,-1245,-1626,-1054,-3520,35846,-26,32,127,0,0,4621,-1598,0,8777,-1140,143,17322,-4,0,130,26,367435,0
367436,496,-1121,106,1209,2015,327,19828,-1543,-750,-634,-3792,35838,12,32,127,0,0,4463,-1466,0,8777,-1140,143,17332,-4,0,135,23,367435,0
367446,785,-1202,59,1550,2319,1410,19090,-1656,-419,-499,-3976,35828,38,32,127,0,0,4305,-1549,0,8777,-1140,143,17342,-4,0,143,20,367435,0
367456,967,-1150,13,1711,2527,2033,18324,-1695,-167,-445,-4136,35812,33,32,127,0,0,4139,-1691,0,8777,-1140,143,17352,-4,0,149,18,367450,0
367466,1088,-941,-42,1915,2551,2962,17533,-1771,-93,-552,-4384,35809,10,32,127,0,0,3959,-1785,0,8777,-1140,143,17362,-4,0,157,14,367450,0
367476,1161,-795,-104,2002,2386,3631,16697,-1874,-140,-549,-4640,35816,4,32,127,0,0,3773,-1845,0,8777,-1140,143,17372,-4,0,162,12,367481,0
367486,1297,-637,-215,2025,2048,4731,15801,-2012,-209,-552,-4776,35824,14,32,127,0,0,3593,-1774,0,8777,-1140,143,17382,-4,0,170,9,367481,0
367496,1396,-687,-208,2028,1770,5527,14882,-2011,-156,-443,-4736,35826,22,32,127,0,0,3429,-1664,0,8777,-1140,143,17392,-4,0,175,7,367481,0
367506,1309,-877,-122,2188,1209,6688,14002,-1905,48,-408,-4504,35821,20,32,127,0,0,3283,-1411,0,8777,-1140,143,17402,-4,0,183,4,367513,0
367516,1136,-1018,-26,2362,717,7374,13172,-1799,175,-306,-4216,35818,10,32,127,0,0,3164,-1148,0,8777,-1140,143,17412,-4,0,188,2,367513,0
367526,1063,-1220,208,2558,-65,8261,12389,-1681,183,-185,-3552,35822,-6,32,127,0,0,3084,-747,0,8777,-1140,143,17422,-4,0,195,0,367513,0
367536,1113,-1331,112,2665,-380,8663,11688,-1472,255,-80,-2704,35825,-19,32,127,0,0,3034,-472,0,8777,-1140,143,17432,-4,0,200,-1,367513,0
367546,1115,-1470,-289,2939,-462,9054,11111,-1183,524,-25,-1936,35830,-30,32,127,0,0,2991,-395,0,8777,-1140,143,17442,-4,0,208,-3,367544,0
367556,999,-1506,-421,3147,-423,9308,10662,-902,386,-64,-1392,35843,-20,32,127,0,0,2960,-280,0,8777,-1140,143,17452,-4,0,213,-5,367544,0
367566,983,-1650,-258,3375,-294,9657,10332,-641,339,-152,-880,35843,-39,32,127,0,0,2952,-54,0,8777,-1140,143,17462,-4,0,220,-7,367544,0
367576,857,-1798,-142,3534,-109,9651,10101,-452,425,-202,-440,35837,-27,32,127,0,0,2953,0,0,8777,-1140,143,17472,-4,0,225,-8,367560,0
367586,809,-2034,-308,3761,428,9561,9966,-234,371,-199,-128,35829,-56,32,127,0,0,2950,-87,0,8777,-1140,143,17482,-4,0,232,-10,367575,0
367596,863,-2106,-468,3913,933,9623,9915,-47,340,-121,16,35840,-30,32,127,0,0,2965,98,0,8777,-1140,143,17492,-4,0,236,-11,367575,0
367606,1079,-2063,-615,4105,1735,9880,9945,66,332,-5,80,35842,-52,32,127,0,0,2981,203,0,8777,-1140,143,17502,-4,0,243,-12,367591,0
367616,1015,-1979,-558,4165,2146,9950,9991,123,168,292,176,35838,-40,32,127,0,0,3004,214,0,8777,-1140,143,17512,-4,0,248,-13,367606,0
367626,1093,-1983,-330,4029,2347,9986,10074,211,100,277,224,35838,-46,32,127,0,0,3016,120,0,8777,-1140,143,17522,-4,0,255,-14,367606,0
367636,1143,-2145,-98,3848,2206,10088,10177,213,123,230,256,35837,-50,32,127,0,0,3044,203,0,8777,-1140,143,17532,-4,0,259,-14,367638,0
367646,1260,-2381,8,3498,1844,10169,10279,236,31,311,304,35847,-68,32,127,0,0,3083,335,0,8777,-1140,143,17542,-4,0,266,-15,367638,0
367656,1292,-2549,-76,3288,1572,10127,10398,261,32,355,456,35843,-81,32,127,0,0,3116,368,0,8777,-1140,143,17552,-4,0,270,-15,367638,0
367666,1170,-2766,-178,3097,1238,9669,10549,354,91,321,488,35840,-63,32,127,0,0,3151,340,0,8777,-1140,143,17562,-4,0,277,-16,367669,0
367676,1099,-2880,-211,2987,1062,9225,10711,362,88,294,424,35840,-32,32,127,0,0,3181,274,0,8777,-1140,143,17572,-4,0,280,-16,367669,0
367686,1039,-2965,-148,2768,944,8307,10866,327,1,256,376,35835,-23,32,127,0,0,3201,247,0,8777,-1140,143,17582,-4,0,286,-16,367669,0
367696,927,-2954,-95,2583,943,7543,11008,291,-35,228,280,35837,-32,32,127,0,0,3222,230,0,8777,-1140,143,17592,-4,0,289,-16,367685,0
367706,805,-2853,-18,2262,996,6222,11126,239,-66,194,200,35835,-68,32,127,0,0,3234,230,0,8777,-1140,143,17602,-4,0,294,-16,367685,0
367716,795,-2752,-19,2008,1086,5199,11214,188,-98,274,232,35835,-68,32,127,0,0,3257,236,0,8777,-1140,143,17612,-4,0,296,-16,367700,0
367726,911,-2511,-154,1580,1357,3591,11314,236,-40,324,312,35844,-68,32,127,0,0,3280,269,0,8777,-1140,143,17622,-4,0,299,-16,367716,0
367736,1054,-2323,-254,1161,1564,2603,11427,240,50,313,344,35842,-43,32,127,0,0,3311,313,0,8777,-1140,143,17632,-4,0,301,-16,367731,0
367746,1150,-2152,-16,451,1733,992,11559,297,55,329,424,35844,-44,32,127,0,0,3331,219,0,8777,-1140,143,17642,-4,0,302,-16,367731,0
367756,1254,-2051,43,69,1726,-179,11699,318,59,280,352,35839,-44,32,127,0,0,3357,159,0,8777,-1140,143,17652,-4,0,302,-16,367731,0
367766,1299,-1781,-9,-363,1646,-1846,11833,282,13,224,200,35850,-61,32,127,0,0,3358,-16,0,8777,-1140,143,17662,-4,0,302,-16,367778,0
367776,1365,-1779,-190,-655,1594,-2699,11926,149,-81,-119,16,35860,-74,32,127,0,0,3358,5,0,8777,-1140,143,17672,-4,0,302,-16,367778,0
367786,1552,-8395,652,-1947,1651,-3048,11934,45,-261,743,1320,35863,-75,32,127,0,0,3583,2603,0,1459,592,144,2,1,1,302,-16,367778,0
367796,1289,-643,3284,173,2283,-4937,12269,1063,439,2016,3392,35851,-56,32,127,0,0,3792,1862,0,1459,592,144,12,1,1,302,-16,367778,0
367806,402,-1356,-40,-1098,-149,-6634,12895,1413,1256,655,3632,35829,11,32,127,0,0,3825,236,0,1459,592,144,22,1,1,302,-16,367778,0
367816,-940,-3230,1625,-905,-614,-5657,13556,1467,596,666,3872,35821,34,32,127,0,0,3870,565,0,1459,592,144,32,1,1,302,-16,367810,0
367826,-1297,-1328,-98,-1185,-1709,-4966,14275,1659,151,990,4640,35824,66,32,127,0,0,3974,1071,0,1459,592,144,42,1,1,302,-16,367810,0
367836,-900,-1628,-652,-1708,-1054,-5426,15153,2036,423,944,5296,35819,59,32,127,0,0,4081,1109,0,1459,592,144,52,1,1,302,-16,367825,0
367846,250,-3177,-831,-1688,-226,-7381,16165,2260,576,628,5192,35811,80,32,127,0,0,4104,71,0,1459,592,144,62,1,1,302,-16,367841,0
367856,-38,-2030,-614,-1619,-319,-8567,17131,2021,177,108,3880,35808,78,32,127,0,0,4007,-1109,0,1459,592,144,72,1,1,302,-16,367841,0
367866,1736,-2468,144,-1711,776,-10781,17926,1617,-428,-238,1624,35816,34,32,127,0,0,3769,-2647,0,1459,592,144,82,1,1,302,-16,367841,0
367876,-4398,-1387,-230,-1773,-468,-8339,18308,357,-1085,118,-248,35835,-25,32,127,0,0,3617,-1060,680,1459,592,144,92,1,1,302,-16,367872,0
367886,6021,-68,482,-2026,-2197,-7241,17827,-1766,-2460,690,-4568,35844,-30,32,127,0,0,3518,-1120,880,1459,592,144,102,1,1,302,-16,367872,0
367896,2078,-39,-519,-2146,-1807,-8262,16298,-3966,-3714,485,-9568,35856,-61,32,127,0,0,3238,-3004,1080,1459,592,144,112,1,1,302,-16,367872,0
367906,-1767,-1038,-525,-964,1591,-10485,14166,-4786,-3220,235,-10416,35864,-78,32,127,0,0,2836,-4086,1280,1459,592,144,122,1,1,302,-16,367903,0
367916,-868,-1274,76,-621,2567,-10175,12114,-4391,-966,520,-8736,35871,-98,32,127,0,0,2489,-3345,1480,1459,592,144,132,1,1,302,-16,367903,0
367926,2953,-1389,586,-508,134,-8065,10283,-3818,597,657,-6704,35876,-112,32,127,0,0,2255,-2274,1520,1459,592,144,142,1,1,302,-16,367903,0
367936,3728,-2444,665,-552,-351,-6547,8833,-2912,1154,946,-4416,35873,-122,32,127,0,0,2047,-1955,1650,1459,592,144,152,1,1,302,-16,367919,0
367946,3413,-1520,817,-657,-817,-4542,7801,-1989,1534,1023,-2112,35884,-165,32,127,0,0,1914,-1290,1740,1459,592,144,162,1,1,302,-16,367966,0
367956,2107,-1487,590,-905,-1323,-3677,7207,-1008,1640,1195,128,35899,-162,32,127,0,0,1812,-988,1800,1459,592,144,172,1,1,302,-16,367981,0
367966,-69,-2119,228,-901,-1568,-3367,7159,267,1884,1621,1176,35901,-130,32,127,0,0,1733,-834,1860,1459,592,144,182,1,1,302,-16,367981,0
367976,67,-2102,97,-534,-701,-3779,7433,742,1701,1137,2400,35874,-87,32,127,0,0,1636,-950,1910,1459,592,144,192,1,1,302,-16,367981,0
367986,-2462,-5663,197,-340,-901,-2099,7887,1012,964,1587,2296,35843,-33,32,127,0,0,1597,-318,1950,1459,592,144,202,1,1,302,-16,367981,0
367996,3701,-988,1368,-394,-567,-1585,8101,168,-83,1415,200,35821,9,32,127,0,0,1639,324,2010,1459,592,144,212,1,1,302,-16,367981,0
368006,2393,-1022,-276,-422,-1547,-1456,7944,-500,-1245,1251,-152,35817,8,32,127,0,0,1614,-258,2100,1459,592,144,222,1,1,302,-16,367997,0
368016,1246,-1401,-686,-55,-281,-1707,7658,-647,-965,1142,-32,35831,-16,32,127,0,0,1554,-615,2160,1459,592,144,232,1,1,302,-16,367997,0
368026,1401,-1964,88,172,432,-1264,7473,-265,-57,1653,224,35860,-59,32,127,0,0,1515,-422,2170,1459,592,144,242,1,1,302,-16,368028,0
368036,2613,-2042,230,-244,294,-590,7430,-50,506,1404,344,35884,-70,32,127,0,0,1506,-43,2190,1459,592,144,252,1,1,302,-16,368028,0
368046,2547,-2369,392,-336,-201,201,7444,48,370,1380,488,35873,-58,32,127,0,0,1510,32,2220,1459,592,144,262,1,1,302,-16,368028,0
368056,1698,-2487,291,-261,-336,372,7493,168,163,1333,808,35853,-26,32,127,0,0,1524,197,2250,1459,592,144,272,1,1,302,-16,368044,0
368066,1157,-2555,620,-132,-163,777,7667,479,307,1237,1744,35843,-13,32,127,0,0,1565,422,2270,1459,592,144,282,1,1,302,-16,368091,0
368076,1221,-2548,583,-210,-320,1253,8042,983,625,1489,3184,35853,-11,32,127,0,0,1641,807,2310,1459,592,144,292,1,1,302,-16,368091,0
368086,1625,-3037,625,-298,-659,1972,8670,1539,874,1587,4464,35851,15,32,127,0,0,1764,1268,2380,1459,592,144,302,1,1,302,-16,368091,0
368096,1386,-2999,580,-319,-1036,2334,9510,1977,894,1522,5504,35835,57,32,127,0,0,1935,1752,2130,1459,592,144,312,1,1,302,-16,368106,0
368106,601,-2767,504,-406,-1678,2612,10528,2328,747,1366,6024,35805,114,32,127,0,0,2132,2109,1730,1459,592,144,322,1,1,302,-16,368106,0
368116,58,-2716,647,-369,-1846,2504,11645,2488,537,1107,6168,35790,158,32,127,0,0,2357,2197,1310,1459,592,144,332,1,1,302,-16,368106,0
368126,-178,-2571,377,-250,-1668,1784,12742,2359,153,728,5672,35781,158,32,127,0,0,2574,2125,810,1459,592,144,342,1,1,302,-16,368106,0
368136,-361,-2302,190,-370,-1398,1184,13729,2086,-259,407,4800,35793,141,32,127,0,0,2755,1895,0,1459,592,144,352,1,1,302,-16,368122,0
