state_time,accelx,accely,accelz,gyrox,gyroy,gyroz,mot_ang,mot_vel,mot_acc,mot_cur,mot_volt,batt_volt,batt_curr,temperature,status_mn,status_ex,status_re,ank_ang,ank_vel,ank_torque,peak_ank_torque,step_energy,step_count,step_time,gait_state,movement,speed,incline,sys_time,eventFlags
191808,-23,-2024,382,-38,-9,-48,15587,-8,-10,-96,-16,35949,-120,31,127,0,0,4061,16,0,13857,4847,57,16160,-4,0,0,0,191803,0
191818,-6,-2021,394,-40,0,-42,15586,0,3,-120,-24,35948,-122,30,127,0,0,4051,-49,0,13857,4847,57,16170,-4,0,0,0,191803,0
191828,-12,-2014,392,-43,-1,-46,15586,21,-1,-160,-24,35942,-116,30,127,0,0,4058,-16,0,13857,4847,57,16180,-4,0,0,0,191819,0
191838,-15,-2015,388,-43,-9,-42,15585,3,1,-153,-24,35944,-104,31,127,0,0,4055,0,0,13857,4847,57,16190,-4,0,0,0,191834,0
191848,-20,-2019,386,-45,-7,-50,15587,5,6,-163,-24,35944,-112,31,127,0,0,4058,5,0,13857,4847,57,16200,-4,0,0,0,191834,0
191858,-31,-2023,382,-43,-8,-46,15586,2,-2,-139,-24,35945,-114,31,127,0,0,4061,38,0,13857,4847,57,16210,-4,0,0,0,191834,0
191868,-59,-2017,382,-48,-19,-41,15584,-16,-12,-164,-16,35949,-112,31,127,0,0,4058,82,0,13857,4847,57,16220,-4,0,0,0,191866,0
191878,-55,-2025,379,-45,-9,-49,15589,12,5,-86,-24,35949,-103,31,127,0,0,4058,-43,0,13857,4847,57,16230,-4,0,0,0,191866,0
191888,-71,-2023,377,-44,-13,-47,15585,5,-14,-114,-24,35952,-103,31,127,0,0,4058,0,0,13857,4847,57,16240,-4,0,0,0,191897,0
191898,-35,-2018,380,-42,-16,-52,15586,-3,-3,-111,-24,35946,-107,31,127,0,0,4055,-60,0,13857,4847,57,16250,-4,0,0,0,191897,0
191908,-29,-2014,386,-42,-6,-55,15588,20,4,-107,-24,35944,-105,31,127,0,0,4058,-27,0,13857,4847,57,16260,-4,0,0,0,191913,0
191918,-32,-2012,385,-42,-14,-56,15584,-8,-2,-141,-24,35943,-103,30,127,0,0,4055,0,0,13857,4847,57,16270,-4,0,0,0,191913,0
191928,-12,-2013,382,-46,-19,-56,15585,-2,7,-167,-48,35942,-106,30,127,0,0,4056,-43,0,13857,4847,57,16280,-4,0,0,0,191913,0
191938,-56,-2009,386,-43,-6,-54,15585,18,6,-158,-24,35960,-113,31,127,0,0,4058,-5,0,13857,4847,57,16290,-4,0,0,0,191944,0
191948,-38,-2011,376,-39,-15,-55,15585,-7,1,-121,-72,35960,-112,30,127,0,0,4057,-43,0,13857,4847,57,16300,-4,0,0,0,191944,0
191958,-60,-2017,379,-42,-15,-62,15586,29,-1,-146,-48,35954,-118,31,127,0,0,4059,-10,0,13857,4847,57,16310,-4,0,0,0,191944,0
191968,-56,-2019,382,-39,-11,-59,15582,-13,0,-200,-16,35964,-99,31,127,0,0,4055,21,0,13857,4847,57,16320,-4,0,0,0,191975,0
191978,2,-2028,379,-42,-8,-65,15587,11,14,-170,-72,35956,-116,30,127,0,0,4060,5,0,13857,4847,57,16330,-4,0,0,0,191975,0
191988,-44,-2021,376,-46,-13,-66,15584,-3,1,-190,-24,35953,-116,31,127,0,0,4051,-10,0,13857,4847,57,16340,-4,0,0,0,191975,0
191998,-1,-2018,384,-41,-3,-64,15583,-13,-5,-292,-16,35951,-124,30,127,0,0,4051,10,0,13857,4847,57,16350,-4,0,0,0,192073,0
192008,-14,-2019,390,-39,-12,-56,15584,-4,4,-290,-24,35952,-115,30,127,0,0,4051,10,0,13857,4847,57,16360,-4,0,0,0,192089,0
192018,-9,-2024,373,-38,-15,-62,15586,9,8,-264,-72,35959,-134,31,127,0,0,4053,-27,0,13857,4847,57,16370,-4,0,0,0,192089,0
192028,-33,-2017,385,-39,-15,-57,15580,0,-10,-276,-56,35954,-137,31,127,0,0,4053,27,0,13857,4847,57,16380,-4,0,0,0,192089,0
192038,-19,-2026,385,-42,-8,-64,15580,-14,-2,-303,-56,35945,-125,30,127,0,0,4050,10,0,13857,4847,57,16390,-4,0,0,0,192089,0
192048,-27,-2021,382,-41,-11,-61,15581,-3,1,-320,-80,35946,-110,30,127,0,0,4051,-27,0,13857,4847,57,16400,-4,0,0,0,192089,0
192058,-32,-2021,385,-45,-5,-66,15576,-15,-6,-346,-48,35949,-107,31,127,0,0,4053,38,0,13857,4847,57,16410,-4,0,0,0,192089,0
192068,-37,-2019,390,-38,-5,-66,15580,-1,4,-309,-80,35959,-115,31,127,0,0,4051,0,0,13857,4847,57,16420,-4,0,0,0,192089,0
192078,-37,-2017,382,-39,-4,-72,15577,-7,-6,-353,-96,35954,-118,31,127,0,0,4049,5,0,13857,4847,57,16430,-4,0,0,0,192089,0
192088,-23,-2022,381,-42,-10,-78,15576,0,-2,-387,-96,35951,-115,30,127,0,0,4049,0,0,13857,4847,57,16440,-4,0,0,0,192089,0
192098,-28,-2018,381,-40,-6,-85,15577,12,16,-376,-96,35939,-98,30,127,0,0,4046,-32,0,13857,4847,57,16450,-4,0,0,0,192104,0
192108,-24,-2020,384,-45,-9,-84,15572,-19,-6,-442,-64,35955,-105,31,127,0,0,4048,49,0,13857,4847,57,16460,-4,0,0,0,192104,0
192118,-14,-2021,376,-43,-9,-85,15567,-17,-16,-416,-96,35972,-109,30,127,0,0,4044,32,0,13857,4847,57,16470,-4,0,0,0,192104,0
192128,-11,-2017,373,-38,-7,-74,15559,-37,-14,-474,-128,35978,-128,30,127,0,0,4046,43,0,13857,4847,57,16480,-4,0,0,0,192151,0
192138,-19,-2019,372,-40,-12,-75,15533,-50,-51,-258,-72,35972,-129,30,127,0,0,4042,-16,0,13857,4847,57,16490,-4,0,0,0,192151,0
192148,-43,-2018,386,-37,-1,-81,15517,-15,-2,-255,-40,35957,-134,31,127,0,0,4042,60,0,13857,4847,57,16500,-4,0,0,0,192151,0
192158,11,-2015,390,-37,-8,-74,15522,2,61,-261,-96,35944,-121,31,127,0,0,4038,-49,0,13857,4847,57,16510,-4,0,0,0,192151,0
192168,-12,-2012,382,-37,-7,-77,15519,4,5,-272,-72,35943,-95,30,127,0,0,4040,-54,0,13857,4847,57,16520,-4,0,0,0,192167,0
192178,-16,-2006,387,-33,-7,-66,15516,-21,-10,-325,-88,35935,-80,30,127,0,0,4038,-16,0,13857,4847,57,16530,-4,0,0,0,192167,0
192188,-20,-2010,382,-37,-7,-67,15517,1,3,-345,-88,35950,-67,31,127,0,0,4038,0,0,13857,4847,57,16540,-4,0,0,0,192182,0
192198,-26,-2008,387,-39,-5,-66,15516,-6,3,-380,-88,35955,-73,30,127,0,0,4035,-10,0,13857,4847,57,16550,-4,0,0,0,192182,0
192208,-10,-2007,389,-33,-2,-66,15511,-21,-12,-383,-120,35954,-82,31,127,0,0,4037,-10,0,13857,4847,57,16560,-4,0,0,0,192198,0
192218,-25,-2017,379,-37,-5,-69,15508,-9,-5,-372,-112,35959,-75,31,127,0,0,4037,-5,0,13857,4847,57,16570,-4,0,0,0,192229,0
192228,-20,-2016,385,-37,-8,-70,15501,-17,-3,-366,-80,35956,-80,30,127,0,0,4033,10,0,13857,4847,57,16580,-4,0,0,0,192229,0
192238,-22,-2017,384,-38,-5,-72,15493,-17,-11,-303,-104,35962,-93,30,127,0,0,4035,-43,0,13857,4847,57,16590,-4,0,0,0,192229,0
192248,-25,-2030,395,-36,-9,-71,15471,-58,-29,-178,-16,35954,-92,30,127,0,0,4033,21,0,13857,4847,57,16600,-4,0,0,0,192229,0
192258,-22,-2018,378,-41,-4,-68,15460,-7,0,-104,-16,35945,-80,30,127,0,0,4037,49,0,13857,4847,57,16610,-4,0,0,0,192245,0
192268,-10,-2025,382,-36,-5,-60,15459,-19,49,-179,-64,35943,-62,30,127,0,0,4029,27,0,13857,4847,57,16620,-4,0,0,0,192260,0
192278,-6,-2024,375,-34,-16,-52,15453,-16,-2,-217,-48,35944,-60,30,127,0,0,4029,16,0,13857,4847,57,16630,-4,0,0,0,192260,0
192288,1,-2018,374,-33,-6,-50,15454,11,5,-192,-48,35934,-58,30,127,0,0,4029,-27,0,13857,4847,57,16640,-4,0,0,0,192276,0
192298,-9,-2027,392,-34,-11,-38,15452,-11,8,-214,-48,35947,-58,31,127,0,0,4029,0,0,13857,4847,57,16650,-4,0,0,0,192292,0
192308,5,-2022,386,-34,-3,-37,15454,12,-3,-189,-48,35947,-64,31,127,0,0,4033,16,0,13857,4847,57,16660,-4,0,0,0,192292,0
192318,5,-2016,389,-32,-6,-26,15453,-3,0,-152,-48,35949,-73,31,127,0,0,4029,-5,0,13857,4847,57,16670,-4,0,0,0,192307,0
192328,-15,-2016,385,-31,-2,-26,15452,2,-4,-194,-24,35947,-83,31,127,0,0,4028,0,0,13857,4847,57,16680,-4,0,0,0,192339,0
192338,-12,-2027,380,-28,-4,-28,15453,-14,-3,-218,-24,35950,-82,30,127,0,0,4028,5,0,13857,4847,57,16690,-4,0,0,0,192339,0
192348,-7,-2020,378,-33,-5,-24,15454,9,5,-193,-32,35950,-73,30,127,0,0,4028,-21,0,13857,4847,57,16700,-4,0,0,0,192354,0
192358,-16,-2007,382,-24,2,-17,15453,3,1,-188,-48,35940,-65,31,127,0,0,4033,5,0,13857,4847,57,16710,-4,0,0,0,192354,0
192368,-29,-2013,388,-29,-1,-16,15454,2,-7,-184,-32,35944,-63,31,127,0,0,4035,82,0,13857,4847,57,16720,-4,0,0,0,192354,0
192378,20,-2009,384,-27,-1,-19,15453,-11,8,-158,-48,35948,-65,31,127,0,0,4029,5,0,13857,4847,57,16730,-4,0,0,0,192464,0
192388,-27,-2013,384,-25,-9,-19,15454,8,1,-163,-48,35955,-69,30,127,0,0,4029,-32,0,13857,4847,57,16740,-4,0,0,0,192464,0
192398,-45,-2013,381,-25,0,-21,15454,1,5,-102,-8,35949,-67,30,127,0,0,4034,5,0,13857,4847,57,16750,-4,0,0,0,192464,0
192408,-24,-2022,386,-32,-3,-18,15454,-17,1,-135,16,35939,-65,31,127,0,0,4036,87,0,13857,4847,57,16760,-4,0,0,0,192464,0
192418,15,-2018,391,-25,4,-17,15459,7,5,-64,-40,35926,-61,30,127,0,0,4035,5,0,13857,4847,57,16770,-4,0,0,0,192464,0
192428,-52,-2024,392,-20,0,-23,15455,0,-2,-43,-32,35926,-57,31,127,0,0,4038,38,0,13857,4847,57,16780,-4,0,0,0,192464,0
192438,-29,-2018,389,-30,-8,-16,15457,1,-4,-65,-16,35926,-59,30,127,0,0,4037,38,0,13857,4847,57,16790,-4,0,0,0,192464,0
192448,-48,-2013,394,-25,-3,-19,15458,4,7,-34,8,35928,-68,31,127,0,0,4036,32,0,13857,4847,57,16800,-4,0,0,0,192464,0
192458,-29,-2023,397,-36,-9,-29,15457,-6,4,-49,8,35924,-69,31,127,0,0,4033,5,0,13857,4847,57,16810,-4,0,0,0,192464,0
192468,-23,-2020,394,-34,-6,-32,15457,0,-5,-102,-16,35925,-69,31,127,0,0,4030,-38,0,13857,4847,57,16820,-4,0,0,0,192464,0
192478,-33,-2030,381,-41,-6,-47,15456,10,1,-83,-8,35927,-56,31,127,0,0,4034,-10,0,13857,4847,57,16830,-4,0,0,0,192479,0
192488,-35,-2021,389,-39,-4,-47,15456,-2,7,-17,-8,35950,-46,31,127,0,0,4034,-43,0,13857,4847,57,16840,-4,0,0,0,192479,0
192498,-39,-2018,389,-42,-7,-59,15456,9,-3,-43,-8,35965,-63,30,127,0,0,4034,0,0,13857,4847,57,16850,-4,0,0,0,192479,0
192508,-30,-2019,395,-37,-9,-60,15458,10,-2,-19,-16,35973,-69,30,127,0,0,4034,-21,0,13857,4847,57,16860,-4,0,0,0,192510,0
192518,-24,-2021,392,-46,-6,-65,15454,-5,-3,-98,-8,35955,-58,30,127,0,0,4034,38,0,13857,4847,57,16870,-4,0,0,0,192510,0
192528,-40,-2019,390,-48,-14,-56,15456,-7,-4,-143,-8,35940,-51,31,127,0,0,4034,49,0,13857,4847,57,16880,-4,0,0,0,192510,0
192538,-25,-2026,393,-46,-9,-70,15460,22,16,-42,-16,35947,-52,30,127,0,0,4030,-60,0,13857,4847,57,16890,-4,0,0,0,192542,0
192548,-26,-2019,388,-51,-6,-71,15452,-22,-12,-123,-24,35949,-72,30,127,0,0,4035,27,0,13857,4847,57,16900,-4,0,0,0,192542,0
192558,-14,-2012,389,-49,-13,-75,15456,-4,-6,-130,-32,35952,-64,30,127,0,0,4031,5,0,13857,4847,57,16910,-4,0,0,0,192542,0
192568,-19,-2019,390,-49,-10,-81,15455,8,7,-118,-32,35947,-62,30,127,0,0,4031,-16,0,13857,4847,57,16920,-4,0,0,0,192573,0
192578,-50,-2022,382,-57,-18,-84,15454,-1,-3,-125,-8,35951,-70,30,127,0,0,4030,-21,0,13857,4847,57,16930,-4,0,0,0,192589,0
192588,-27,-2011,377,-48,-18,-83,15453,-7,-2,-151,-48,35950,-86,30,127,0,0,4033,21,0,13857,4847,57,16940,-4,0,0,0,192604,0
192598,-26,-2025,376,-52,-14,-95,15453,-1,4,-164,-48,35942,-76,31,127,0,0,4029,-16,0,13857,4847,57,16950,-4,0,0,0,192620,0
192608,-32,-2023,380,-47,2,-114,15452,0,-4,-211,-48,35948,-66,30,127,0,0,4026,-32,0,13857,4847,57,16960,-4,0,0,0,192620,0
192618,-20,-2027,393,-50,5,-118,15449,-10,2,-269,-88,35950,-41,30,127,0,0,4025,-32,0,13857,4847,57,16970,-4,0,0,0,192620,0
192628,-17,-2023,395,-47,4,-118,15444,-11,-5,-304,-80,35947,-49,31,127,0,0,4022,-16,0,13857,4847,57,16980,-4,0,0,0,192620,0
192638,-16,-2018,393,-55,-5,-121,15437,-17,-15,-332,-104,35948,-48,31,127,0,0,4020,-5,0,13857,4847,57,16990,-4,0,0,0,192620,0
192648,-18,-2020,392,-52,-6,-121,15413,-59,-32,-247,-56,35955,-46,31,127,0,0,4017,-16,0,13857,4847,57,17000,-4,0,0,0,192667,0
192658,-42,-2018,394,-53,3,-139,15392,-25,-22,-150,-64,35955,-62,31,127,0,0,4019,-5,0,13857,4847,57,17010,-4,0,0,0,192667,0
192668,-29,-2016,391,-58,-3,-136,15395,1,54,-244,-64,35950,-68,30,127,0,0,4010,-27,0,13857,4847,57,17020,-4,0,0,0,192667,0
192678,-26,-2013,389,-63,-4,-151,15388,-14,21,-318,-80,35934,-61,30,127,0,0,4007,-49,0,13857,4847,57,17030,-4,0,0,0,192667,0
192688,-22,-2021,392,-62,-11,-146,15386,-14,-13,-409,-136,35936,-46,30,127,0,0,4011,-5,0,13857,4847,57,17040,-4,0,0,0,192682,0
192698,-41,-2014,392,-67,-2,-162,15379,-9,-1,-389,-152,35957,-48,31,127,0,0,4005,-54,0,13857,4847,57,17050,-4,0,0,0,192714,0
192708,-16,-2023,388,-69,2,-167,15371,-29,1,-497,-184,35966,-48,31,127,0,0,4004,5,0,13857,4847,57,17060,-4,0,0,0,192714,0
192718,-6,-2015,402,-76,-4,-168,15346,-82,-38,-440,-152,35981,-63,31,127,0,0,3992,-43,0,13857,4847,57,17070,-4,0,0,0,192729,0
192728,-4,-2014,393,-80,-7,-178,15302,-83,-70,-347,-88,35967,-70,31,127,0,0,3993,5,0,13857,4847,57,17080,-4,0,0,0,192729,0
192738,0,-2023,393,-84,-5,-180,15268,-72,-4,-252,-112,35957,-69,31,127,0,0,3988,-65,0,13857,4847,57,17090,-4,0,0,0,192729,0
192748,-21,-2007,380,-87,-5,-194,15241,-35,29,-263,-72,35965,-67,31,127,0,0,3985,-16,0,13857,4847,57,17100,-4,0,0,0,192729,0
192758,12,-2021,381,-85,-8,-187,15237,-7,56,-341,-104,35968,-46,30,127,0,0,3978,-54,0,13857,4847,57,17110,-4,0,0,0,192823,0
192768,20,-2015,375,-87,1,-187,15218,-53,14,-333,-96,35965,-30,31,127,0,0,3975,-65,0,13857,4847,57,17120,-4,0,0,0,192823,0
192778,6,-2018,376,-83,3,-195,15184,-58,-57,-246,-72,35949,-10,30,127,0,0,3971,-32,0,13857,4847,57,17130,-4,0,0,0,192823,0
192788,3,-2022,375,-83,5,-182,15183,6,37,-383,-136,35936,3,31,127,0,0,3971,-16,0,13857,4847,57,17140,-4,0,0,0,192823,0
192798,18,-2022,385,-86,-7,-172,15179,-9,53,-415,-176,35933,7,30,127,0,0,3970,0,0,13857,4847,57,17150,-4,0,0,0,192823,0
192808,31,-2023,385,-84,-7,-150,15168,-36,-14,-490,-184,35937,8,30,127,0,0,3964,16,0,13857,4847,57,17160,-4,0,0,0,192838,0
192818,21,-2018,377,-90,-16,-136,15140,-78,-48,-391,-176,35936,23,30,127,0,0,3960,-27,0,13857,4847,57,17170,-4,0,0,0,192838,0
192828,-9,-2026,375,-89,-8,-148,15108,-33,-43,-328,-136,35936,20,31,127,0,0,3955,-27,0,13857,4847,57,17180,-4,0,0,0,192838,0
192838,27,-2021,377,-84,-5,-132,15104,-6,56,-412,-144,35945,-9,31,127,0,0,3949,-98,0,13857,4847,57,17190,-4,0,0,0,192838,0
192848,45,-2010,382,-87,-14,-120,15095,-28,43,-454,-152,35961,-34,31,127,0,0,3950,-76,0,13857,4847,57,17200,-4,0,0,0,192838,0
192858,18,-2014,372,-88,-12,-115,15071,-58,-41,-364,-160,35976,-36,31,127,0,0,3952,-5,0,13857,4847,57,17210,-4,0,0,0,192854,0
192868,-14,-2019,373,-86,-7,-126,15043,-36,-43,-281,-72,35976,-44,31,127,0,0,3948,16,0,13857,4847,57,17220,-4,0,0,0,192870,0
192878,29,-2021,382,-84,-8,-109,15039,-12,54,-356,-112,35962,-60,31,127,0,0,3944,-5,0,13857,4847,57,17230,-4,0,0,0,192870,0
192888,23,-2011,378,-80,-19,-103,15026,-45,26,-351,-88,35956,-65,31,127,0,0,3944,0,0,13857,4847,57,17240,-4,0,0,0,192901,0
192898,9,-2016,373,-84,-21,-100,15002,-56,-41,-186,-64,35957,-56,30,127,0,0,3945,0,0,13857,4847,57,17250,-4,0,0,0,192901,0
192908,-13,-2022,369,-85,-10,-117,15000,18,20,-183,-56,35954,-45,30,127,0,0,3938,-43,0,13857,4847,57,17260,-4,0,0,0,192917,0
192918,20,-2025,377,-84,-7,-107,14996,-4,49,-268,-64,35952,-42,31,127,0,0,3939,-27,0,13857,4847,57,17270,-4,0,0,0,192917,0
192928,29,-2024,376,-84,-15,-103,14996,0,4,-293,-88,35945,-40,30,127,0,0,3937,-38,0,13857,4847,57,17280,-4,0,0,0,192917,0
192938,20,-2023,376,-82,-11,-91,14991,-8,-1,-343,-88,35948,-49,31,127,0,0,3934,-27,0,13857,4847,57,17290,-4,0,0,0,192917,0
192948,26,-2025,377,-84,-10,-89,14986,-15,-2,-392,-104,35946,-43,30,127,0,0,3935,0,0,13857,4847,57,17300,-4,0,0,0,192932,0
192958,35,-2022,367,-85,-12,-89,14986,1,3,-403,-96,35947,-40,30,127,0,0,3932,-32,0,13857,4847,57,17310,-4,0,0,0,192948,0
192968,38,-2024,366,-75,-13,-78,14986,5,10,-434,-144,35946,-48,31,127,0,0,3934,-43,0,13857,4847,57,17320,-4,0,0,0,192979,0
192978,31,-2026,358,-74,-8,-71,14978,-12,-12,-411,-104,35945,-49,30,127,0,0,3926,-49,0,13857,4847,57,17330,-4,0,0,0,192979,0
192988,47,-2029,354,-66,-14,-66,14975,-3,0,-441,-120,35947,-61,30,127,0,0,3930,-32,0,13857,4847,57,17340,-4,0,0,0,192979,0
192998,33,-2019,357,-59,-5,-54,14971,-12,3,-467,-112,35945,-58,31,127,0,0,3930,5,0,13857,4847,57,17350,-4,0,0,0,192979,0
193008,28,-2014,363,-60,-8,-45,14966,-7,-10,-401,-128,35951,-57,30,127,0,0,3928,-38,0,13857,4847,57,17360,-4,0,0,0,193010,0
193018,35,-2012,352,-51,-14,-45,14958,-31,-14,-420,-88,35954,-48,31,127,0,0,3927,27,0,13857,4847,57,17370,-4,0,0,0,193010,0
193028,31,-2025,362,-50,-13,-40,14943,-29,-23,-297,-56,35955,-45,30,127,0,0,3927,-10,0,13857,4847,57,17380,-4,0,0,0,193010,0
193038,5,-2015,368,-50,-5,-43,14942,8,27,-289,-56,35955,-41,30,127,0,0,3927,-21,0,13857,4847,57,17390,-4,0,0,0,193026,0
193048,20,-2018,373,-47,-10,-45,14942,0,27,-265,-56,35958,-54,31,127,0,0,3927,-38,0,13857,4847,57,17400,-4,0,0,0,193042,0
193058,15,-2012,376,-45,-9,-55,14939,-8,-4,-271,-72,35957,-53,31,127,0,0,3932,10,0,13857,4847,57,17410,-4,0,0,0,193057,0
193068,6,-2029,375,-46,-4,-54,14940,-9,-5,-292,-48,35954,-53,31,127,0,0,3927,16,0,13857,4847,57,17420,-4,0,0,0,193057,0
193078,21,-2017,365,-41,-2,-56,14942,9,2,-261,-32,35963,-41,31,127,0,0,3929,-5,0,13857,4847,57,17430,-4,0,0,0,193073,0
193088,18,-2022,365,-39,-8,-57,14941,-5,1,-233,-56,35970,-56,31,127,0,0,3927,-32,0,13857,4847,57,17440,-4,0,0,0,193088,0
193098,2,-2018,367,-40,-5,-69,14940,-1,-2,-296,-72,35971,-70,30,127,0,0,3928,0,0,13857,4847,57,17450,-4,0,0,0,193088,0
193108,4,-2018,371,-39,-2,-74,14940,-2,5,-277,-72,35954,-73,31,127,0,0,3925,-38,0,13857,4847,57,17460,-4,0,0,0,193088,0
193118,0,-2022,373,-42,-7,-84,14939,0,-3,-340,-72,35953,-56,31,127,0,0,3925,-21,0,13857,4847,57,17470,-4,0,0,0,193198,0
193128,10,-2019,379,-44,0,-82,14935,-15,-5,-381,-112,35943,-46,31,127,0,0,3924,5,0,13857,4847,57,17480,-4,0,0,0,193198,0
193138,12,-2020,375,-37,3,-86,14929,-14,-4,-397,-96,35943,-62,31,127,0,0,3921,-16,0,13857,4847,57,17490,-4,0,0,0,193198,0
193148,15,-2026,376,-38,-4,-91,14926,-13,1,-447,-120,35938,-56,30,127,0,0,3922,0,0,13857,4847,57,17500,-4,0,0,0,193198,0
193158,16,-2013,377,-45,-5,-90,14923,-7,3,-446,-136,35942,-51,30,127,0,0,3923,38,0,13857,4847,57,17510,-4,0,0,0,193213,0
193168,10,-2023,367,-49,-3,-93,14922,-3,5,-463,-136,35942,-48,31,127,0,0,3919,10,0,13857,4847,57,17520,-4,0,0,0,193213,0
193178,14,-2024,361,-43,-9,-99,14923,6,5,-436,-160,35947,-53,30,127,0,0,3914,-71,0,13857,4847,57,17530,-4,0,0,0,193213,0
193188,36,-2025,363,-42,-2,-95,14915,-21,-11,-519,-168,35943,-61,31,127,0,0,3915,-27,0,13857,4847,57,17540,-4,0,0,0,193213,0
193198,24,-2023,367,-38,-4,-94,14900,-33,-34,-460,-160,35942,-55,30,127,0,0,3913,-38,0,13857,4847,57,17550,-4,0,0,0,193213,0
193208,49,-2026,377,-45,-14,-84,14866,-92,-51,-309,-112,35942,-48,30,127,0,0,3911,-38,0,13857,4847,57,17560,-4,0,0,0,193213,0
193218,18,-2033,369,-40,-4,-87,14841,-31,-19,-274,-88,35948,-53,31,127,0,0,3912,10,0,13857,4847,57,17570,-4,0,0,0,193213,0
193228,49,-2022,379,-41,-2,-79,14838,1,73,-310,-80,35955,-75,30,127,0,0,3912,43,0,13857,4847,57,17580,-4,0,0,0,193213,0
193238,49,-2026,375,-45,-11,-59,14834,-14,32,-294,-72,35964,-98,31,127,0,0,3908,10,0,13857,4847,57,17590,-4,0,0,0,193229,0
193248,42,-2021,376,-45,-15,-49,14823,-34,-16,-299,-72,35978,-107,31,127,0,0,3910,54,0,13857,4847,57,17600,-4,0,0,0,193260,0
193258,29,-2018,363,-38,-7,-49,14808,-14,-22,-142,-48,35975,-108,31,127,0,0,3910,27,0,13857,4847,57,17610,-4,0,0,0,193260,0
193268,33,-2029,376,-44,-4,-38,14809,-1,33,-179,-48,35955,-117,31,127,0,0,3906,-16,0,13857,4847,57,17620,-4,0,0,0,193260,0
193278,46,-2019,370,-39,-7,-34,14806,-5,17,-211,-16,35935,-117,31,127,0,0,3905,5,0,13857,4847,57,17630,-4,0,0,0,193260,0
193288,68,-2013,365,-42,-8,-27,14807,-10,2,-193,-40,35933,-113,30,127,0,0,3906,-16,0,13857,4847,57,17640,-4,0,0,0,193292,0
193298,11,-2017,374,-41,-12,-24,14805,-2,1,-236,-40,35933,-104,31,127,0,0,3910,49,0,13857,4847,57,17650,-4,0,0,0,193292,0
193308,28,-2022,371,-41,-1,-25,14810,8,1,-167,-48,35936,-108,30,127,0,0,3906,-16,0,13857,4847,57,17660,-4,0,0,0,193307,0
193318,25,-2030,370,-43,-7,-28,14808,13,1,-163,-24,35942,-113,30,127,0,0,3905,-10,0,13857,4847,57,17670,-4,0,0,0,193307,0
193328,26,-2016,386,-45,-9,-18,14806,-13,-12,-218,-16,35950,-109,30,127,0,0,3905,10,0,13857,4847,57,17680,-4,0,0,0,193338,0
193338,37,-2025,380,-59,-8,-33,14808,5,0,-201,-24,35956,-119,31,127,0,0,3905,0,0,13857,4847,57,17690,-4,0,0,0,193338,0
193348,48,-2025,382,-58,-6,-38,14806,-7,0,-201,-40,35959,-117,30,127,0,0,3906,0,0,13857,4847,57,17700,-4,0,0,0,193338,0
193358,24,-2023,375,-57,-6,-30,14807,0,-5,-179,-40,35946,-134,31,127,0,0,3910,27,0,13857,4847,57,17710,-4,0,0,0,193338,0
193368,35,-2015,373,-62,-9,-30,14806,-6,0,-167,-16,35953,-118,31,127,0,0,3908,49,0,13857,4847,57,17720,-4,0,0,0,193354,0
193378,56,-2013,378,-65,-12,-41,14808,1,0,-141,-48,35960,-109,30,127,0,0,3906,-10,0,13857,4847,57,17730,-4,0,0,0,193401,0
193388,38,-2013,371,-64,-5,-39,14808,6,-3,-128,-48,35966,-118,30,127,0,0,3906,-38,0,13857,4847,57,17740,-4,0,0,0,193401,0
193398,-2,-2011,367,-70,-12,-31,14807,1,-6,-157,-16,35951,-125,30,127,0,0,3912,38,0,13857,4847,57,17750,-4,0,0,0,193401,0
193408,12,-2017,366,-72,-19,-33,14809,-4,6,-113,-24,35940,-128,31,127,0,0,3905,-10,0,13857,4847,57,17760,-4,0,0,0,193401,0
193418,1,-2015,368,-75,-15,-37,14806,0,-1,-180,-16,35933,-119,31,127,0,0,3905,-21,0,13857,4847,57,17770,-4,0,0,0,193401,0
193428,22,-2016,370,-77,-7,-29,14808,6,2,-150,-24,35950,-115,31,127,0,0,3912,38,0,13857,4847,57,17780,-4,0,0,0,193417,0
193438,28,-2012,370,-77,-10,-33,14807,-3,8,-112,-16,35959,-131,31,127,0,0,3908,16,0,13857,4847,57,17790,-4,0,0,0,193417,0
193448,17,-2020,370,-79,-11,-34,14808,11,-3,-119,-24,35968,-130,31,127,0,0,3905,-32,0,13857,4847,57,17800,-4,0,0,0,193448,0
193458,-14,-2022,379,-81,-10,-40,14804,-12,-2,-145,-16,35954,-117,31,127,0,0,3905,-27,0,13857,4847,57,17810,-4,0,0,0,193448,0
193468,43,-2021,373,-83,-8,-47,14809,2,-2,-142,-24,35942,-109,31,127,0,0,3908,-10,0,13857,4847,57,17820,-4,0,0,0,193448,0
193478,12,-2023,377,-90,-12,-44,14806,-9,2,-145,-16,35948,-116,30,127,0,0,3912,38,0,13857,4847,57,17830,-4,0,0,0,193479,0
193488,11,-2029,379,-95,-5,-42,14809,2,2,-104,-24,35950,-130,30,127,0,0,3912,43,0,13857,4847,57,17840,-4,0,0,0,193495,0
193498,31,-2036,382,-104,-11,-60,14808,-5,0,-98,-24,35952,-126,30,127,0,0,3912,43,0,13857,4847,57,17850,-4,0,0,0,193510,0
193508,2,-2041,377,-105,-10,-61,14809,6,0,-80,-24,35936,-121,31,127,0,0,3912,38,0,13857,4847,57,17860,-4,0,0,0,193526,0
193518,17,-2032,369,-106,-16,-64,14808,-10,-2,-93,-24,35936,-113,31,127,0,0,3908,10,0,13857,4847,57,17870,-4,0,0,0,193526,0
193528,18,-2031,375,-107,-12,-65,14807,2,-5,-130,-16,35934,-114,30,127,0,0,3908,0,0,13857,4847,57,17880,-4,0,0,0,193541,0
193538,22,-2026,365,-108,-8,-62,14807,3,1,-143,-16,35934,-114,30,127,0,0,3908,5,0,13857,4847,57,17890,-4,0,0,0,193541,0
193548,16,-2030,362,-112,-16,-62,14808,5,3,-129,-24,35940,-112,30,127,0,0,3908,5,0,13857,4847,57,17900,-4,0,0,0,193541,0
193558,32,-2023,361,-113,-8,-68,14807,3,0,-144,-16,35949,-101,31,127,0,0,3908,5,0,13857,4847,57,17910,-4,0,0,0,193541,0
193568,10,-2024,362,-110,-14,-73,14807,-2,4,-127,-16,35962,-115,30,127,0,0,3908,0,0,13857,4847,57,17920,-4,0,0,0,193573,0
193578,20,-2019,355,-109,-10,-76,14809,5,0,-134,-24,35953,-135,31,127,0,0,3908,5,0,13857,4847,57,17930,-4,0,0,0,193588,0
193588,10,-2020,352,-105,-17,-75,14806,-2,6,-147,-40,35953,-131,30,127,0,0,3910,0,0,13857,4847,57,17940,-4,0,0,0,193588,0
193598,22,-2014,345,-98,-2,-95,14806,-2,2,-180,-40,35942,-112,30,127,0,0,3903,-16,0,13857,4847,57,17950,-4,0,0,0,193588,0
193608,0,-2011,344,-100,1,-99,14805,1,-6,-219,-64,35941,-114,30,127,0,0,3904,-21,0,13857,4847,57,17960,-4,0,0,0,193588,0
193618,36,-2015,353,-90,0,-109,14803,-6,-4,-261,-80,35948,-118,30,127,0,0,3902,-32,0,13857,4847,57,17970,-4,0,0,0,193604,0
193628,30,-2015,345,-90,-3,-107,14800,-8,-7,-344,-96,35953,-123,30,127,0,0,3900,-16,0,13857,4847,57,17980,-4,0,0,0,193620,0
193638,33,-2015,344,-92,-5,-107,14795,-9,-4,-425,-136,35954,-113,31,127,0,0,3895,-21,0,13857,4847,57,17990,-4,0,0,0,193651,0
193648,26,-2019,348,-80,0,-111,14790,2,-3,-402,-128,35955,-112,31,127,0,0,3895,-21,0,13857,4847,57,18000,-4,0,0,0,193666,0
193658,48,-2024,349,-86,-8,-103,14786,-18,5,-485,-144,35950,-117,31,127,0,0,3893,10,0,13857,4847,57,18010,-4,0,0,0,193666,0
193668,37,-2019,348,-78,-7,-107,14781,-12,-5,-499,-160,35945,-110,31,127,0,0,3894,0,0,13857,4847,57,18020,-4,0,0,0,193666,0
193678,26,-2036,344,-74,-24,-96,14773,-15,-7,-510,-184,35940,-104,31,127,0,0,3890,-38,0,13857,4847,57,18030,-4,0,0,0,193666,0
193688,37,-2033,345,-66,-8,-88,14742,-81,-46,-377,-112,35959,-94,31,127,0,0,3889,0,0,13857,4847,57,18040,-4,0,0,0,193666,0
193698,7,-2034,330,-63,-5,-105,14724,-2,-21,-290,-88,35959,-109,30,127,0,0,3883,-60,0,13857,4847,57,18050,-4,0,0,0,193698,0
193708,58,-2034,340,-56,-6,-94,14723,-2,65,-400,-80,35962,-105,30,127,0,0,3880,-32,0,13857,4847,57,18060,-4,0,0,0,193698,0
193718,61,-2030,342,-47,-15,-89,14719,-19,26,-454,-128,35947,-100,31,127,0,0,3882,-5,0,13857,4847,57,18070,-4,0,0,0,193698,0
193728,41,-2040,341,-46,-12,-82,14711,-22,-23,-444,-136,35939,-97,31,127,0,0,3883,5,0,13857,4847,57,18080,-4,0,0,0,193729,0
193738,30,-2029,351,-40,-8,-88,14693,-38,-27,-303,-120,35941,-97,30,127,0,0,3884,-5,0,13857,4847,57,18090,-4,0,0,0,193745,0
193748,30,-2028,353,-39,-10,-88,14668,-43,-32,-137,-48,35944,-88,31,127,0,0,3880,-10,0,13857,4847,57,18100,-4,0,0,0,193745,0
193758,48,-2018,351,-36,-15,-78,14669,9,39,-233,-72,35953,-76,31,127,0,0,3878,-16,0,13857,4847,57,18110,-4,0,0,0,193745,0
193768,37,-2014,343,-37,-16,-83,14667,-3,48,-239,-88,35964,-75,31,127,0,0,3875,-65,0,13857,4847,57,18120,-4,0,0,0,193776,0
193778,19,-2021,345,-25,-8,-83,14665,0,-4,-290,-88,35968,-85,31,127,0,0,3879,5,0,13857,4847,57,18130,-4,0,0,0,193776,0
193788,21,-2024,350,-32,-14,-90,14663,-1,1,-274,-88,35964,-80,30,127,0,0,3875,-16,0,13857,4847,57,18140,-4,0,0,0,193776,0
193798,30,-2025,358,-30,-9,-94,14659,-18,-1,-328,-96,35960,-59,30,127,0,0,3873,5,0,13857,4847,57,18150,-4,0,0,0,193807,0
193808,25,-2024,352,-24,-3,-90,14655,-13,-11,-346,-112,35960,-56,31,127,0,0,3871,0,0,13857,4847,57,18160,-4,0,0,0,193807,0
193818,36,-2027,350,-31,-13,-98,14652,-12,1,-340,-112,35958,-53,30,127,0,0,3871,-32,0,13857,4847,57,18170,-4,0,0,0,193807,0
193828,37,-2019,347,-31,-11,-101,14651,-9,4,-367,-128,35953,-61,30,127,0,0,3869,-43,0,13857,4847,57,18180,-4,0,0,0,193807,0
193838,20,-2017,354,-22,-9,-113,14640,-30,-23,-403,-104,35953,-62,30,127,0,0,3866,-10,0,13857,4847,57,18190,-4,0,0,0,193838,0
193848,26,-2017,347,-27,-13,-109,14609,-69,-55,-266,-96,35951,-61,30,127,0,0,3864,-32,0,13857,4847,57,18200,-4,0,0,0,193838,0
193858,3,-2024,351,-32,-1,-131,14599,0,0,-262,-64,35962,-51,31,127,0,0,3861,-27,0,13857,4847,57,18210,-4,0,0,0,193838,0
193868,60,-2022,357,-29,-2,-122,14598,-11,62,-377,-96,35952,-55,30,127,0,0,3862,32,0,13857,4847,57,18220,-4,0,0,0,193948,0
193878,41,-2020,354,-30,-11,-123,14596,-19,3,-450,-160,35954,-60,30,127,0,0,3859,21,0,13857,4847,57,18230,-4,0,0,0,193948,0
193888,30,-2022,352,-26,-1,-147,14589,0,-14,-420,-168,35948,-68,31,127,0,0,3854,-71,0,13857,4847,57,18240,-4,0,0,0,193948,0
193898,53,-2025,363,-27,2,-143,14578,-34,-19,-521,-152,35942,-62,31,127,0,0,3850,-16,0,13857,4847,57,18250,-4,0,0,0,193948,0
193908,35,-2019,363,-28,-1,-137,14557,-55,-23,-400,-136,35942,-67,30,127,0,0,3848,-38,0,13857,4847,57,18260,-4,0,0,0,193948,0
193918,39,-2020,354,-33,2,-157,14528,-53,-35,-378,-144,35940,-61,31,127,0,0,3845,-49,0,13857,4847,57,18270,-4,0,0,0,193963,0
193928,45,-2023,359,-36,-4,-150,14513,-29,11,-432,-128,35940,-61,31,127,0,0,3846,27,0,13857,4847,57,18280,-4,0,0,0,193963,0
193938,63,-2025,360,-36,-7,-146,14489,-58,14,-324,-112,35944,-54,31,127,0,0,3837,-60,0,13857,4847,57,18290,-4,0,0,0,193963,0
193948,49,-2027,363,-39,-2,-147,14461,-58,-25,-328,-80,35947,-61,30,127,0,0,3835,0,0,13857,4847,57,18300,-4,0,0,0,193963,0
193958,71,-2025,370,-37,1,-149,14455,0,36,-364,-136,35947,-53,30,127,0,0,3835,-27,0,13857,4847,57,18310,-4,0,0,0,193963,0
193968,61,-2026,355,-39,-2,-142,14446,-34,46,-433,-120,35946,-33,31,127,0,0,3828,-21,0,13857,4847,57,18320,-4,0,0,0,193963,0
193978,71,-2022,354,-40,-1,-143,14420,-82,-51,-342,-112,35945,-12,31,127,0,0,3824,-38,0,13857,4847,57,18330,-4,0,0,0,193963,0
193988,25,-2026,342,-32,3,-153,14395,-25,-29,-336,-112,35956,10,31,127,0,0,3819,-49,0,13857,4847,57,18340,-4,0,0,0,193994,0
193998,84,-2023,357,-39,1,-144,14398,11,77,-467,-160,35964,13,31,127,0,0,3818,-60,0,13857,4847,57,18350,-4,0,0,0,193994,0
194008,75,-2024,360,-39,-1,-140,14388,-20,22,-500,-144,35967,17,30,127,0,0,3815,0,0,13857,4847,57,18360,-4,0,0,0,193994,0
194018,84,-2033,354,-30,-3,-117,14376,-41,-24,-514,-160,35964,11,30,127,0,0,3814,-16,0,13857,4847,57,18370,-4,0,0,0,194010,0
194028,73,-2026,352,-36,-3,-114,14347,-70,-38,-350,-104,35959,1,31,127,0,0,3811,-16,0,13857,4847,57,18380,-4,0,0,0,194026,0
194038,68,-2030,352,-31,-4,-104,14337,-1,14,-377,-112,35958,-9,30,127,0,0,3808,-32,0,13857,4847,57,18390,-4,0,0,0,194041,0
194048,102,-2028,353,-32,-10,-89,14334,-26,50,-486,-128,35953,-20,31,127,0,0,3813,93,0,13857,4847,57,18400,-4,0,0,0,194041,0
194058,69,-2019,346,-31,-7,-86,14334,6,4,-446,-152,35949,-28,31,127,0,0,3804,-27,0,13857,4847,57,18410,-4,0,0,0,194041,0
194068,75,-2027,352,-26,-7,-80,14327,-20,0,-520,-136,35965,-39,31,127,0,0,3801,-54,0,13857,4847,57,18420,-4,0,0,0,194057,0
194078,69,-2018,345,-24,-6,-74,14313,-43,-32,-467,-104,35974,-36,30,127,0,0,3804,0,0,13857,4847,57,18430,-4,0,0,0,194088,0
194088,71,-2028,356,-23,0,-64,14288,-69,-40,-327,-80,35972,-36,30,127,0,0,3802,16,0,13857,4847,57,18440,-4,0,0,0,194088,0
194098,70,-2020,359,-18,2,-67,14266,-28,-14,-260,-64,35957,-41,31,127,0,0,3803,0,0,13857,4847,57,18450,-4,0,0,0,194088,0
194108,77,-2017,356,-22,-8,-57,14266,-1,56,-322,-88,35956,-43,31,127,0,0,3801,5,0,13857,4847,57,18460,-4,0,0,0,194088,0
194118,62,-2023,364,-25,0,-52,14265,3,32,-297,-56,35962,-56,30,127,0,0,3803,-5,0,13857,4847,57,18470,-4,0,0,0,194119,0
194128,62,-2020,367,-22,-11,-42,14265,-3,0,-301,-80,35963,-54,30,127,0,0,3801,-5,0,13857,4847,57,18480,-4,0,0,0,194119,0
194138,62,-2030,366,-27,-5,-43,14260,-14,-5,-329,-72,35957,-46,31,127,0,0,3804,32,0,13857,4847,57,18490,-4,0,0,0,194119,0
194148,52,-2027,365,-31,-4,-37,14258,-9,2,-278,-72,35954,-40,31,127,0,0,3804,43,0,13857,4847,57,18500,-4,0,0,0,194151,0
194158,74,-2022,359,-35,-2,-43,14256,-11,2,-268,-64,35960,-33,31,127,0,0,3804,43,0,13857,4847,57,18510,-4,0,0,0,194151,0
194168,50,-2033,364,-32,-10,-40,14254,-7,-3,-261,-64,35964,-43,30,127,0,0,3801,10,0,13857,4847,57,18520,-4,0,0,0,194151,0
194178,56,-2022,356,-34,-4,-44,14251,-5,-6,-244,-56,35955,-48,30,127,0,0,3804,32,0,13857,4847,57,18530,-4,0,0,0,194166,0
194188,49,-2028,357,-28,-9,-41,14251,-1,11,-167,-56,35951,-44,30,127,0,0,3801,-5,0,13857,4847,57,18540,-4,0,0,0,194182,0
194198,72,-2025,349,-27,-6,-34,14246,-16,-3,-218,-48,35945,-38,30,127,0,0,3801,0,0,13857,4847,57,18550,-4,0,0,0,194182,0
194208,52,-2023,358,-28,-2,-35,14238,-18,-19,-118,-32,35944,-39,30,127,0,0,3804,27,0,13857,4847,57,18560,-4,0,0,0,194213,0
194218,51,-2022,352,-29,-4,-45,14237,0,10,-105,-24,35943,-42,31,127,0,0,3804,43,0,13857,4847,57,18570,-4,0,0,0,194213,0
194228,34,-2024,349,-26,-3,-45,14237,0,10,-92,-24,35945,-56,31,127,0,0,3801,10,0,13857,4847,57,18580,-4,0,0,0,194213,0
194238,69,-2025,352,-26,-1,-56,14237,5,-3,-71,-24,35958,-58,31,127,0,0,3804,10,0,13857,4847,57,18590,-4,0,0,0,194229,0
194248,58,-2027,349,-22,-3,-61,14236,-9,1,-83,-24,35952,-83,31,127,0,0,3801,10,0,13857,4847,57,18600,-4,0,0,0,194244,0
194258,60,-2016,370,-24,7,-70,14235,-3,-8,-171,-24,35953,-74,30,127,0,0,3797,16,0,13857,4847,57,18610,-4,0,0,0,194260,0
194268,46,-2022,377,-30,6,-73,14226,-11,-8,-136,-8,35946,-73,30,127,0,0,3797,0,0,13857,4847,57,18620,-4,0,0,0,194260,0
194278,91,-2025,364,-27,1,-79,14228,-4,7,-164,-56,35948,-60,31,127,0,0,3796,-38,0,13857,4847,57,18630,-4,0,0,0,194276,0
194288,79,-2023,364,-28,-4,-74,14221,-9,-6,-218,-64,35959,-55,31,127,0,0,3794,-27,0,13857,4847,57,18640,-4,0,0,0,194276,0
194298,89,-2013,354,-31,8,-67,14215,-3,-13,-259,-56,35960,-56,31,127,0,0,3794,27,0,13857,4847,57,18650,-4,0,0,0,194276,0
194308,99,-2019,358,-32,5,-51,14215,-13,11,-301,-72,35965,-49,31,127,0,0,3795,54,0,13857,4847,57,18660,-4,0,0,0,194338,0
194318,111,-2010,368,-27,-8,-32,14215,1,5,-294,-72,35953,-52,31,127,0,0,3792,10,0,13857,4847,57,18670,-4,0,0,0,194338,0
194328,86,-2021,374,-32,-5,-20,14214,0,0,-312,-96,35950,-49,31,127,0,0,3790,-32,0,13857,4847,57,18680,-4,0,0,0,194338,0
194338,58,-2025,357,-33,-5,-16,14211,-1,-6,-321,-88,35941,-63,31,127,0,0,3783,-109,0,13857,4847,57,18690,-4,0,0,0,194338,0
194348,76,-2018,356,-35,-2,-13,14208,-4,-7,-345,-88,35945,-59,30,127,0,0,3790,-43,0,13857,4847,57,18700,-4,0,0,0,194354,0
194358,44,-2020,342,-26,-13,-7,14208,-6,4,-330,-64,35951,-58,30,127,0,0,3789,-10,0,13857,4847,57,18710,-4,0,0,0,194354,0
194368,72,-2018,332,-24,1,-7,14209,-6,5,-355,-88,35948,-64,30,127,0,0,3793,32,0,13857,4847,57,18720,-4,0,0,0,194354,0
194378,72,-2019,331,-11,3,-9,14213,9,1,-254,-72,35960,-52,30,127,0,0,3792,-21,0,13857,4847,57,18730,-4,0,0,0,194369,0
194388,75,-2025,347,-3,10,-9,14208,-7,-2,-275,-88,35958,-59,31,127,0,0,3790,-38,0,13857,4847,57,18740,-4,0,0,0,194369,0
194398,55,-2021,358,-4,4,1,14210,1,-5,-323,-88,35960,-54,31,127,0,0,3790,-43,0,13857,4847,57,18750,-4,0,0,0,194401,0
194408,50,-2017,365,-2,6,2,14210,11,6,-312,-64,35949,-53,31,127,0,0,3792,16,0,13857,4847,57,18760,-4,0,0,0,194401,0
194418,44,-2028,376,-4,2,0,14209,-10,3,-306,-64,35939,-46,31,127,0,0,3792,16,0,13857,4847,57,18770,-4,0,0,0,194416,0
194428,59,-2029,372,-10,6,-3,14209,-10,1,-318,-88,35931,-36,30,127,0,0,3793,10,0,13857,4847,57,18780,-4,0,0,0,194416,0
194438,55,-2023,360,-8,9,-6,14210,9,5,-286,-64,35940,-39,30,127,0,0,3795,32,0,13857,4847,57,18790,-4,0,0,0,194463,0
194448,39,-2022,378,-13,2,2,14210,-9,0,-265,-40,35940,-41,31,127,0,0,3794,49,0,13857,4847,57,18800,-4,0,0,0,194463,0
194458,66,-2024,391,-15,9,-2,14211,-10,2,-271,-64,35943,-49,30,127,0,0,3792,10,0,13857,4847,57,18810,-4,0,0,0,194463,0
194468,35,-2027,379,-22,0,-8,14211,10,-3,-296,-64,35935,-59,31,127,0,0,3792,0,0,13857,4847,57,18820,-4,0,0,0,194463,0
194478,43,-2025,368,-24,1,-12,14209,-5,2,-292,-64,35943,-57,30,127,0,0,3792,0,0,13857,4847,57,18830,-4,0,0,0,194463,0
194488,53,-2017,361,-27,-1,-21,14212,4,4,-249,-48,35956,-45,30,127,0,0,3791,-38,0,13857,4847,57,18840,-4,0,0,0,194479,0
194498,50,-2023,362,-23,-4,-30,14210,-4,-1,-303,-64,35966,-52,30,127,0,0,3792,5,0,13857,4847,57,18850,-4,0,0,0,194479,0
194508,40,-2014,364,-31,-5,-26,14213,15,1,-235,-72,35966,-64,31,127,0,0,3799,16,0,13857,4847,57,18860,-4,0,0,0,194557,0
194518,59,-2020,370,-36,-6,-27,14210,-12,0,-227,-64,35953,-68,31,127,0,0,3792,21,0,13857,4847,57,18870,-4,0,0,0,194557,0
194528,61,-2025,357,-27,6,-35,14210,1,-4,-308,-64,35942,-53,31,127,0,0,3795,60,0,13857,4847,57,18880,-4,0,0,0,194557,0
194538,58,-2018,374,-34,-7,-37,14211,-1,8,-273,-64,35934,-45,30,127,0,0,3799,76,0,13857,4847,57,18890,-4,0,0,0,194557,0
194548,21,-2026,372,-32,-9,-30,14213,11,2,-225,-72,35932,-64,30,127,0,0,3792,16,0,13857,4847,57,18900,-4,0,0,0,194557,0
194558,3,-2026,378,-38,-4,-37,14211,7,-1,-248,-48,35933,-65,31,127,0,0,3791,-49,0,13857,4847,57,18910,-4,0,0,0,194572,0
194568,47,-2019,376,-44,-11,-39,14212,3,2,-211,-24,35930,-59,31,127,0,0,3790,-54,0,13857,4847,57,18920,-4,0,0,0,194572,0
194578,64,-2019,372,-44,-2,-51,14211,-9,-1,-199,-48,35931,-54,31,127,0,0,3791,-38,0,13857,4847,57,18930,-4,0,0,0,194572,0
194588,71,-2021,362,-45,1,-56,14212,1,-7,-220,-48,35938,-54,30,127,0,0,3791,-65,0,13857,4847,57,18940,-4,0,0,0,194572,0
194598,92,-2019,367,-43,0,-36,14210,0,-1,-291,-40,35948,-56,30,127,0,0,3791,5,0,13857,4847,57,18950,-4,0,0,0,194666,0
194608,96,-2022,368,-45,-1,-34,14211,-3,4,-281,-48,35944,-46,30,127,0,0,3791,0,0,13857,4847,57,18960,-4,0,0,0,194666,0
194618,46,-2023,370,-50,-14,-41,14211,-12,-1,-264,-64,35941,-45,31,127,0,0,3792,-21,0,13857,4847,57,18970,-4,0,0,0,194666,0
194628,38,-2028,363,-43,-8,-47,14212,3,-8,-268,-72,35941,-52,30,127,0,0,3792,-5,0,13857,4847,57,18980,-4,0,0,0,194666,0
194638,48,-2018,361,-40,-1,-46,14211,1,-4,-273,-48,35938,-69,31,127,0,0,3791,-10,0,13857,4847,57,18990,-4,0,0,0,194682,0
194648,65,-2022,357,-38,-4,-40,14210,-5,-2,-308,-64,35938,-50,30,127,0,0,3792,27,0,13857,4847,57,19000,-4,0,0,0,194682,0
194658,69,-2025,359,-35,-5,-35,14211,5,0,-274,-64,35935,-47,30,127,0,0,3792,-16,0,13857,4847,57,19010,-4,0,0,0,194682,0
194668,46,-2020,364,-31,-4,-30,14209,0,-1,-288,-88,35934,-36,31,127,0,0,3796,27,0,13857,4847,57,19020,-4,0,0,0,194682,0
194678,86,-2024,361,-31,-3,-22,14211,-1,-5,-274,-88,35936,-38,30,127,0,0,3796,65,0,13857,4847,57,19030,-4,0,0,0,194682,0
194688,50,-2021,358,-35,-4,-21,14211,2,3,-274,-64,35939,-43,31,127,0,0,3792,10,0,13857,4847,57,19040,-4,0,0,0,194682,0
194698,43,-2021,362,-29,3,-27,14213,14,4,-228,-72,35952,-46,31,127,0,0,3792,-49,0,13857,4847,57,19050,-4,0,0,0,194682,0
194708,45,-2020,358,-25,4,-32,14211,0,-4,-260,-64,35951,-59,30,127,0,0,3792,-27,0,13857,4847,57,19060,-4,0,0,0,194697,0
194718,83,-2015,361,-27,4,-29,14211,12,-2,-276,-48,35960,-57,30,127,0,0,3791,16,0,13857,4847,57,19070,-4,0,0,0,194729,0
194728,69,-2018,379,-26,7,-23,14211,2,6,-269,-64,35949,-56,30,127,0,0,3792,-5,0,13857,4847,57,19080,-4,0,0,0,194729,0
194738,55,-2025,374,-30,4,-24,14209,-13,-1,-291,-48,35944,-44,30,127,0,0,3791,5,0,13857,4847,57,19090,-4,0,0,0,194729,0
194748,74,-2021,365,-25,6,-21,14212,4,4,-287,-64,35939,-46,30,127,0,0,3799,38,0,13857,4847,57,19100,-4,0,0,0,194729,0
194758,58,-2023,373,-28,1,-11,14215,19,10,-180,-56,35947,-54,30,127,0,0,3794,-16,0,13857,4847,57,19110,-4,0,0,0,194760,0
194768,46,-2020,374,-38,-4,-18,14213,6,-6,-181,-64,35951,-57,30,127,0,0,3795,-21,0,13857,4847,57,19120,-4,0,0,0,194760,0
194778,42,-2027,372,-38,-1,-14,14213,9,-5,-186,-24,35948,-42,30,127,0,0,3796,21,0,13857,4847,57,19130,-4,0,0,0,194760,0
194788,47,-2026,375,-39,-6,-14,14214,-7,2,-131,-24,35941,-31,30,127,0,0,3796,27,0,13857,4847,57,19140,-4,0,0,0,194776,0
194798,33,-2024,372,-43,-6,-21,14217,12,3,-100,-56,35949,-28,30,127,0,0,3801,0,0,13857,4847,57,19150,-4,0,0,0,194776,0
194808,11,-2027,369,-45,0,-31,14218,24,3,-51,-32,35956,-41,31,127,0,0,3796,-32,0,13857,4847,57,19160,-4,0,0,0,194807,0
194818,23,-2020,364,-47,0,-28,14216,12,0,-73,-8,35953,-41,30,127,0,0,3795,-38,0,13857,4847,57,19170,-4,0,0,0,194807,0
194828,62,-2020,366,-47,-6,-33,14218,7,0,-72,8,35947,-35,30,127,0,0,3797,-27,0,13857,4847,57,19180,-4,0,0,0,194807,0
194838,68,-2019,377,-49,5,-30,14217,1,8,-31,-8,35937,-42,30,127,0,0,3802,27,0,13857,4847,57,19190,-4,0,0,0,194838,0
194848,48,-2029,379,-51,1,-30,14218,-5,-3,-2,16,35939,-45,30,127,0,0,3797,-10,0,13857,4847,57,19200,-4,0,0,0,194838,0
194858,61,-2028,380,-52,-4,-27,14219,2,-5,-6,-8,35944,-53,31,127,0,0,3802,-10,0,13857,4847,57,19210,-4,0,0,0,194838,0
194868,43,-2028,375,-54,-5,-24,14218,3,5,15,-16,35951,-32,31,127,0,0,3799,-32,0,13857,4847,57,19220,-4,0,0,0,194869,0
194878,61,-2020,370,-55,-8,-18,14220,12,0,15,8,35953,-28,31,127,0,0,3801,-5,0,13857,4847,57,19230,-4,0,0,0,194885,0
194888,56,-2026,366,-50,-9,-7,14219,8,7,19,8,35954,-42,31,127,0,0,3801,0,0,13857,4847,57,19240,-4,0,0,0,194885,0
194898,48,-2022,359,-55,-6,0,14220,1,-3,15,8,35950,-50,31,127,0,0,3801,0,0,13857,4847,57,19250,-4,0,0,0,194885,0
194908,46,-2023,360,-60,-7,-10,14219,-4,3,48,8,35964,-48,31,127,0,0,3804,0,0,13857,4847,57,19260,-4,0,0,0,194885,0
194918,32,-2031,365,-52,-2,-16,14221,7,3,91,24,35968,-41,31,127,0,0,3806,32,0,13857,4847,57,19270,-4,0,0,0,194916,0
194928,25,-2022,364,-51,-2,-24,14222,-6,2,116,24,35969,-52,31,127,0,0,3803,5,0,13857,4847,57,19280,-4,0,0,0,194932,0
194938,36,-2021,376,-56,-9,-28,14221,-1,-7,67,24,35956,-59,30,127,0,0,3803,16,0,13857,4847,57,19290,-4,0,0,0,194932,0
194948,48,-2026,382,-58,-1,-36,14223,5,5,98,24,35956,-64,31,127,0,0,3803,-27,0,13857,4847,57,19300,-4,0,0,0,194932,0
194958,33,-2017,374,-59,-14,-36,14222,-5,-1,84,24,35962,-55,31,127,0,0,3803,0,0,13857,4847,57,19310,-4,0,0,0,195010,0
194968,51,-2027,366,-62,-10,-39,14225,10,-5,101,24,35968,-45,31,127,0,0,3803,-27,0,13857,4847,57,19320,-4,0,0,0,195010,0
194978,36,-2022,356,-59,-3,-42,14225,10,2,122,24,35965,-53,31,127,0,0,3803,-43,0,13857,4847,57,19330,-4,0,0,0,195025,0
194988,44,-2028,353,-55,-15,-41,14223,9,0,121,24,35954,-42,30,127,0,0,3803,-32,0,13857,4847,57,19340,-4,0,0,0,195025,0
194998,32,-2016,345,-50,-4,-33,14224,4,3,92,48,35953,-39,30,127,0,0,3805,10,0,13857,4847,57,19350,-4,0,0,0,195025,0
195008,58,-2017,345,-45,-3,-27,14224,-3,3,78,24,35953,-32,31,127,0,0,3803,10,0,13857,4847,57,19360,-4,0,0,0,195025,0
195018,45,-2027,354,-34,-1,-22,14225,7,6,94,24,35950,-37,30,127,0,0,3803,-27,0,13857,4847,57,19370,-4,0,0,0,195025,0
195028,47,-2017,354,-38,-6,-21,14225,7,3,117,24,35949,-46,31,127,0,0,3806,-10,0,13857,4847,57,19380,-4,0,0,0,195025,0
195038,70,-2022,359,-39,-11,0,14224,-2,-2,104,48,35941,-47,30,127,0,0,3805,43,0,13857,4847,57,19390,-4,0,0,0,195025,0
195048,62,-2023,369,-36,-7,7,14226,1,7,138,40,35940,-34,30,127,0,0,3805,0,0,13857,4847,57,19400,-4,0,0,0,195025,0
195058,37,-2025,361,-36,-12,8,14228,11,11,191,112,35946,-34,30,127,0,0,3805,0,0,13857,4847,57,19410,-4,0,0,0,195057,0
195068,50,-2027,356,-32,-6,10,14231,2,1,215,80,35948,-44,30,127,0,0,3813,60,0,13857,4847,57,19420,-4,0,0,0,195057,0
195078,41,-2019,354,-26,-8,1,14238,15,10,294,88,35952,-32,30,127,0,0,3812,0,0,13857,4847,57,19430,-4,0,0,0,195057,0
195088,58,-2020,355,-24,5,-2,14244,3,2,248,80,35954,-42,31,127,0,0,3812,27,0,13857,4847,57,19440,-4,0,0,0,195072,0
195098,39,-2025,362,-23,1,5,14248,16,-5,332,112,35957,-61,30,127,0,0,3813,-27,0,13857,4847,57,19450,-4,0,0,0,195088,0
195108,52,-2020,363,-24,-2,4,14273,67,48,183,64,35957,-70,31,127,0,0,3816,10,0,13857,4847,57,19460,-4,0,0,0,195104,0
195118,52,-2022,369,-25,-3,16,14289,17,23,134,32,35955,-46,31,127,0,0,3816,0,0,13857,4847,57,19470,-4,0,0,0,195104,0
195128,42,-2024,370,-27,1,7,14286,-3,-62,174,88,35958,-28,30,127,0,0,3817,27,0,13857,4847,57,19480,-4,0,0,0,195119,0
195138,46,-2020,360,-25,-1,13,14291,6,-16,185,32,35956,-35,30,127,0,0,3819,-27,0,13857,4847,57,19490,-4,0,0,0,195119,0
195148,38,-2021,366,-24,-4,10,14291,11,7,264,96,35960,-50,31,127,0,0,3819,-10,0,13857,4847,57,19500,-4,0,0,0,195197,0
195158,56,-2021,363,-20,-1,19,14302,23,17,267,80,35950,-58,30,127,0,0,3826,21,0,13857,4847,57,19510,-4,0,0,0,195197,0
195168,45,-2016,355,-22,-11,23,14316,53,27,290,48,35949,-40,30,127,0,0,3826,-5,0,13857,4847,57,19520,-4,0,0,0,195197,0
195178,23,-2024,362,-18,7,15,14343,66,42,94,16,35942,-32,31,127,0,0,3828,16,0,13857,4847,57,19530,-4,0,0,0,195197,0
195188,48,-2028,368,-20,-8,23,14353,1,-18,68,24,35942,-27,30,127,0,0,3827,0,0,13857,4847,57,19540,-4,0,0,0,195213,0
195198,11,-2016,363,-21,2,9,14353,16,-52,175,72,35942,-24,31,127,0,0,3832,21,0,13857,4847,57,19550,-4,0,0,0,195213,0
195208,45,-2024,367,-15,-3,6,14364,9,14,168,48,35939,-20,31,127,0,0,3832,0,0,13857,4847,57,19560,-4,0,0,0,195213,0
195218,47,-2024,366,-19,-2,-5,14365,-4,-11,202,72,35942,-19,31,127,0,0,3837,76,0,13857,4847,57,19570,-4,0,0,0,195213,0
195228,20,-2029,372,-16,6,-5,14377,28,8,203,24,35960,-11,31,127,0,0,3838,38,0,13857,4847,57,19580,-4,0,0,0,195213,0
195238,17,-2025,368,-24,-2,-9,14392,47,32,175,40,35967,-26,30,127,0,0,3836,0,0,13857,4847,57,19590,-4,0,0,0,195229,0
195248,33,-2021,377,-20,-1,-10,14407,8,7,10,8,35974,-20,30,127,0,0,3836,0,0,13857,4847,57,19600,-4,0,0,0,195244,0
195258,10,-2021,374,-25,-4,-26,14405,-2,-36,71,16,35956,-22,31,127,0,0,3836,-5,0,13857,4847,57,19610,-4,0,0,0,195275,0
195268,26,-2024,377,-26,0,-35,14404,-15,-24,42,16,35952,5,31,127,0,0,3836,0,0,13857,4847,57,19620,-4,0,0,0,195291,0
195278,11,-2017,375,-32,0,-41,14405,-2,1,37,16,35948,10,31,127,0,0,3836,0,0,13857,4847,57,19630,-4,0,0,0,195291,0
195288,26,-2022,381,-31,2,-45,14405,9,-1,46,16,35960,3,30,127,0,0,3836,0,0,13857,4847,57,19640,-4,0,0,0,195291,0
195298,71,-2019,374,-29,-3,-47,14403,-3,-4,27,16,35961,4,30,127,0,0,3836,27,0,13857,4847,57,19650,-4,0,0,0,195291,0
195308,66,-2022,371,-33,-3,-39,14407,0,-3,43,8,35969,12,31,127,0,0,3836,0,0,13857,4847,57,19660,-4,0,0,0,195291,0
195318,55,-2010,367,-35,-2,-32,14404,-3,2,42,16,35968,9,31,127,0,0,3836,0,0,13857,4847,57,19670,-4,0,0,0,195322,0
195328,36,-2012,371,-39,-11,-32,14404,-8,0,-14,-8,35965,2,31,127,0,0,3834,10,0,13857,4847,57,19680,-4,0,0,0,195322,0
195338,5,-2033,365,-37,-5,-37,14406,11,-3,9,8,35953,-2,31,127,0,0,3836,-10,0,13857,4847,57,19690,-4,0,0,0,195338,0
195348,3,-2026,365,-37,-14,-42,14404,-7,2,47,16,35941,-1,31,127,0,0,3833,-32,0,13857,4847,57,19700,-4,0,0,0,195354,0
195358,38,-2032,378,-34,-4,-62,14400,-22,-10,-37,-24,35937,-1,30,127,0,0,3838,38,0,13857,4847,57,19710,-4,0,0,0,195354,0
195368,15,-2030,380,-40,-4,-60,14403,-11,-3,-27,-8,35946,0,31,127,0,0,3837,65,0,13857,4847,57,19720,-4,0,0,0,195369,0
195378,30,-2030,397,-53,-7,-60,14405,3,12,24,-8,35941,10,31,127,0,0,3834,-32,0,13857,4847,57,19730,-4,0,0,0,195369,0
195388,15,-2032,389,-56,-17,-56,14401,-5,-8,-71,24,35947,9,30,127,0,0,3833,38,0,13857,4847,57,19740,-4,0,0,0,195369,0
195398,43,-2023,387,-60,-12,-66,14407,9,12,-18,8,35940,2,30,127,0,0,3833,-32,0,13857,4847,57,19750,-4,0,0,0,195416,0
195408,5,-2020,382,-54,-15,-59,14400,-7,4,-80,-24,35944,2,30,127,0,0,3835,38,0,13857,4847,57,19760,-4,0,0,0,195416,0
195418,35,-2020,371,-55,-13,-70,14403,0,0,-51,-8,35937,11,30,127,0,0,3830,-32,0,13857,4847,57,19770,-4,0,0,0,195416,0
195428,48,-2026,355,-56,-14,-69,14400,-3,5,-109,0,35934,7,31,127,0,0,3830,0,0,13857,4847,57,19780,-4,0,0,0,195432,0
195438,120,-2002,357,-61,-2,-78,14401,-8,-3,-115,-24,35941,7,30,127,0,0,3832,-5,0,13857,4847,57,19790,-4,0,0,0,195432,0
195448,91,-2046,357,-59,-22,-79,14400,2,8,-147,-48,35949,-8,31,127,0,0,3833,10,0,13857,4847,57,19800,-4,0,0,0,195432,0
195458,643,-2115,205,-146,11,-511,14402,6,-3,-173,-32,35954,-4,30,127,0,0,3825,-43,0,13857,4847,57,19810,-4,0,0,0,195463,0
195468,245,-1855,228,-184,125,-884,14394,-32,-10,-375,-272,35944,-10,30,127,0,0,3797,-362,0,13857,4847,57,19820,-4,0,0,0,195463,0
195478,220,-1922,471,-174,-38,-241,14325,-196,-131,-529,-344,35936,-4,31,127,0,0,3784,-115,0,13857,4847,57,19830,-4,0,0,0,195463,0
195488,314,-2149,442,-74,-69,-91,14220,-238,-201,-271,-152,35935,-4,31,127,0,0,3785,0,0,13857,4847,57,19840,-4,0,0,0,195478,0
195498,499,-2079,154,-156,-42,-478,14160,-68,14,-102,-32,35937,-17,30,127,0,0,3779,-71,0,13857,4847,57,19850,-4,0,0,0,195494,0
195508,186,-1956,160,-179,35,-785,14155,-12,206,-451,-264,35939,-38,31,127,0,0,3757,-285,0,13857,4847,57,19860,-4,0,0,0,195494,0
195518,180,-2002,374,-220,23,-562,14103,-161,16,-656,-416,35934,-47,30,127,0,0,3736,-241,0,13857,4847,57,19870,-4,0,0,0,195510,0
195528,421,-2111,389,-179,-44,-439,14001,-231,-200,-429,-328,35936,-55,30,127,0,0,3728,-104,0,13857,4847,57,19880,-4,0,0,0,195525,0
195538,373,-2068,145,-201,-42,-629,13912,-182,-71,-368,-272,35937,-65,30,127,0,0,3711,-175,0,13857,4847,57,19890,-4,0,0,0,195525,0
195548,285,-2076,-42,-208,34,-719,13825,-198,37,-368,-304,35934,-76,30,127,0,0,3694,-170,0,13857,4847,57,19900,-4,0,0,0,195525,0
195558,344,-2034,310,-67,84,-594,13739,-189,7,-433,-296,35945,-66,30,127,0,0,3682,-60,0,13857,4847,57,19910,-4,0,0,0,195557,0
195568,410,-2017,540,-70,5,-437,13653,-193,-2,-354,-200,35951,-55,30,127,0,0,3672,-27,0,13857,4847,57,19920,-4,0,0,0,195557,0
195578,483,-1941,398,-153,-57,-318,13590,-108,42,-265,-120,35944,-38,30,127,0,0,3678,27,0,13857,4847,57,19930,-4,0,0,0,195557,0
195588,406,-2034,137,-154,-43,-326,13581,28,154,-215,-56,35948,-30,30,127,0,0,3676,21,0,13857,4847,57,19940,-4,0,0,0,195603,0
195598,519,-2069,-8,-1,18,-302,13583,-9,141,-276,-56,35954,-45,31,127,0,0,3672,-10,0,13857,4847,57,19950,-4,0,0,0,195603,0
195608,588,-2003,53,73,-13,-201,13581,0,-1,-310,-56,35956,-42,30,127,0,0,3676,38,0,13857,4847,57,19960,-4,0,0,0,195603,0
195618,453,-2094,263,101,-55,-67,13582,-7,-2,-240,-80,35952,-48,31,127,0,0,3677,21,0,13857,4847,57,19970,-4,0,0,0,195603,0
195628,240,-2101,396,80,-37,-73,13582,-7,2,-216,-56,35952,-17,30,127,0,0,3679,32,0,13857,4847,57,19980,-4,0,0,0,195619,0
195638,181,-2107,471,3,-24,-134,13585,4,0,-144,-16,35961,9,30,127,0,0,3680,60,0,13857,4847,57,19990,-4,0,0,0,195635,0
195648,192,-2043,471,-49,-58,-182,13589,1,5,-106,24,35962,15,31,127,0,0,3681,54,0,13857,4847,57,20000,-4,0,0,0,195635,0
195658,111,-2059,433,-110,-87,-218,13596,21,3,-5,-40,35954,10,30,127,0,0,3683,-38,0,13857,4847,57,20010,-4,0,0,0,195650,0
195668,-24,-2013,418,-144,-91,-271,13592,-6,-14,-34,-8,35949,-7,30,127,0,0,3682,0,0,13857,4847,57,20020,-4,0,0,0,195650,0
195678,-12,-2059,381,-189,-73,-372,13595,1,-8,-29,-8,35949,-11,30,127,0,0,3682,-16,0,13857,4847,57,20030,-4,0,0,0,195697,0
195688,30,-2081,401,-206,-55,-421,13594,4,2,-36,16,35951,-13,31,127,0,0,3674,-49,0,13857,4847,57,20040,-4,0,0,0,195744,0
195698,67,-2082,394,-248,-51,-483,13593,-1,-5,-103,-32,35945,-17,30,127,0,0,3683,-21,0,13857,4847,57,20050,-4,0,0,0,195744,0
195708,37,-2184,362,-279,9,-510,13593,7,-1,-78,-32,35937,-17,31,127,0,0,3680,5,0,13857,4847,57,20060,-4,0,0,0,195744,0
195718,-152,-1937,373,-312,94,-601,13586,-29,-11,-246,-112,35940,-12,31,127,0,0,3671,-49,0,13857,4847,57,20070,-4,0,0,0,195744,0
195728,202,-1906,272,-334,117,-792,13578,0,-22,-344,-120,35944,-13,31,127,0,0,3662,-126,0,13857,4847,57,20080,-4,0,0,0,195744,0
195738,274,-2046,269,-296,27,-820,13566,-51,-2,-574,-240,35945,-22,31,127,0,0,3656,-76,0,13857,4847,57,20090,-4,0,0,0,195744,0
195748,285,-2023,331,-299,26,-725,13517,-146,-80,-511,-296,35940,-33,31,127,0,0,3643,-60,0,13857,4847,57,20100,-4,0,0,0,195744,0
195758,341,-1951,357,-295,-27,-623,13432,-190,-145,-304,-152,35944,-22,31,127,0,0,3634,-54,0,13857,4847,57,20110,-4,0,0,0,195744,0
195768,373,-1938,298,-273,-43,-567,13374,-107,-21,-257,-72,35958,-25,31,127,0,0,3636,16,0,13857,4847,57,20120,-4,0,0,0,195760,0
195778,456,-1993,262,-257,-51,-453,13356,-30,132,-201,-24,35978,-32,31,127,0,0,3633,16,0,13857,4847,57,20130,-4,0,0,0,195791,0
195788,434,-1963,249,-229,-54,-369,13350,-20,96,-195,-16,35975,-54,31,127,0,0,3629,0,0,13857,4847,57,20140,-4,0,0,0,195822,0
195798,390,-1974,246,-180,-44,-313,13346,-9,22,-157,-32,35960,-62,30,127,0,0,3630,-27,0,13857,4847,57,20150,-4,0,0,0,195822,0
195808,354,-2047,241,-177,-17,-270,13344,8,3,-107,0,35939,-58,30,127,0,0,3633,-16,0,13857,4847,57,20160,-4,0,0,0,195822,0
195818,302,-2045,236,-162,4,-243,13343,2,11,-106,0,35947,-51,31,127,0,0,3633,5,0,13857,4847,57,20170,-4,0,0,0,195822,0
195828,269,-2043,255,-153,7,-233,13342,-5,4,-128,0,35947,-57,30,127,0,0,3636,54,0,13857,4847,57,20180,-4,0,0,0,195822,0
195838,237,-2049,291,-137,20,-197,13343,1,4,-89,0,35950,-84,31,127,0,0,3636,49,0,13857,4847,57,20190,-4,0,0,0,195838,0
195848,177,-2043,327,-136,14,-186,13344,1,4,-24,-8,35945,-82,30,127,0,0,3636,0,0,13857,4847,57,20200,-4,0,0,0,195838,0
195858,146,-2050,340,-156,-5,-163,13345,6,-1,45,48,35960,-49,30,127,0,0,3644,54,0,13857,4847,57,20210,-4,0,0,0,195853,0
195868,177,-2038,338,-175,-5,-170,13362,52,30,223,80,35963,-58,31,127,0,0,3647,21,0,13857,4847,57,20220,-4,0,0,0,195853,0
195878,126,-2001,348,-187,-2,-223,13404,89,81,97,48,35953,-64,30,127,0,0,3651,16,0,13857,4847,57,20230,-4,0,0,0,195869,0
195888,148,-2012,372,-194,12,-281,13430,54,14,118,16,35952,-66,30,127,0,0,3660,0,0,13857,4847,57,20240,-4,0,0,0,195916,0
195898,200,-1995,389,-231,-4,-354,13452,33,-42,11,0,35949,-73,31,127,0,0,3656,-5,0,13857,4847,57,20250,-4,0,0,0,195916,0
195908,231,-2005,380,-266,-24,-363,13449,-11,-45,16,-8,35951,-56,30,127,0,0,3656,-16,0,13857,4847,57,20260,-4,0,0,0,195916,0
195918,268,-2003,368,-276,-79,-346,13449,-15,-41,-25,0,35945,-60,31,127,0,0,3652,-32,0,13857,4847,57,20270,-4,0,0,0,195916,0
195928,287,-1994,346,-272,-117,-343,13450,3,3,-42,24,35944,-49,31,127,0,0,3655,-5,0,13857,4847,57,20280,-4,0,0,0,195932,0
195938,293,-1993,328,-281,-146,-326,13450,-9,-3,-29,-24,35950,-42,31,127,0,0,3657,-5,0,13857,4847,57,20290,-4,0,0,0,195932,0
195948,293,-1991,297,-273,-143,-311,13448,-5,-6,-80,-24,35961,-49,31,127,0,0,3654,10,0,13857,4847,57,20300,-4,0,0,0,195932,0
195958,326,-1973,243,-263,-138,-282,13448,-8,-1,-122,-48,35967,-49,31,127,0,0,3658,16,0,13857,4847,57,20310,-4,0,0,0,195963,0
195968,310,-1975,244,-249,-130,-271,13450,15,10,-38,-24,35964,-51,31,127,0,0,3654,-10,0,13857,4847,57,20320,-4,0,0,0,195963,0
195978,351,-1984,227,-249,-104,-248,13447,-4,3,-74,0,35957,-37,31,127,0,0,3656,54,0,13857,4847,57,20330,-4,0,0,0,195963,0
195988,370,-2007,249,-252,-93,-224,13452,0,2,-34,-8,35944,-46,31,127,0,0,3656,0,0,13857,4847,57,20340,-4,0,0,0,196010,0
195998,296,-2004,267,-245,-87,-204,13451,3,1,-13,-8,35947,-39,31,127,0,0,3656,0,0,13857,4847,57,20350,-4,0,0,0,196010,0
196008,279,-1995,267,-242,-87,-205,13451,0,-10,-16,-8,35950,-52,31,127,0,0,3656,0,0,13857,4847,57,20360,-4,0,0,0,196010,0
196018,273,-2016,272,-242,-91,-207,13451,0,-1,-19,16,35949,-38,30,127,0,0,3655,5,0,13857,4847,57,20370,-4,0,0,0,196025,0
196028,286,-2007,270,-242,-88,-213,13450,-6,-2,-20,24,35944,-42,30,127,0,0,3655,5,0,13857,4847,57,20380,-4,0,0,0,196025,0
196038,312,-1992,249,-266,-77,-217,13447,-25,-15,-137,-24,35953,-48,31,127,0,0,3654,32,0,13857,4847,57,20390,-4,0,0,0,196025,0
196048,267,-1988,261,-272,-82,-219,13448,22,-5,-90,-48,35961,-59,30,127,0,0,3651,-49,0,13857,4847,57,20400,-4,0,0,0,196025,0
196058,282,-1987,250,-272,-102,-228,13445,-5,2,-116,-40,35968,-58,30,127,0,0,3651,-43,0,13857,4847,57,20410,-4,0,0,0,196119,0
196068,315,-1990,224,-273,-104,-223,13446,0,-6,-179,-16,35961,-52,31,127,0,0,3650,5,0,13857,4847,57,20420,-4,0,0,0,196119,0
196078,291,-1943,194,-273,-90,-246,13443,-15,1,-237,-80,35956,-40,30,127,0,0,3647,-38,0,13857,4847,57,20430,-4,0,0,0,196135,0
196088,319,-1943,150,-282,-75,-259,13431,-36,-24,-342,-128,35950,-43,31,127,0,0,3640,-71,0,13857,4847,57,20440,-4,0,0,0,196135,0
196098,348,-1956,131,-291,-81,-217,13401,-95,-60,-341,-96,35954,-45,30,127,0,0,3635,0,0,13857,4847,57,20450,-4,0,0,0,196135,0
196108,331,-1969,136,-288,-68,-209,13370,-36,-31,-243,-80,35946,-46,30,127,0,0,3634,-32,0,13857,4847,57,20460,-4,0,0,0,196135,0
196118,338,-1993,156,-293,-41,-187,13358,-22,53,-265,-104,35940,-45,31,127,0,0,3633,-10,0,13857,4847,57,20470,-4,0,0,0,196135,0
196128,309,-2001,202,-288,-24,-189,13335,-59,3,-204,-80,35939,-44,31,127,0,0,3627,5,0,13857,4847,57,20480,-4,0,0,0,196135,0
196138,286,-1997,243,-298,-7,-241,13318,-18,-5,-239,-112,35940,-62,30,127,0,0,3621,-65,0,13857,4847,57,20490,-4,0,0,0,196135,0
196148,285,-2056,263,-329,-14,-238,13312,-20,39,-410,-152,35948,-82,30,127,0,0,3613,-87,0,13857,4847,57,20500,-4,0,0,0,196135,0
196158,259,-2097,323,-322,-21,-223,13287,-79,-30,-395,-144,35951,-101,31,127,0,0,3612,-54,0,13857,4847,57,20510,-4,0,0,0,196135,0
196168,261,-2036,320,-324,-56,-241,13250,-59,-61,-297,-96,35956,-107,31,127,0,0,3613,16,0,13857,4847,57,20520,-4,0,0,0,196166,0
196178,253,-2043,308,-366,-91,-276,13252,13,69,-393,-152,35953,-114,31,127,0,0,3609,-27,0,13857,4847,57,20530,-4,0,0,0,196166,0
196188,233,-2068,304,-390,-111,-313,13247,-6,55,-458,-136,35951,-112,30,127,0,0,3609,0,0,13857,4847,57,20540,-4,0,0,0,196166,0
196198,192,-2077,298,-420,-126,-388,13240,-20,-13,-478,-168,35957,-113,30,127,0,0,3604,-10,0,13857,4847,57,20550,-4,0,0,0,196197,0
196208,167,-2059,294,-448,-117,-451,13215,-66,-40,-408,-168,35956,-128,30,127,0,0,3593,-93,0,13857,4847,57,20560,-4,0,0,0,196197,0
196218,146,-2102,287,-485,-133,-533,13177,-70,-54,-408,-160,35954,-136,31,127,0,0,3590,-21,0,13857,4847,57,20570,-4,0,0,0,196197,0
196228,180,-2166,295,-507,-139,-586,13135,-103,-20,-352,-152,35954,-124,31,127,0,0,3580,-49,0,13857,4847,57,20580,-4,0,0,0,196244,0
196238,140,-2114,308,-542,-132,-703,13097,-89,0,-360,-144,35954,-100,31,127,0,0,3573,-27,0,13857,4847,57,20590,-4,0,0,0,196244,0
196248,160,-2101,299,-588,-116,-801,13055,-80,-2,-310,-168,35953,-79,30,127,0,0,3566,-93,0,13857,4847,57,20600,-4,0,0,0,196244,0
196258,158,-2136,304,-646,-118,-863,13029,-69,24,-462,-208,35949,-71,31,127,0,0,3554,-76,0,13857,4847,57,20610,-4,0,0,0,196244,0
196268,159,-2142,339,-659,-114,-933,12984,-92,-10,-465,-248,35960,-52,30,127,0,0,3540,-120,0,13857,4847,57,20620,-4,0,0,0,196260,0
196278,203,-2175,330,-719,-148,-1042,12917,-154,-70,-379,-184,35966,-35,30,127,0,0,3531,-109,0,13857,4847,57,20630,-4,0,0,0,196291,0
196288,140,-2120,372,-741,-159,-1144,12848,-127,-30,-319,-176,35963,-16,30,127,0,0,3517,-137,0,13857,4847,57,20640,-4,0,0,0,196291,0
196298,243,-2028,358,-920,-150,-1260,12804,-82,58,-399,-224,35950,7,31,127,0,0,3511,-120,0,13857,4847,57,20650,-4,0,0,0,196291,0
196308,223,-2128,425,-1040,-268,-1253,12754,-133,23,-423,-208,35934,7,31,127,0,0,3495,-87,0,13857,4847,57,20660,-4,0,0,0,196306,0
196318,-28,-2293,431,-1064,-473,-1420,12681,-169,-52,-334,-176,35936,-9,30,127,0,0,3484,-120,0,13857,4847,57,20670,-4,0,0,0,196306,0
196328,-201,-2321,311,-1035,-500,-1659,12624,-124,-19,-362,-176,35937,-25,30,127,0,0,3477,-93,0,13857,4847,57,20680,-4,0,0,0,196322,0
196338,-291,-2329,310,-1067,-447,-2069,12574,-120,36,-419,-248,35937,-30,31,127,0,0,3456,-186,0,13857,4847,57,20690,-4,0,0,0,196322,0
196348,-271,-2385,342,-1121,-439,-2303,12502,-172,-34,-436,-304,35940,-42,31,127,0,0,3439,-203,0,13857,4847,57,20700,-4,0,0,0,196353,0
196358,-205,-2561,291,-1193,-472,-2500,12414,-201,-82,-418,-304,35940,-56,31,127,0,0,3422,-126,0,13857,4847,57,20710,-4,0,0,0,196353,0
196368,-134,-2674,279,-1233,-497,-2636,12327,-185,-30,-363,-200,35939,-87,31,127,0,0,3412,-65,0,13857,4847,57,20720,-4,0,0,0,196353,0
196378,-215,-2714,325,-1166,-566,-2912,12256,-124,30,-308,-144,35934,-91,31,127,0,0,3406,-60,0,13857,4847,57,20730,-4,0,0,0,196400,0
196388,-128,-2690,229,-1121,-613,-3109,12226,-35,108,-350,-88,35937,-70,30,127,0,0,3406,5,0,13857,4847,57,20740,-4,0,0,0,196400,0
196398,-156,-2537,253,-1070,-661,-3326,12226,7,142,-413,-88,35940,-64,30,127,0,0,3410,10,0,13857,4847,57,20750,-4,0,0,0,196400,0
196408,98,-2456,226,-1069,-717,-3396,12235,44,75,-170,24,35939,-59,30,127,0,0,3429,115,0,13857,4847,57,20760,-4,0,10,0,196400,0
196418,383,-2383,214,-1117,-701,-3408,12268,75,58,133,96,35944,-48,30,127,0,0,3446,203,0,13857,4847,57,20770,-4,0,12,0,196400,0
196428,581,-2310,106,-1156,-679,-3369,12331,174,98,264,168,35954,-57,30,127,0,0,3469,258,0,13857,4847,57,20780,-4,0,13,0,196525,0
196438,784,-2173,56,-1165,-565,-3161,12411,190,98,343,320,35954,-58,30,127,0,0,3493,302,0,13857,4847,57,20790,-4,0,16,0,196525,0
196448,512,-1885,163,-961,-164,-2839,12520,250,95,299,304,35948,-63,30,127,0,0,3506,170,0,13857,4847,57,20800,-4,0,17,0,196525,0
196458,177,-1441,122,-537,397,-1930,12617,187,33,186,64,35933,-69,31,127,0,0,3505,-21,0,13857,4847,57,20810,-4,0,20,0,196556,0
196468,79,-1138,175,-379,600,-1546,12651,0,-147,-135,-136,35928,-68,30,127,0,0,3479,-280,0,13857,4847,57,20820,-4,0,22,0,196556,0
196478,-230,-905,341,-77,454,-852,12581,-198,-327,-391,-416,35930,-70,31,127,0,0,3434,-477,0,13857,4847,57,20830,-4,0,26,0,196572,0
196488,-203,-1074,303,117,325,-186,12445,-339,-318,-468,-656,35937,-62,30,127,0,0,3383,-455,0,13857,4847,57,20840,-4,0,29,0,196572,0
196498,-126,-1303,240,531,235,975,12268,-404,-212,-372,-696,35934,-69,30,127,0,0,3349,-307,0,13857,4847,57,20850,-4,0,33,0,196572,0
196508,-154,-1311,269,776,222,1688,12085,-397,-82,-337,-560,35934,-76,31,127,0,0,3327,-247,0,13857,4847,57,20860,-4,0,36,0,196572,0
196518,-219,-1328,394,1071,198,2542,11918,-367,9,-307,-432,35929,-61,30,127,0,0,3301,-247,0,13857,4847,57,20870,-4,0,41,0,196572,0
196528,-216,-1425,411,1222,175,3025,11765,-319,52,-338,-448,35930,-32,30,127,0,0,3277,-296,0,13857,4847,57,20880,-4,0,45,0,196588,0
196538,-162,-1635,380,1426,147,3766,11627,-300,55,-383,-472,35931,-40,31,127,0,0,3251,-302,0,13857,4847,57,20890,-4,0,50,0,196588,0
196548,-103,-1726,365,1567,135,4234,11490,-308,21,-338,-408,35944,-60,30,127,0,0,3235,-164,0,13857,4847,57,20900,-4,0,54,0,196588,0
196558,-102,-1789,348,1790,134,4823,11368,-271,22,-344,-328,35951,-70,30,127,0,0,3223,-131,0,13857,4847,57,20910,-4,0,60,0,196588,0
196568,-60,-1860,368,1912,164,5118,11259,-200,54,-277,-200,35954,-72,31,127,0,0,3211,-76,0,13857,4847,57,20920,-4,0,64,0,196588,0
196578,-46,-2013,430,2039,203,5533,11184,-149,100,-263,-120,35944,-34,31,127,0,0,3208,-21,0,13857,4847,57,20930,-4,0,71,0,196588,0
196588,-61,-2097,507,2106,278,5689,11138,-72,127,-125,-8,35951,-23,30,127,0,0,3213,71,0,13857,4847,57,20940,-4,0,75,0,196588,0
196598,-112,-2171,485,2177,324,5910,11134,3,139,-3,24,35967,-31,30,127,0,0,3215,109,0,13857,4847,57,20950,-4,0,81,0,196588,0
196608,34,-2237,476,2228,416,6060,11148,44,112,226,184,35983,-49,30,127,0,0,3236,236,0,13857,4847,57,20960,-4,0,85,0,196619,0
196618,-52,-2267,462,2328,471,6249,11215,193,129,378,328,35971,-53,30,127,0,0,3266,307,0,13857,4847,57,20970,-4,0,91,0,196619,0
196628,-63,-2271,465,2426,523,6245,11341,306,219,360,440,35946,-51,31,127,0,0,3304,346,0,13857,4847,57,20980,-4,0,95,3,196619,0
196638,-36,-2242,423,2537,635,6177,11500,376,184,319,496,35935,-26,31,127,0,0,3336,318,0,13857,4847,57,20990,-4,0,100,1,196619,0
196648,-34,-2232,421,2575,728,6183,11665,367,71,269,440,35945,-27,30,127,0,0,3362,291,0,13857,4847,57,21000,-4,0,104,1,196650,0
196658,-47,-2235,461,2571,821,6211,11820,328,-3,255,368,35948,-35,30,127,0,0,3378,203,0,13857,4847,57,21010,-4,0,109,0,196666,0
196668,-79,-2258,482,2540,860,6202,11960,292,-49,227,312,35947,-62,30,127,0,0,3403,186,0,13857,4847,57,21020,-4,0,113,0,196666,0
196678,-118,-2295,425,2471,860,6123,12083,261,-62,290,288,35944,-71,31,127,0,0,3423,186,0,13857,4847,57,21030,-4,0,117,0,196666,0
196688,-59,-2285,394,2410,817,6019,12201,245,-41,247,208,35946,-59,30,127,0,0,3432,60,0,13857,4847,57,21040,-4,0,120,0,196697,0
196698,-92,-2248,388,2313,693,5834,12291,185,-63,128,88,35957,-36,30,127,0,0,3432,-76,0,13857,4847,57,21050,-4,0,125,-1,196697,0
196708,76,-2239,406,2280,522,5742,12319,-16,-164,-74,-8,35954,-44,31,127,0,0,3436,-10,0,13857,4847,57,21060,-4,0,127,-1,196697,0
196718,-13,-2105,312,2303,110,5471,12307,14,-222,110,16,35945,-52,30,127,0,0,3433,-87,0,13857,4847,57,21070,-4,0,131,-1,196697,0
196728,71,-2031,198,2305,-196,5245,12308,-3,-41,0,24,35942,-59,30,127,0,0,3433,-27,0,13857,4847,57,21080,-4,0,133,-1,196728,0
196738,145,-1965,126,2224,-561,4783,12308,3,17,-8,-8,35944,-43,30,127,0,0,3431,-54,0,13857,4847,57,21090,-4,0,136,0,196728,0
196748,-21,-1997,134,2148,-733,4359,12300,-34,-17,-221,-128,35944,-30,31,127,0,0,3417,-126,0,13857,4847,57,21100,-4,0,137,0,196728,0
196758,-128,-2129,95,1924,-815,3642,12267,-91,-61,-495,-336,35934,-37,30,127,0,0,3388,-280,0,13857,4847,57,21110,-4,0,139,-1,196744,0
196768,-97,-2197,93,1714,-731,3218,12177,-233,-147,-533,-416,35936,-34,30,127,0,0,3360,-241,0,13857,4847,57,21120,-4,0,140,-1,196759,0
196778,-82,-2172,75,1302,-483,2516,12045,-287,-193,-373,-440,35938,-24,31,127,0,0,3340,-181,0,13857,4847,57,21130,-4,0,141,-1,196759,0
196788,-56,-2087,11,1013,-298,1989,11914,-295,-78,-355,-432,35945,-4,31,127,0,0,3316,-230,0,13857,4847,57,21140,-4,0,141,-1,196775,0
196798,-2,-1974,-57,653,34,1110,11784,-281,0,-416,-488,35950,-14,31,127,0,0,3282,-269,0,13857,4847,57,21150,-4,0,141,-1,196853,0
196808,59,-1942,-76,437,308,565,11647,-301,-9,-451,-592,35956,-40,31,127,0,0,3244,-401,0,13857,4847,57,21160,-4,0,141,-1,196853,0
196818,146,-1866,-12,116,703,-98,11494,-354,-43,-467,-616,35956,-78,31,127,0,0,3210,-296,0,13857,4847,57,21170,-4,0,141,-2,196853,0
196828,225,-1806,24,-81,934,-511,11337,-350,-48,-457,-600,35952,-88,30,127,0,0,3191,-230,0,13857,4847,57,21180,-4,0,140,-2,196869,0
196838,366,-1729,91,-334,1251,-1181,11181,-324,-5,-386,-504,35944,-64,30,127,0,0,3162,-241,0,13857,4847,57,21190,-4,0,139,-3,196869,0
196848,439,-1829,93,-452,1387,-1598,11034,-318,23,-366,-464,35943,-42,31,127,0,0,3149,-181,0,13857,4847,57,21200,-4,0,138,-4,196869,0
196858,478,-7022,1708,-928,1427,-1264,10926,-151,69,498,912,35944,-30,30,127,0,0,3345,2241,0,13857,4847,57,21210,-4,0,136,-4,196869,0
196868,149,-1638,2836,1018,1116,-1932,11210,892,810,1530,2808,35939,-50,30,127,0,0,3529,1834,0,13857,4847,57,21220,-4,0,135,-5,196869,0
196878,-389,-1949,990,-44,-442,-1991,11763,1291,1309,789,3256,35924,-32,31,127,0,0,3677,1389,0,13857,4847,57,21230,-4,0,132,-5,196869,0
196888,-911,-2297,1266,-142,-420,-1345,12393,1414,639,712,3672,35914,-9,31,127,0,0,3856,1829,0,13857,4847,57,21240,-4,0,130,-5,196869,0
196898,-1035,-1158,-375,-438,-765,-1133,13101,1630,276,943,4448,35921,35,31,127,0,0,4047,2010,0,13857,4847,57,21250,-4,0,128,-6,196900,0
196908,-1033,-1369,-1147,-900,-377,-1569,13918,1869,368,790,4912,35921,55,31,127,0,0,4255,1972,0,13857,4847,57,21260,-4,0,126,-6,196900,0
196918,-827,-2850,-583,-586,19,-2418,14828,2054,387,592,4872,35923,63,31,127,0,0,4417,1554,0,13857,4847,57,21270,-4,0,124,-6,196916,0
196928,-698,-2531,-380,-293,-207,-2732,15754,2009,221,272,4464,35932,55,31,127,0,0,4536,1235,0,13857,4847,57,21280,-4,0,122,-7,196916,0
196938,-488,-2318,95,-418,-287,-2998,16599,1778,-123,178,3776,35942,26,30,127,0,0,4629,922,0,13857,4847,57,21290,-4,0,119,-7,196931,0
196948,-121,-2133,249,-450,-285,-3167,17313,1480,-412,180,3192,35945,-6,30,127,0,0,4701,692,0,13857,4847,57,21300,-4,0,117,-7,196931,0
196958,551,-2164,474,-506,-229,-3431,17911,1244,-471,184,2520,35950,-29,31,127,0,0,4744,390,0,13857,4847,57,21310,-4,0,114,-8,196963,0
196968,649,-2126,805,-357,-265,-3440,18399,996,-430,121,1688,35945,-34,31,127,0,0,4750,0,0,13857,4847,57,21320,-4,0,112,-8,196963,0
196978,712,-2029,1051,-236,-410,-3086,18765,725,-439,62,928,35947,-30,31,127,0,0,4750,0,0,13857,4847,57,21330,-4,0,109,-9,196963,0
196988,591,-2016,1248,-293,-368,-2854,18989,486,-466,118,400,35955,-53,30,127,0,0,4751,27,0,13857,4847,57,21340,-4,0,107,-9,196978,0
196998,374,-1946,1088,-524,-157,-2608,19144,287,-421,79,88,35957,-54,30,127,0,0,4744,-49,0,13857,4847,57,21350,-4,0,104,-10,197009,0
197008,101,-2025,779,-555,-7,-2572,19175,-31,-425,-186,-96,35960,-36,30,127,0,0,4730,-142,0,13857,4847,57,21360,-4,0,102,-10,197009,0
197018,529,-2503,313,-484,114,-2710,19105,-197,-434,-203,-192,35957,-21,31,127,0,0,4698,-318,0,13857,4847,57,21370,-4,0,99,-11,197009,0
197028,108,-1687,144,-321,237,-2942,19010,-234,-221,-414,-640,35952,-5,31,127,0,0,4639,-686,0,13857,4847,57,21380,-4,0,96,-11,197009,0
197038,418,-2005,211,-363,155,-2709,18836,-428,-202,-428,-976,35959,-15,31,127,0,0,4575,-642,0,13857,4847,57,21390,-4,0,93,-12,197041,0
197048,312,-1846,89,-339,61,-2603,18608,-522,-250,-416,-1144,35962,-33,31,127,0,0,4506,-697,0,13857,4847,57,21400,-4,0,91,-12,197041,0
197058,142,-2060,210,-232,-43,-2279,18342,-612,-163,-425,-1376,35961,-44,30,127,0,0,4440,-659,0,13857,4847,57,21410,-4,0,88,-13,197056,0
197068,97,-2066,314,-146,-40,-2127,18043,-674,-135,-382,-1448,35951,-55,30,127,0,0,4380,-571,0,13857,4847,57,21420,-4,0,85,-14,197056,0
197078,-16,-2042,466,-88,-17,-2134,17730,-687,-87,-324,-1488,35949,-55,30,127,0,0,4316,-620,0,13857,4847,57,21430,-4,0,85,-14,197056,0
197088,14,-2015,506,-78,24,-2107,17412,-706,-29,-318,-1464,35953,-53,30,127,0,0,4250,-648,0,13857,4847,57,21440,-4,0,85,-14,197087,0
197098,86,-1943,558,-29,30,-1988,17092,-707,-18,-310,-1448,35944,-52,31,127,0,0,4194,-582,0,13857,4847,57,21450,-4,0,85,-14,197103,0
197108,191,-1919,567,-11,19,-1883,16768,-710,-13,-265,-1384,35942,-51,30,127,0,0,4144,-538,0,13857,4847,57,21460,-4,0,85,-14,197103,0
197118,272,-1892,519,-63,-30,-1741,16459,-674,24,-270,-1280,35938,-40,31,127,0,0,4093,-455,0,13857,4847,57,21470,-4,0,85,-14,197103,0
197128,217,-1880,539,-90,-51,-1643,16158,-652,47,-252,-1168,35950,-33,30,127,0,0,4045,-428,0,13857,4847,57,21480,-4,0,85,-14,197134,0
197138,195,-1911,563,-107,-81,-1526,15874,-605,54,-218,-1048,35948,-35,30,127,0,0,4001,-461,0,13857,4847,57,21490,-4,0,85,-14,197134,0
197148,160,-1952,554,-101,-89,-1480,15613,-561,72,-251,-952,35948,-34,31,127,0,0,3966,-390,0,13857,4847,57,21500,-4,0,85,-14,197134,0
197158,112,-1954,569,-93,-84,-1511,15374,-513,89,-267,-848,35941,-48,31,127,0,0,3924,-395,0,13857,4847,57,21510,-4,0,85,-14,197150,0
197168,113,-1971,580,-103,-88,-1536,15156,-468,82,-349,-832,35945,-37,31,127,0,0,3881,-411,0,13857,4847,57,21520,-4,0,85,-14,197228,0
197178,196,-2008,592,-169,-119,-1594,14949,-469,57,-415,-888,35945,-51,31,127,0,0,3837,-433,0,13857,4847,57,21530,-4,0,85,-14,197244,0
197188,137,-2012,608,-203,-153,-1593,14742,-458,6,-414,-968,35948,-44,31,127,0,0,3797,-450,0,13857,4847,57,21540,-4,0,85,-14,197244,0
197198,130,-2000,629,-251,-163,-1610,14528,-465,-13,-419,-984,35942,-59,31,127,0,0,3756,-373,0,13857,4847,57,21550,-4,0,85,-14,197244,0
197208,143,-1967,615,-293,-175,-1646,14310,-472,-14,-433,-1016,35939,-55,30,127,0,0,3708,-444,0,13857,4847,57,21560,-4,0,85,-14,197244,0
197218,197,-1928,508,-361,-150,-1770,14088,-496,-16,-434,-1088,35935,-44,30,127,0,0,3657,-521,0,13857,4847,57,21570,-4,0,85,-14,197244,0
197228,226,-1906,500,-397,-154,-1817,13855,-519,-37,-460,-1168,35938,-30,31,127,0,0,3610,-494,0,13857,4847,57,21580,-4,0,85,-14,197244,0
197238,241,-1940,513,-435,-166,-1849,13615,-533,-32,-466,-1224,35940,-33,31,127,0,0,3559,-494,0,13857,4847,57,21590,-4,0,85,-14,197244,0
197248,279,-1962,587,-442,-167,-1864,13366,-556,-33,-456,-1280,35939,-34,30,127,0,0,3504,-538,0,13857,4847,57,21600,-4,0,85,-14,197244,0
197258,358,-1967,599,-485,-173,-1933,13107,-569,-41,-450,-1296,35934,-33,30,127,0,0,3448,-554,0,13857,4847,57,21610,-4,0,85,-14,197244,0
197268,370,-1956,585,-538,-187,-1991,12844,-590,-20,-446,-1368,35931,-10,31,127,0,0,3392,-593,0,13857,4847,57,21620,-4,0,85,-14,197259,0
197278,294,-1941,535,-605,-217,-2016,12569,-614,-33,-464,-1408,35946,10,31,127,0,0,3332,-598,0,13857,4847,57,21630,-4,0,85,-14,197291,0
197288,246,-1950,506,-613,-222,-2033,12277,-651,13,-451,-1448,35948,1,31,127,0,0,3269,-620,0,13857,4847,57,21640,-4,0,85,-14,197291,0
197298,261,-1952,547,-650,-192,-2116,11982,-663,-3,-469,-1512,35942,0,30,127,0,0,3204,-653,0,13857,4847,57,21650,-4,0,85,-14,197291,0
197308,334,-1903,593,-708,-184,-2212,11672,-687,-104,-518,-1560,35937,-23,30,127,0,0,3142,-670,0,13857,4847,57,21660,-4,0,85,-14,197291,0
197318,377,-1890,567,-810,-203,-2314,11348,-714,-47,-492,-1600,35944,-49,31,127,0,0,3065,-736,0,13857,4847,57,21670,-4,0,85,-14,197322,0
197328,386,-1963,545,-817,-223,-2336,11020,-727,-37,-481,-1664,35945,-48,30,127,0,0,2993,-758,0,13857,4847,57,21680,-4,0,85,-14,197322,0
197338,446,-1917,556,-823,-254,-2416,10684,-733,-30,-515,-1672,35946,-47,30,127,0,0,2923,-692,0,13857,4847,57,21690,-4,0,85,-14,197353,0
197348,485,-1884,533,-855,-268,-2493,10348,-729,-12,-505,-1680,35941,-31,31,127,0,0,2856,-648,0,13857,4847,57,21700,-4,0,85,-14,197353,0
197358,506,-1924,498,-907,-331,-2510,10016,-716,9,-528,-1688,35938,-14,30,127,0,0,2782,-714,0,13857,4847,57,21710,-4,0,85,-14,197353,0
197368,519,-1979,434,-894,-366,-2460,9687,-729,10,-538,-1688,35939,-40,31,127,0,0,2715,-648,0,13857,4847,57,21720,-4,0,85,-14,197353,0
197378,553,-1923,322,-821,-443,-2394,9356,-721,-1,-465,-1600,35937,-19,31,127,0,0,2660,-576,0,13857,4847,57,21730,-4,0,85,-14,197400,0
197388,591,-1928,297,-740,-529,-2371,9040,-694,30,-481,-1504,35939,-29,31,127,0,0,2597,-538,0,13857,4847,57,21740,-4,0,85,-14,197400,0
197398,729,-2131,441,-568,-660,-2326,8735,-655,46,-424,-1424,35937,-18,31,127,0,0,2543,-560,0,13857,4847,57,21750,-4,0,85,-14,197400,0
197408,660,-2200,446,-581,-651,-2174,8445,-625,54,-438,-1320,35932,-29,31,127,0,0,2496,-455,0,13857,4847,57,21760,-4,0,85,-14,197400,0
197418,777,-1901,502,-586,-815,-2091,8173,-580,73,-407,-1144,35936,-42,31,127,0,0,2459,-351,0,13857,4847,57,21770,-4,0,85,-14,197400,0
197428,759,-1936,364,-563,-950,-2078,7927,-527,82,-386,-976,35945,-36,30,127,0,0,2421,-379,0,13857,4847,57,21780,-4,0,85,-14,197416,0
197438,603,-2266,226,-601,-893,-1915,7711,-449,111,-388,-832,35957,-43,30,127,0,0,2397,-274,0,13857,4847,57,21790,-4,0,85,-14,197431,0
197448,635,-2163,248,-675,-883,-1841,7522,-402,109,-376,-616,35958,-53,30,127,0,0,2379,-164,0,13857,4847,57,21800,-4,0,85,-14,197431,0
197458,553,-2000,114,-744,-848,-1817,7353,-363,90,-306,-400,35952,-68,31,127,0,0,2369,-115,0,13857,4847,57,21810,-4,0,85,-14,197447,0
197468,544,-2013,55,-753,-741,-1847,7228,-241,119,-267,-224,35950,-51,30,127,0,0,2360,-137,0,13857,4847,57,21820,-4,0,85,-14,197478,0
197478,636,-2169,208,-761,-816,-1837,7145,-149,166,-184,-80,35944,-32,30,127,0,0,2362,-43,0,13857,4847,57,21830,-4,0,85,-14,197478,0
197488,612,-2090,332,-721,-881,-1913,7131,3,215,-236,-48,35943,-30,31,127,0,0,2362,0,0,13857,4847,57,21840,-4,0,85,-14,197478,0
197498,625,-2132,435,-700,-910,-2041,7139,14,178,-237,-48,35936,-45,30,127,0,0,2360,-43,0,13857,4847,57,21850,-4,0,85,-14,197478,0
197508,655,-2172,434,-735,-926,-2101,7136,-9,15,-269,-40,35940,-50,30,127,0,0,2364,10,0,13857,4847,57,21860,-4,0,85,-14,197509,0
197518,773,-2281,431,-900,-1000,-2006,7144,34,7,-115,40,35941,-56,31,127,0,0,2378,120,0,13857,4847,57,21870,-4,0,85,-14,197509,0
197528,690,-2164,449,-925,-1049,-2015,7179,94,79,180,168,35941,-44,30,127,0,0,2403,214,0,13857,4847,57,21880,-4,0,85,-14,197509,0
197538,616,-2097,344,-971,-1165,-2123,7235,152,84,421,304,35936,-50,30,127,0,0,2433,280,0,13857,4847,57,21890,-4,0,85,-14,197525,0
197548,564,-2120,399,-934,-1230,-2217,7334,265,120,401,392,35945,-56,30,127,0,0,2460,313,0,13857,4847,57,21900,-4,0,7,0,197541,0
197558,466,-2144,469,-984,-1264,-2358,7459,266,148,351,408,35948,-59,30,127,0,0,2496,373,0,13857,4847,57,21910,-4,0,8,0,197556,0
197568,511,-2189,501,-1055,-1284,-2526,7595,321,64,374,464,35947,-30,30,127,0,0,2527,340,0,13857,4847,57,21920,-4,0,9,0,197572,0
197578,486,-2202,420,-1139,-1265,-2666,7744,338,48,331,512,35936,-22,31,127,0,0,2571,411,0,13857,4847,57,21930,-4,0,10,0,197572,0
197588,507,-2178,365,-1184,-1312,-2730,7906,369,51,391,600,35937,-42,31,127,0,0,2615,472,0,13857,4847,57,21940,-4,0,11,0,197572,0
197598,467,-2229,240,-1224,-1368,-2818,8076,379,44,395,752,35944,-53,31,127,0,0,2671,598,0,13857,4847,57,21950,-4,0,13,0,197587,0
197608,371,-2209,193,-1268,-1426,-2872,8275,444,63,424,928,35950,-60,31,127,0,0,2730,604,0,13857,4847,57,21960,-4,0,14,0,197619,0
197618,155,-2235,191,-1280,-1688,-2681,8495,496,87,467,1184,35942,-41,30,127,0,0,2814,862,0,13857,4847,57,21970,-4,0,16,0,197619,0
197628,452,-2250,52,-1449,-1431,-2800,8762,647,127,599,1688,35933,-35,31,127,0,0,2928,1137,0,13857,4847,57,21980,-4,0,17,0,197619,0
197638,-388,-2587,397,-1499,-1336,-3324,9104,793,243,566,1808,35924,-38,30,127,0,0,3005,730,0,13857,4847,57,21990,-4,0,20,0,197619,0
197648,-283,-2773,549,-1588,-1458,-2719,9477,836,213,550,2296,35928,-24,30,127,0,0,3156,1625,0,13857,4847,57,22000,-4,0,21,0,197650,0
197658,348,-3041,708,-1690,-1317,-3567,9944,1109,227,779,2864,35931,-4,30,127,0,0,3292,1318,0,13857,4847,57,22010,-4,0,25,0,197650,0
197668,-105,-2868,539,-1567,-1592,-3389,10505,1272,375,563,3200,35930,18,30,127,0,0,3444,1560,0,13857,4847,57,22020,-4,0,27,0,197650,0
197678,87,-2811,473,-1566,-1712,-3754,11150,1497,332,788,3712,35927,13,30,127,0,0,3609,1604,0,13857,4847,57,22030,-4,0,31,0,197665,0
197688,9,-2666,401,-1450,-2045,-3919,11871,1625,320,642,4056,35924,20,30,127,0,0,3776,1735,0,13857,4847,57,22040,-4,0,33,0,197665,0
197698,351,-3657,434,-1494,-2290,-4654,12638,1719,234,681,4336,35930,22,30,127,0,0,3938,1560,0,13857,4847,57,22050,-4,0,38,0,197697,0
197708,22,-4025,915,-1335,-2381,-4944,13433,1743,144,508,4328,35922,28,31,127,0,0,4093,1499,0,13857,4847,57,22060,-4,0,40,0,197712,0
197718,247,-3701,1157,-1381,-2543,-5286,14229,1764,52,490,4304,35920,34,30,127,0,0,4247,1516,0,13857,4847,57,22070,-4,0,45,0,197728,0
197728,213,-3579,1306,-1487,-2702,-5309,15041,1797,35,457,4240,35915,24,30,127,0,0,4396,1494,0,13857,4847,57,22080,-4,0,49,0,197744,0
197738,431,-3371,1241,-1708,-3209,-4954,15853,1780,36,501,4272,35922,38,31,127,0,0,4558,1669,0,13857,4847,57,22090,-4,0,54,0,197744,0
197748,389,-3033,1090,-1786,-3471,-4405,16659,1771,-9,672,4392,35921,29,30,127,0,0,4720,1680,0,13857,4847,57,22100,-4,0,58,0,197744,0
197758,264,-2230,856,-1758,-3923,-3068,17475,1823,6,865,4736,35922,34,31,127,0,0,4921,2021,0,13857,4847,57,22110,-4,0,65,0,197744,0
197768,200,-1661,699,-1603,-4038,-2005,18361,2008,147,1032,5360,35914,64,31,127,0,0,5155,2460,0,13857,4847,57,22120,-4,0,70,0,197759,0
197778,511,-566,428,-1075,-3338,-587,19367,2310,365,1143,6072,35909,80,31,127,0,0,5419,2691,0,13857,4847,57,22130,-4,0,77,0,197790,0
197788,1652,-874,-716,-1154,-1571,-1370,20485,2497,473,731,4728,35903,93,31,127,0,0,5565,1175,0,13857,4847,57,22140,-4,0,82,0,197790,0
197798,923,-598,-651,-833,551,-1929,21369,1539,-182,-1800,136,35923,81,31,127,0,0,5510,-708,0,13857,4847,57,22150,-4,0,90,57,197790,0
197808,901,-769,-315,-305,1573,-1846,21328,-733,-2284,-3146,-1248,35925,-3,30,127,0,0,5341,-1801,0,13857,4847,57,22160,-4,0,95,55,197790,0
197818,306,-715,64,270,2046,-1723,21077,-291,-2374,1847,848,35950,-15,30,127,0,0,5119,-2197,0,13857,4847,57,22170,-4,0,102,51,197837,0
197828,378,-773,93,350,2218,-732,21115,-201,319,-1343,-1552,35939,-33,30,127,0,0,4908,-1983,0,13857,4847,57,22180,-4,0,106,48,197837,0
197838,581,-971,161,503,2711,513,20772,-933,-251,-1239,-2808,35948,10,31,127,0,0,4740,-1669,0,13857,4847,57,22190,-4,0,113,44,197837,0
197848,448,-1026,126,722,2675,1325,20220,-1319,-1162,-824,-3416,35934,-12,31,127,0,0,4594,-1411,0,13857,4847,57,22200,-4,0,118,41,197853,0
197858,649,-989,136,933,2618,2146,19557,-1501,-616,-479,-3600,35942,-5,31,127,0,0,4447,-1455,0,13857,4847,57,22210,-4,0,125,37,197853,0
197868,751,-917,126,1050,2617,2616,18852,-1572,-282,-470,-3808,35952,8,31,127,0,0,4293,-1488,0,13857,4847,57,22220,-4,0,130,34,197853,0
197878,904,-797,16,1103,2548,3384,18119,-1632,-131,-475,-4016,35958,2,31,127,0,0,4136,-1554,0,13857,4847,57,22230,-4,0,137,30,197869,0
197888,992,-781,-20,1130,2451,3944,17357,-1694,-111,-464,-4104,35959,-6,31,127,0,0,3974,-1560,0,13857,4847,57,22240,-4,0,141,27,197962,0
197898,1130,-705,-119,1171,2322,4736,16566,-1764,-106,-405,-4232,35951,-11,31,127,0,0,3812,-1636,0,13857,4847,57,22250,-4,0,148,24,197962,0
197908,1098,-687,-100,1124,2155,5310,15744,-1829,-110,-473,-4336,35940,-3,31,127,0,0,3643,-1680,0,13857,4847,57,22260,-4,0,153,21,197962,0
197918,925,-829,74,1101,1694,6172,14907,-1829,-96,-454,-4304,35928,16,31,127,0,0,3496,-1466,0,13857,4847,57,22270,-4,0,160,18,197962,0
197928,849,-1028,188,1103,1286,6791,14104,-1728,38,-355,-4016,35927,12,31,127,0,0,3368,-1235,0,13857,4847,57,22280,-4,0,164,16,197962,0
197938,870,-1248,298,1249,834,7601,13365,-1574,193,-240,-3536,35931,9,30,127,0,0,3288,-796,0,13857,4847,57,22290,-4,0,171,13,197978,0
197948,915,-1343,245,1374,639,7997,12697,-1414,262,-124,-2928,35936,-8,30,127,0,0,3224,-604,0,13857,4847,57,22300,-4,0,176,11,197978,0
197958,933,-1368,160,1576,496,8366,12115,-1221,299,-89,-2328,35940,-24,31,127,0,0,3162,-549,0,13857,4847,57,22310,-4,0,183,8,197978,0
197968,902,-1471,65,1678,406,8639,11625,-1019,337,-95,-1768,35950,-43,31,127,0,0,3130,-395,0,13857,4847,57,22320,-4,0,187,7,197978,0
197978,834,-1720,15,1856,410,8979,11233,-801,363,-89,-1200,35952,-57,31,127,0,0,3115,-148,0,13857,4847,57,22330,-4,0,194,4,197978,0
197988,799,-1903,61,2034,484,9062,10958,-616,368,-79,-624,35963,-64,31,127,0,0,3111,10,0,13857,4847,57,22340,-4,0,198,3,197978,0
197998,724,-2101,160,2363,705,8947,10751,-387,374,-98,-208,35979,-83,31,127,0,0,3111,-32,0,13857,4847,57,22350,-4,0,204,1,197978,0
198008,735,-2165,186,2564,874,8896,10648,-137,399,49,40,35986,-92,31,127,0,0,3119,104,0,13857,4847,57,22360,-4,0,209,0,198013,0
198018,921,-2195,113,2779,1181,9171,10676,116,460,128,152,35980,-91,30,127,0,0,3143,302,0,13857,4847,57,22370,-4,0,215,0,198013,0
198028,853,-2156,20,2924,1455,9309,10758,220,336,334,368,35954,-76,31,127,0,0,3192,499,0,13857,4847,57,22380,-4,0,219,-1,198013,0
198038,789,-2089,-54,3081,1784,9287,10891,333,190,409,672,35960,-63,31,127,0,0,3237,516,0,13857,4847,57,22390,-4,0,225,-2,198045,0
198048,709,-2138,38,3177,1919,9132,11074,414,188,377,680,35958,-74,31,127,0,0,3269,280,0,13857,4847,57,22400,-4,0,229,-3,198045,0
198058,789,-2336,161,3261,1985,9013,11267,414,96,275,496,35957,-80,30,127,0,0,3286,126,0,13857,4847,57,22410,-4,0,235,-4,198045,0
198068,853,-2394,226,3237,1962,9090,11441,357,-31,200,288,35951,-62,30,127,0,0,3299,98,0,13857,4847,57,22420,-4,0,239,-4,198076,0
198078,887,-2417,264,3094,1806,9299,11574,243,-121,103,208,35959,-36,31,127,0,0,3313,219,0,13857,4847,57,22430,-4,0,245,-5,198076,0
198088,865,-2393,254,2964,1610,9386,11660,183,-179,260,248,35960,-15,31,127,0,0,3333,170,0,13857,4847,57,22440,-4,0,248,-5,198076,0
198098,834,-2436,171,2802,1163,9448,11749,191,-69,312,272,35958,-33,30,127,0,0,3359,214,0,13857,4847,57,22450,-4,0,253,-6,198076,0
198108,797,-2508,115,2753,846,9443,11846,226,25,369,312,35955,-69,30,127,0,0,3378,131,0,13857,4847,57,22460,-4,0,257,-6,198107,0
198118,773,-2654,69,2796,336,9309,11955,244,41,325,344,35955,-87,31,127,0,0,3405,192,0,13857,4847,57,22470,-4,0,261,-6,198107,0
198128,701,-2679,83,2904,-16,9086,12069,261,26,332,312,35954,-72,31,127,0,0,3422,181,0,13857,4847,57,22480,-4,0,264,-6,198107,0
198138,530,-2629,62,3078,-604,8580,12186,250,14,272,280,35950,-47,30,127,0,0,3445,208,0,13857,4847,57,22490,-4,0,268,-6,198154,0
198148,397,-2600,27,3115,-961,8066,12296,249,-11,277,280,35950,-30,30,127,0,0,3467,252,0,13857,4847,57,22500,-4,0,270,-6,198154,0
198158,255,-2655,63,2909,-1304,7030,12408,246,-3,308,328,35949,-46,31,127,0,0,3493,219,0,13857,4847,57,22510,-4,0,273,-6,198154,0
198168,145,-2764,108,2645,-1360,6164,12530,274,21,298,352,35941,-37,30,127,0,0,3523,280,0,13857,4847,57,22520,-4,0,274,-6,198154,0
198178,89,-2940,115,2084,-1132,4528,12652,275,22,329,392,35943,-72,31,127,0,0,3551,280,0,13857,4847,57,22530,-4,0,276,-6,198170,0
198188,167,-2988,110,1626,-827,3298,12787,291,26,265,344,35953,-58,31,127,0,0,3570,230,0,13857,4847,57,22540,-4,0,277,-6,198185,0
198198,351,-2876,51,831,-217,1398,12922,293,14,154,144,35959,-50,30,127,0,0,3573,71,0,13857,4847,57,22550,-4,0,278,-6,198185,0
198208,449,-2654,35,228,185,180,13001,128,-114,-45,8,35953,-17,31,127,0,0,3572,5,0,13857,4847,57,22560,-4,0,278,-6,198185,0
198218,692,-2413,26,-445,676,-1513,13011,-18,-250,-110,-16,35944,-15,31,127,0,0,3569,-16,0,13857,4847,57,22570,-4,0,278,-6,198217,0
198228,763,-2254,17,-732,926,-2680,13004,-11,-155,-173,-88,35940,-18,30,127,0,0,3557,-148,0,13857,4847,57,22580,-4,0,278,-6,198217,0
198238,936,-2186,145,-1047,1174,-4025,12979,-96,-59,-495,-280,35940,-41,30,127,0,0,3533,-192,0,13857,4847,57,22590,-4,0,278,-6,198232,0
198248,941,-2159,251,-1154,1345,-4668,12884,-248,-191,-363,-360,35949,-47,31,127,0,0,3506,-241,0,13857,4847,57,22600,-4,0,278,-6,198248,0
198258,-904,-5951,-571,-1502,1413,-4827,12768,-253,-165,-338,-352,35951,-25,31,127,0,0,3494,-87,0,13857,4847,57,22610,-4,0,278,-6,198248,0
198268,-1938,-8325,2347,-1374,2731,-2207,12675,-48,34,1180,1384,35949,-23,31,127,0,0,3716,2378,0,3355,834,58,4,1,1,278,-6,198248,0
198278,-2076,-1379,1941,1472,1778,-3282,12985,922,909,1432,2928,35943,-12,30,127,0,0,3859,1312,0,3355,834,58,14,1,1,278,-6,198279,0
198288,-1572,-298,468,1044,303,-2904,13555,1435,1137,1564,4624,35924,-2,30,127,0,0,4037,1823,0,3355,834,58,24,1,1,278,-6,198279,0
198298,-552,-686,-878,-542,1252,-3432,14425,2118,928,1469,5984,35897,32,31,127,0,0,4222,1812,0,3355,834,58,34,1,1,278,-6,198295,0
198308,-940,-1083,-668,-1162,1413,-4009,15561,2629,1128,1021,6728,35874,102,30,127,0,0,4378,1625,0,3355,834,58,44,1,1,278,-6,198295,0
198318,-849,-2442,-791,-886,1470,-3815,16830,2836,766,926,7144,35864,138,30,127,0,0,4550,1730,0,3355,834,58,54,1,1,278,-6,198310,0
198328,-94,-2493,-611,-578,898,-3788,18159,2961,354,854,7376,35868,158,31,127,0,0,4701,1532,0,3355,834,58,64,1,1,278,-6,198310,0
198338,892,-2457,-312,-752,-266,-4268,19525,3012,194,532,7152,35888,139,30,127,0,0,4810,1038,0,3355,834,58,74,1,1,278,-6,198326,0
198348,1128,-2647,-74,-841,-1005,-4651,20827,2779,-42,387,6328,35903,112,30,127,0,0,4868,521,0,3355,834,58,84,1,1,278,-6,198404,0
198358,479,-2493,530,-632,-1628,-4837,21975,2388,-425,-118,4256,35922,66,30,127,0,0,4871,27,0,3355,834,58,94,1,1,278,-6,198404,0
198368,530,-1915,731,-635,-1400,-4661,22884,1817,-754,-506,2336,35936,12,30,127,0,0,4849,-214,0,3355,834,58,104,1,1,278,-6,198404,0
198378,-315,-1764,1348,-767,-581,-4636,23497,1146,-1027,-576,736,35942,-46,31,127,0,0,4822,-296,0,3355,834,58,114,1,1,278,-6,198404,0
198388,-49,-2016,1205,-962,-246,-4861,23814,474,-1126,-1034,-320,35950,-73,31,127,0,0,4779,-401,0,3355,834,58,124,1,1,278,-6,198404,0
198398,-296,-1504,1053,-884,297,-5845,23719,-375,-1355,-741,-1216,35947,-75,30,127,0,0,4648,-1389,0,3355,834,58,134,1,1,278,-6,198404,0
198408,885,-2961,1123,-1125,137,-4695,23353,-966,-1304,121,-1424,35942,-49,30,127,0,0,4578,-763,700,3355,834,58,144,1,1,278,-6,198404,0
198418,1385,-1577,475,-1253,-461,-4635,22724,-1556,-1013,351,-2720,35935,-40,30,127,0,0,4461,-1246,900,3355,834,58,154,1,1,278,-6,198404,0
198428,-10,-1570,-160,-1223,-201,-4878,21880,-1936,-919,470,-3400,35951,-58,31,127,0,0,4300,-1604,1100,3355,834,58,164,1,1,278,-6,198420,0
198438,-680,-1759,-310,-827,605,-5016,20986,-1948,-505,543,-3080,35966,-99,30,127,0,0,4130,-1647,1300,3355,834,58,174,1,1,278,-6,198435,0
198448,-79,-1777,-167,-726,496,-4732,20176,-1694,63,677,-2136,35974,-120,30,127,0,0,3975,-1450,1500,3355,834,58,184,1,1,278,-6,198435,0
198458,752,-2031,186,-555,-82,-3949,19521,-1318,468,822,-1088,35968,-136,31,127,0,0,3852,-1224,1500,3355,834,58,194,1,1,278,-6,198451,0
198468,998,-1980,154,-569,-274,-3397,19046,-933,645,955,-264,35947,-117,30,127,0,0,3763,-873,1500,3355,834,58,204,1,1,278,-6,198451,0
198478,955,-1934,283,-423,-594,-2636,18718,-650,628,1159,-88,35940,-93,30,127,0,0,3703,-609,1500,3355,834,58,214,1,1,278,-6,198482,0
198488,949,-1958,225,-328,-560,-2363,18421,-694,356,911,-288,35942,-104,30,127,0,0,3645,-549,1500,3355,834,58,224,1,1,278,-6,198482,0
198498,333,-1928,413,-164,-366,-2502,18036,-917,-128,746,-592,35943,-93,30,127,0,0,3579,-708,1500,3355,834,58,234,1,1,278,-6,198482,0
198508,-53,-1950,393,-131,6,-2694,17584,-1009,-308,809,-648,35958,-111,30,127,0,0,3491,-862,1500,3355,834,58,244,1,1,278,-6,198498,0
198518,275,-1924,489,-205,242,-2675,17144,-946,-101,857,-432,35963,-107,31,127,0,0,3404,-856,1540,3355,834,58,254,1,1,278,-6,198513,0
198528,643,-1954,471,-237,8,-2470,16752,-813,112,991,-160,35959,-118,30,127,0,0,3332,-675,1730,3355,834,58,264,1,1,278,-6,198529,0
198538,697,-1947,379,-252,-282,-1911,16476,-509,316,1350,80,35953,-113,30,127,0,0,3279,-461,1910,3355,834,58,274,1,1,278,-6,198529,0
198548,926,-1904,497,-279,-445,-1604,16319,-297,461,1279,88,35953,-106,31,127,0,0,3247,-313,1970,3355,834,58,284,1,1,278,-6,198545,0
198558,797,-1818,633,-338,-542,-1453,16174,-348,256,1192,32,35951,-91,30,127,0,0,3220,-285,2030,3355,834,58,294,1,1,278,-6,198545,0
198568,554,-1907,632,-362,-412,-1557,15971,-495,-98,1164,-64,35952,-93,31,127,0,0,3181,-411,2090,3355,834,58,304,1,1,278,-6,198545,0
198578,495,-1913,575,-402,-170,-1828,15701,-637,-252,1109,-136,35958,-74,30,127,0,0,3130,-593,2150,3355,834,58,314,1,1,278,-6,198576,0
198588,440,-1967,513,-443,-99,-1938,15379,-711,-233,1219,-104,35964,-76,30,127,0,0,3067,-648,2200,3355,834,58,324,1,1,278,-6,198576,0
198598,558,-2003,474,-502,-188,-1816,15094,-584,-27,1416,24,35971,-78,31,127,0,0,3003,-626,2250,3355,834,58,334,1,1,278,-6,198576,0
198608,710,-2085,443,-540,-348,-1600,14904,-350,253,1522,96,35971,-88,31,127,0,0,2965,-406,2290,3355,834,58,344,1,1,278,-6,198607,0
198618,795,-1820,466,-554,-615,-1437,14760,-317,275,1407,88,35968,-76,30,127,0,0,2941,-313,2340,3355,834,58,354,1,1,278,-6,198607,0
198628,592,-1973,433,-559,-696,-1426,14613,-339,76,1420,80,35956,-94,31,127,0,0,2917,-252,2390,3355,834,58,364,1,1,278,-6,198607,0
198638,666,-1817,590,-464,-969,-1542,14461,-335,-14,1455,72,35954,-90,31,127,0,0,2886,-313,2440,3355,834,58,374,1,1,278,-6,198701,0
198648,744,-2458,486,-480,-886,-1507,14303,-344,-22,1476,72,35952,-88,30,127,0,0,2861,-230,2490,3355,834,58,384,1,1,278,-6,198701,0
198658,146,-2080,497,-654,-840,-1528,14166,-270,25,1518,152,35955,-78,30,127,0,0,2831,-258,2550,3355,834,58,394,1,1,278,-6,198701,0
198668,301,-2343,377,-768,-853,-1540,14090,-139,164,1551,240,35942,-74,31,127,0,0,2820,-131,2610,3355,834,58,404,1,1,278,-6,198716,0
198678,271,-2198,277,-645,-781,-1655,14046,-82,179,1590,272,35936,-68,30,127,0,0,2809,-82,2690,3355,834,58,414,1,1,278,-6,198716,0
198688,208,-2067,267,-647,-749,-1770,14006,-76,65,1616,328,35931,-80,31,127,0,0,2800,-93,2780,3355,834,58,424,1,1,278,-6,198716,0
198698,496,-2128,295,-703,-836,-1863,13992,-33,64,1676,384,35936,-86,31,127,0,0,2796,-65,2880,3355,834,58,434,1,1,278,-6,198716,0
198708,502,-2001,312,-735,-894,-1928,13976,-49,41,1759,400,35937,-92,31,127,0,0,2797,-43,3000,3355,834,58,444,1,1,278,-6,198716,0
198718,390,-2039,302,-773,-948,-2049,13960,-20,-10,1810,488,35933,-80,31,127,0,0,2791,-5,3120,3355,834,58,454,1,1,278,-6,198716,0
198728,513,-2167,403,-802,-982,-2119,13964,14,40,1898,528,35925,-62,31,127,0,0,2793,21,3250,3355,834,58,464,1,1,278,-6,198716,0
198738,542,-2117,502,-822,-1085,-2238,13964,2,36,1993,552,35936,-51,31,127,0,0,2792,0,3390,3355,834,58,474,1,1,278,-6,198716,0
198748,554,-2211,480,-848,-1107,-2294,13970,19,1,2070,616,35944,-36,30,127,0,0,2792,-5,3550,3355,834,58,484,1,1,278,-6,198748,0
198758,517,-2284,561,-916,-1130,-2465,13987,51,34,2170,672,35944,-29,30,127,0,0,2798,0,3720,3355,834,58,494,1,1,278,-6,198748,0
198768,498,-2270,512,-992,-1217,-2517,14033,134,73,2188,944,35931,-30,30,127,0,0,2808,109,3910,3355,834,58,504,1,1,278,-6,198779,0
198778,378,-2255,477,-1052,-1433,-2537,14120,219,133,2269,1272,35920,-40,30,127,0,0,2823,186,4100,3355,834,58,514,1,1,278,-6,198779,0
198788,384,-2317,424,-1084,-1592,-2536,14274,402,205,2370,1776,35914,-38,30,127,0,0,2850,241,4330,3355,834,58,524,1,1,278,-6,198779,0
198798,245,-2397,368,-1210,-1654,-2468,14537,654,346,2634,2520,35903,-14,31,127,0,0,2902,477,4600,3355,834,58,534,1,1,278,-6,198779,0
198808,162,-2418,334,-1363,-1669,-2413,14922,925,442,2881,3184,35900,70,31,127,0,0,2972,780,4930,3355,834,58,544,1,1,278,-6,198795,0
198818,77,-2456,236,-1545,-1604,-2438,15414,1141,441,3099,3800,35886,128,31,127,0,0,3072,1060,5350,3355,834,58,554,1,1,278,-6,198826,0
198828,15,-2519,130,-1659,-1473,-2552,15991,1313,377,3342,4144,35865,192,31,127,0,0,3183,1131,5880,3355,834,58,564,1,1,278,-6,198826,0
198838,-303,-2585,71,-1678,-1292,-2769,16635,1452,286,3576,4640,35830,252,31,127,0,0,3303,1274,6520,3355,834,58,574,1,1,278,-6,198826,0
198848,-358,-2568,46,-1671,-1238,-2950,17355,1633,267,3972,5376,35802,302,31,127,0,0,3440,1323,7250,3355,834,58,584,1,1,278,-6,198841,0
198858,-391,-2623,125,-1738,-1278,-3130,18173,1881,333,4364,6088,35763,377,31,127,0,0,3593,1538,7730,3355,834,58,594,1,1,278,-6,198841,0
198868,-405,-2679,224,-1760,-1306,-3189,19113,2153,428,4625,6688,35730,480,30,127,0,0,3768,1790,8270,3355,834,58,604,1,1,278,-6,198873,0
198878,-1143,-2423,287,-1736,-1154,-3191,20176,2407,473,4932,7680,35683,616,30,127,0,0,3969,2037,8880,3355,834,58,614,1,1,278,-6,198873,0
198888,-1364,-2647,325,-1720,-1546,-3531,21354,2649,451,5184,8552,35636,761,31,127,0,0,4186,2208,9560,3355,834,58,624,1,1,278,-6,198873,0
198898,-645,-3745,1174,-2069,-1514,-3581,22600,2794,355,5640,8904,35589,914,31,127,0,0,4430,2477,10310,3355,834,58,634,1,1,278,-6,198888,0
198908,-869,-3475,747,-2013,-1615,-3952,23980,3168,383,6135,9880,35539,1047,30,127,0,0,4677,2438,10540,3355,834,58,644,1,1,278,-6,198904,0
198918,-798,-3579,982,-1894,-2326,-4594,25529,3471,594,6098,10264,35486,1213,30,127,0,0,4935,2543,10210,3355,834,58,654,1,1,278,-6,198920,0
198928,-27,-4127,826,-1805,-2826,-4874,27101,3425,368,5909,9544,35443,1375,30,127,0,0,5197,2631,9690,3355,834,58,664,1,1,278,-6,198920,0
198938,-547,-4576,1274,-1764,-3098,-5713,28517,2929,-244,5444,7904,35447,1476,31,127,0,0,5444,2384,8940,3355,834,58,674,1,1,278,-6,198951,0
198948,-493,-4253,1527,-1999,-3230,-6651,29585,2101,-977,4749,6008,35512,1431,30,127,0,0,5642,1917,6440,3355,834,58,684,1,1,278,-6,198951,0
198958,-49,-4338,1896,-2407,-3362,-7559,30232,1096,-1470,3132,2744,35636,1196,30,127,0,0,5772,1181,3400,3355,834,58,694,1,1,278,-6,198966,0
198968,127,-4499,1844,-2505,-3349,-7928,30363,-44,-1804,1491,152,35767,805,31,127,0,0,5805,225,2140,3355,834,58,704,1,1,278,-6,198966,0
198978,-653,-3028,1616,-2223,-3642,-7196,30232,-304,-1539,985,72,35863,384,30,127,0,0,5781,-214,1570,3355,834,58,714,1,1,278,-6,198966,0
198988,-1531,-1422,1789,-1616,-4017,-5538,30197,19,-284,45,-1064,35919,95,30,127,0,0,5818,516,0,3355,834,58,724,0,1,278,-6,198982,0
198998,2528,-1881,-481,-1609,-3243,-2691,29978,-651,-172,-1055,-2424,35931,-32,30,127,0,0,6004,1752,0,3355,834,58,734,0,1,278,-6,199013,0
199008,1213,-1486,-423,-1655,-1172,-2942,29483,-1361,-954,-2047,-4808,35912,-13,30,127,0,0,6008,-60,0,3355,834,58,744,0,1,278,-6,199029,0
199018,862,-1295,-136,-749,293,-2504,28573,-2253,-1358,-1693,-5808,35894,54,31,127,0,0,5920,-1021,0,3355,834,58,754,0,1,278,-6,199029,0
199028,380,-887,42,-252,653,-2289,27476,-2383,-1102,-209,-5416,35887,126,31,127,0,0,5730,-1939,0,3355,834,58,764,0,1,278,-6,199029,0
199038,676,-799,342,110,1365,-1270,26429,-2271,-157,-517,-5576,35899,106,31,127,0,0,5520,-2120,0,3355,834,58,774,0,1,278,-6,199060,0
199048,646,-774,359,384,1783,-450,25367,-2372,61,-701,-5864,35911,81,31,127,0,0,5307,-2120,0,3355,834,58,784,0,1,278,-6,199060,0
199058,546,-693,154,692,2229,980,24257,-2449,-139,-463,-5632,35915,46,30,127,0,0,5118,-1785,0,3355,834,58,794,0,1,278,-6,199060,0
199068,519,-658,76,872,2419,1872,23169,-2352,-30,-273,-5112,35918,74,30,127,0,0,4958,-1554,0,3355,834,58,804,0,1,278,-6,199076,0
199078,616,-629,73,1141,2619,2981,22180,-2097,256,-133,-4608,35924,61,31,127,0,0,4812,-1455,0,3355,834,58,814,0,1,278,-6,199076,0
199088,800,-603,56,1268,2833,3590,21292,-1903,390,-132,-4224,35930,22,31,127,0,0,4661,-1444,0,3355,834,58,824,0,1,278,-6,199076,0
199098,933,-491,-3,1387,3237,4351,20473,-1772,309,-257,-4248,35944,2,31,127,0,0,4486,-1774,0,3355,834,58,834,0,1,278,-6,199076,0
199108,929,-446,-65,1446,3511,4921,19649,-1838,103,-550,-4648,35948,-33,31,127,0,0,4272,-2120,0,3355,834,58,844,0,1,278,-6,199123,0
199118,893,-443,-176,1506,3723,5959,18761,-1990,-155,-636,-4968,35948,-21,31,127,0,0,4068,-2065,0,3355,834,58,854,0,1,278,-6,199123,0
199128,844,-480,-131,1521,3725,6708,17828,-2066,-208,-480,-4968,35935,-6,31,127,0,0,3888,-1796,0,3355,834,58,864,0,1,278,-6,199123,0
199138,888,-543,-79,1521,3627,7806,16887,-2066,-84,-347,-4736,35924,21,30,127,0,0,3724,-1477,0,3355,834,58,874,0,1,278,-6,199138,0
199148,864,-626,-67,1541,3492,8479,15966,-1989,38,-211,-4336,35921,24,30,127,0,0,3589,-1290,0,3355,834,58,884,0,1,278,-6,199138,0
199158,873,-768,29,1649,3129,9453,15108,-1821,176,-126,-3712,35933,13,31,127,0,0,3483,-944,0,3355,834,58,894,0,1,278,-6,199138,0
199168,868,-879,114,1741,2600,9953,14368,-1542,363,-82,-2976,35942,-2,30,127,0,0,3415,-653,0,3355,834,58,904,0,1,278,-6,199169,0
199178,931,-1127,222,1840,1710,10437,13762,-1240,490,-7,-2104,35942,-24,30,127,0,0,3375,-368,0,3355,834,58,914,0,1,278,-6,199169,0
199188,1001,-1402,90,1941,1206,10647,13287,-957,513,32,-1256,35943,-38,30,127,0,0,3361,-159,0,3355,834,58,924,0,1,278,-6,199185,0
199198,1029,-1796,-67,2218,759,10860,12942,-668,504,42,-528,35942,-66,30,127,0,0,3361,16,0,3355,834,58,934,0,1,278,-6,199185,0
199208,1109,-2001,-2,2435,654,10945,12721,-393,485,153,8,35947,-57,30,127,0,0,3361,43,0,3355,834,58,944,0,1,278,-6,199201,0
199218,1143,-2304,108,2725,596,11138,12691,100,624,458,176,35945,-49,31,127,0,0,3368,43,0,3355,834,58,954,0,1,278,-6,199216,0
199228,1215,-2449,177,2838,467,11497,12772,195,582,333,424,35945,-43,31,127,0,0,3402,401,0,3355,834,58,964,0,1,278,-6,199216,0
199238,934,-2581,191,3013,378,11581,12906,345,268,484,840,35945,-41,31,127,0,0,3470,664,0,3355,834,58,974,0,1,278,-6,199232,0
199248,877,-2690,36,3145,427,11329,13107,491,239,555,1232,35944,-35,31,127,0,0,3531,587,0,3355,834,58,984,0,1,278,-6,199248,0
199258,785,-2797,-7,3401,635,10764,13366,606,237,431,1264,35938,-31,31,127,0,0,3569,335,0,3355,834,58,994,0,1,278,-6,199248,0
199268,905,-2772,57,3479,746,10535,13635,589,131,299,1088,35931,-38,30,127,0,0,3580,164,0,3355,834,58,1004,0,1,278,-6,199263,0
199278,959,-2662,244,3420,761,10370,13889,539,-22,215,832,35933,-27,31,127,0,0,3593,120,0,3355,834,58,1014,0,1,278,-6,199279,0
199288,965,-2612,301,3309,625,10274,14109,469,-102,205,640,35936,-34,31,127,0,0,3610,181,0,3355,834,58,1024,0,1,278,-6,199279,0
199298,1079,-2670,170,3234,348,9977,14302,401,-128,213,472,35947,-40,31,127,0,0,3614,60,0,3355,834,58,1034,0,1,278,-6,199310,0
199308,1022,-2752,19,3251,172,9788,14469,348,-67,158,248,35942,-46,31,127,0,0,3614,0,0,3355,834,58,1044,0,1,278,-6,199310,0
199318,1054,-2762,-101,3343,-58,9434,14593,243,-132,96,104,35939,-41,30,127,0,0,3614,-49,0,3355,834,58,1054,0,1,278,-6,199310,0
199328,873,-2727,-169,3381,-237,8998,14664,116,-186,77,96,35933,-35,30,127,0,0,3616,5,0,3355,834,58,1064,0,1,278,-6,199310,0
199338,556,-2814,-213,3236,-552,8072,14695,45,-191,290,136,35942,-45,30,127,0,0,3623,60,0,3355,834,58,1074,0,1,278,-6,199326,0
199348,572,-2948,-148,2940,-665,7268,14744,152,-43,441,336,35949,-63,30,127,0,0,3644,225,0,3355,834,58,1084,0,1,278,-6,199341,0
199358,475,-3206,-2,2252,-569,5693,14859,287,176,418,512,35951,-70,31,127,0,0,3692,516,0,3355,834,58,1094,0,1,278,-6,199341,0
199368,505,-3356,40,1735,-290,4267,15024,395,219,345,624,35937,-66,30,127,0,0,3699,335,0,3355,834,58,1104,0,1,278,-6,199435,0
199378,676,-3303,-8,883,251,1982,15213,424,148,261,464,35928,-53,30,127,0,0,3710,32,0,3355,834,58,1114,0,1,278,-6,199451,0
199388,729,-3245,8,340,460,541,15391,378,30,119,232,35927,-36,30,127,0,0,3708,16,0,3355,834,58,1124,0,1,278,-6,199451,0
199398,956,-2758,-7,-403,588,-1539,15516,218,-116,-49,80,35925,-29,30,127,0,0,3705,-10,0,3355,834,58,1134,0,1,278,-6,199451,0
199408,1292,-2514,46,-775,642,-2818,15566,61,-261,-45,40,35929,-40,31,127,0,0,3694,-126,0,3355,834,58,1144,0,1,278,-6,199451,0
199418,1274,-2297,57,-1143,559,-4361,15565,-39,-243,-269,-128,35926,-75,31,127,0,0,3665,-285,0,3355,834,58,1154,0,1,278,-6,199466,0
199428,1294,-2241,150,-1273,547,-5107,15506,-162,-204,-363,-240,35927,-96,31,127,0,0,3635,-313,0,3355,834,58,1164,0,1,278,-6,199466,0
199438,-1106,-6501,-827,-1643,458,-5110,15411,-237,-179,-318,-240,35931,-105,31,127,0,0,3626,-43,0,3355,834,58,1174,0,1,278,-6,199466,0
199448,-1892,-8116,2371,-1458,1781,-2417,15346,42,-52,1276,1536,35927,-104,31,127,0,0,3836,2329,0,11938,4765,59,8,1,1,373,-6,199466,0
199458,-2436,-1452,1743,1387,1145,-3339,15704,1042,889,1507,3032,35916,-71,30,127,0,0,3961,1153,0,11938,4765,59,18,1,1,373,-6,199466,0
199468,-1731,41,355,989,-24,-2964,16301,1409,1307,1097,3968,35907,-26,30,127,0,0,4127,1790,0,11938,4765,59,28,1,1,373,-6,199466,0
199478,-322,-303,-1172,-908,1518,-3645,17076,1847,762,1290,4976,35901,21,30,127,0,0,4302,1697,0,11938,4765,59,38,1,1,373,-6,199466,0
199488,-1021,-1330,-937,-1379,2084,-4415,18003,2095,653,813,5256,35914,59,31,127,0,0,4439,1340,0,11938,4765,59,48,1,1,373,-6,199513,0
199498,-953,-2607,-695,-555,2460,-4222,18981,2165,385,606,5344,35908,85,31,127,0,0,4580,1362,0,11938,4765,59,58,1,1,373,-6,199513,0
199508,-204,-1950,-270,-258,1795,-4169,19969,2161,116,541,5320,35905,97,30,127,0,0,4708,1290,0,11938,4765,59,68,1,1,373,-6,199513,0
199518,1171,-2564,1,-612,705,-4494,20930,2098,-26,549,5088,35890,75,30,127,0,0,4804,895,0,11938,4765,59,78,1,1,373,-6,199513,0
199528,1464,-2856,166,-647,-153,-4876,21838,1942,-153,309,4152,35895,61,31,127,0,0,4844,291,0,11938,4765,59,88,1,1,373,-6,199513,0
199538,1250,-2164,374,-381,-1346,-4801,22624,1621,-338,-63,2632,35910,30,31,127,0,0,4839,-82,0,11938,4765,59,98,1,1,373,-6,199529,0
199548,344,-2039,592,-446,-1371,-4721,23231,1199,-574,-278,1040,35929,-6,30,127,0,0,4796,-417,0,11938,4765,59,108,1,1,373,-6,199560,0
199558,-184,-1876,1046,-656,-960,-4506,23599,634,-792,-642,-168,35942,-52,30,127,0,0,4758,-390,0,11938,4765,59,118,1,1,373,-6,199560,0
199568,-69,-2088,1140,-852,-556,-4634,23562,-276,-1237,-727,-552,35940,-81,30,127,0,0,4704,-543,0,11938,4765,59,128,1,1,373,-6,199560,0
199578,-487,-1624,945,-686,172,-5278,23397,-386,-1045,-174,-120,35933,-72,31,127,0,0,4592,-1224,640,11938,4765,59,138,1,1,373,-6,199560,0
199588,1148,-1997,978,-886,-81,-4236,23142,-683,-371,358,-736,35934,-64,30,127,0,0,4547,-466,840,11938,4765,59,148,1,1,373,-6,199576,0
199598,1460,-1689,554,-1049,-761,-4302,22624,-1349,-673,445,-2296,35939,-60,30,127,0,0,4447,-1076,1040,11938,4765,59,158,1,1,373,-6,199591,0
199608,104,-1785,8,-954,-292,-4599,21832,-1871,-1057,538,-3264,35947,-73,31,127,0,0,4295,-1549,1240,11938,4765,59,168,1,1,373,-6,199607,0
199618,-986,-1608,-412,-642,557,-4971,20933,-1990,-737,615,-3184,35946,-90,30,127,0,0,4120,-1741,1440,11938,4765,59,178,1,1,373,-6,199607,0
199628,-520,-1802,70,-495,881,-4791,20088,-1786,-100,722,-2328,35950,-103,30,127,0,0,3963,-1571,1500,11938,4765,59,188,1,1,373,-6,199622,0
199638,604,-1948,441,-519,-25,-4131,19391,-1410,398,821,-1288,35953,-119,30,127,0,0,3829,-1296,1500,11938,4765,59,198,1,1,373,-6,199622,0
199648,958,-2009,299,-500,-271,-3547,18874,-1024,637,907,-392,35956,-124,31,127,0,0,3734,-933,1500,11938,4765,59,208,1,1,373,-6,199654,0
199658,859,-1966,549,-456,-602,-2753,18508,-717,640,1129,-112,35958,-122,30,127,0,0,3666,-692,1610,11938,4765,59,218,1,1,373,-6,199654,0
199668,782,-1943,496,-421,-613,-2468,18221,-628,438,1109,-96,35956,-122,31,127,0,0,3610,-538,1860,11938,4765,59,228,1,1,373,-6,199654,0
199678,302,-1881,604,-437,-488,-2457,17897,-749,74,1097,-240,35957,-112,31,127,0,0,3550,-631,2120,11938,4765,59,238,1,1,373,-6,199685,0
199688,110,-1903,584,-391,-226,-2582,17511,-884,-194,1185,-328,35954,-117,31,127,0,0,3480,-780,2410,11938,4765,59,248,1,1,373,-6,199701,0
199698,204,-1903,540,-406,-81,-2544,17109,-855,-156,1464,-152,35959,-96,31,127,0,0,3396,-834,2710,11938,4765,59,258,1,1,373,-6,199701,0
199708,353,-2006,453,-456,-177,-2345,16781,-634,120,1864,64,35955,-110,31,127,0,0,3337,-615,2960,11938,4765,59,268,1,1,373,-6,199701,0
199718,736,-1929,388,-541,-468,-1847,16575,-392,390,2043,104,35950,-92,31,127,0,0,3299,-395,3060,11938,4765,59,278,1,1,373,-6,199701,0
199728,697,-1935,411,-563,-570,-1726,16406,-402,317,1863,56,35956,-88,30,127,0,0,3264,-340,3160,11938,4765,59,288,1,1,373,-6,199794,0
199738,513,-1859,511,-534,-444,-1883,16167,-597,-78,1785,-160,35956,-80,30,127,0,0,3217,-532,3270,11938,4765,59,298,1,1,373,-6,199794,0
199748,348,-1846,560,-520,-238,-2107,15822,-825,-338,1750,-200,35957,-93,31,127,0,0,3151,-703,3360,11938,4765,59,308,1,1,373,-6,199794,0
199758,332,-1908,481,-555,-81,-2276,15429,-863,-312,1949,-112,35958,-98,31,127,0,0,3077,-780,3440,11938,4765,59,318,1,1,373,-6,199810,0
199768,442,-2143,470,-608,-162,-2128,15110,-617,54,2302,96,35958,-114,31,127,0,0,3008,-642,3510,11938,4765,59,328,1,1,373,-6,199810,0
199778,673,-2052,519,-665,-481,-1674,14923,-346,414,2352,152,35952,-99,31,127,0,0,2972,-313,3580,11938,4765,59,338,1,1,373,-6,199810,0
199788,647,-1913,507,-646,-698,-1604,14770,-359,326,2185,104,35945,-102,31,127,0,0,2943,-274,3660,11938,4765,59,348,1,1,373,-6,199810,0
199798,373,-1957,521,-604,-741,-1777,14587,-418,2,2210,80,35942,-99,31,127,0,0,2910,-329,3750,11938,4765,59,358,1,1,373,-6,199810,0
199808,551,-2094,602,-560,-715,-1887,14378,-489,-114,2222,32,35946,-104,30,127,0,0,2869,-390,3840,11938,4765,59,368,1,1,373,-6,199810,0
199818,523,-1831,554,-595,-795,-1930,14156,-475,-73,2327,72,35951,-98,30,127,0,0,2827,-406,3920,11938,4765,59,378,1,1,373,-6,199810,0
199828,614,-2038,396,-589,-1012,-1854,13974,-363,55,2447,176,35958,-85,30,127,0,0,2792,-318,4000,11938,4765,59,388,1,1,373,-6,199826,0
199838,506,-2227,252,-620,-1029,-1723,13843,-253,176,2446,264,35977,-73,31,127,0,0,2766,-236,4080,11938,4765,59,398,1,1,373,-6,199826,0
199848,324,-2053,255,-709,-1007,-1712,13765,-139,194,2493,376,35976,-41,31,127,0,0,2752,-159,4200,11938,4765,59,408,1,1,373,-6,199857,0
199858,512,-2159,302,-896,-882,-1723,13730,-60,188,2523,528,35967,-18,31,127,0,0,2744,-60,4340,11938,4765,59,418,1,1,373,-6,199857,0
199868,414,-2209,165,-828,-887,-1759,13705,-38,103,2625,640,35941,17,30,127,0,0,2742,-32,4490,11938,4765,59,428,1,1,373,-6,199857,0
199878,444,-2154,124,-766,-921,-1840,13708,16,64,2685,840,35927,16,30,127,0,0,2738,0,4660,11938,4765,59,438,1,1,373,-6,199857,0
199888,453,-2148,233,-779,-940,-1915,13715,13,59,2872,856,35922,35,31,127,0,0,2742,43,4850,11938,4765,59,448,1,1,373,-6,199888,0
199898,447,-2081,314,-845,-1029,-2037,13722,25,10,2956,944,35923,47,31,127,0,0,2744,54,5060,11938,4765,59,458,1,1,373,-6,199888,0
199908,402,-2184,361,-867,-1153,-2130,13750,85,46,3041,1104,35921,51,31,127,0,0,2748,32,5280,11938,4765,59,468,1,1,373,-6,199888,0
199918,369,-2436,427,-998,-1227,-2161,13838,238,146,3088,1616,35916,50,30,127,0,0,2767,175,5530,11938,4765,59,478,1,1,373,-6,199919,0
199928,112,-2541,541,-1146,-1229,-2145,13996,410,249,3266,2120,35901,44,31,127,0,0,2796,329,5830,11938,4765,59,488,1,1,373,-6,199919,0
199938,-69,-2600,553,-1345,-1271,-2251,14244,600,304,3515,2688,35894,62,31,127,0,0,2838,455,6200,11938,4765,59,498,1,1,373,-6,199919,0
199948,-117,-2656,472,-1381,-1397,-2359,14588,816,347,3882,3256,35868,98,31,127,0,0,2902,609,6640,11938,4765,59,508,1,1,373,-6,199951,0
199958,-67,-2642,562,-1355,-1497,-2641,15019,987,359,4159,3728,35850,176,30,127,0,0,2983,763,7190,11938,4765,59,518,1,1,373,-6,199951,0
199968,-120,-2507,526,-1381,-1492,-2813,15510,1111,285,4468,4136,35828,245,31,127,0,0,3080,983,7870,11938,4765,59,528,1,1,373,-6,199951,0
199978,-161,-2503,394,-1583,-1450,-3088,16062,1253,216,4852,4472,35800,351,30,127,0,0,3186,1049,8730,11938,4765,59,538,1,1,373,-6,199982,0
199988,-168,-2539,289,-1707,-1406,-3194,16615,1401,247,5320,5224,35764,426,30,127,0,0,3303,1181,9760,11938,4765,59,548,1,1,373,-6,199982,0
199998,-260,-2632,212,-1830,-1366,-3194,17355,1733,396,5928,6296,35711,526,31,127,0,0,3439,1367,10980,11938,4765,59,558,1,1,373,-6,199982,0
200008,-570,-2589,192,-1872,-1467,-3021,18261,2122,579,6582,7312,35636,673,30,127,0,0,3612,1730,11830,11938,4765,59,568,1,1,373,-6,199997,0
200018,-958,-2516,64,-2022,-1135,-3043,19358,2549,693,7118,8504,35546,898,31,127,0,0,3826,2169,12800,11938,4765,59,578,1,1,373,-6,200013,0
200028,-1080,-2639,142,-1996,-1429,-3263,20626,2862,689,7708,9312,35445,1181,31,127,0,0,4059,2433,13910,11938,4765,59,588,1,1,373,-6,200013,0
200038,-707,-3447,866,-2148,-1461,-3254,21949,2922,398,8343,10144,35349,1509,31,127,0,0,4305,2510,15190,11938,4765,59,598,1,1,373,-6,200029,0
200048,-1309,-3789,906,-2108,-1678,-3739,23365,3226,272,9010,10976,35250,1777,31,127,0,0,4583,2724,16580,11938,4765,59,608,1,1,373,-6,200044,0
200058,-1103,-3684,1068,-2034,-2093,-4135,25005,3778,656,9554,12496,35135,2064,31,127,0,0,4862,2812,16470,11938,4765,59,618,1,1,373,-6,200044,0
200068,-914,-3101,1050,-2094,-2520,-4298,26850,4163,843,9430,12704,35026,2381,30,127,0,0,5174,3147,15920,11938,4765,59,628,1,1,373,-6,200044,0
200078,-335,-4349,768,-1918,-3111,-4821,28746,4085,442,8928,11680,34951,2729,30,127,0,0,5497,3306,15010,11938,4765,59,638,1,1,373,-6,200060,0
200088,-206,-4678,1005,-1888,-3293,-5641,30379,3361,-509,8243,9720,34988,2910,31,127,0,0,5798,2933,13370,11938,4765,59,648,1,1,373,-6,200076,0
200098,-18,-4685,1660,-1883,-3760,-6898,31653,2559,-1256,7253,7000,35132,2775,31,127,0,0,6022,2164,10490,11938,4765,59,658,1,1,373,-6,200122,0
200108,213,-4413,1784,-2182,-3944,-7304,32455,1375,-1613,4932,2928,35361,2298,31,127,0,0,6166,1246,5160,11938,4765,59,668,1,1,373,-6,200122,0
200118,243,-4004,1792,-2513,-4354,-8160,32559,-261,-2316,2125,24,35607,1539,31,127,0,0,6192,98,2750,11938,4765,59,678,1,1,373,-6,200154,0
200128,-210,-2997,1545,-2184,-4742,-7870,32178,-1021,-2261,820,-960,35791,769,31,127,0,0,6124,-747,0,11938,4765,59,688,0,1,373,-6,200154,0
200138,-2282,-220,1757,-1057,-5535,-5292,31687,-1132,-998,-1211,-5336,35875,230,31,127,0,0,6085,-335,0,11938,4765,59,698,0,1,373,-6,200154,0
200148,1686,-1202,-327,-966,-5029,-2614,30679,-2532,-1219,-1862,-7144,35861,39,30,127,0,0,6191,1164,0,11938,4765,59,708,0,1,373,-6,200169,0
200158,1425,-1577,-633,-1259,-997,-2925,29450,-2677,-1441,-171,-5240,35858,107,30,127,0,0,6133,-758,0,11938,4765,59,718,0,1,373,-6,200169,0
200168,713,-1165,-76,-358,125,-2397,28337,-2349,-24,177,-4568,35870,122,31,127,0,0,5972,-1593,0,11938,4765,59,728,0,1,373,-6,200169,0
200178,478,-723,8,489,1076,-1538,27351,-2095,505,-83,-4712,35911,99,30,127,0,0,5765,-2120,0,11938,4765,59,738,0,1,373,-6,200169,0
200188,283,-692,242,829,1655,-823,26424,-2057,330,-777,-5344,35926,5,31,127,0,0,5543,-2230,0,11938,4765,59,748,0,1,373,-6,200169,0
200198,259,-707,363,1219,2241,367,25413,-2293,-100,-811,-5728,35922,14,30,127,0,0,5326,-2158,0,11938,4765,59,758,0,1,373,-6,200216,0
200208,293,-700,260,1422,2507,1232,24335,-2386,-302,-508,-5448,35909,78,30,127,0,0,5145,-1768,0,11938,4765,59,768,0,1,373,-6,200216,0
200218,454,-718,128,1661,2956,2450,23284,-2268,-46,-250,-4904,35900,97,31,127,0,0,4994,-1516,0,11938,4765,59,778,0,1,373,-6,200232,0
200228,527,-661,63,1854,3251,3146,22329,-2025,269,-164,-4416,35902,66,30,127,0,0,4849,-1384,0,11938,4765,59,788,0,1,373,-6,200232,0
200238,675,-524,-77,2024,3724,4150,21474,-1829,385,-166,-4168,35909,5,30,127,0,0,4708,-1466,0,11938,4765,59,798,0,1,373,-6,200232,0
200248,841,-488,-75,2107,4024,4747,20684,-1709,296,-219,-4016,35917,-24,30,127,0,0,4559,-1543,0,11938,4765,59,808,0,1,373,-6,200232,0
200258,964,-361,-159,2171,4402,5588,19916,-1708,145,-421,-4240,35926,-36,30,127,0,0,4370,-1933,0,11938,4765,59,818,0,1,373,-6,200247,0
200268,956,-367,-172,2213,4512,6212,19099,-1835,-76,-571,-4520,35924,-22,31,127,0,0,4180,-1922,0,11938,4765,59,828,0,1,373,-6,200263,0
200278,911,-401,-176,2113,4359,7216,18237,-1917,-184,-541,-4712,35915,7,31,127,0,0,3984,-1922,0,11938,4765,59,838,0,1,373,-6,200263,0
200288,893,-430,-101,2054,4089,7919,17354,-1950,-119,-401,-4664,35900,34,30,127,0,0,3810,-1796,0,11938,4765,59,848,0,1,373,-6,200294,0
200298,829,-611,6,2027,3443,9033,16462,-1949,47,-317,-4416,35904,36,30,127,0,0,3669,-1373,0,11938,4765,59,858,0,1,373,-6,200294,0
200308,847,-754,106,2074,2939,9703,15598,-1862,-56,-144,-3800,35908,9,31,127,0,0,3568,-966,0,11938,4765,59,868,0,1,373,-6,200294,0
200318,876,-1020,242,2228,1798,10431,14832,-1602,42,-39,-2984,35920,-13,30,127,0,0,3501,-681,0,11938,4765,59,878,0,1,373,-6,200294,0
200328,922,-1188,346,2301,1061,10758,14211,-1273,470,10,-2040,35925,-30,30,127,0,0,3473,-307,0,11938,4765,59,888,0,1,373,-6,200341,0
200338,1019,-1481,86,2495,126,11079,13739,-938,554,76,-1080,35932,-38,30,127,0,0,3468,-32,0,11938,4765,59,898,0,1,373,-6,200357,0
200348,1050,-1693,-132,2696,-191,11192,13412,-622,568,100,-368,35932,-44,31,127,0,0,3470,-49,0,11938,4765,59,908,0,1,373,-6,200357,0
200358,1211,-2059,-167,3083,-232,11406,13234,-262,561,448,144,35924,-47,31,127,0,0,3471,32,0,11938,4765,59,918,0,1,373,-6,200357,0
200368,902,-2290,-34,3309,-277,11645,13272,177,703,345,224,35919,-66,30,127,0,0,3485,142,0,11938,4765,59,928,0,1,373,-6,200357,0
200378,925,-2525,217,3500,-352,11921,13375,248,545,414,616,35926,-79,30,127,0,0,3538,576,0,11938,4765,59,938,0,1,373,-6,200372,0
200388,711,-2688,156,3588,-289,11751,13543,414,231,496,1000,35934,-95,31,127,0,0,3592,455,0,11938,4765,59,948,0,1,373,-6,200404,0
200398,619,-2953,-53,3757,101,11049,13768,525,238,391,1032,35943,-87,31,127,0,0,3617,175,0,11938,4765,59,958,0,1,373,-6,200419,0
200408,507,-3080,-48,3829,346,10815,14005,506,133,220,688,35943,-66,31,127,0,0,3616,5,0,11938,4765,59,968,0,1,373,-6,200419,0
200418,691,-3025,234,3719,664,10670,14210,423,-43,142,384,35937,-64,31,127,0,0,3619,32,0,11938,4765,59,978,0,1,373,-6,200419,0
200428,613,-2965,287,3541,690,10517,14368,318,-156,96,176,35930,-51,30,127,0,0,3619,16,0,11938,4765,59,988,0,1,373,-6,200419,0
200438,723,-3053,216,3279,562,10202,14473,191,-192,52,120,35938,-40,31,127,0,0,3617,10,0,11938,4765,59,998,0,1,373,-6,200419,0
200448,816,-3107,92,3257,505,9978,14523,87,-215,166,80,35945,-27,31,127,0,0,3619,-5,0,11938,4765,59,1008,0,1,373,-6,200450,0
200458,827,-2879,-149,3373,419,9462,14563,82,-127,217,128,35952,-30,31,127,0,0,3615,-5,0,11938,4765,59,1018,0,1,373,-6,200482,0
200468,698,-2792,-303,3577,363,8907,14614,139,5,221,128,35941,-40,31,127,0,0,3618,5,0,11938,4765,59,1028,0,1,373,-6,200497,0
200478,484,-2665,-447,3624,194,7739,14669,120,29,233,128,35923,-63,31,127,0,0,3622,38,0,11938,4765,59,1038,0,1,373,-6,200513,0
200488,498,-2891,-407,3317,188,6949,14721,120,3,379,344,35927,-49,31,127,0,0,3645,291,0,11938,4765,59,1048,0,1,373,-6,200513,0
200498,446,-3121,-70,2286,477,5309,14832,295,101,464,600,35924,-59,31,127,0,0,3690,488,0,11938,4765,59,1058,0,1,373,-6,200513,0
200508,724,-3225,-68,1541,953,3802,15009,441,250,400,800,35920,-68,31,127,0,0,3727,357,0,11938,4765,59,1068,0,1,373,-6,200513,0
200518,855,-3468,-150,589,1410,1346,15222,485,200,274,648,35910,-58,31,127,0,0,3738,98,0,11938,4765,59,1078,0,1,373,-6,200513,0
200528,774,-3449,-215,146,1541,-268,15430,445,66,151,360,35913,-48,31,127,0,0,3740,49,0,11938,4765,59,1088,0,1,373,-6,200513,0
200538,1083,-2777,-322,-531,1755,-2537,15601,337,-84,-9,120,35935,-31,31,127,0,0,3734,-16,0,11938,4765,59,1098,0,1,373,-6,200560,0
200548,1167,-2474,-181,-972,1953,-3841,15671,62,-260,-215,-80,35933,-42,31,127,0,0,3715,-214,0,11938,4765,59,1108,0,1,373,-6,200560,0
200558,1218,-2252,-30,-1460,2120,-5384,15626,-118,-426,-210,-176,35932,-71,31,127,0,0,3680,-379,0,11938,4765,59,1118,0,1,373,-6,200560,0
200568,1255,-2203,20,-1603,2138,-6067,15542,-202,-283,-357,-304,35919,-89,30,127,0,0,3644,-379,0,11938,4765,59,1128,0,1,373,-6,200560,0
200578,-1083,-7167,2888,-1523,2435,-2730,15437,-185,-126,620,1072,35922,-100,30,127,0,0,3838,2345,0,17755,8132,60,2,1,1,341,-6,200560,0
200588,-1687,-2781,2824,1123,2010,-3051,15632,537,521,815,2056,35924,-85,31,127,0,0,3996,1521,0,17755,8132,60,12,1,1,341,-6,200575,0
200598,-1645,-487,976,1167,-1148,-2335,16068,1163,1027,1650,3848,35916,-67,31,127,0,0,4214,2246,0,17755,8132,60,22,1,1,341,-6,200591,0
200608,-179,-482,-788,-242,-470,-2949,16848,1947,1115,1707,5544,35895,-6,31,127,0,0,4436,2186,0,17755,8132,60,32,1,1,341,-6,200607,0
200618,-955,-1778,-509,-1670,720,-4612,17891,2385,1184,1000,5984,35876,82,30,127,0,0,4588,1488,0,17755,8132,60,42,1,1,341,-6,200607,0
200628,-1229,-2711,-807,-1183,1142,-4537,18996,2435,622,539,5864,35876,117,30,127,0,0,4715,1312,0,17755,8132,60,52,1,1,341,-6,200638,0
200638,-462,-2197,-410,-550,663,-4460,20082,2359,82,504,5696,35889,117,31,127,0,0,4829,1142,0,17755,8132,60,62,1,1,341,-6,200638,0
200648,303,-2148,-306,-671,426,-4769,21115,2234,-138,466,5456,35899,70,31,127,0,0,4918,840,0,17755,8132,60,72,1,1,341,-6,200638,0
200658,1020,-2871,-6,-874,-13,-5712,22089,2102,-220,370,4800,35898,42,31,127,0,0,4939,142,0,17755,8132,60,82,1,1,341,-6,200638,0
200668,1246,-2571,210,-586,-630,-5769,22967,1828,-288,-94,2816,35912,17,30,127,0,0,4903,-401,0,17755,8132,60,92,1,1,341,-6,200669,0
200678,508,-1671,485,-664,-1032,-5379,23633,1266,-580,-552,944,35927,-11,31,127,0,0,4846,-615,0,17755,8132,60,102,1,1,341,-6,200669,0
200688,303,-1692,826,-710,-775,-5005,23964,418,-1037,-1516,-456,35935,-40,31,127,0,0,4785,-549,0,17755,8132,60,112,1,1,341,-6,200669,0
200698,1080,-2887,1081,-819,-158,-5259,23852,-266,-1531,-137,40,35937,-63,31,127,0,0,4719,-692,660,17755,8132,60,122,1,1,341,-6,200685,0
200708,-1628,-951,1200,-744,-352,-4018,23754,-288,-782,481,-120,35942,-72,30,127,0,0,4649,-461,860,17755,8132,60,132,1,1,341,-6,200700,0
200718,2184,-2362,1405,-947,-500,-4014,23421,-969,-394,413,-1480,35947,-54,30,127,0,0,4596,-593,1060,17755,8132,60,142,1,1,341,-6,200716,0
200728,1003,-2065,585,-1137,-593,-4238,22726,-1727,-1172,499,-3008,35940,-57,31,127,0,0,4472,-1246,1260,17755,8132,60,152,1,1,341,-6,200716,0
200738,-1181,-1569,-222,-783,270,-4998,21832,-2009,-1094,631,-3320,35938,-62,31,127,0,0,4297,-1763,1460,17755,8132,60,162,1,1,341,-6,200732,0
200748,-875,-1638,-211,-577,839,-5090,20946,-1909,-361,760,-2816,35942,-99,31,127,0,0,4133,-1697,1500,17755,8132,60,172,1,1,341,-6,200732,0
200758,463,-1942,282,-575,362,-4412,20163,-1633,216,806,-1968,35955,-122,31,127,0,0,3979,-1444,1530,17755,8132,60,182,1,1,341,-6,200763,0
200768,781,-1904,340,-569,-41,-3856,19535,-1257,496,904,-824,35950,-120,30,127,0,0,3862,-1131,1920,17755,8132,60,192,1,1,341,-6,200763,0
200778,688,-2057,249,-568,-424,-2984,19116,-757,698,1402,112,35947,-122,31,127,0,0,3780,-730,2310,17755,8132,60,202,1,1,341,-6,200763,0
200788,832,-1851,682,-490,-840,-2203,18955,-226,902,1888,184,35947,-105,30,127,0,0,3743,-351,2650,17755,8132,60,212,1,1,341,-6,200778,0
200798,1192,-1938,733,-543,-993,-1707,18826,-334,581,1665,8,35949,-93,30,127,0,0,3726,-197,2960,17755,8132,60,222,1,1,341,-6,200794,0
200808,248,-1897,666,-524,-682,-1895,18568,-665,-202,1596,-208,35952,-70,31,127,0,0,3680,-472,3290,17755,8132,60,232,1,1,341,-6,200794,0
200818,-162,-1896,447,-450,47,-2534,18167,-939,-533,1748,-280,35954,-70,30,127,0,0,3602,-752,3660,17755,8132,60,242,1,1,341,-6,200825,0
200828,149,-1858,434,-454,194,-2542,17748,-878,-308,2231,-112,35951,-95,31,127,0,0,3521,-791,4030,17755,8132,60,252,1,1,341,-6,200825,0
200838,555,-2034,361,-477,-205,-1876,17456,-528,210,2738,184,35954,-126,30,127,0,0,3462,-549,4150,17755,8132,60,262,1,1,341,-6,200825,0
200848,787,-1940,312,-482,-480,-1461,17323,-231,561,2629,288,35939,-121,30,127,0,0,3436,-258,4270,17755,8132,60,272,1,1,341,-6,200841,0
200858,519,-1944,303,-493,-591,-1365,17217,-260,354,2566,208,35936,-99,30,127,0,0,3416,-219,4400,17755,8132,60,282,1,1,341,-6,200841,0
200868,261,-1825,376,-494,-417,-1499,17046,-430,-72,2609,64,35936,-74,31,127,0,0,3382,-450,4540,17755,8132,60,292,1,1,341,-6,200857,0
200878,419,-1885,462,-498,-190,-1757,16786,-642,-301,2557,-80,35943,-72,31,127,0,0,3337,-516,4660,17755,8132,60,302,1,1,341,-6,200888,0
200888,425,-1918,406,-509,-121,-1916,16453,-746,-316,2660,-40,35945,-85,31,127,0,0,3278,-604,4760,17755,8132,60,312,1,1,341,-6,200888,0
200898,399,-2048,355,-558,-164,-1853,16150,-617,-81,2915,136,35948,-118,31,127,0,0,3215,-549,4860,17755,8132,60,322,1,1,341,-6,200903,0
200908,368,-2105,398,-552,-324,-1661,15940,-410,244,3115,224,35948,-123,31,127,0,0,3170,-379,4940,17755,8132,60,332,1,1,341,-6,200903,0
200918,404,-1999,460,-539,-513,-1503,15787,-329,294,2991,240,35944,-93,31,127,0,0,3142,-329,5040,17755,8132,60,342,1,1,341,-6,200903,0
200928,356,-1986,473,-560,-577,-1562,15638,-337,116,3048,200,35940,-74,31,127,0,0,3109,-318,5160,17755,8132,60,352,1,1,341,-6,200935,0
200938,391,-1924,498,-611,-548,-1779,15458,-412,-53,3096,176,35939,-46,30,127,0,0,3077,-329,5270,17755,8132,60,362,1,1,341,-6,200935,0
200948,483,-1828,448,-655,-738,-1872,15257,-462,-98,3141,120,35940,-59,31,127,0,0,3036,-390,5390,17755,8132,60,372,1,1,341,-6,200935,0
200958,320,-2049,531,-647,-811,-1879,15034,-483,-90,3223,152,35946,-59,30,127,0,0,2983,-510,5500,17755,8132,60,382,1,1,341,-6,200982,0
200968,184,-2059,477,-649,-1037,-1911,14849,-367,32,3388,272,35942,-70,30,127,0,0,2954,-324,5610,17755,8132,60,392,1,1,341,-6,200986,0
200978,405,-2427,581,-745,-1124,-1955,14707,-294,160,3377,376,35939,-74,31,127,0,0,2928,-225,5740,17755,8132,60,402,1,1,341,-6,200986,0
200988,59,-2355,616,-834,-958,-1984,14615,-193,155,3448,576,35930,-74,31,127,0,0,2903,-208,5930,17755,8132,60,412,1,1,341,-6,200990,0
200998,253,-2307,361,-951,-931,-2020,14565,-72,186,3514,872,35917,-48,31,127,0,0,2900,-71,6140,17755,8132,60,422,1,1,341,-6,200994,0
201008,341,-2251,238,-910,-972,-2063,14558,0,186,3690,1032,35918,-6,30,127,0,0,2894,-21,6400,17755,8132,60,432,1,1,341,-6,200994,0
201018,437,-2127,86,-899,-1111,-2210,14564,17,94,3888,1096,35922,40,30,127,0,0,2898,16,6690,17755,8132,60,442,1,1,341,-6,201025,0
201028,405,-2066,138,-988,-1124,-2299,14576,26,36,4022,1264,35914,60,31,127,0,0,2903,71,7010,17755,8132,60,452,1,1,341,-6,201025,0
201038,277,-2208,287,-1125,-1136,-2292,14614,122,62,4160,1632,35898,78,30,127,0,0,2905,32,7370,17755,8132,60,462,1,1,341,-6,201025,0
201048,255,-2363,429,-1162,-1216,-2362,14699,245,159,4417,2000,35880,99,30,127,0,0,2927,197,7770,17755,8132,60,472,1,1,341,-6,201041,0
201058,302,-2545,462,-1287,-1282,-2380,14863,421,262,4696,2464,35871,132,31,127,0,0,2957,395,8240,17755,8132,60,482,1,1,341,-6,201041,0
201068,160,-2480,519,-1394,-1310,-2419,15104,600,305,4943,3240,35857,167,31,127,0,0,3002,543,8820,17755,8132,60,492,1,1,341,-6,201072,0
201078,-157,-2526,573,-1548,-1313,-2404,15467,882,396,5440,4024,35823,223,31,127,0,0,3076,812,9530,17755,8132,60,502,1,1,341,-6,201072,0
201088,-8,-2495,501,-1618,-1405,-2463,15961,1163,486,5895,4608,35774,331,31,127,0,0,3171,961,10410,17755,8132,60,512,1,1,341,-6,201072,0
201098,-74,-2501,353,-1736,-1549,-2559,16556,1372,437,6410,5376,35719,472,31,127,0,0,3283,1186,11540,17755,8132,60,522,1,1,341,-6,201103,0
201108,-84,-2524,343,-1803,-1529,-2664,17244,1578,374,7114,6072,35653,639,30,127,0,0,3417,1329,12910,17755,8132,60,532,1,1,341,-6,201103,0
201118,-239,-2604,302,-1918,-1433,-2725,18033,1816,379,7970,7024,35570,810,31,127,0,0,3567,1510,14560,17755,8132,60,542,1,1,341,-6,201103,0
201128,-71,-2651,68,-1961,-1463,-2756,18964,2158,473,8875,8024,35469,1062,30,127,0,0,3736,1785,15870,17755,8132,60,552,1,1,341,-6,201119,0
201138,-360,-2656,185,-1999,-1580,-2630,20040,2443,554,9574,8968,35350,1393,31,127,0,0,3935,1988,17180,17755,8132,60,562,1,1,341,-6,201119,0
201148,-888,-2653,13,-2070,-1000,-3015,21200,2604,416,10164,9872,35237,1740,31,127,0,0,4155,2202,18630,17755,8132,60,572,1,1,341,-6,201150,0
201158,-857,-3164,171,-2249,-944,-3231,22397,2635,221,11073,9936,35118,2102,30,127,0,0,4386,2334,20240,17755,8132,60,582,1,1,341,-6,201150,0
