state_time,accelx,accely,accelz,gyrox,gyroy,gyroz,mot_ang,mot_vel,mot_acc,mot_cur,mot_volt,batt_volt,batt_curr,temperature,status_mn,status_ex,status_re,ank_ang,ank_vel,ank_torque,peak_ank_torque,step_energy,step_count,step_time,gait_state,movement,speed,incline,sys_time,eventFlags
279468,-82,-2055,352,-76,23,116,14876,0,0,245,72,35636,34,32,127,0,0,3927,0,0,2126,414,96,2852,-4,0,93,13,279457,0
279478,-84,-2062,350,-81,31,119,14876,0,-1,235,48,35643,48,32,127,0,0,3932,5,0,2126,414,96,2862,-4,0,93,13,279457,0
279488,-93,-2066,358,-82,26,122,14876,1,4,237,72,35642,64,32,127,0,0,3927,16,0,2126,414,96,2872,-4,0,93,13,279472,0
279498,-77,-2066,353,-79,32,117,14875,-3,1,233,72,35647,60,32,127,0,0,3927,-21,0,2126,414,96,2882,-4,0,93,13,279488,0
279508,-66,-2056,353,-80,30,121,14875,3,-6,237,88,35638,37,32,127,0,0,3933,49,0,2126,414,96,2892,-4,0,93,13,279488,0
279518,-41,-2054,348,-80,40,123,14879,0,6,297,64,35635,33,32,127,0,0,3930,-16,0,2126,414,96,2902,-4,0,93,13,279503,0
279528,-68,-2057,342,-78,35,125,14875,0,-7,238,48,35640,25,32,127,0,0,3928,-16,0,2126,414,96,2912,-4,0,93,13,279519,0
279538,-72,-2059,353,-83,35,123,14875,-3,-5,237,48,35645,31,32,127,0,0,3928,-16,0,2126,414,96,2922,-4,0,93,13,279519,0
279548,-85,-2062,348,-85,31,124,14875,-1,-1,237,88,35662,28,32,127,0,0,3926,-16,0,2126,414,96,2932,-4,0,93,13,279535,0
279558,-60,-2063,351,-79,33,123,14876,-5,1,269,96,35658,39,32,127,0,0,3933,38,0,2126,414,96,2942,-4,0,93,13,279535,0
279568,-43,-2063,346,-82,30,126,14877,-4,-2,297,64,35659,39,32,127,0,0,3930,5,0,2126,414,96,2952,-4,0,93,13,279566,0
279578,-79,-2066,346,-83,34,126,14877,9,-6,261,88,35655,29,32,127,0,0,3926,-10,0,2126,414,96,2962,-4,0,93,13,279566,0
279588,-78,-2062,356,-77,34,126,14878,3,5,273,48,35651,31,32,127,0,0,3928,-76,0,2126,414,96,2972,-4,0,93,13,279566,0
279598,-91,-2053,355,-79,35,130,14877,11,0,246,72,35654,45,32,127,0,0,3930,-5,0,2126,414,96,2982,-4,0,93,13,279582,0
279608,-83,-2062,355,-81,32,134,14876,0,5,285,48,35647,42,32,127,0,0,3932,-32,0,2126,414,96,2992,-4,0,93,13,279597,0
279618,-98,-2057,360,-81,36,131,14878,7,5,288,64,35645,42,32,127,0,0,3930,-27,0,2126,414,96,3002,-4,0,93,13,279597,0
279629,-56,-2057,353,-86,35,124,14876,0,-4,263,32,35650,42,32,127,0,0,3933,43,0,2126,414,96,3013,-4,0,93,13,279613,0
279639,-84,-2062,357,-83,35,133,14876,-3,-4,285,64,35657,53,32,127,0,0,3928,-32,0,2126,414,96,3023,-4,0,93,13,279628,0
279649,-82,-2065,352,-87,32,125,14876,6,-1,266,104,35661,59,32,127,0,0,3930,10,0,2126,414,96,3033,-4,0,93,13,279644,0
279659,-84,-2067,351,-87,38,120,14874,-16,-10,270,120,35659,42,32,127,0,0,3930,21,0,2126,414,96,3043,-4,0,93,13,279644,0
279669,-95,-2057,349,-86,34,126,14877,-5,-1,282,72,35650,34,32,127,0,0,3930,-21,0,2126,414,96,3053,-4,0,93,13,279660,0
279679,-82,-2058,356,-88,33,131,14877,11,4,256,72,35656,21,32,127,0,0,3930,0,0,2126,414,96,3063,-4,0,93,13,279660,0
279689,-64,-2054,350,-84,29,126,14875,-5,-1,272,104,35648,34,32,127,0,0,3930,21,0,2126,414,96,3073,-4,0,93,13,279691,0
279699,-56,-2059,348,-88,32,129,14876,-5,-3,253,32,35653,41,32,127,0,0,3930,10,0,2126,414,96,3083,-4,0,93,13,279691,0
279709,-77,-2058,352,-85,37,134,14876,1,-3,245,48,35647,38,32,127,0,0,3928,-10,0,2126,414,96,3093,-4,0,93,13,279691,0
279719,-71,-2052,354,-86,32,131,14877,4,2,274,56,35655,37,32,127,0,0,3928,-32,0,2126,414,96,3103,-4,0,93,13,279738,0
279729,-103,-2063,356,-91,32,133,14875,0,-8,257,72,35657,41,32,127,0,0,3928,-21,0,2126,414,96,3113,-4,0,93,13,279738,0
279739,-74,-2060,355,-86,41,131,14876,-4,1,284,96,35651,56,32,127,0,0,3933,43,0,2126,414,96,3123,-4,0,93,13,279738,0
279749,-82,-2063,356,-85,33,132,14876,-9,-1,293,104,35652,56,32,127,0,0,3930,0,0,2126,414,96,3133,-4,0,93,13,279753,0
279759,-67,-2055,354,-86,40,129,14878,15,-3,283,16,35648,60,32,127,0,0,3933,-10,0,2126,414,96,3143,-4,0,93,13,279753,0
279769,-50,-2053,351,-92,33,135,14876,0,2,270,120,35639,53,32,127,0,0,3930,43,0,2126,414,96,3153,-4,0,93,13,279753,0
279779,-50,-2060,352,-85,38,130,14877,-10,-4,298,104,35646,37,32,127,0,0,3933,0,0,2126,414,96,3163,-4,0,93,13,279753,0
279789,-78,-2056,349,-89,32,140,14879,10,-1,335,96,35642,55,32,127,0,0,3930,-43,0,2126,414,96,3173,-4,0,93,13,279785,0
279799,-93,-2056,352,-87,35,134,14875,-3,-6,269,120,35664,51,32,127,0,0,3933,43,0,2126,414,96,3183,-4,0,93,13,279785,0
279809,-66,-2064,353,-93,35,129,14877,-4,-3,298,16,35657,62,32,127,0,0,3930,-32,0,2126,414,96,3193,-4,0,93,13,279785,0
279819,-94,-2059,358,-83,45,135,14878,18,5,301,96,35651,61,32,127,0,0,3930,-10,0,2126,414,96,3203,-4,0,93,13,279816,0
279829,-99,-2059,361,-89,39,128,14876,-8,-2,311,96,35654,53,32,127,0,0,3935,43,0,2126,414,96,3213,-4,0,93,13,279816,0
279839,-86,-2059,355,-89,40,136,14879,3,2,360,72,35653,35,32,127,0,0,3933,-10,0,2126,414,96,3223,-4,0,93,13,279816,0
279849,-92,-2054,353,-90,38,128,14880,6,8,343,40,35663,22,32,127,0,0,3935,-21,0,2126,414,96,3233,-4,0,93,13,279831,0
279859,-123,-2055,348,-95,34,140,14879,6,-4,365,80,35646,28,32,127,0,0,3935,32,0,2126,414,96,3243,-4,0,93,13,279847,0
279869,-82,-2063,356,-87,33,129,14879,-1,-1,386,112,35650,35,32,127,0,0,3935,0,0,2126,414,96,3253,-4,0,93,13,279863,0
279880,-102,-2063,349,-89,33,126,14878,-4,-4,344,112,35680,29,32,127,0,0,3932,32,0,2126,414,96,3264,-4,0,93,13,279863,0
279890,-65,-2060,352,-92,24,123,14878,-7,0,324,112,35685,37,32,127,0,0,3932,5,0,2126,414,96,3274,-4,0,93,13,279878,0
279900,-71,-2057,351,-90,28,139,14877,-7,-5,302,112,35670,47,32,127,0,0,3932,49,0,2126,414,96,3284,-4,0,93,13,279894,0
279910,-58,-2059,347,-89,36,129,14877,-10,-7,347,88,35651,51,32,127,0,0,3933,-5,0,2126,414,96,3294,-4,0,93,13,279894,0
279920,-73,-2066,347,-93,35,131,14880,3,-4,374,104,35661,47,32,127,0,0,3932,-43,0,2126,414,96,3304,-4,0,93,13,279910,0
279930,-107,-2059,355,-89,37,126,14880,4,-3,371,88,35653,44,32,127,0,0,3933,-49,0,2126,414,96,3314,-4,0,93,13,279910,0
279940,-81,-2066,349,-95,39,123,14878,2,-4,353,112,35663,58,32,127,0,0,3932,-21,0,2126,414,96,3324,-4,0,93,13,279925,0
279950,-77,-2068,352,-89,29,124,14880,7,7,319,88,35659,45,32,127,0,0,3933,0,0,2126,414,96,3334,-4,0,93,13,279925,0
279960,-79,-2062,352,-86,35,129,14879,-3,6,326,112,35666,39,32,127,0,0,3935,38,0,2126,414,96,3344,-4,0,93,13,279988,0
279970,-69,-2062,355,-90,40,126,14879,-8,-1,355,88,35665,32,32,127,0,0,3933,-32,0,2126,414,96,3354,-4,0,93,13,279988,0
279980,-91,-2062,354,-91,35,126,14879,7,-5,320,112,35655,48,32,127,0,0,3935,38,0,2126,414,96,3364,-4,0,93,13,279988,0
279990,-62,-2059,355,-91,35,131,14878,-12,-2,350,112,35651,54,32,127,0,0,3932,-10,0,2126,414,96,3374,-4,0,93,13,279988,0
280000,-66,-2056,351,-93,33,139,14879,-1,-4,324,112,35645,53,32,127,0,0,3932,5,0,2126,414,96,3384,-4,0,93,13,279988,0
280010,-73,-2061,353,-91,28,134,14881,5,5,360,88,35650,46,32,127,0,0,3936,-10,0,2126,414,96,3394,-4,0,93,13,280003,0
280020,-94,-2059,357,-91,35,140,14880,7,-4,376,112,35658,33,32,127,0,0,3935,27,0,2126,414,96,3404,-4,0,93,13,280003,0
280030,-74,-2060,355,-97,36,133,14880,0,-6,376,112,35667,19,32,127,0,0,3935,27,0,2126,414,96,3414,-4,0,93,13,280035,0
280040,-71,-2055,356,-91,36,143,14879,-10,-4,363,112,35677,15,32,127,0,0,3935,5,0,2126,414,96,3424,-4,0,93,13,280035,0
280050,-95,-2052,354,-97,35,145,14884,12,2,405,80,35676,26,32,127,0,0,3936,-32,0,2126,414,96,3434,-4,0,93,13,280050,0
280060,-95,-2058,349,-88,42,133,14883,18,7,479,104,35672,40,32,127,0,0,3935,-54,0,2126,414,96,3444,-4,0,93,13,280050,0
280070,-87,-2060,352,-94,35,133,14883,-1,-6,419,152,35679,43,32,127,0,0,3939,71,0,2126,414,96,3454,-4,0,93,13,280050,0
280080,-74,-2054,352,-95,38,138,14888,0,0,404,96,35672,52,32,127,0,0,3935,-10,0,2126,414,96,3464,-4,0,93,13,280097,0
280090,-106,-2058,350,-91,30,140,14887,7,1,417,120,35676,50,32,127,0,0,3940,10,0,2126,414,96,3474,-4,0,93,13,280097,0
280100,-94,-2060,346,-91,33,134,14886,1,-4,428,120,35659,47,32,127,0,0,3937,-10,0,2126,414,96,3484,-4,0,93,13,280097,0
280110,-75,-2060,355,-96,29,137,14887,2,0,422,120,35654,43,32,127,0,0,3934,-49,0,2126,414,96,3494,-4,0,93,13,280113,0
280120,-88,-2060,357,-97,36,132,14887,5,0,422,96,35647,63,32,127,0,0,3941,0,0,2126,414,96,3504,-4,0,93,13,280128,0
280131,-95,-2061,350,-96,37,135,14889,5,4,482,136,35652,47,32,127,0,0,3939,0,0,2126,414,96,3515,-4,0,93,13,280128,0
280141,-75,-2060,350,-98,35,130,14888,0,-2,472,104,35648,42,32,127,0,0,3939,10,0,2126,414,96,3525,-4,0,93,13,280128,0
280151,-85,-2061,356,-92,34,142,14891,9,2,486,136,35665,42,32,127,0,0,3941,0,0,2126,414,96,3535,-4,0,93,13,280128,0
280161,-85,-2058,348,-96,30,145,14892,7,3,495,136,35667,31,32,127,0,0,3939,-21,0,2126,414,96,3545,-4,0,93,13,280144,0
280171,-85,-2060,350,-95,40,145,14891,0,-3,489,120,35682,24,33,127,0,0,3939,-10,0,2126,414,96,3555,-4,0,93,13,280175,0
280181,-95,-2061,349,-97,45,147,14893,11,4,502,152,35676,22,32,127,0,0,3941,0,0,2126,414,96,3565,-4,0,93,13,280175,0
280191,-79,-2060,343,-95,42,145,14892,-5,1,484,152,35666,41,32,127,0,0,3939,-32,0,2126,414,96,3575,-4,0,93,13,280175,0
280201,-94,-2059,348,-96,42,148,14892,2,-5,499,152,35650,49,32,127,0,0,3939,-21,0,2126,414,96,3585,-4,0,93,13,280191,0
280211,-81,-2065,347,-97,43,149,14892,0,4,504,192,35660,45,32,127,0,0,3941,0,0,2126,414,96,3595,-4,0,93,13,280191,0
280221,-77,-2056,336,-94,35,155,14896,9,11,519,136,35667,31,32,127,0,0,3941,-32,0,2126,414,96,3605,-4,0,93,13,280206,0
280231,-77,-2064,349,-89,40,153,14899,10,1,537,168,35662,40,32,127,0,0,3941,-32,0,2126,414,96,3615,-4,0,93,13,280222,0
280241,-81,-2058,347,-90,32,153,14904,11,4,548,144,35643,60,32,127,0,0,3946,32,0,2126,414,96,3625,-4,0,93,13,280222,0
280251,-93,-2065,345,-89,40,158,14922,56,34,468,144,35642,75,32,127,0,0,3946,0,0,2126,414,96,3635,-4,0,93,13,280253,0
280261,-67,-2056,339,-84,41,170,14957,81,63,260,96,35650,54,32,127,0,0,3946,-10,0,2126,414,96,3645,-4,0,93,13,280253,0
280271,-67,-2049,336,-81,40,158,14959,-17,-35,317,88,35650,42,32,127,0,0,3948,10,0,2126,414,96,3655,-4,0,93,13,280253,0
280281,-86,-2058,341,-78,45,166,14961,9,-67,329,88,35655,25,32,127,0,0,3950,0,0,2126,414,96,3665,-4,0,93,13,280269,0
280291,-104,-2057,340,-79,37,158,14962,20,11,373,72,35660,28,32,127,0,0,3952,21,0,2126,414,96,3675,-4,0,93,13,280269,0
280301,-99,-2051,356,-75,46,161,14962,0,-3,394,112,35660,34,32,127,0,0,3952,21,0,2126,414,96,3685,-4,0,93,13,280300,0
280311,-110,-2060,364,-82,39,157,14964,10,3,434,128,35652,15,32,127,0,0,3955,43,0,2126,414,96,3695,-4,0,93,13,280300,0
280321,-103,-2061,358,-88,37,149,14968,16,11,475,144,35648,19,32,127,0,0,3955,0,0,2126,414,96,3705,-4,0,93,13,280300,0
280331,-102,-2066,358,-93,39,144,14977,12,15,422,128,35647,17,32,127,0,0,3955,0,0,2126,414,96,3715,-4,0,93,13,280331,0
280341,-110,-2062,360,-95,45,142,14985,17,3,367,112,35651,15,32,127,0,0,3955,10,0,2126,414,96,3725,-4,0,93,13,280331,0
280351,-114,-2066,360,-96,34,130,14998,30,8,303,80,35652,0,32,127,0,0,3952,-43,0,2126,414,96,3735,-4,0,93,13,280331,0
280361,-104,-2063,352,-96,36,113,15004,-4,-5,244,72,35661,-15,32,127,0,0,3955,0,0,2126,414,96,3745,-4,0,93,13,280347,0
280371,-117,-2060,348,-102,33,112,15004,3,-26,262,72,35656,-2,32,127,0,0,3952,-21,0,2126,414,96,3755,-4,0,93,13,280378,0
280382,-114,-2055,350,-102,31,103,15004,5,-4,255,72,35652,-2,32,127,0,0,3955,-10,0,2126,414,96,3766,-4,0,93,13,280378,0
280392,-96,-2061,346,-101,36,98,15005,1,6,281,72,35644,0,32,127,0,0,3951,-49,0,2126,414,96,3776,-4,0,93,13,280378,0
280402,-110,-2058,349,-104,30,94,15003,0,-1,234,72,35636,-10,32,127,0,0,3951,0,0,2126,414,96,3786,-4,0,93,13,280378,0
280412,-77,-2060,347,-105,31,86,15003,-10,1,223,56,35636,0,32,127,0,0,3956,38,0,2126,414,96,3796,-4,0,93,13,280409,0
280422,-101,-2064,350,-106,21,87,15004,-2,4,230,24,35635,2,32,127,0,0,3953,-21,0,2126,414,96,3806,-4,0,93,13,280409,0
280432,-115,-2064,343,-110,33,80,15004,8,6,217,48,35638,0,32,127,0,0,3952,0,0,2126,414,96,3816,-4,0,93,13,280425,0
280442,-95,-2062,348,-108,24,78,15002,-5,-5,216,24,35639,-9,32,127,0,0,3953,-5,0,2126,414,96,3826,-4,0,93,13,280425,0
280452,-98,-2067,348,-107,35,72,15003,2,-3,181,0,35647,-7,32,127,0,0,3948,-49,0,2126,414,96,3836,-4,0,93,13,280456,0
280462,-112,-2068,346,-111,41,66,15001,-3,-1,94,8,35648,-2,32,127,0,0,3948,-54,0,2126,414,96,3846,-4,0,93,13,280456,0
280472,-79,-2061,346,-107,43,72,15000,0,0,43,8,35644,-2,32,127,0,0,3945,-32,0,2126,414,96,3856,-4,0,93,13,280472,0
280482,-67,-2064,353,-115,37,77,14996,-20,-2,-42,-8,35641,8,32,127,0,0,3946,5,0,2126,414,96,3866,-4,0,93,13,280488,0
280492,-82,-2060,347,-113,34,83,14995,0,-2,-36,-24,35644,4,32,127,0,0,3944,-21,0,2126,414,96,3876,-4,0,93,13,280488,0
280502,-71,-2061,343,-106,27,91,14993,1,3,-55,0,35641,2,32,127,0,0,3942,5,0,2126,414,96,3886,-4,0,93,13,280488,0
280512,-63,-2061,347,-110,27,100,14992,-12,3,-54,-16,35653,7,32,127,0,0,3944,0,0,2126,414,96,3896,-4,0,93,13,280488,0
280522,-39,-2062,346,-110,22,108,14987,-27,-10,-140,-16,35656,1,32,127,0,0,3944,76,0,2126,414,96,3906,-4,0,93,13,280519,0
280532,-89,-2054,350,-112,31,117,14988,7,-1,-17,-8,35658,4,32,127,0,0,3944,0,0,2126,414,96,3916,-4,0,93,13,280534,0
280542,-80,-2063,348,-107,30,119,14986,-5,5,-14,-8,35648,6,32,127,0,0,3944,0,0,2126,414,96,3926,-4,0,93,13,280534,0
280552,-76,-2060,352,-110,28,119,14985,-12,-6,-43,16,35641,5,32,127,0,0,3942,10,0,2126,414,96,3936,-4,0,93,13,280534,0
280562,-61,-2060,350,-113,26,117,14984,-15,-7,-73,-32,35648,9,32,127,0,0,3948,71,0,2126,414,96,3946,-4,0,93,13,280550,0
280572,-79,-2061,341,-114,32,116,14986,3,0,-4,-8,35651,9,32,127,0,0,3947,43,0,2126,414,96,3956,-4,0,93,13,280581,0
280582,-65,-2064,353,-117,28,121,14987,9,-1,5,-16,35656,21,32,127,0,0,3944,10,0,2126,414,96,3966,-4,0,93,13,280581,0
280592,-77,-2059,358,-114,26,119,14985,-5,-4,-55,-8,35652,26,32,127,0,0,3947,54,0,2126,414,96,3976,-4,0,93,13,280613,0
280602,-36,-2044,349,-126,25,118,14986,-6,-3,-31,-32,35649,12,32,127,0,0,3945,32,0,2126,414,96,3986,-4,0,93,13,280613,0
280612,-79,-2057,347,-125,32,119,14985,0,-3,-25,-8,35647,-3,32,127,0,0,3944,27,0,2126,414,96,3996,-4,0,93,13,280613,0
280622,-75,-2059,340,-123,22,116,14984,-7,-7,-29,-8,35645,7,32,127,0,0,3947,60,0,2126,414,96,4006,-4,0,93,13,280613,0
280633,-79,-2063,333,-121,29,113,14986,0,1,-11,-16,35643,7,32,127,0,0,3944,-10,0,2126,414,96,4017,-4,0,93,13,280613,0
280643,-92,-2063,331,-117,32,111,14986,11,3,-5,-8,35656,7,32,127,0,0,3946,21,0,2126,414,96,4027,-4,0,93,13,280628,0
280653,-56,-2053,341,-114,24,130,14987,3,2,15,-16,35673,6,32,127,0,0,3946,10,0,2126,414,96,4037,-4,0,93,13,280659,0
280663,-67,-2052,346,-113,29,132,14987,4,2,10,-56,35676,-7,32,127,0,0,3946,-10,0,2126,414,96,4047,-4,0,93,13,280659,0
280673,-75,-2061,338,-112,28,134,14987,9,-2,-7,-48,35663,6,32,127,0,0,3944,-10,0,2126,414,96,4057,-4,0,93,13,280659,0
280683,-100,-2064,334,-108,31,134,14987,15,4,1,-8,35647,-7,32,127,0,0,3944,10,0,2126,414,96,4067,-4,0,93,13,280659,0
280693,-56,-2054,335,-111,29,124,14987,1,5,9,-24,35666,-8,32,127,0,0,3946,0,0,2126,414,96,4077,-4,0,93,13,280691,0
280703,-92,-2065,335,-109,29,133,14986,7,-4,9,-8,35661,-6,32,127,0,0,3946,21,0,2126,414,96,4087,-4,0,93,13,280691,0
280713,-67,-2061,340,-112,29,142,14985,-5,1,4,-8,35662,-3,32,127,0,0,3944,0,0,2126,414,96,4097,-4,0,93,13,280691,0
280723,-80,-2061,336,-111,34,140,14987,9,0,29,16,35645,-1,32,127,0,0,3946,0,0,2126,414,96,4107,-4,0,93,13,280722,0
280733,-78,-2062,334,-104,32,145,14986,-7,0,46,16,35661,-12,32,127,0,0,3946,0,0,2126,414,96,4117,-4,0,93,13,280722,0
280743,-78,-2062,331,-104,21,146,14988,1,-3,45,16,35661,-23,32,127,0,0,3948,21,0,2126,414,96,4127,-4,0,93,13,280738,0
280753,-64,-2055,342,-103,29,160,14990,3,6,111,32,35661,-18,32,127,0,0,3946,-10,0,2126,414,96,4137,-4,0,93,13,280738,0
280763,-70,-2051,332,-103,26,165,14991,-3,1,111,32,35650,15,32,127,0,0,3948,0,0,2126,414,96,4147,-4,0,93,13,280769,0
280773,-70,-2065,327,-103,16,170,14992,-1,-5,117,24,35657,6,32,127,0,0,3948,0,0,2126,414,96,4157,-4,0,93,13,280769,0
280783,-88,-2059,332,-93,15,171,14992,7,0,167,80,35656,-6,32,127,0,0,3952,32,0,2126,414,96,4167,-4,0,93,13,280769,0
280793,-91,-2064,327,-96,28,164,15001,18,22,236,88,35653,-17,32,127,0,0,3955,10,0,2126,414,96,4177,-4,0,93,13,280862,0
280803,-90,-2072,332,-92,33,169,15003,3,0,255,72,35647,-30,32,127,0,0,3955,21,0,2126,414,96,4187,-4,0,93,13,280862,0
280813,-94,-2065,336,-92,31,170,15005,10,-11,275,72,35645,-16,32,127,0,0,3959,32,0,2126,414,96,4197,-4,0,93,13,280862,0
280823,-95,-2067,339,-83,30,176,15008,6,8,334,120,35644,-18,32,127,0,0,3959,21,0,2126,414,96,4207,-4,0,93,13,280878,0
280833,-71,-2060,343,-85,35,183,15011,2,-1,352,104,35648,-11,32,127,0,0,3961,43,0,2126,414,96,4217,-4,0,93,13,280878,0
280843,-87,-2063,343,-84,25,184,15017,16,5,404,88,35649,-7,32,127,0,0,3963,21,0,2126,414,96,4227,-4,0,93,13,280878,0
280853,-99,-2055,347,-89,21,192,15021,22,7,473,136,35652,2,32,127,0,0,3963,10,0,2126,414,96,4237,-4,0,93,13,280878,0
280863,-76,-2060,350,-88,25,193,15022,0,-1,446,128,35648,-15,32,127,0,0,3966,10,0,2126,414,96,4247,-4,0,93,13,280878,0
280873,-100,-2052,346,-87,18,194,15023,1,-7,470,152,35648,-20,32,127,0,0,3968,43,0,2126,414,96,4257,-4,0,93,13,280878,0
280883,-121,-2051,330,-92,12,185,15031,24,11,545,184,35648,-30,32,127,0,0,3972,54,0,2126,414,96,4267,-4,0,93,13,280878,0
280894,-115,-2059,325,-80,23,165,15044,30,21,576,184,35650,-18,32,127,0,0,3972,0,0,2126,414,96,4278,-4,0,93,13,280894,0
280904,-110,-2057,322,-77,29,153,15077,96,48,410,120,35664,-18,32,127,0,0,3975,0,0,2126,414,96,4288,-4,0,93,13,280894,0
280914,-85,-2062,334,-75,25,149,15107,48,27,310,80,35672,-34,32,127,0,0,3981,49,0,2126,414,96,4298,-4,0,93,13,280894,0
280924,-118,-2058,336,-73,21,139,15113,18,-60,407,88,35683,-41,32,127,0,0,3977,-21,0,2126,414,96,4308,-4,0,93,13,280925,0
280934,-122,-2064,341,-75,37,126,15121,20,-33,331,96,35677,-46,32,127,0,0,3979,5,0,2126,414,96,4318,-4,0,93,13,280925,0
280944,-109,-2057,348,-82,28,118,15140,49,21,279,56,35672,-43,32,127,0,0,3979,-32,0,2126,414,96,4328,-4,0,93,13,280925,0
280954,-102,-2065,359,-86,31,113,15145,-3,-8,219,48,35656,-43,32,127,0,0,3979,0,0,2126,414,96,4338,-4,0,93,13,280941,0
280964,-101,-2062,351,-82,31,105,15144,-3,-40,209,72,35655,-37,32,127,0,0,3978,16,0,2126,414,96,4348,-4,0,93,13,280956,0
280974,-93,-2065,338,-95,29,95,15146,1,0,217,48,35667,-30,32,127,0,0,3979,0,0,2126,414,96,4358,-4,0,93,13,280972,0
280984,-85,-2065,337,-87,31,100,15145,-6,-1,220,48,35667,-11,32,127,0,0,3979,0,0,2126,414,96,4368,-4,0,93,13,280972,0
280994,-92,-2062,343,-89,28,105,15144,-7,-2,189,48,35664,10,32,127,0,0,3975,-16,0,2126,414,96,4378,-4,0,93,13,280972,0
281004,-74,-2062,341,-92,28,96,15145,4,-3,189,24,35657,5,32,127,0,0,3980,-16,0,2126,414,96,4388,-4,0,93,13,281003,0
281014,-110,-2063,333,-92,26,104,15145,2,4,220,48,35662,4,32,127,0,0,3979,0,0,2126,414,96,4398,-4,0,93,13,281003,0
281024,-95,-2070,340,-90,33,102,15144,1,-3,169,48,35660,-9,32,127,0,0,3979,10,0,2126,414,96,4408,-4,0,93,13,281019,0
281034,-86,-2050,341,-87,27,104,15143,-11,2,115,24,35659,-13,32,127,0,0,3973,-43,0,2126,414,96,4418,-4,0,93,13,281019,0
281044,-109,-2059,340,-90,25,108,15143,10,1,67,8,35656,9,32,127,0,0,3978,16,0,2126,414,96,4428,-4,0,93,13,281034,0
281054,-105,-2058,344,-94,24,104,15143,5,2,139,8,35661,5,32,127,0,0,3974,-38,0,2126,414,96,4438,-4,0,93,13,281034,0
281064,-96,-2062,334,-95,31,91,15144,11,8,117,0,35661,20,32,127,0,0,3974,-71,0,2126,414,96,4448,-4,0,93,13,281066,0
281074,-116,-2059,338,-94,31,90,15143,11,-6,88,8,35673,-5,32,127,0,0,3974,-32,0,2126,414,96,4458,-4,0,93,13,281066,0
281084,-95,-2066,336,-88,32,78,15141,3,1,86,8,35679,4,32,127,0,0,3974,-5,0,2126,414,96,4468,-4,0,93,13,281066,0
281094,-87,-2072,340,-91,34,78,15141,1,1,81,32,35686,10,32,127,0,0,3973,-10,0,2126,414,96,4478,-4,0,93,13,281081,0
281104,-85,-2060,338,-93,29,85,15141,-1,5,39,-16,35669,26,32,127,0,0,3972,-38,0,2126,414,96,4488,-4,0,93,13,281112,0
281114,-102,-2070,335,-95,34,89,15139,2,-3,39,-8,35668,13,32,127,0,0,3972,-60,0,2126,414,96,4498,-4,0,93,13,281112,0
281124,-84,-2068,336,-99,40,83,15139,10,4,-22,-8,35663,7,32,127,0,0,3972,0,0,2126,414,96,4508,-4,0,93,13,281112,0
281135,-73,-2055,341,-95,32,86,15137,-1,1,-98,-80,35664,-2,32,127,0,0,3970,-10,0,2126,414,96,4519,-4,0,93,13,281128,0
281145,-97,-2060,332,-99,36,86,15134,4,-1,-98,-24,35654,24,32,127,0,0,3968,-32,0,2126,414,96,4529,-4,0,93,13,281128,0
281155,-83,-2065,330,-93,31,84,15131,-8,3,-144,-40,35669,30,32,127,0,0,3968,-10,0,2126,414,96,4539,-4,0,93,13,281144,0
281165,-77,-2056,340,-90,42,84,15130,0,1,-149,-40,35671,26,32,127,0,0,3968,21,0,2126,414,96,4549,-4,0,93,13,281144,0
281175,-76,-2058,335,-93,40,89,15128,-2,8,-178,-24,35664,7,32,127,0,0,3968,21,0,2126,414,96,4559,-4,0,93,13,281159,0
281185,-62,-2057,340,-88,41,94,15126,-7,7,-152,-64,35661,-2,32,127,0,0,3966,-10,0,2126,414,96,4569,-4,0,93,13,281159,0
281195,-68,-2062,335,-95,36,102,15125,-1,-5,-188,-96,35657,13,32,127,0,0,3966,-21,0,2126,414,96,4579,-4,0,93,13,281191,0
281205,-73,-2060,338,-93,29,111,15116,-27,-12,-154,-72,35662,20,32,127,0,0,3963,-10,0,2126,414,96,4589,-4,0,93,13,281191,0
281215,-74,-2060,335,-92,35,115,15103,-37,-24,-130,-32,35656,15,32,127,0,0,3963,0,0,2126,414,96,4599,-4,0,93,13,281206,0
281225,-85,-2064,333,-93,36,120,15095,-8,-1,-39,-16,35663,4,32,127,0,0,3963,0,0,2126,414,96,4609,-4,0,93,13,281206,0
281235,-78,-2067,333,-89,36,124,15095,-5,25,-70,-48,35658,2,32,127,0,0,3961,-32,0,2126,414,96,4619,-4,0,93,13,281237,0
281245,-95,-2065,335,-89,40,116,15091,0,0,-70,-40,35666,-9,32,127,0,0,3963,21,0,2126,414,96,4629,-4,0,93,13,281237,0
281255,-80,-2058,339,-89,36,124,15092,0,6,-51,-8,35657,-22,32,127,0,0,3963,0,0,2126,414,96,4639,-4,0,93,13,281253,0
281265,-83,-2067,336,-88,32,121,15093,-1,11,-43,-16,35659,-22,32,127,0,0,3963,0,0,2126,414,96,4649,-4,0,93,13,281253,0
281275,-86,-2061,336,-87,35,123,15092,0,0,-60,-48,35647,-12,32,127,0,0,3963,0,0,2126,414,96,4659,-4,0,93,13,281300,0
281285,-83,-2057,336,-89,34,124,15093,2,1,-39,-16,35650,1,32,127,0,0,3963,-10,0,2126,414,96,4669,-4,0,93,13,281300,0
281295,-99,-2057,333,-88,36,122,15094,16,7,-38,-48,35653,-12,32,127,0,0,3963,0,0,2126,414,96,4679,-4,0,93,13,281315,0
281305,-62,-2061,334,-80,36,117,15092,-2,3,-47,-8,35652,9,32,127,0,0,3963,21,0,2126,414,96,4689,-4,0,93,13,281315,0
281315,-68,-2063,333,-80,35,114,15091,-5,-2,-35,24,35658,7,32,127,0,0,3963,10,0,2126,414,96,4699,-4,0,93,13,281315,0
281325,-106,-2059,333,-78,37,123,15092,5,0,-48,-48,35657,-2,32,127,0,0,3963,0,0,2126,414,96,4709,-4,0,93,13,281315,0
281335,-85,-2063,341,-76,32,125,15092,1,0,-64,-8,35655,-10,32,127,0,0,3963,21,0,2126,414,96,4719,-4,0,93,13,281315,0
281345,-80,-2071,340,-80,39,124,15092,2,-5,-53,-48,35662,5,32,127,0,0,3963,-10,0,2126,414,96,4729,-4,0,93,13,281331,0
281355,-90,-2066,334,-79,39,130,15092,2,-1,-48,-48,35664,12,32,127,0,0,3963,-10,0,2126,414,96,4739,-4,0,93,13,281347,0
281365,-89,-2060,336,-82,39,141,15091,4,-6,-32,-8,35660,10,32,127,0,0,3961,-21,0,2126,414,96,4749,-4,0,93,13,281347,0
281376,-85,-2049,337,-75,39,134,15090,-4,-5,-89,-32,35662,2,32,127,0,0,3964,32,0,2126,414,96,4760,-4,0,93,13,281378,0
281386,-85,-2064,333,-80,37,131,15091,2,6,-30,-32,35656,-9,32,127,0,0,3964,-5,0,2126,414,96,4770,-4,0,93,13,281378,0
281396,-114,-2062,334,-77,39,129,15091,5,6,-44,-8,35662,0,32,127,0,0,3963,32,0,2126,414,96,4780,-4,0,93,13,281378,0
281406,-69,-2071,334,-72,36,121,15092,-3,1,-44,-8,35654,4,32,127,0,0,3963,5,0,2126,414,96,4790,-4,0,93,13,281409,0
281416,-95,-2058,337,-77,35,133,15092,1,5,-67,-56,35668,-9,32,127,0,0,3966,10,0,2126,414,96,4800,-4,0,93,13,281409,0
281426,-97,-2060,336,-73,47,125,15090,5,-2,-34,-24,35662,-20,32,127,0,0,3964,10,0,2126,414,96,4810,-4,0,93,13,281409,0
281436,-102,-2059,339,-73,37,116,15091,-3,-1,-12,-48,35663,-12,32,127,0,0,3966,-10,0,2126,414,96,4820,-4,0,93,13,281425,0
281446,-102,-2063,330,-68,39,118,15089,5,-2,-27,-8,35650,-12,32,127,0,0,3963,27,0,2126,414,96,4830,-4,0,93,13,281440,0
281456,-88,-2053,337,-71,40,114,15089,-7,6,-1,-8,35660,-21,32,127,0,0,3963,0,0,2126,414,96,4840,-4,0,93,13,281440,0
281466,-85,-2062,339,-65,37,118,15090,-1,-2,-34,-8,35662,-25,32,127,0,0,3963,5,0,2126,414,96,4850,-4,0,93,13,281456,0
281476,-99,-2059,349,-68,37,116,15091,2,-3,-11,-8,35659,-37,32,127,0,0,3963,0,0,2126,414,96,4860,-4,0,93,13,281456,0
281486,-89,-2063,349,-77,31,113,15090,0,-5,-22,-8,35646,-26,32,127,0,0,3960,-16,0,2126,414,96,4870,-4,0,93,13,281472,0
281496,-68,-2057,346,-80,39,110,15090,0,-1,-25,-8,35653,-25,32,127,0,0,3960,-43,0,2126,414,96,4880,-4,0,93,13,281487,0
281506,-101,-2067,332,-80,34,107,15090,3,1,-20,-8,35666,-21,32,127,0,0,3963,-10,0,2126,414,96,4890,-4,0,93,13,281487,0
281516,-82,-2057,335,-81,38,114,15089,-1,-5,-33,-24,35667,-20,32,127,0,0,3964,21,0,2126,414,96,4900,-4,0,93,13,281519,0
281526,-83,-2065,333,-78,38,113,15091,3,5,-38,-32,35666,-14,32,127,0,0,3964,0,0,2126,414,96,4910,-4,0,93,13,281519,0
281536,-118,-2073,341,-79,31,118,15090,8,2,-82,-32,35645,-7,32,127,0,0,3964,43,0,2126,414,96,4920,-4,0,93,13,281534,0
281546,-82,-2061,341,-74,42,106,15090,1,6,-88,-32,35645,-12,32,127,0,0,3961,0,0,2126,414,96,4930,-4,0,93,13,281534,0
281556,-114,-2068,341,-79,38,107,15089,7,1,-77,-24,35636,-7,32,127,0,0,3961,0,0,2126,414,96,4940,-4,0,93,13,281550,0
281566,-92,-2062,337,-78,38,95,15086,-5,-2,-119,-48,35648,-19,32,127,0,0,3962,38,0,2126,414,96,4950,-4,0,93,13,281581,0
281576,-89,-2061,332,-76,47,97,15086,-8,-3,-134,-48,35656,-15,32,127,0,0,3959,10,0,2126,414,96,4960,-4,0,93,13,281581,0
281586,-92,-2065,338,-73,42,86,15085,-2,0,-176,-48,35664,-19,32,127,0,0,3959,5,0,2126,414,96,4970,-4,0,93,13,281581,0
281596,-97,-2066,341,-70,46,89,15084,-8,-4,-177,-64,35659,-20,32,127,0,0,3957,-5,0,2126,414,96,4980,-4,0,93,13,281581,0
281606,-83,-2059,339,-77,35,86,15082,5,-7,-192,-56,35655,-7,32,127,0,0,3957,0,0,2126,414,96,4990,-4,0,93,13,281581,0
281616,-81,-2063,335,-74,46,82,15081,0,6,-216,-64,35653,-7,32,127,0,0,3953,-27,0,2126,414,96,5000,-4,0,93,13,281597,0
281627,-84,-2060,336,-70,31,85,15077,-8,-2,-239,-80,35658,-1,32,127,0,0,3952,-21,0,2126,414,96,5011,-4,0,93,13,281628,0
281637,-86,-2062,345,-70,36,84,15075,2,-2,-261,-72,35665,-18,32,127,0,0,3952,-21,0,2126,414,96,5021,-4,0,93,13,281644,0
281647,-70,-2059,351,-77,34,86,15073,-16,3,-298,-88,35663,-23,32,127,0,0,3952,0,0,2126,414,96,5031,-4,0,93,13,281644,0
281657,-83,-2055,340,-82,35,85,15070,-2,-5,-312,-72,35656,-14,32,127,0,0,3952,0,0,2126,414,96,5041,-4,0,93,13,281644,0
281667,-93,-2058,345,-79,30,87,15065,-9,0,-326,-120,35649,-9,32,127,0,0,3948,-21,0,2126,414,96,5051,-4,0,93,13,281659,0
281677,-88,-2052,339,-80,29,84,15049,-45,-26,-268,-96,35667,-17,32,127,0,0,3948,-21,0,2126,414,96,5061,-4,0,93,13,281659,0
281687,-71,-2054,335,-75,28,84,15013,-100,-69,-109,-48,35667,-26,32,127,0,0,3946,0,0,2126,414,96,5071,-4,0,93,13,281675,0
281697,-104,-2053,344,-80,35,80,15009,26,26,-93,-32,35664,-13,32,127,0,0,3944,-32,0,2126,414,96,5081,-4,0,93,13,281690,0
281707,-55,-2056,344,-78,28,70,15003,-16,67,-168,-48,35645,11,32,127,0,0,3944,0,0,2126,414,96,5091,-4,0,93,13,281706,0
281717,-59,-2075,342,-80,23,69,15004,-5,-3,-198,-48,35650,12,32,127,0,0,3944,21,0,2126,414,96,5101,-4,0,93,13,281706,0
281727,-87,-2057,346,-78,30,76,15005,0,10,-223,-112,35655,4,32,127,0,0,3939,-21,0,2126,414,96,5111,-4,0,93,13,281706,0
281737,-88,-2071,347,-85,36,64,15000,-3,-12,-254,-96,35657,-12,32,127,0,0,3939,-32,0,2126,414,96,5121,-4,0,93,13,281737,0
281747,-68,-2073,344,-87,33,64,14999,-13,-3,-307,-120,35654,4,32,127,0,0,3937,-32,0,2126,414,96,5131,-4,0,93,13,281737,0
281757,-81,-2069,340,-82,32,58,14992,-19,-10,-290,-104,35653,15,32,127,0,0,3935,-54,0,2126,414,96,5141,-4,0,93,13,281737,0
281767,-55,-2068,347,-87,30,69,14980,-33,-21,-347,-128,35653,17,32,127,0,0,3933,-32,0,2126,414,96,5151,-4,0,93,13,281753,0
281777,-60,-2065,353,-89,42,70,14948,-75,-50,-182,-56,35661,2,32,127,0,0,3930,-32,0,2126,414,96,5161,-4,0,93,13,281769,0
281787,-71,-2067,350,-91,40,80,14942,9,17,-232,-64,35658,-3,32,127,0,0,3930,0,0,2126,414,96,5171,-4,0,93,13,281784,0
281797,-40,-2067,345,-91,37,101,14941,-9,61,-238,-96,35662,11,32,127,0,0,3928,-32,0,2126,414,96,5181,-4,0,93,13,281784,0
281807,-51,-2058,336,-95,38,107,14940,7,-4,-285,-96,35660,23,32,127,0,0,3928,-10,0,2126,414,96,5191,-4,0,93,13,281784,0
281817,-55,-2059,334,-92,36,122,14939,-2,1,-287,-88,35668,32,32,127,0,0,3928,-10,0,2126,414,96,5201,-4,0,93,13,281815,0
281827,-57,-2061,334,-89,30,135,14940,0,4,-294,-80,35674,24,32,127,0,0,3928,10,0,2126,414,96,5211,-4,0,93,13,281815,0
281837,-31,-2055,331,-92,42,133,14939,-16,2,-307,-40,35673,15,32,127,0,0,3928,21,0,2126,414,96,5221,-4,0,93,13,281815,0
281847,-30,-2053,329,-83,32,143,14939,-8,-7,-303,-80,35676,9,32,127,0,0,3930,21,0,2126,414,96,5231,-4,0,93,13,281831,0
281857,-60,-2048,340,-83,44,156,14941,3,1,-290,-80,35666,18,32,127,0,0,3928,0,0,2126,414,96,5241,-4,0,93,13,281847,0
281867,-76,-2051,340,-81,37,156,14940,9,3,-291,-80,35664,23,32,127,0,0,3930,21,0,2126,414,96,5251,-4,0,93,13,281847,0
281878,-73,-2065,346,-85,38,157,14942,8,3,-261,-80,35663,29,32,127,0,0,3932,27,0,2126,414,96,5262,-4,0,93,13,281956,0
281888,-100,-2064,344,-88,35,156,14941,2,-2,-227,-56,35677,21,32,127,0,0,3930,0,0,2126,414,96,5272,-4,0,93,13,281972,0
281898,-98,-2067,333,-83,24,155,14941,2,0,-213,-64,35676,24,32,127,0,0,3934,5,0,2126,414,96,5282,-4,0,93,13,281972,0
281908,-92,-2072,331,-86,36,155,14943,3,2,-158,-16,35667,32,32,127,0,0,3932,21,0,2126,414,96,5292,-4,0,93,13,281972,0
281918,-84,-2070,340,-84,27,153,14944,-1,0,-96,-16,35653,31,32,127,0,0,3928,-60,0,2126,414,96,5302,-4,0,93,13,281972,0
281928,-66,-2064,340,-77,26,149,14945,12,-5,-68,-24,35650,29,32,127,0,0,3935,-21,0,2126,414,96,5312,-4,0,93,13,281972,0
281938,-81,-2059,334,-77,31,137,14944,-11,-3,-36,-24,35650,14,32,127,0,0,3938,27,0,2126,414,96,5322,-4,0,93,13,281972,0
281948,-97,-2067,341,-73,24,136,14947,-4,-2,-19,24,35649,25,32,127,0,0,3939,82,0,2126,414,96,5332,-4,0,93,13,281972,0
281958,-52,-2064,339,-75,34,129,14949,-3,4,-1,16,35646,33,32,127,0,0,3939,60,0,2126,414,96,5342,-4,0,93,13,281972,0
281968,-83,-2062,344,-75,32,131,14949,-8,-5,18,24,35647,36,32,127,0,0,3936,27,0,2126,414,96,5352,-4,0,93,13,281972,0
281978,-51,-2061,334,-73,34,110,14946,-18,-12,-19,24,35649,26,32,127,0,0,3939,76,0,2126,414,96,5362,-4,0,93,13,281987,0
281988,-37,-2070,333,-66,29,110,14951,3,4,34,-8,35653,25,32,127,0,0,3937,-10,0,2126,414,96,5372,-4,0,93,13,281987,0
281998,-109,-2063,331,-65,26,121,14951,4,3,18,16,35655,44,32,127,0,0,3939,10,0,2126,414,96,5382,-4,0,93,13,281987,0
282008,-95,-2062,342,-64,24,118,14950,0,-3,38,16,35654,66,32,127,0,0,3939,5,0,2126,414,96,5392,-4,0,93,13,281987,0
282018,-64,-2068,336,-55,24,111,14952,3,2,51,-8,35666,75,32,127,0,0,3940,-5,0,2126,414,96,5402,-4,0,93,13,282018,0
282028,-91,-2062,329,-56,22,112,14951,11,-1,60,-8,35670,60,32,127,0,0,3940,-5,0,2126,414,96,5412,-4,0,93,13,282034,0
282038,-80,-2062,335,-50,34,116,14951,3,2,58,16,35663,36,32,127,0,0,3936,-32,0,2126,414,96,5422,-4,0,93,13,282034,0
282048,-58,-2066,329,-44,31,120,14951,0,0,19,16,35654,24,32,127,0,0,3936,-10,0,2126,414,96,5432,-4,0,93,13,282034,0
282058,-45,-2058,332,-34,30,115,14949,-3,0,-3,-8,35653,24,32,127,0,0,3937,10,0,2126,414,96,5442,-4,0,93,13,282034,0
282068,-63,-2065,335,-29,28,118,14950,-4,2,4,24,35658,28,32,127,0,0,3939,60,0,2126,414,96,5452,-4,0,93,13,282065,0
282078,-73,-2061,334,-29,37,125,14950,-9,3,53,16,35661,29,32,127,0,0,3939,0,0,2126,414,96,5462,-4,0,93,13,282065,0
282088,-83,-2061,338,-21,43,125,14952,-2,-8,48,16,35661,28,32,127,0,0,3936,-32,0,2126,414,96,5472,-4,0,93,13,282081,0
282098,-91,-2053,347,-15,38,122,14951,0,-3,27,16,35665,22,32,127,0,0,3939,-5,0,2126,414,96,5482,-4,0,93,13,282081,0
282108,-91,-2064,344,-17,39,126,14950,2,-2,51,16,35668,18,32,127,0,0,3939,0,0,2126,414,96,5492,-4,0,93,13,282097,0
282118,-73,-2061,351,-21,40,119,14951,-2,3,38,16,35667,7,32,127,0,0,3936,-5,0,2126,414,96,5502,-4,0,93,13,282112,0
282129,-93,-2061,356,-17,37,126,14950,-1,0,51,16,35668,12,32,127,0,0,3939,-10,0,2126,414,96,5513,-4,0,93,13,282112,0
282139,-99,-2060,346,-18,25,122,14952,1,1,51,16,35672,12,32,127,0,0,3939,-10,0,2126,414,96,5523,-4,0,93,13,282159,0
282149,-87,-2053,339,-11,35,114,14950,0,2,25,24,35689,5,32,127,0,0,3939,32,0,2126,414,96,5533,-4,0,93,13,282159,0
282159,-72,-2057,346,-13,34,109,14950,-10,0,40,16,35680,15,32,127,0,0,3937,-10,0,2126,414,96,5543,-4,0,93,13,282159,0
282169,-95,-2064,347,-10,32,110,14952,4,2,29,-24,35673,8,32,127,0,0,3939,0,0,2126,414,96,5553,-4,0,93,13,282159,0
282179,-77,-2061,352,-11,39,111,14951,4,1,37,24,35655,16,32,127,0,0,3937,-10,0,2126,414,96,5563,-4,0,93,13,282159,0
282189,-61,-2058,357,-9,36,100,14949,-11,-4,-27,40,35654,16,32,127,0,0,3937,21,0,2126,414,96,5573,-4,0,93,13,282175,0
282199,-73,-2060,361,-15,27,98,14949,1,0,-57,8,35658,24,32,127,0,0,3937,32,0,2126,414,96,5583,-4,0,93,13,282190,0
282209,-74,-2060,359,-15,31,103,14950,1,7,-8,-40,35664,17,32,127,0,0,3935,-32,0,2126,414,96,5593,-4,0,93,13,282206,0
282219,-94,-2054,371,-21,30,94,14946,-13,-11,-106,-24,35666,18,32,127,0,0,3933,0,0,2126,414,96,5603,-4,0,93,13,282206,0
282229,-71,-2063,360,-20,31,78,14945,-14,-7,-156,-8,35661,17,32,127,0,0,3933,10,0,2126,414,96,5613,-4,0,93,13,282222,0
282239,-69,-2046,363,-22,39,79,14943,-27,-3,-230,-64,35660,29,32,127,0,0,3930,21,0,2126,414,96,5623,-4,0,93,13,282237,0
282249,-77,-2063,364,-24,34,61,14943,4,-4,-206,-40,35660,38,32,127,0,0,3928,-32,0,2126,414,96,5633,-4,0,93,13,282237,0
282259,-81,-2058,368,-25,43,53,14940,-15,-5,-291,-48,35659,35,32,127,0,0,3928,-10,0,2126,414,96,5643,-4,0,93,13,282237,0
282269,-77,-2069,369,-33,41,44,14940,5,-4,-306,-112,35662,21,32,127,0,0,3926,-32,0,2126,414,96,5653,-4,0,93,13,282268,0
282279,-88,-2068,380,-35,40,34,14934,-4,3,-373,-112,35677,2,32,127,0,0,3924,0,0,2126,414,96,5663,-4,0,93,13,282268,0
282289,-78,-2063,376,-50,39,29,14929,-4,-6,-377,-104,35674,3,32,127,0,0,3922,-32,0,2126,414,96,5673,-4,0,93,13,282284,0
282299,-64,-2062,380,-48,37,24,14917,-33,-13,-410,-128,35666,29,32,127,0,0,3919,-32,0,2126,414,96,5683,-4,0,93,13,282300,0
282309,-68,-2055,370,-60,41,20,14881,-104,-65,-231,-112,35655,40,32,127,0,0,3913,-54,0,2126,414,96,5693,-4,0,93,13,282315,0
282319,-106,-2045,368,-60,45,12,14839,-84,-57,-160,-80,35663,36,32,127,0,0,3911,-10,0,2126,414,96,5703,-4,0,93,13,282315,0
282329,-91,-2050,364,-61,53,-4,14812,-42,31,-103,-24,35669,28,32,127,0,0,3906,-10,0,2126,414,96,5713,-4,0,93,13,282331,0
282339,-50,-2053,374,-67,40,13,14813,0,86,-224,-104,35670,7,32,127,0,0,3902,-76,0,2126,414,96,5723,-4,0,93,13,282331,0
282349,-65,-2055,369,-70,46,4,14804,-20,23,-327,-128,35663,14,32,127,0,0,3900,-10,0,2126,414,96,5733,-4,0,93,13,282331,0
282359,-56,-2048,365,-76,36,7,14804,1,-6,-395,-104,35665,5,32,127,0,0,3897,-10,0,2126,414,96,5743,-4,0,93,13,282346,0
282369,-48,-2053,367,-81,35,18,14800,-20,6,-502,-176,35672,3,32,127,0,0,3891,-43,0,2126,414,96,5753,-4,0,93,13,282378,0
282380,-56,-2050,366,-80,46,13,14779,-45,-40,-473,-160,35673,14,32,127,0,0,3891,-16,0,2126,414,96,5764,-4,0,93,13,282378,0
282390,-41,-2053,371,-84,46,24,14754,-73,-39,-371,-128,35663,18,32,127,0,0,3889,-16,0,2126,414,96,5774,-4,0,93,13,282378,0
282400,-67,-2047,366,-89,45,18,14725,-49,-24,-324,-128,35654,38,32,127,0,0,3888,10,0,2126,414,96,5784,-4,0,93,13,282378,0
282410,-43,-2058,373,-94,41,33,14709,-46,25,-342,-120,35656,38,32,127,0,0,3879,-38,0,2126,414,96,5794,-4,0,93,13,282409,0
282420,-27,-2059,363,-93,42,33,14668,-92,-35,-147,-64,35656,48,32,127,0,0,3877,-38,0,2126,414,96,5804,-4,0,93,13,282409,0
282430,-56,-2062,368,-92,43,39,14664,13,31,-253,-112,35657,56,32,127,0,0,3880,-32,0,2126,414,96,5814,-4,0,93,13,282409,0
282440,-49,-2072,371,-96,37,30,14658,-12,67,-339,-104,35660,33,32,127,0,0,3873,21,0,2126,414,96,5824,-4,0,93,13,282425,0
282450,-68,-2060,363,-95,30,38,14649,-25,-13,-363,-136,35671,31,32,127,0,0,3866,-82,0,2126,414,96,5834,-4,0,93,13,282456,0
282460,-46,-2068,365,-101,37,42,14617,-86,-57,-276,-96,35663,39,32,127,0,0,3863,-38,0,2126,414,96,5844,-4,0,93,13,282456,0
282470,-86,-2062,360,-97,56,19,14604,7,-4,-242,-80,35652,42,32,127,0,0,3861,-76,0,2126,414,96,5854,-4,0,93,13,282456,0
282480,-13,-2071,367,-96,35,23,14603,-10,74,-345,-136,35652,28,32,127,0,0,3860,-65,0,2126,414,96,5864,-4,0,93,13,282456,0
282490,-50,-2066,375,-103,38,22,14598,-2,4,-428,-128,35662,16,32,127,0,0,3854,-60,0,2126,414,96,5874,-4,0,93,13,282487,0
282500,-46,-2063,371,-99,40,25,14591,-27,-11,-486,-160,35663,23,32,127,0,0,3852,-32,0,2126,414,96,5884,-4,0,93,13,282487,0
282510,-44,-2059,364,-107,38,23,14576,-44,-26,-457,-152,35651,32,32,127,0,0,3850,-32,0,2126,414,96,5894,-4,0,93,13,282487,0
282520,-40,-2059,364,-104,38,29,14536,-105,-69,-279,-104,35653,25,32,127,0,0,3848,-16,0,2126,414,96,5904,-4,0,93,13,282534,0
282530,-52,-2056,356,-101,43,31,14503,-52,-31,-250,-104,35659,6,32,127,0,0,3845,-54,0,2126,414,96,5914,-4,0,93,13,282550,0
282540,-18,-2058,351,-96,36,30,14475,-60,33,-160,-64,35660,5,32,127,0,0,3846,-5,0,2126,414,96,5924,-4,0,93,13,282550,0
282550,-13,-2061,350,-94,40,44,14473,2,58,-256,-80,35649,-6,32,127,0,0,3837,-16,0,2126,414,96,5934,-4,0,93,13,282550,0
282560,-25,-2063,356,-90,33,44,14468,-7,42,-346,-120,35646,-14,32,127,0,0,3836,-38,0,2126,414,96,5944,-4,0,93,13,282550,0
282570,-27,-2061,359,-93,35,51,14465,3,-4,-361,-112,35648,-32,32,127,0,0,3833,-49,0,2126,414,96,5954,-4,0,93,13,282550,0
282580,-9,-2056,365,-89,31,60,14460,-14,3,-413,-128,35660,-17,32,127,0,0,3834,-16,0,2126,414,96,5964,-4,0,93,13,282581,0
282590,-21,-2060,359,-89,36,76,14455,-7,-6,-419,-144,35660,-7,32,127,0,0,3832,-32,0,2126,414,96,5974,-4,0,93,13,282581,0
282600,-25,-2058,360,-92,34,92,14438,-43,-22,-364,-136,35663,8,32,127,0,0,3829,-27,0,2126,414,96,5984,-4,0,93,13,282596,0
282610,-40,-2057,357,-82,37,90,14405,-66,-57,-180,-88,35666,2,32,127,0,0,3834,-16,0,2126,414,96,5994,-4,0,93,13,282596,0
282620,-65,-2066,350,-84,40,101,14400,9,34,-212,-80,35671,3,32,127,0,0,3827,10,0,2126,414,96,6004,-4,0,93,13,282628,0
282631,-29,-2060,353,-85,33,102,14399,-3,56,-279,-72,35669,16,32,127,0,0,3825,-21,0,2126,414,96,6015,-4,0,93,13,282628,0
282641,-49,-2064,348,-77,29,111,14399,-1,-4,-317,-72,35663,13,32,127,0,0,3827,0,0,2126,414,96,6025,-4,0,93,13,282628,0
282651,-35,-2061,353,-71,35,109,14400,9,8,-286,-112,35654,13,32,127,0,0,3825,-43,0,2126,414,96,6035,-4,0,93,13,282628,0
282661,-22,-2052,364,-80,37,115,14398,-6,1,-320,-72,35644,12,32,127,0,0,3827,10,0,2126,414,96,6045,-4,0,93,13,282643,0
282671,-34,-2060,372,-73,32,119,14400,8,3,-287,-80,35643,9,32,127,0,0,3827,0,0,2126,414,96,6055,-4,0,93,13,282659,0
282681,-23,-2059,368,-75,37,121,14399,-1,5,-302,-72,35648,15,32,127,0,0,3825,0,0,2126,414,96,6065,-4,0,93,13,282675,0
282691,-28,-2059,363,-79,40,128,14400,0,4,-318,-112,35649,13,32,127,0,0,3827,0,0,2126,414,96,6075,-4,0,93,13,282690,0
282701,-15,-2064,368,-82,27,126,14399,0,2,-297,-72,35650,12,32,127,0,0,3825,-32,0,2126,414,96,6085,-4,0,93,13,282690,0
282711,-19,-2060,371,-84,36,128,14398,3,-3,-305,-72,35652,22,32,127,0,0,3827,0,0,2126,414,96,6095,-4,0,93,13,282690,0
282721,-29,-2067,376,-86,37,129,14398,-3,-4,-315,-112,35663,47,32,127,0,0,3825,0,0,2126,414,96,6105,-4,0,93,13,282721,0
282731,-34,-2062,370,-88,29,131,14396,-10,-5,-344,-56,35665,45,32,127,0,0,3825,10,0,2126,414,96,6115,-4,0,93,13,282721,0
282741,-52,-2067,369,-98,38,129,14398,5,1,-313,-72,35662,29,32,127,0,0,3827,0,0,2126,414,96,6125,-4,0,93,13,282737,0
282751,-59,-2057,372,-95,31,126,14398,-5,-1,-293,-72,35652,17,32,127,0,0,3827,0,0,2126,414,96,6135,-4,0,93,13,282737,0
282761,-46,-2063,369,-104,33,129,14398,2,0,-298,-80,35659,0,32,127,0,0,3825,-21,0,2126,414,96,6145,-4,0,93,13,282753,0
282771,-35,-2058,360,-102,39,117,14398,0,1,-310,-72,35657,6,32,127,0,0,3825,-21,0,2126,414,96,6155,-4,0,93,13,282768,0
282781,-56,-2046,366,-110,25,124,14398,2,0,-306,-72,35658,1,32,127,0,0,3827,0,0,2126,414,96,6165,-4,0,93,13,282768,0
282791,-40,-2041,363,-112,34,130,14398,-4,3,-292,-72,35655,7,32,127,0,0,3827,0,0,2126,414,96,6175,-4,0,93,13,282784,0
282801,-28,-2051,367,-114,36,126,14397,-5,-2,-294,-72,35661,5,32,127,0,0,3827,-10,0,2126,414,96,6185,-4,0,93,13,282784,0
282811,-45,-2055,364,-107,37,130,14399,0,3,-294,-72,35664,2,32,127,0,0,3827,-10,0,2126,414,96,6195,-4,0,93,13,282800,0
282821,-39,-2046,359,-116,42,138,14398,5,-2,-289,-72,35673,1,32,127,0,0,3827,10,0,2126,414,96,6205,-4,0,93,13,282815,0
282831,-16,-2046,357,-115,30,140,14399,-2,6,-294,-72,35672,-5,32,127,0,0,3827,0,0,2126,414,96,6215,-4,0,93,13,282815,0
282841,-32,-2054,355,-113,38,146,14398,3,-3,-302,-72,35674,12,32,127,0,0,3827,0,0,2126,414,96,6225,-4,0,93,13,282831,0
282851,-42,-2060,353,-108,40,148,14398,-4,5,-295,-72,35667,24,32,127,0,0,3827,0,0,2126,414,96,6235,-4,0,93,13,282831,0
282861,-31,-2065,356,-110,46,141,14400,7,0,-243,-96,35662,15,32,127,0,0,3829,10,0,2126,414,96,6245,-4,0,93,13,282846,0
282872,-46,-2068,356,-109,43,149,14397,-12,-2,-279,-72,35662,20,32,127,0,0,3827,10,0,2126,414,96,6256,-4,0,93,13,282878,0
282882,-27,-2062,361,-108,36,145,14400,8,-1,-245,-48,35664,36,32,127,0,0,3829,16,0,2126,414,96,6266,-4,0,93,13,282878,0
282892,-22,-2076,358,-106,32,150,14398,-8,8,-243,-72,35664,31,32,127,0,0,3830,10,0,2126,414,96,6276,-4,0,93,13,282878,0
282902,-47,-2068,360,-107,37,160,14400,2,0,-157,-56,35656,31,32,127,0,0,3826,-65,0,2126,414,96,6286,-4,0,93,13,282878,0
282912,-26,-2076,356,-107,36,153,14401,13,0,-184,-8,35655,24,32,127,0,0,3834,49,0,2126,414,96,6296,-4,0,93,13,282909,0
282922,-16,-2070,357,-103,30,168,14401,-19,-5,-142,-16,35653,20,32,127,0,0,3830,16,0,2126,414,96,6306,-4,0,93,13,282909,0
282932,-52,-2062,355,-106,29,168,14405,20,1,-90,-16,35652,20,32,127,0,0,3830,-16,0,2126,414,96,6316,-4,0,93,13,282909,0
282942,-52,-2067,350,-102,31,154,14404,8,-3,-54,-16,35650,24,32,127,0,0,3834,-10,0,2126,414,96,6326,-4,0,93,13,282940,0
282952,-38,-2062,347,-98,29,151,14407,3,2,30,8,35658,25,32,127,0,0,3833,-43,0,2126,414,96,6336,-4,0,93,13,282944,0
282962,-58,-2061,348,-97,31,140,14406,4,-5,12,0,35657,15,32,127,0,0,3833,-43,0,2126,414,96,6346,-4,0,93,13,282960,0
282972,-39,-2052,350,-98,33,143,14407,7,3,18,0,35656,18,32,127,0,0,3839,21,0,2126,414,96,6356,-4,0,93,13,282960,0
282982,-56,-2058,348,-93,39,140,14409,8,10,87,0,35659,7,32,127,0,0,3839,-5,0,2126,414,96,6366,-4,0,93,13,282976,0
282992,-55,-2057,349,-92,39,133,14408,-1,1,83,24,35657,17,32,127,0,0,3835,-16,0,2126,414,96,6376,-4,0,93,13,282976,0
283002,-46,-2058,358,-88,34,129,14408,2,-5,51,24,35650,11,32,127,0,0,3838,-5,0,2126,414,96,6386,-4,0,93,13,282991,0
283012,-48,-2053,357,-98,37,134,14407,-8,3,42,24,35648,11,32,127,0,0,3838,21,0,2126,414,96,6396,-4,0,93,13,283007,0
283022,-23,-2051,365,-95,36,136,14410,-1,4,74,16,35650,29,32,127,0,0,3835,-32,0,2126,414,96,6406,-4,0,93,13,283054,0
283032,-38,-2057,358,-98,35,132,14409,3,1,65,24,35660,17,32,127,0,0,3838,5,0,2126,414,96,6416,-4,0,93,13,283054,0
283042,-32,-2051,357,-100,36,131,14409,-5,-4,78,24,35659,10,32,127,0,0,3838,27,0,2126,414,96,6426,-4,0,93,13,283054,0
283052,-35,-2057,352,-103,28,133,14409,-10,-3,93,24,35662,14,32,127,0,0,3838,0,0,2126,414,96,6436,-4,0,93,13,283054,0
283062,-46,-2062,362,-99,30,131,14410,3,2,88,24,35660,20,32,127,0,0,3841,32,0,2126,414,96,6446,-4,0,93,13,283054,0
283072,-68,-2062,356,-101,27,134,14410,-3,-2,113,16,35667,16,32,127,0,0,3838,-5,0,2126,414,96,6456,-4,0,93,13,283054,0
283082,-68,-2069,362,-101,28,134,14410,0,-2,102,16,35670,29,32,127,0,0,3841,5,0,2126,414,96,6466,-4,0,93,13,283101,0
283092,-75,-2062,354,-102,35,132,14410,-4,1,110,40,35671,24,32,127,0,0,3840,21,0,2126,414,96,6476,-4,0,93,13,283101,0
283102,-17,-2066,359,-99,30,122,14412,0,2,125,16,35664,23,32,127,0,0,3838,-21,0,2126,414,96,6486,-4,0,93,13,283116,0
283112,-28,-2067,361,-99,32,121,14412,11,-2,98,16,35659,17,32,127,0,0,3835,-49,0,2126,414,96,6496,-4,0,93,13,283116,0
283122,-68,-2063,358,-103,33,129,14409,1,-3,77,24,35655,5,32,127,0,0,3838,-10,0,2126,414,96,6506,-4,0,93,13,283116,0
283133,-43,-2068,355,-101,25,130,14409,-7,2,49,0,35658,-2,32,127,0,0,3838,10,0,2126,414,96,6517,-4,0,93,13,283116,0
283143,-36,-2068,355,-108,29,130,14411,8,7,97,8,35664,-2,32,127,0,0,3840,10,0,2126,414,96,6527,-4,0,93,13,283116,0
283153,-48,-2058,348,-107,25,138,14411,-2,4,73,32,35673,3,32,127,0,0,3838,21,0,2126,414,96,6537,-4,0,93,13,283179,0
283163,-21,-2056,349,-101,39,136,14412,3,-3,63,16,35679,10,32,127,0,0,3838,10,0,2126,414,96,6547,-4,0,93,13,283194,0
283173,-28,-2054,344,-94,32,128,14410,-1,-1,77,56,35673,10,32,127,0,0,3838,0,0,2126,414,96,6557,-4,0,93,13,283194,0
283183,-17,-2063,340,-92,36,126,14411,2,-4,91,16,35663,25,32,127,0,0,3838,-10,0,2126,414,96,6567,-4,0,93,13,283194,0
283193,-31,-2057,340,-88,37,145,14409,-8,-10,67,32,35655,11,32,127,0,0,3838,-10,0,2126,414,96,6577,-4,0,93,13,283194,0
283203,-22,-2059,343,-82,42,150,14413,17,0,95,16,35652,13,32,127,0,0,3838,-21,0,2126,414,96,6587,-4,0,93,13,283194,0
283213,-27,-2055,343,-79,37,170,14411,8,0,79,16,35651,9,32,127,0,0,3840,32,0,2126,414,96,6597,-4,0,93,13,283194,0
283223,-4,-2056,351,-75,30,192,14410,-9,1,158,80,35662,3,32,127,0,0,3840,21,0,2126,414,96,6607,-4,0,93,13,283210,0
283233,13,-2056,342,-75,20,223,14412,-2,-2,188,112,35671,8,32,127,0,0,3845,65,0,2126,414,96,6617,-4,0,93,13,283241,0
283243,-12,-2049,345,-71,23,257,14419,7,10,243,72,35672,9,32,127,0,0,3849,76,0,2126,414,96,6627,-4,0,93,13,283241,0
283253,-34,-2048,350,-69,20,276,14425,26,3,374,104,35664,13,32,127,0,0,3851,21,0,2126,414,96,6637,-4,0,93,13,283257,0
283263,-26,-2059,352,-70,30,277,14437,33,15,429,128,35663,17,32,127,0,0,3856,21,0,2126,414,96,6647,-4,0,93,13,283257,0
283273,-56,-2065,354,-69,25,301,14476,119,67,308,96,35661,-1,32,127,0,0,3862,32,0,2126,414,96,6657,-4,0,93,13,283257,0
283283,-13,-2071,356,-66,29,307,14507,40,39,298,80,35670,-22,32,127,0,0,3867,87,0,2126,414,96,6667,-4,0,93,13,283288,0
283293,-80,-2060,339,-67,20,301,14527,53,-45,352,112,35674,-28,32,127,0,0,3871,43,0,2126,414,96,6677,-4,0,93,13,283288,0
283303,-63,-2056,350,-59,31,294,14556,57,10,349,176,35674,-25,32,127,0,0,3880,87,0,2126,414,96,6687,-4,0,93,13,283288,0
283313,-100,-2062,355,-57,37,279,14581,62,4,388,168,35666,-1,32,127,0,0,3882,43,0,2126,414,96,6697,-4,0,93,13,283288,0
283323,-96,-2062,360,-65,36,275,14625,91,30,218,120,35667,20,32,127,0,0,3886,54,0,2126,414,96,6707,-4,0,93,13,283366,0
283333,-116,-2063,363,-63,33,252,14640,19,-31,332,96,35664,36,32,127,0,0,3893,43,0,2126,414,96,6717,-4,0,93,13,283366,0
283343,-119,-2062,365,-69,44,222,14653,51,-59,418,144,35660,36,32,127,0,0,3893,-10,0,2126,414,96,6727,-4,0,93,13,283366,0
283353,-83,-2070,379,-76,46,212,14681,45,32,242,96,35650,48,32,127,0,0,3895,10,0,2126,414,96,6737,-4,0,93,13,283397,0
283363,-103,-2061,377,-83,44,189,14679,-5,-40,355,112,35654,26,32,127,0,0,3895,-21,0,2126,414,96,6747,-4,0,93,13,283397,0
283373,-109,-2067,366,-90,41,157,14682,7,-40,395,128,35654,23,32,127,0,0,3900,21,0,2126,414,96,6757,-4,0,93,13,283429,0
283383,-90,-2064,366,-94,44,146,14687,6,12,431,112,35653,27,32,127,0,0,3900,0,0,2126,414,96,6767,-4,0,93,13,283429,0
283394,-97,-2058,357,-93,48,125,14690,11,1,461,136,35656,30,32,127,0,0,3902,-10,0,2126,414,96,6778,-4,0,93,13,283429,0
283404,-98,-2058,351,-93,50,118,14692,8,-3,446,136,35659,33,32,127,0,0,3902,16,0,2126,414,96,6788,-4,0,93,13,283429,0
283414,-79,-2057,351,-95,35,107,14694,0,1,461,112,35660,39,32,127,0,0,3900,-38,0,2126,414,96,6798,-4,0,93,13,283429,0
283424,-77,-2045,353,-92,36,102,14693,7,-5,425,112,35662,27,32,127,0,0,3903,0,0,2126,414,96,6808,-4,0,93,13,283429,0
283434,-63,-2049,353,-96,36,95,14692,-13,-1,415,136,35664,24,32,127,0,0,3899,10,0,2126,414,96,6818,-4,0,93,13,283429,0
283444,-46,-2048,353,-95,39,97,14694,0,1,395,104,35661,20,32,127,0,0,3900,-27,0,2126,414,96,6828,-4,0,93,13,283429,0
283454,-71,-2057,344,-89,39,92,14693,5,3,367,136,35669,31,32,127,0,0,3899,5,0,2126,414,96,6838,-4,0,93,13,283444,0
283464,-52,-2056,341,-88,39,97,14692,-11,0,365,88,35679,31,32,127,0,0,3901,-5,0,2126,414,96,6848,-4,0,93,13,283491,0
283474,-55,-2061,349,-92,43,92,14691,2,-3,314,88,35684,18,32,127,0,0,3897,10,0,2126,414,96,6858,-4,0,93,13,283491,0
283484,-60,-2057,347,-81,44,95,14690,-5,-1,297,88,35683,14,32,127,0,0,3894,-32,0,2126,414,96,6868,-4,0,93,13,283507,0
283494,-53,-2064,352,-82,48,100,14691,6,-3,284,40,35659,24,32,127,0,0,3896,-54,0,2126,414,96,6878,-4,0,93,13,283507,0
283504,-50,-2057,347,-79,49,107,14690,8,0,287,48,35657,33,32,127,0,0,3896,-49,0,2126,414,96,6888,-4,0,93,13,283507,0
283514,-57,-2058,349,-77,44,111,14688,-4,4,231,72,35648,26,32,127,0,0,3895,32,0,2126,414,96,6898,-4,0,93,13,283507,0
283524,-59,-2061,352,-81,45,121,14689,1,2,236,48,35647,14,32,127,0,0,3893,-10,0,2126,414,96,6908,-4,0,93,13,283507,0
283534,-79,-2061,348,-76,37,120,14688,5,2,231,48,35657,-7,32,127,0,0,3893,-32,0,2126,414,96,6918,-4,0,93,13,283522,0
283544,-61,-2062,354,-80,49,119,14689,9,2,254,48,35675,2,32,127,0,0,3893,-60,0,2126,414,96,6928,-4,0,93,13,283538,0
283554,-73,-2055,355,-75,41,125,14689,10,7,231,48,35682,-6,32,127,0,0,3893,-43,0,2126,414,96,6938,-4,0,93,13,283538,0
283564,-74,-2057,361,-81,38,126,14687,0,1,204,48,35673,-3,32,127,0,0,3890,-32,0,2126,414,96,6948,-4,0,93,13,283538,0
283574,-80,-2060,366,-81,39,135,14685,-14,-3,139,56,35662,0,32,127,0,0,3893,10,0,2126,414,96,6958,-4,0,93,13,283569,0
283584,-77,-2057,365,-84,40,134,14686,-5,1,194,56,35653,15,32,127,0,0,3893,0,0,2126,414,96,6968,-4,0,93,13,283585,0
283594,-78,-2059,360,-81,35,125,14686,0,5,199,56,35654,21,32,127,0,0,3893,0,0,2126,414,96,6978,-4,0,93,13,283585,0
283604,-70,-2065,363,-86,37,119,14685,-5,-1,201,56,35649,31,32,127,0,0,3893,0,0,2126,414,96,6988,-4,0,93,13,283585,0
283615,-72,-2068,352,-84,33,116,14685,0,-1,204,56,35655,24,32,127,0,0,3893,0,0,2126,414,96,6999,-4,0,93,13,283600,0
283625,-77,-2063,354,-85,40,116,14686,-1,-1,198,56,35658,22,32,127,0,0,3891,-21,0,2126,414,96,7009,-4,0,93,13,283616,0
283635,-56,-2067,354,-77,37,104,14684,-4,-4,152,64,35661,29,32,127,0,0,3893,0,0,2126,414,96,7019,-4,0,93,13,283632,0
283645,-64,-2068,356,-82,40,107,14685,-5,2,173,16,35656,26,32,127,0,0,3893,21,0,2126,414,96,7029,-4,0,93,13,283632,0
283655,-75,-2071,357,-83,40,100,14684,-9,-5,134,32,35654,26,32,127,0,0,3889,-21,0,2126,414,96,7039,-4,0,93,13,283632,0
283665,-62,-2069,347,-84,28,87,14680,-14,-11,47,-32,35659,27,32,127,0,0,3886,0,0,2126,414,96,7049,-4,0,93,13,283663,0
283675,-62,-2057,351,-85,44,87,14679,3,-6,32,-8,35660,30,32,127,0,0,3886,-32,0,2126,414,96,7059,-4,0,93,13,283663,0
283685,-68,-2059,345,-82,35,90,14679,1,7,29,32,35661,38,32,127,0,0,3889,0,0,2126,414,96,7069,-4,0,93,13,283663,0
283695,-62,-2058,353,-81,31,88,14681,3,5,40,-8,35664,31,32,127,0,0,3886,-32,0,2126,414,96,7079,-4,0,93,13,283679,0
283705,-68,-2050,347,-76,44,95,14676,-1,-4,2,-32,35668,20,32,127,0,0,3884,-21,0,2126,414,96,7089,-4,0,93,13,283679,0
283715,-44,-2060,351,-76,39,96,14676,0,1,-31,-24,35666,25,32,127,0,0,3884,0,0,2126,414,96,7099,-4,0,93,13,283694,0
283725,-30,-2052,350,-69,37,101,14674,-11,0,-87,-48,35665,31,32,127,0,0,3882,0,0,2126,414,96,7109,-4,0,93,13,283725,0
283735,-45,-2049,346,-70,34,112,14671,-4,-11,-108,0,35662,30,32,127,0,0,3882,0,0,2126,414,96,7119,-4,0,93,13,283725,0
283745,-57,-2066,355,-58,37,122,14672,6,7,-64,-48,35662,28,32,127,0,0,3884,0,0,2126,414,96,7129,-4,0,93,13,283757,0
283755,-61,-2048,354,-59,43,136,14671,-5,-2,-48,-8,35655,19,32,127,0,0,3882,-10,0,2126,414,96,7139,-4,0,93,13,283757,0
283765,-76,-2059,354,-55,35,142,14671,4,-4,-104,-32,35650,33,32,127,0,0,3882,-21,0,2126,414,96,7149,-4,0,93,13,283803,0
283775,-59,-2056,350,-58,42,150,14671,3,4,-71,0,35656,33,32,127,0,0,3884,10,0,2126,414,96,7159,-4,0,93,13,283819,0
283785,-40,-2056,353,-51,45,154,14672,-2,4,-21,-8,35664,28,32,127,0,0,3884,0,0,2126,414,96,7169,-4,0,93,13,283819,0
283795,-58,-2061,358,-51,52,156,14673,8,-2,-31,0,35666,33,32,127,0,0,3884,-21,0,2126,414,96,7179,-4,0,93,13,283819,0
283805,-58,-2061,363,-56,47,158,14672,18,5,-42,-48,35671,40,32,127,0,0,3886,21,0,2126,414,96,7189,-4,0,93,13,283819,0
283815,-79,-2059,369,-52,43,161,14672,0,6,-8,-16,35665,39,32,127,0,0,3884,0,0,2126,414,96,7199,-4,0,93,13,283819,0
283825,-63,-2059,376,-53,49,160,14672,-1,-3,-49,-48,35663,42,32,127,0,0,3886,21,0,2126,414,96,7209,-4,0,93,13,283819,0
283835,-104,-2060,363,-52,42,166,14674,11,3,21,-32,35655,32,32,127,0,0,3886,0,0,2126,414,96,7219,-4,0,93,13,283835,0
283845,-86,-2054,360,-59,45,161,14673,-4,0,11,-16,35660,22,32,127,0,0,3886,10,0,2126,414,96,7229,-4,0,93,13,283835,0
283855,-82,-2059,361,-63,40,161,14672,-6,-8,12,40,35672,7,32,127,0,0,3886,43,0,2126,414,96,7239,-4,0,93,13,283835,0
283866,-61,-2066,359,-56,39,146,14674,2,3,68,8,35686,16,32,127,0,0,3886,5,0,2126,414,96,7250,-4,0,93,13,283882,0
283876,-62,-2055,368,-53,29,144,14676,6,1,86,32,35684,22,32,127,0,0,3889,5,0,2126,414,96,7260,-4,0,93,13,283882,0
283886,-80,-2054,357,-61,30,134,14675,-1,5,89,24,35681,50,32,127,0,0,3889,0,0,2126,414,96,7270,-4,0,93,13,283882,0
283896,-80,-2049,349,-58,33,135,14675,-1,-1,91,8,35664,39,32,127,0,0,3890,-5,0,2126,414,96,7280,-4,0,93,13,283882,0
283906,-74,-2049,356,-58,34,129,14675,-2,-4,113,24,35665,49,32,127,0,0,3889,-16,0,2126,414,96,7290,-4,0,93,13,283882,0
283916,-76,-2041,364,-50,36,126,14674,-3,-4,80,24,35674,55,32,127,0,0,3889,5,0,2126,414,96,7300,-4,0,93,13,283928,0
283926,-66,-2048,360,-53,41,122,14675,-4,3,92,24,35680,46,32,127,0,0,3889,0,0,2126,414,96,7310,-4,0,93,13,283928,0
283936,-57,-2041,359,-55,42,120,14676,3,2,74,24,35674,42,32,127,0,0,3889,27,0,2126,414,96,7320,-4,0,93,13,283928,0
283946,-63,-2052,367,-57,33,125,14675,-2,0,93,24,35662,49,32,127,0,0,3889,0,0,2126,414,96,7330,-4,0,93,13,283928,0
283956,-60,-2063,362,-55,31,126,14676,6,1,69,0,35653,46,32,127,0,0,3890,0,0,2126,414,96,7340,-4,0,93,13,283944,0
283966,-67,-2061,371,-53,40,134,14676,3,5,93,24,35658,43,32,127,0,0,3892,32,0,2126,414,96,7350,-4,0,93,13,283960,0
283976,-84,-2060,362,-56,35,141,14675,-12,0,133,24,35661,45,32,127,0,0,3889,5,0,2126,414,96,7360,-4,0,93,13,283960,0
283986,-84,-2063,355,-52,35,132,14675,-8,-7,116,24,35664,35,32,127,0,0,3889,-27,0,2126,414,96,7370,-4,0,93,13,283960,0
283996,-66,-2062,350,-52,37,126,14677,3,3,120,48,35665,45,32,127,0,0,3888,-21,0,2126,414,96,7380,-4,0,93,13,283991,0
284006,-65,-2066,364,-44,21,130,14676,-1,2,136,24,35668,29,32,127,0,0,3892,0,0,2126,414,96,7390,-4,0,93,13,283991,0
284016,-67,-2061,375,-45,40,135,14675,-6,-8,106,24,35673,20,32,127,0,0,3892,43,0,2126,414,96,7400,-4,0,93,13,284038,0
284026,-51,-2053,374,-42,38,129,14676,-7,5,117,48,35671,25,32,127,0,0,3888,16,0,2126,414,96,7410,-4,0,93,13,284038,0
284036,-49,-2053,367,-52,34,128,14674,-7,8,92,24,35669,36,32,127,0,0,3889,0,0,2126,414,96,7420,-4,0,93,13,284053,0
284046,-80,-2061,366,-47,35,117,14676,0,-4,90,24,35661,51,32,127,0,0,3885,-32,0,2126,414,96,7430,-4,0,93,13,284053,0
284056,-69,-2054,363,-44,39,121,14675,1,1,82,24,35660,48,32,127,0,0,3889,-10,0,2126,414,96,7440,-4,0,93,13,284053,0
284066,-94,-2051,369,-45,26,123,14677,2,4,122,24,35657,34,32,127,0,0,3892,5,0,2126,414,96,7450,-4,0,93,13,284053,0
284076,-108,-2056,371,-49,29,126,14677,4,3,111,24,35664,27,32,127,0,0,3892,21,0,2126,414,96,7460,-4,0,93,13,284053,0
284086,-35,-2049,366,-55,37,112,14678,7,3,150,24,35680,41,32,127,0,0,3889,-21,0,2126,414,96,7470,-4,0,93,13,284100,0
284096,-16,-2064,363,-57,0,90,14677,1,-8,122,48,35686,45,32,127,0,0,3888,-21,0,2126,414,96,7480,-4,0,93,13,284100,0
284106,298,-2227,288,-94,38,-65,14676,0,-2,86,24,35679,57,32,127,0,0,3885,-32,0,2126,414,96,7490,-4,0,93,13,284100,0
284117,628,-2022,205,-182,79,-598,14677,5,7,94,32,35667,44,32,127,0,0,3878,-131,0,2126,414,96,7501,-4,0,93,13,284147,0
284127,-256,-1988,367,-169,35,-390,14656,-81,-43,-370,-272,35667,42,32,127,0,0,3854,-252,0,2126,414,96,7511,-4,0,93,13,284147,0
284137,-103,-2060,451,-94,-26,-29,14576,-187,-168,-313,-208,35678,47,32,127,0,0,3847,-54,0,2126,414,96,7521,-4,0,93,13,284163,0
284147,196,-2160,309,-136,-2,-167,14500,-144,-90,-120,-32,35682,38,32,127,0,0,3843,-76,0,2126,414,96,7531,-4,0,93,13,284163,0
284157,263,-2023,167,-186,88,-712,14464,-51,99,-235,-168,35670,19,32,127,0,0,3825,-197,0,2126,414,96,7541,-4,0,93,13,284163,0
284167,145,-2002,297,-195,85,-767,14434,-110,81,-675,-376,35661,1,32,127,0,0,3794,-307,0,2126,414,96,7551,-4,0,93,13,284163,0
284177,18,-2072,474,-188,23,-518,14325,-264,-169,-491,-480,35660,-4,32,127,0,0,3774,-197,0,2126,414,96,7561,-4,0,93,13,284163,0
284187,228,-2113,343,-197,23,-567,14198,-289,-176,-344,-376,35665,33,32,127,0,0,3757,-164,0,2126,414,96,7571,-4,0,93,13,284178,0
284197,198,-2046,131,-224,58,-838,14079,-251,-11,-374,-376,35663,47,32,127,0,0,3730,-252,0,2126,414,96,7581,-4,0,93,13,284210,0
284207,173,-1995,222,-209,135,-930,13955,-259,11,-396,-432,35667,73,32,127,0,0,3702,-274,0,2126,414,96,7591,-4,0,93,13,284210,0
284217,288,-2122,489,-160,90,-664,13824,-301,-19,-383,-512,35661,68,32,127,0,0,3676,-241,0,2126,414,96,7601,-4,0,93,13,284210,0
284227,469,-2063,455,-158,40,-391,13676,-313,-44,-266,-368,35661,59,32,127,0,0,3665,-120,0,2126,414,96,7611,-4,0,93,13,284210,0
284237,705,-2071,221,-193,-12,-264,13551,-241,25,-155,-152,35659,22,32,127,0,0,3662,-32,0,2126,414,96,7621,-4,0,93,13,284241,0
284247,575,-2058,42,-174,20,-226,13498,-67,196,-141,-56,35669,9,32,127,0,0,3656,-43,0,2126,414,96,7631,-4,0,93,13,284257,0
284257,551,-2141,15,-27,58,-47,13478,-37,202,-193,-64,35669,-10,32,127,0,0,3656,0,0,2126,414,96,7641,-4,0,93,13,284257,0
284267,580,-2153,151,112,62,129,13473,0,75,-229,-88,35671,-9,32,127,0,0,3656,21,0,2126,414,96,7651,-4,0,93,13,284257,0
284277,409,-2104,297,148,47,321,13473,-2,37,-211,-56,35664,-9,32,127,0,0,3658,65,0,2126,414,96,7661,-4,0,93,13,284257,0
284287,406,-2068,360,102,45,365,13477,-1,8,-86,16,35672,-43,32,127,0,0,3667,109,0,2126,414,96,7671,-4,0,93,13,284288,0
284297,106,-2052,375,59,6,347,13490,37,23,217,112,35672,-23,32,127,0,0,3676,98,0,2126,414,96,7681,-4,0,93,13,284288,0
284307,-30,-2046,429,61,-18,295,13515,60,40,349,152,35669,-22,32,127,0,0,3682,54,0,2126,414,96,7691,-4,0,93,13,284288,0
284317,-236,-2047,563,1,-75,151,13572,136,87,152,88,35662,5,32,127,0,0,3691,65,0,2126,414,96,7701,-4,0,93,13,284303,0
284327,-388,-2019,596,-74,-58,-58,13612,74,21,57,16,35671,-20,32,127,0,0,3689,0,0,2126,414,96,7711,-4,0,93,13,284319,0
284337,-275,-2112,545,-198,-38,-360,13608,-9,-129,111,-8,35675,-9,32,127,0,0,3687,-21,0,2126,414,96,7721,-4,0,93,13,284335,0
284347,-268,-2067,539,-222,12,-537,13606,-14,-68,-100,-64,35676,-6,32,127,0,0,3673,-153,0,2126,414,96,7731,-4,0,93,13,284335,0
284357,-110,-2084,462,-272,-18,-691,13575,-87,-49,-407,-200,35665,16,32,127,0,0,3654,-186,0,2126,414,96,7741,-4,0,93,13,284335,0
284368,14,-2125,420,-301,-29,-769,13507,-139,-114,-411,-312,35659,13,32,127,0,0,3635,-203,0,2126,414,96,7752,-4,0,93,13,284350,0
284378,-28,-2227,378,-280,-70,-770,13414,-221,-109,-362,-336,35662,12,32,127,0,0,3618,-153,0,2126,414,96,7762,-4,0,93,13,284381,0
284388,12,-2269,291,-271,-82,-773,13313,-220,-69,-312,-280,35662,10,32,127,0,0,3602,-120,0,2126,414,96,7772,-4,0,93,13,284381,0
284398,-12,-2178,296,-255,-81,-642,13216,-197,3,-270,-200,35656,30,32,127,0,0,3594,-60,0,2126,414,96,7782,-4,0,93,13,284381,0
284408,203,-2106,218,-255,-91,-602,13155,-118,87,-225,-88,35654,23,32,127,0,0,3591,-32,0,2126,414,96,7792,-4,0,93,13,284381,0
284418,270,-2085,193,-232,-77,-554,13138,-6,151,-207,-40,35653,12,32,127,0,0,3594,5,0,2126,414,96,7802,-4,0,93,13,284413,0
284428,273,-2089,200,-199,-41,-503,13143,-5,118,-279,-56,35658,18,32,127,0,0,3594,49,0,2126,414,96,7812,-4,0,93,13,284413,0
284438,262,-2054,263,-153,4,-440,13146,14,20,-158,-56,35659,23,32,127,0,0,3594,-32,0,2126,414,96,7822,-4,0,93,13,284444,0
284448,288,-2043,300,-147,24,-371,13144,0,-10,-129,-8,35663,31,32,127,0,0,3602,60,0,2126,414,96,7832,-4,0,93,13,284444,0
284458,291,-2029,308,-142,-28,-245,13159,44,24,25,16,35659,12,32,127,0,0,3610,60,0,2126,414,96,7842,-4,0,93,13,284444,0
284468,279,-2005,294,-134,-56,-189,13167,25,21,225,88,35659,11,32,127,0,0,3618,120,0,2126,414,96,7852,-4,0,93,13,284460,0
284478,217,-1985,315,-100,-66,-162,13189,62,21,367,168,35654,5,32,127,0,0,3629,159,0,2126,414,96,7862,-4,0,93,13,284460,0
284488,162,-1991,319,-89,-68,-184,13252,166,111,248,136,35659,17,32,127,0,0,3632,60,0,2126,414,96,7872,-4,0,93,13,284522,0
284498,185,-1996,340,-102,-46,-166,13302,73,45,200,104,35650,17,32,127,0,0,3638,60,0,2126,414,96,7882,-4,0,93,13,284522,0
284508,184,-1961,337,-96,-31,-184,13306,-9,-139,480,136,35652,32,32,127,0,0,3646,16,0,2126,414,96,7892,-4,0,93,13,284522,0
284518,170,-1989,300,-88,-25,-225,13314,16,-71,507,168,35641,30,32,127,0,0,3647,21,0,2126,414,96,7902,-4,0,93,13,284538,0
284528,158,-1989,310,-85,6,-256,13339,76,49,418,152,35652,33,32,127,0,0,3649,-5,0,2126,414,96,7912,-4,0,93,13,284538,0
284538,196,-2017,329,-98,4,-267,13374,70,53,286,80,35653,33,32,127,0,0,3646,-65,0,2126,414,96,7922,-4,0,93,13,284538,0
284548,216,-2015,359,-91,-4,-268,13377,0,-52,272,88,35653,25,32,127,0,0,3651,21,0,2126,414,96,7932,-4,0,93,13,284538,0
284558,228,-2037,325,-93,-4,-250,13376,-7,-60,306,88,35652,26,32,127,0,0,3648,-32,0,2126,414,96,7942,-4,0,93,13,284553,0
284568,257,-2029,321,-81,2,-243,13378,-3,-1,258,88,35659,28,32,127,0,0,3648,5,0,2126,414,96,7952,-4,0,93,13,284553,0
284578,265,-2008,329,-78,-14,-228,13378,0,-4,286,88,35669,14,32,127,0,0,3648,-27,0,2126,414,96,7962,-4,0,93,13,284585,0
284588,280,-2002,326,-84,-27,-219,13377,-10,-4,233,40,35680,-2,32,127,0,0,3650,-5,0,2126,414,96,7972,-4,0,93,13,284585,0
284598,256,-2007,319,-95,-26,-223,13380,11,0,247,40,35670,1,32,127,0,0,3647,-38,0,2126,414,96,7982,-4,0,93,13,284585,0
284608,250,-2003,303,-103,-29,-233,13376,0,1,208,64,35661,1,32,127,0,0,3646,-21,0,2126,414,96,7992,-4,0,93,13,284600,0
284619,246,-2025,296,-90,-36,-234,13374,-16,-6,112,32,35655,7,32,127,0,0,3645,-10,0,2126,414,96,8003,-4,0,93,13,284600,0
284629,189,-2037,309,-86,-24,-258,13369,-10,-11,45,-16,35654,1,32,127,0,0,3636,-76,0,2126,414,96,8013,-4,0,93,13,284631,0
284639,215,-2081,324,-93,3,-280,13352,-47,-27,-106,-64,35662,1,32,127,0,0,3629,-76,0,2126,414,96,8023,-4,0,93,13,284631,0
284649,208,-2087,358,-91,27,-243,13339,-19,-14,-238,-72,35670,23,32,127,0,0,3627,-54,0,2126,414,96,8033,-4,0,93,13,284631,0
284659,247,-2072,361,-89,21,-204,13323,-47,7,-301,-88,35670,23,32,127,0,0,3623,-32,0,2126,414,96,8043,-4,0,93,13,284663,0
284669,309,-2042,337,-73,12,-184,13285,-101,-60,-101,0,35675,20,32,127,0,0,3618,-32,0,2126,414,96,8053,-4,0,93,13,284663,0
284679,307,-2035,348,-66,5,-178,13273,-5,12,-219,-64,35666,11,32,127,0,0,3618,0,0,2126,414,96,8063,-4,0,93,13,284678,0
284689,329,-2031,349,-69,9,-153,13277,0,86,-240,-96,35663,23,32,127,0,0,3614,-54,0,2126,414,96,8073,-4,0,93,13,284678,0
284699,306,-2022,343,-69,-8,-123,13271,0,-4,-317,-104,35659,69,32,127,0,0,3614,-10,0,2126,414,96,8083,-4,0,93,13,284694,0
284709,277,-2036,326,-60,-22,-95,13265,-20,-7,-405,-136,35661,81,32,127,0,0,3610,-21,0,2126,414,96,8093,-4,0,93,13,284694,0
284719,237,-2030,331,-51,-19,-96,13242,-57,-41,-290,-96,35658,73,32,127,0,0,3610,0,0,2126,414,96,8103,-4,0,93,13,284694,0
284729,186,-2033,343,-44,-6,-124,13223,-13,-16,-224,-64,35657,59,32,127,0,0,3603,-65,0,2126,414,96,8113,-4,0,93,13,284710,0
284739,222,-2080,360,-50,-15,-128,13222,-4,55,-369,-128,35660,18,32,127,0,0,3603,-10,0,2126,414,96,8123,-4,0,93,13,284741,0
284749,219,-2093,381,-55,-3,-130,13220,-6,21,-425,-128,35680,12,32,127,0,0,3603,10,0,2126,414,96,8133,-4,0,93,13,284741,0
284759,197,-2073,372,-65,-9,-130,13213,-15,-13,-465,-104,35683,6,32,127,0,0,3596,0,0,2126,414,96,8143,-4,0,93,13,284741,0
284769,229,-2077,339,-62,-6,-150,13206,-15,-12,-489,-176,35676,17,32,127,0,0,3596,-32,0,2126,414,96,8153,-4,0,93,13,284756,0
284779,252,-2100,343,-61,-9,-171,13203,-11,2,-506,-184,35674,15,32,127,0,0,3594,-32,0,2126,414,96,8163,-4,0,93,13,284788,0
284789,235,-2103,380,-63,-7,-168,13191,-29,-13,-463,-152,35677,15,32,127,0,0,3594,10,0,2126,414,96,8173,-4,0,93,13,284803,0
284799,232,-2082,377,-66,-6,-170,13165,-75,-42,-333,-144,35673,9,32,127,0,0,3594,21,0,2126,414,96,8183,-4,0,93,13,284803,0
284809,214,-2061,359,-82,-26,-195,13145,-19,-13,-291,-120,35663,12,32,127,0,0,3592,0,0,2126,414,96,8193,-4,0,93,13,284803,0
284819,209,-2057,361,-83,-12,-215,13147,12,63,-271,-64,35657,11,32,127,0,0,3590,-21,0,2126,414,96,8203,-4,0,93,13,284803,0
284829,210,-2039,371,-116,4,-287,13144,-16,22,-331,-80,35667,-4,32,127,0,0,3592,21,0,2126,414,96,8213,-4,0,93,13,284913,0
284839,156,-2041,382,-124,2,-335,13144,-4,-10,-370,-144,35676,-13,32,127,0,0,3585,-43,0,2126,414,96,8223,-4,0,93,13,284928,0
284849,191,-2122,427,-139,-24,-371,13132,-36,-21,-444,-128,35685,-20,32,127,0,0,3585,-10,0,2126,414,96,8233,-4,0,93,13,284928,0
284859,203,-2141,441,-151,-30,-386,13099,-91,-65,-311,-152,35685,-10,32,127,0,0,3579,-10,0,2126,414,96,8243,-4,0,93,13,284928,0
284869,229,-2103,446,-171,-71,-410,13075,-24,-19,-287,-80,35677,9,32,127,0,0,3577,-32,0,2126,414,96,8253,-4,0,93,13,284975,0
284879,282,-2107,417,-182,-89,-428,13072,-7,69,-348,-96,35671,23,32,127,0,0,3574,-21,0,2126,414,96,8263,-4,0,93,13,284975,0
284889,299,-2060,322,-151,-130,-437,13068,-5,21,-347,-48,35658,28,32,127,0,0,3574,-21,0,2126,414,96,8273,-4,0,93,13,284975,0
284899,336,-2034,230,-135,-126,-435,13055,-45,-24,-319,-88,35656,31,32,127,0,0,3574,0,0,2126,414,96,8283,-4,0,93,13,284975,0
284909,310,-2030,215,-139,-111,-447,13031,-39,-43,-102,-40,35656,43,32,127,0,0,3572,-54,0,2126,414,96,8293,-4,0,93,13,284975,0
284919,334,-2058,235,-136,-77,-445,13033,16,37,-172,-72,35659,49,32,127,0,0,3574,0,0,2126,414,96,8303,-4,0,93,13,284975,0
284929,344,-2042,229,-137,-44,-432,13031,2,42,-167,-40,35658,37,32,127,0,0,3572,0,0,2126,414,96,8313,-4,0,93,13,284975,0
284939,364,-2068,250,-124,-18,-422,13030,2,-3,-176,-24,35658,32,32,127,0,0,3572,-21,0,2126,414,96,8323,-4,0,93,13,284975,0
284950,361,-2046,309,-107,5,-407,13032,2,1,-181,-56,35668,57,32,127,0,0,3572,0,0,2126,414,96,8334,-4,0,93,13,284975,0
284960,385,-2019,309,-103,8,-397,13032,0,4,-154,-56,35675,53,32,127,0,0,3576,-16,0,2126,414,96,8344,-4,0,93,13,284975,0
284970,418,-2010,311,-111,7,-368,13034,19,5,-124,-64,35682,51,32,127,0,0,3576,-21,0,2126,414,96,8354,-4,0,93,13,284975,0
284980,439,-2017,312,-99,-8,-347,13031,0,1,-119,-16,35691,38,32,127,0,0,3580,65,0,2126,414,96,8364,-4,0,93,13,284991,0
284990,491,-2014,318,-92,-43,-323,13034,-3,4,-10,48,35704,35,32,127,0,0,3587,137,0,2126,414,96,8374,-4,0,93,13,284991,0
285000,407,-1981,322,-89,-53,-318,13044,18,16,175,48,35706,32,32,127,0,0,3589,60,0,2126,414,96,8384,-4,0,93,13,284991,0
285010,403,-1986,316,-90,-62,-310,13045,1,-6,272,96,35700,44,32,127,0,0,3593,71,0,2126,414,96,8394,-4,0,93,13,284991,0
285020,415,-1993,311,-79,-52,-313,13054,20,3,346,144,35687,45,32,127,0,0,3593,54,0,2126,414,96,8404,-4,0,93,13,285022,0
285030,414,-1963,290,-76,-54,-355,13080,74,44,288,80,35682,50,32,127,0,0,3598,10,0,2126,414,96,8414,-4,0,93,13,285038,0
285040,394,-1972,300,-86,-56,-363,13109,48,51,151,40,35676,34,32,127,0,0,3600,27,0,2126,414,96,8424,-4,0,93,13,285053,0
285050,369,-1973,286,-74,-38,-386,13105,-20,-65,228,72,35669,33,32,127,0,0,3602,60,0,2126,414,96,8434,-4,0,93,13,285053,0
285060,407,-2002,290,-61,-35,-383,13110,0,-48,298,80,35671,36,32,127,0,0,3598,-21,0,2126,414,96,8444,-4,0,93,13,285053,0
285070,476,-2011,311,-59,-38,-393,13110,4,1,273,112,35678,34,32,127,0,0,3603,54,0,2126,414,96,8454,-4,0,93,13,285053,0
285080,520,-1995,297,-50,-46,-392,13115,4,0,298,96,35685,61,32,127,0,0,3603,21,0,2126,414,96,8464,-4,0,93,13,285084,0
285090,510,-1949,278,-42,-72,-382,13116,10,3,371,96,35681,56,32,127,0,0,3603,-5,0,2126,414,96,8474,-4,0,93,13,285100,0
285100,492,-1974,271,-35,-74,-374,13121,12,-2,336,128,35673,53,32,127,0,0,3604,16,0,2126,414,96,8484,-4,0,93,13,285100,0
285110,446,-2000,291,-19,-73,-386,13133,37,13,348,112,35662,35,32,127,0,0,3607,-5,0,2126,414,96,8494,-4,0,93,13,285194,0
285121,461,-2009,306,-14,-63,-406,13160,64,46,188,56,35667,7,32,127,0,0,3607,0,0,2126,414,96,8505,-4,0,93,13,285194,0
285131,449,-1958,283,1,-66,-426,13164,-10,-24,204,48,35675,8,32,127,0,0,3607,0,0,2126,414,96,8515,-4,0,93,13,285194,0
285141,506,-1963,242,5,-73,-437,13164,0,-59,161,56,35686,17,32,127,0,0,3607,32,0,2126,414,96,8525,-4,0,93,13,285194,0
285151,545,-1976,289,5,-88,-424,13163,-6,-5,159,8,35688,13,32,127,0,0,3605,-10,0,2126,414,96,8535,-4,0,93,13,285225,0
285161,492,-1997,355,6,-101,-429,13162,-3,-3,129,72,35682,20,32,127,0,0,3607,21,0,2126,414,96,8545,-4,0,93,13,285225,0
285171,477,-2003,356,-3,-127,-453,13164,0,4,181,8,35688,12,32,127,0,0,3605,-32,0,2126,414,96,8555,-4,0,93,13,285225,0
285181,465,-1996,303,7,-138,-501,13162,-1,-10,106,-8,35685,10,32,127,0,0,3605,-10,0,2126,414,96,8565,-4,0,93,13,285225,0
285191,494,-1995,284,16,-139,-541,13160,-3,-6,49,-32,35676,10,32,127,0,0,3601,-32,0,2126,414,96,8575,-4,0,93,13,285225,0
285201,477,-1940,303,10,-124,-633,13157,-4,-1,-117,-96,35664,-3,32,127,0,0,3594,-65,0,2126,414,96,8585,-4,0,93,13,285256,0
285211,522,-1938,277,0,-80,-682,13143,-30,-17,-287,-104,35659,-2,32,127,0,0,3585,-76,0,2126,414,96,8595,-4,0,93,13,285256,0
285221,563,-1908,248,-22,-41,-715,13115,-84,-45,-318,-160,35663,3,32,127,0,0,3574,-153,0,2126,414,96,8605,-4,0,93,13,285256,0
285231,571,-1898,237,-23,-35,-750,13063,-110,-79,-309,-192,35676,21,32,127,0,0,3563,-120,0,2126,414,96,8615,-4,0,93,13,285256,0
285241,507,-1922,300,-48,1,-760,13000,-135,-59,-289,-184,35675,37,32,127,0,0,3550,-109,0,2126,414,96,8625,-4,0,93,13,285256,0
285251,549,-1942,340,-44,18,-784,12939,-125,-5,-331,-200,35671,44,32,127,0,0,3537,-87,0,2126,414,96,8635,-4,0,93,13,285256,0
285261,635,-1941,361,-72,40,-831,12878,-149,3,-345,-176,35666,20,32,127,0,0,3522,-131,0,2126,414,96,8645,-4,0,93,13,285256,0
285271,607,-1881,366,-91,24,-806,12810,-130,-20,-361,-240,35665,3,32,127,0,0,3504,-175,0,2126,414,96,8655,-4,0,93,13,285256,0
285281,694,-2014,351,-85,-28,-809,12758,-111,30,-522,-280,35670,19,32,127,0,0,3493,-142,0,2126,414,96,8665,-4,0,93,13,285272,0
285291,744,-2047,365,-96,-29,-913,12692,-165,-2,-405,-312,35674,18,32,127,0,0,3473,-208,0,2126,414,96,8675,-4,0,93,13,285303,0
285301,531,-1897,416,-132,-17,-941,12610,-173,-66,-416,-336,35679,16,32,127,0,0,3456,-219,0,2126,414,96,8685,-4,0,93,13,285303,0
285311,570,-2052,411,-157,-48,-840,12513,-228,-51,-366,-304,35678,2,32,127,0,0,3440,-164,0,2126,414,96,8695,-4,0,93,13,285303,0
285321,587,-2202,403,-169,-71,-861,12422,-175,-11,-335,-256,35668,13,32,127,0,0,3429,-120,0,2126,414,96,8705,-4,0,93,13,285319,0
285331,686,-2136,453,-213,-38,-958,12355,-123,71,-394,-192,35658,31,32,127,0,0,3416,-142,0,2126,414,96,8715,-4,0,93,13,285319,0
285341,676,-1941,475,-283,-46,-914,12294,-141,62,-420,-272,35662,51,32,127,0,0,3403,-109,0,2126,414,96,8725,-4,0,93,13,285334,0
285351,736,-1983,423,-305,-98,-837,12221,-153,-20,-320,-176,35655,48,32,127,0,0,3396,-65,0,2126,414,96,8735,-4,0,93,13,285334,0
285361,820,-2053,357,-306,-159,-767,12183,-59,55,-384,-144,35654,42,32,127,0,0,3394,-21,0,2126,414,96,8745,-4,0,93,13,285350,0
285372,836,-2028,380,-306,-169,-768,12152,-73,78,-299,-80,35654,0,32,127,0,0,3396,38,0,2126,414,96,8756,-4,0,93,13,285366,0
285382,793,-1966,362,-339,-170,-731,12142,10,37,-268,-80,35664,-12,32,127,0,0,3398,43,0,2126,414,96,8766,-4,0,93,13,285366,0
285392,778,-1938,329,-349,-167,-709,12144,0,67,-251,-64,35662,0,32,127,0,0,3393,-27,0,2126,414,96,8776,-4,0,93,13,285397,0
285402,677,-1933,262,-345,-216,-710,12143,0,14,-246,-64,35655,8,32,127,0,0,3396,-10,0,2126,414,96,8786,-4,0,93,13,285397,0
285412,579,-1987,262,-369,-239,-720,12145,5,-1,-154,8,35649,-7,32,127,0,0,3403,87,0,2126,414,96,8796,-4,0,93,13,285412,0
285422,440,-2070,324,-422,-216,-811,12152,14,14,37,16,35650,-3,32,127,0,0,3409,54,0,2126,414,96,8806,-4,0,93,13,285412,0
285432,389,-2089,325,-447,-165,-873,12157,7,7,220,88,35658,-16,32,127,0,0,3417,76,0,2126,414,96,8816,-4,0,93,13,285428,0
285442,486,-2050,347,-482,-98,-1046,12179,57,27,374,184,35661,-14,32,127,0,0,3424,87,0,2126,414,96,8826,-4,0,93,13,285444,0
285452,534,-1992,361,-493,-93,-1128,12237,143,103,178,96,35660,-15,32,127,0,0,3433,60,0,2126,414,96,8836,-4,0,-28,0,285444,0
285462,669,-1978,356,-516,-175,-1167,12284,92,45,136,64,35653,9,32,127,0,0,3439,60,0,2126,414,96,8846,-4,0,-29,0,285444,0
285472,699,-1993,377,-535,-229,-1166,12288,0,-117,376,136,35657,16,32,127,0,0,3445,65,0,2126,414,96,8856,-4,0,-29,0,285491,0
285482,706,-2033,396,-514,-297,-1232,12297,29,-64,523,216,35659,21,32,127,0,0,3457,93,0,2126,414,96,8866,-4,0,-28,0,285506,0
285492,727,-2046,402,-526,-328,-1266,12341,131,89,438,272,35659,19,32,127,0,0,3470,142,0,2126,414,96,8876,-4,0,-28,0,285506,0
285502,738,-2006,405,-553,-407,-1227,12425,206,152,333,256,35648,33,32,127,0,0,3485,148,0,2126,414,96,8886,-4,0,-28,0,285506,0
285512,724,-1984,380,-552,-485,-1198,12519,197,89,308,272,35652,23,32,127,0,0,3509,219,0,2126,414,96,8896,-4,0,-28,0,285506,0
285522,721,-1958,292,-550,-548,-1263,12608,202,0,412,336,35646,21,32,127,0,0,3533,208,0,2126,414,96,8906,-4,0,-28,0,285506,0
285532,650,-1968,262,-554,-567,-1314,12710,231,20,383,384,35656,18,32,127,0,0,3557,214,0,2126,414,96,8916,-4,0,-28,-17,285506,0
285542,620,-1994,285,-570,-599,-1407,12819,256,40,389,408,35666,19,32,127,0,0,3584,285,0,2126,414,96,8926,-4,0,-28,-18,285537,0
285552,619,-2029,297,-598,-624,-1445,12940,252,31,439,472,35672,17,32,127,0,0,3610,296,0,2126,414,96,8936,-4,0,-28,-18,285553,0
285562,577,-2055,343,-619,-653,-1583,13064,278,18,455,528,35663,21,32,127,0,0,3638,313,0,2126,414,96,8946,-4,0,-27,-19,285553,0
285572,584,-2025,334,-645,-669,-1651,13199,311,35,441,560,35655,28,32,127,0,0,3667,307,0,2126,414,96,8956,-4,0,-27,-20,285553,0
285582,638,-2015,333,-684,-726,-1773,13349,314,47,426,600,35659,26,32,127,0,0,3701,340,0,2126,414,96,8966,-4,0,-27,-21,285647,0
285592,627,-1983,358,-689,-805,-1915,13500,332,14,470,632,35669,45,32,127,0,0,3728,307,0,2126,414,96,8976,-4,0,-27,-22,285647,0
285602,544,-1935,351,-703,-916,-2058,13654,345,14,449,648,35666,31,32,127,0,0,3759,269,0,2126,414,96,8986,-4,0,-27,0,285647,0
285612,564,-2009,331,-737,-955,-2163,13809,346,10,491,672,35655,28,32,127,0,0,3793,329,0,2126,414,96,8996,-4,0,-26,0,285647,0
285622,502,-1951,293,-811,-935,-2362,13972,355,14,473,696,35647,23,32,127,0,0,3823,313,0,2126,414,96,9006,-4,0,-26,0,285662,0
285632,416,-1967,228,-891,-893,-2493,14146,376,29,445,680,35644,35,32,127,0,0,3857,307,0,2126,414,96,9016,-4,0,-26,0,285662,0
285642,393,-1919,104,-953,-844,-2755,14323,387,22,441,680,35645,29,32,127,0,0,3886,269,0,2126,414,96,9026,-4,0,-26,0,285662,0
285652,318,-1799,16,-936,-837,-2959,14499,385,5,391,576,35645,22,32,127,0,0,3914,164,0,2126,414,96,9036,-4,0,-25,0,285662,0
285662,30,-1784,-200,-918,-793,-2785,14657,339,-34,385,560,35645,28,32,127,0,0,3942,373,0,2126,414,96,9046,-4,0,-25,0,285662,0
285673,940,-2241,-363,-1044,-819,-3699,14840,419,-8,525,840,35643,35,32,127,0,0,4003,450,0,2126,414,96,9057,-4,0,-24,0,285678,0
285683,225,-2175,-262,-1167,-725,-3893,15027,411,77,442,712,35654,22,32,127,0,0,4020,120,0,2126,414,96,9067,-4,0,-24,0,285678,0
285693,433,-2447,129,-1493,-469,-2994,15194,358,-13,437,704,35669,27,32,127,0,0,4075,604,0,2126,414,96,9077,-4,0,-24,0,285678,0
285703,1128,-3344,71,-1792,-594,-3412,15375,430,-8,713,1144,35690,24,32,127,0,0,4152,758,0,2126,414,96,9087,-4,0,-23,0,285741,0
285713,-12,-3723,182,-1624,-656,-4151,15622,584,173,631,1352,35681,27,32,127,0,0,4220,692,0,2126,414,96,9097,-4,0,-22,0,285741,0
285723,-201,-3758,21,-1295,-643,-4201,15907,645,204,669,1704,35669,24,32,127,0,0,4308,889,0,2126,414,96,9107,-4,0,-22,0,285756,0
285733,-452,-3626,51,-1309,-43,-4544,16245,779,173,731,1944,35654,33,32,127,0,0,4398,856,0,2126,414,96,9117,-4,0,-21,0,285756,0
285743,-334,-3869,363,-1410,395,-5013,16628,859,192,570,2064,35653,52,32,127,0,0,4478,812,0,2126,414,96,9127,-4,0,-20,0,285756,0
285753,-222,-4219,767,-1563,857,-5455,17019,862,88,528,2056,35648,47,32,127,0,0,4543,648,0,2126,414,96,9137,-4,0,-19,0,285756,0
285763,168,-4069,918,-1750,1345,-5500,17408,844,4,486,1928,35645,54,32,127,0,0,4607,626,0,2126,414,96,9147,-4,0,-18,0,285756,0
285773,126,-3438,1129,-1950,1059,-4978,17778,810,-43,543,1880,35635,54,32,127,0,0,4684,791,0,2126,414,96,9157,-4,0,-16,0,285756,0
285783,199,-3041,1106,-1990,955,-4237,18155,844,-10,715,2168,35650,83,32,127,0,0,4781,999,0,2126,414,96,9167,-4,0,-15,0,285772,0
285793,-118,-2040,873,-1900,1243,-2842,18576,974,111,907,2688,35671,90,32,127,0,0,4919,1384,0,2126,414,96,9177,-4,0,-13,0,285772,0
285803,31,-1305,779,-1622,2014,-2190,19095,1219,288,1089,3440,35670,99,32,127,0,0,5093,1790,0,2126,414,96,9187,-4,0,-11,0,285803,0
285813,494,-705,-145,-1437,4214,-3419,19740,1468,435,691,3336,35660,91,32,127,0,0,5152,384,0,2126,414,96,9197,-4,0,-8,0,285819,0
285823,486,-683,-135,-1210,4963,-3592,20333,1207,104,-21,1616,35647,55,32,127,0,0,5075,-834,0,2126,414,96,9207,-4,0,-7,0,285819,0
285833,813,-916,194,-827,4620,-2988,20714,641,-574,-1223,-416,35650,41,32,127,0,0,4963,-1120,0,2126,414,96,9217,-4,0,-4,0,285819,0
285843,1283,-1207,372,-673,4425,-2334,20589,-446,-1424,-785,-1328,35662,17,32,127,0,0,4862,-999,0,2126,414,96,9227,-4,0,-3,0,285819,0
285853,1203,-1358,617,-485,3825,-1332,20307,-685,-1200,-601,-1864,35671,46,32,127,0,0,4763,-999,0,2126,414,96,9237,-4,0,0,0,285850,0
285863,1441,-1434,756,-473,3442,-774,19942,-852,-384,-567,-2208,35663,63,32,127,0,0,4658,-1076,0,2126,414,96,9247,-4,0,1,0,285850,0
285873,1505,-1355,887,-550,2842,45,19503,-1019,-299,-592,-2648,35656,79,32,127,0,0,4528,-1351,0,2126,414,96,9257,-4,0,3,0,285850,0
285884,1540,-1272,873,-681,2326,656,18917,-1242,-326,-630,-3248,35649,77,32,127,0,0,4353,-1675,0,2126,414,96,9268,-4,0,5,0,285881,0
285894,1510,-1213,847,-859,1377,1759,18273,-1474,-377,-653,-3632,35654,72,32,127,0,0,4195,-1582,0,2126,414,96,9278,-4,0,8,0,285881,0
285904,1525,-1265,752,-931,752,2562,17563,-1585,-318,-512,-3768,35652,64,32,127,0,0,4047,-1461,0,2126,414,96,9288,-4,0,10,0,285897,0
285914,1594,-1317,600,-929,35,3604,16836,-1598,-135,-381,-3736,35648,68,32,127,0,0,3908,-1356,0,2126,414,96,9298,-4,0,12,0,285897,0
285924,1573,-1228,548,-898,-247,4129,16107,-1610,-27,-418,-3920,35657,69,32,127,0,0,3751,-1647,0,2126,414,96,9308,-4,0,14,0,285928,0
285934,1369,-1042,569,-822,-684,4930,15335,-1741,-98,-545,-4224,35655,73,32,127,0,0,3580,-1796,0,2126,414,96,9318,-4,0,17,0,285928,0
285944,1141,-1011,623,-725,-1099,5576,14502,-1866,-212,-528,-4352,35652,82,32,127,0,0,3410,-1642,0,2126,414,96,9328,-4,0,19,0,285928,0
285954,985,-1075,658,-515,-1727,6679,13662,-1824,-120,-348,-4184,35645,94,32,127,0,0,3272,-1285,0,2126,414,96,9338,-4,0,22,0,286022,0
285964,959,-1111,546,-355,-2012,7357,12880,-1658,125,-188,-3712,35655,87,32,127,0,0,3177,-922,0,2126,414,96,9348,-4,0,23,48,286022,0
285974,964,-1055,447,-28,-2198,8115,12192,-1445,310,-99,-3064,35661,69,32,127,0,0,3115,-604,0,2126,414,96,9358,-4,0,26,41,286022,0
285984,961,-1010,348,229,-2196,8468,11611,-1206,383,-96,-2432,35667,47,32,127,0,0,3052,-604,0,2126,414,96,9368,-4,0,28,36,286022,0
285994,881,-1008,212,673,-2031,8954,11131,-995,392,-163,-2024,35660,38,32,127,0,0,2995,-582,0,2126,414,96,9378,-4,0,31,31,286037,0
286004,847,-1065,139,950,-1916,9352,10727,-830,330,-205,-1608,35660,35,32,127,0,0,2964,-362,0,2126,414,96,9388,-4,0,33,27,286037,0
286014,787,-1301,123,1403,-1715,9873,10401,-664,299,-229,-1168,35661,32,32,127,0,0,2943,-181,0,2126,414,96,9398,-4,0,36,23,286037,0
286024,752,-1401,113,1702,-1573,10079,10142,-525,295,-193,-680,35662,26,32,127,0,0,2942,-10,0,2126,414,96,9408,-4,0,38,20,286037,0
286034,765,-1505,232,2066,-1383,10167,9961,-347,233,-216,-328,35662,26,32,127,0,0,2943,-5,0,2126,414,96,9418,-4,0,41,16,286037,0
286044,749,-1694,302,2271,-1201,10273,9863,-156,301,-108,-64,35659,24,32,127,0,0,2944,32,0,2126,414,96,9428,-4,0,43,14,286037,0
286054,817,-1963,317,2495,-994,10616,9855,49,330,210,176,35664,17,32,127,0,0,2972,269,0,2126,414,96,9438,-4,0,46,11,286037,0
286064,862,-2049,260,2597,-831,10867,9931,218,343,438,440,35680,-4,32,127,0,0,3027,560,0,2126,414,96,9448,-4,0,48,10,286069,0
286074,828,-2179,238,2675,-624,11010,10073,344,291,497,872,35682,-10,32,127,0,0,3100,812,0,2126,414,96,9458,-4,0,51,8,286069,0
286084,734,-2282,258,2703,-551,10929,10282,485,252,507,1168,35682,8,32,127,0,0,3176,763,0,2126,414,96,9468,-4,0,53,7,286069,0
286094,785,-2506,335,2679,-552,10729,10541,601,210,502,1376,35677,36,32,127,0,0,3246,681,0,2126,414,96,9478,-4,0,56,5,286084,0
286104,838,-2614,360,2631,-592,10580,10835,658,162,484,1488,35675,44,32,127,0,0,3309,565,0,2126,414,96,9488,-4,0,58,4,286084,0
286115,932,-2666,256,2513,-617,10276,11147,694,98,366,1448,35675,42,32,127,0,0,3364,461,0,2126,414,96,9499,-4,0,61,3,286115,0
286125,817,-2617,177,2350,-575,9892,11451,657,13,286,1216,35678,34,32,127,0,0,3392,241,0,2126,414,96,9509,-4,0,63,3,286115,0
286135,675,-2590,110,2253,-538,9655,11719,562,-96,170,800,35666,25,32,127,0,0,3399,87,0,2126,414,96,9519,-4,0,65,2,286131,0
286145,573,-2512,-16,2130,-391,9298,11937,438,-171,147,432,35663,23,32,127,0,0,3405,43,0,2126,414,96,9529,-4,0,68,2,286131,0
286155,523,-2461,-97,2112,-258,9036,12098,319,-209,42,120,35670,22,32,127,0,0,3405,0,0,2126,414,96,9539,-4,0,69,2,286162,0
286165,440,-2411,-260,2169,19,8593,12157,34,-311,-62,0,35672,0,32,127,0,0,3405,32,0,2126,414,96,9549,-4,0,72,2,286162,0
286175,321,-2366,-315,2200,214,8145,12146,-2,-329,137,24,35674,-10,32,127,0,0,3405,0,0,2126,414,96,9559,-4,0,73,2,286162,0
286185,307,-2329,-339,2127,511,7317,12147,0,-70,121,56,35667,-34,32,127,0,0,3412,65,0,2126,414,96,9569,-4,0,75,2,286162,0
286195,300,-2447,-300,1972,674,6587,12153,21,31,272,72,35669,-37,32,127,0,0,3414,54,0,2126,414,96,9579,-4,0,77,2,286194,0
286205,357,-2582,-215,1538,902,5157,12156,2,10,362,112,35666,-43,32,127,0,0,3421,65,0,2126,414,96,9589,-4,0,78,2,286194,0
286215,390,-2660,-134,1185,1094,3951,12165,20,5,489,192,35667,-45,32,127,0,0,3418,-32,0,2126,414,96,9599,-4,0,79,2,286225,0
286225,585,-2612,-130,600,1363,1946,12189,59,40,305,136,35669,-20,32,127,0,0,3418,-54,0,2126,414,96,9609,-4,0,81,2,286225,0
286235,739,-2394,-172,200,1547,502,12214,26,26,-26,8,35670,-12,32,127,0,0,3407,-98,0,2126,414,96,9619,-4,0,82,2,286225,0
286245,966,-2184,-190,-294,1888,-1583,12195,-62,-99,-357,-240,35670,-14,32,127,0,0,3379,-285,0,2126,414,96,9629,-4,0,83,2,286225,0
286255,1127,-2056,-185,-533,2072,-2733,12125,-209,-187,-543,-472,35659,-13,32,127,0,0,3339,-395,0,2126,414,96,9639,-4,0,83,2,286240,0
286265,1219,-9179,214,-1992,1279,-2499,11992,-300,-223,33,376,35668,0,32,127,0,0,3506,2109,0,1231,134,97,1,1,1,83,2,286256,0
286275,941,-1169,4215,489,2189,-3289,12167,768,553,2083,3200,35668,26,32,127,0,0,3768,2504,0,1231,134,97,11,1,1,83,2,286256,0
286285,269,-2201,1136,893,-724,-4762,12789,1576,1563,1428,4520,35652,73,32,127,0,0,3871,911,0,1231,134,97,21,1,1,83,2,286272,0
286295,-566,-1747,748,534,-1382,-3452,13619,1901,1162,963,5064,35632,111,32,127,0,0,3999,1384,0,1231,134,97,31,1,1,83,2,286287,0
286305,-623,-768,-100,-1010,-913,-2814,14607,2309,661,1158,6024,35621,166,32,127,0,0,4170,1768,0,1231,134,97,41,1,1,83,2,286287,0
286315,-152,-2563,-1074,-1249,-23,-3207,15783,2680,681,1094,6784,35612,187,32,127,0,0,4350,1779,0,1231,134,97,51,1,1,83,2,286303,0
286325,-406,-3275,-1203,-285,-55,-4271,17070,2875,546,782,7040,35609,215,32,127,0,0,4478,1263,0,1231,134,97,61,1,1,83,2,286412,0
286335,-417,-2854,-410,2,-207,-4756,18381,2859,229,313,6336,35602,209,32,127,0,0,4530,450,0,1231,134,97,71,1,1,83,2,286412,0
286345,21,-2372,368,-463,-669,-4855,19584,2536,-204,121,5440,35619,149,32,127,0,0,4554,208,0,1231,134,97,81,1,1,83,2,286428,0
286355,434,-2655,374,-584,-635,-5062,20595,2086,-615,-131,3632,35631,104,32,127,0,0,4554,-32,0,1231,134,97,91,1,1,83,2,286428,0
286365,529,-1753,-131,-620,-412,-5444,21386,1576,-802,-501,1752,35644,38,32,127,0,0,4515,-461,0,1231,134,97,101,1,1,83,2,286428,0
286375,458,-1604,183,-390,-345,-5171,21888,894,-991,-621,168,35653,7,32,127,0,0,4451,-637,0,1231,134,97,111,1,1,83,2,286428,0
286385,2033,-3157,947,-279,-420,-4655,21958,-224,-1429,-1289,-536,35659,-11,32,127,0,0,4398,-505,0,1231,134,97,121,1,1,83,2,286428,0
286395,822,-1562,1172,-29,-98,-5030,21810,-297,-1249,141,-8,35657,1,32,127,0,0,4284,-1241,680,1231,134,97,131,1,1,83,2,286428,0
286405,1856,-2213,1631,-377,-393,-3432,21707,-254,-187,500,-56,35651,8,32,127,0,0,4231,-340,880,1231,134,97,141,1,1,83,2,286428,0
286415,2046,-1992,1481,-512,-1110,-3299,21414,-853,-332,453,-1208,35647,8,32,127,0,0,4187,-439,1080,1231,134,97,151,1,1,83,2,286428,0
286425,-420,-1913,30,-820,-582,-3566,20821,-1454,-1004,495,-2320,35653,-16,32,127,0,0,4091,-1032,1280,1231,134,97,161,1,1,83,2,286490,0
286435,-1440,-1966,-371,-479,330,-4036,20105,-1572,-760,613,-2168,35664,-39,32,127,0,0,3961,-1340,1480,1231,134,97,171,1,1,83,2,286490,0
286446,131,-2136,76,-300,975,-3841,19364,-1430,-33,798,-1560,35676,-37,32,127,0,0,3818,-1307,1500,1231,134,97,182,1,1,83,2,286490,0
286456,664,-2075,166,-299,716,-3372,18768,-1265,244,855,-1112,35688,-42,32,127,0,0,3696,-1224,1500,1231,134,97,192,1,1,83,2,286490,0
286466,1080,-2095,428,-224,-175,-2742,18267,-1036,321,874,-480,35701,-40,32,127,0,0,3611,-873,1500,1231,134,97,202,1,1,83,2,286506,0
286476,793,-1976,428,-173,-295,-2348,17887,-741,424,1102,-112,35711,-34,32,127,0,0,3541,-631,1500,1231,134,97,212,1,1,83,2,286506,0
286486,667,-2007,740,-85,-547,-1688,17654,-440,524,1170,-24,35707,-24,32,127,0,0,3506,-373,1500,1231,134,97,222,1,1,83,2,286506,0
286496,648,-1935,792,-45,-797,-1502,17442,-491,286,840,-64,35690,-28,32,127,0,0,3474,-318,1500,1231,134,97,232,1,1,83,2,286522,0
286506,162,-1976,402,-192,-292,-1560,17186,-578,-80,826,-120,35670,-22,32,127,0,0,3434,-450,1500,1231,134,97,242,1,1,83,2,286522,0
286516,26,-1988,249,-186,-91,-1660,16916,-594,-97,866,-96,35658,-17,32,127,0,0,3384,-494,1500,1231,134,97,252,1,1,83,2,286522,0
286526,302,-1975,205,-170,28,-1579,16645,-594,-24,875,-104,35662,-16,32,127,0,0,3334,-483,1500,1231,134,97,262,1,1,83,2,286522,0
286536,376,-2015,259,-142,-17,-1439,16393,-536,39,952,-64,35668,-12,32,127,0,0,3289,-455,1500,1231,134,97,272,1,1,83,2,286522,0
286546,631,-2026,493,-151,-73,-1276,16184,-438,124,965,0,35676,-17,32,127,0,0,3246,-395,1500,1231,134,97,282,1,1,83,2,286553,0
286556,815,-1952,635,-203,-132,-1219,16002,-409,128,907,-8,35688,-15,32,127,0,0,3215,-422,1500,1231,134,97,292,1,1,83,2,286553,0
286566,588,-1944,693,-257,-167,-1072,15816,-399,24,898,-16,35680,-7,32,127,0,0,3183,-384,1500,1231,134,97,302,1,1,83,2,286553,0
286576,478,-1892,648,-273,-143,-996,15629,-412,-5,897,-24,35672,-9,32,127,0,0,3149,-313,1500,1231,134,97,312,1,1,83,2,286553,0
286586,601,-1976,555,-315,-79,-978,15454,-364,24,901,24,35661,-20,32,127,0,0,3121,-280,1500,1231,134,97,322,1,1,83,2,286584,0
286596,684,-1935,407,-329,-124,-917,15296,-331,61,904,16,35667,1,32,127,0,0,3086,-285,1500,1231,134,97,332,1,1,83,2,286584,0
286606,576,-1941,314,-296,-194,-805,15141,-336,35,892,32,35666,-3,32,127,0,0,3055,-313,1500,1231,134,97,342,1,1,83,2,286584,0
286617,549,-2059,287,-257,-222,-705,14999,-262,60,919,72,35667,13,32,127,0,0,3032,-219,1500,1231,134,97,353,1,1,83,2,286600,0
286627,516,-2035,338,-248,-224,-669,14904,-181,119,916,104,35672,-1,32,127,0,0,3014,-164,1530,1231,134,97,363,1,1,83,2,286600,0
286637,718,-1931,454,-221,-375,-689,14811,-225,61,936,80,35675,16,32,127,0,0,2999,-142,1590,1231,134,97,373,1,1,83,2,286631,0
286647,666,-2087,480,-204,-442,-631,14720,-185,-2,973,120,35673,8,32,127,0,0,2986,-131,1660,1231,134,97,383,1,1,83,2,286647,0
286657,364,-2092,536,-204,-532,-596,14646,-154,44,1000,168,35662,18,32,127,0,0,2970,-153,1720,1231,134,97,393,1,1,83,2,286647,0
286667,384,-2238,574,-232,-585,-634,14600,-84,81,1045,224,35658,18,32,127,0,0,2964,-65,1790,1231,134,97,403,1,1,83,2,286662,0
286677,332,-2234,581,-360,-493,-588,14598,24,141,1074,304,35660,13,32,127,0,0,2961,21,1880,1231,134,97,413,1,1,83,2,286662,0
286687,306,-2019,555,-431,-454,-674,14601,-3,90,1164,280,35663,32,32,127,0,0,2961,0,1970,1231,134,97,423,1,1,83,2,286740,0
286697,240,-2138,269,-590,-566,-808,14603,12,0,1200,312,35672,43,32,127,0,0,2961,0,2070,1231,134,97,433,1,1,83,2,286756,0
286707,48,-2049,411,-685,-618,-942,14603,1,6,1274,320,35671,58,32,127,0,0,2966,43,2200,1231,134,97,443,1,1,83,2,286756,0
286717,-181,-2298,385,-652,-594,-1227,14607,3,-1,1353,360,35665,42,32,127,0,0,2966,65,2350,1231,134,97,453,1,1,83,2,286756,0
286727,-180,-2284,457,-609,-569,-1437,14611,11,3,1455,384,35656,53,32,127,0,0,2966,43,2540,1231,134,97,463,1,1,83,2,286772,0
286737,-13,-2194,553,-647,-597,-1766,14614,9,5,1578,408,35654,65,32,127,0,0,2964,-10,2700,1231,134,97,473,1,1,83,2,286772,0
286747,148,-2154,623,-716,-670,-1935,14614,-9,-6,1648,416,35655,75,32,127,0,0,2966,10,2790,1231,134,97,483,1,1,83,2,286772,0
286757,301,-2172,655,-809,-843,-2140,14615,0,-3,1695,416,35653,74,32,127,0,0,2966,10,2870,1231,134,97,493,1,1,83,2,286772,0
286767,289,-2221,660,-863,-923,-2266,14614,-4,0,1740,440,35652,65,32,127,0,0,2964,10,2970,1231,134,97,503,1,1,83,2,286772,0
286777,275,-2242,668,-977,-914,-2468,14616,3,1,1811,456,35651,63,32,127,0,0,2964,10,3060,1231,134,97,513,1,1,83,2,286772,0
286787,248,-2273,693,-1065,-960,-2573,14617,9,4,1861,472,35654,61,32,127,0,0,2961,-32,3150,1231,134,97,523,1,1,83,2,286772,0
286797,101,-2170,536,-1156,-1044,-2820,14620,1,7,1914,488,35658,62,32,127,0,0,2964,0,3250,1231,134,97,533,1,1,83,2,286772,0
286807,122,-2226,365,-1198,-1032,-3043,14625,0,2,1963,504,35666,67,32,127,0,0,2966,10,3330,1231,134,97,543,1,1,83,2,286803,0
286817,124,-2179,274,-1215,-1016,-3321,14632,10,0,2015,544,35660,80,32,127,0,0,2968,0,3420,1231,134,97,553,1,1,83,2,286803,0
286827,126,-2132,271,-1237,-1014,-3481,14646,42,15,2033,648,35656,75,32,127,0,0,2970,21,3500,1231,134,97,563,1,1,83,2,286803,0
286837,212,-2199,332,-1316,-1069,-3691,14689,113,72,2010,912,35647,80,32,127,0,0,2977,76,3610,1231,134,97,573,1,1,83,2,286818,0
286847,56,-2216,374,-1392,-1085,-3840,14755,179,100,2198,1008,35661,90,32,127,0,0,2988,109,3800,1231,134,97,583,1,1,83,2,286834,0
286857,-72,-2269,475,-1490,-1271,-3981,14864,248,127,2266,1224,35657,85,32,127,0,0,3003,164,4010,1231,134,97,593,1,1,83,2,286834,0
286868,-215,-2426,349,-1554,-1224,-4007,15040,416,177,2339,1776,35647,93,32,127,0,0,3038,324,4270,1231,134,97,604,1,1,83,2,286850,0
286878,-615,-2389,440,-1596,-1193,-4587,15322,720,347,2621,2712,35641,107,32,127,0,0,3084,499,4530,1231,134,97,614,1,1,83,2,286881,0
286888,-293,-2967,476,-1661,-1499,-4499,15732,970,488,2844,3288,35632,177,32,127,0,0,3159,818,4890,1231,134,97,624,1,1,83,2,286881,0
286898,-475,-2857,549,-1646,-1663,-4578,16229,1160,398,3009,3864,35615,226,32,127,0,0,3255,917,5400,1231,134,97,634,1,1,83,2,286897,0
286908,-353,-2982,416,-1720,-1832,-4938,16833,1393,371,3293,4384,35588,277,32,127,0,0,3358,1093,5590,1231,134,97,644,1,1,83,2,286897,0
286918,-183,-3067,458,-1635,-2116,-5268,17515,1536,351,3356,4704,35568,323,32,127,0,0,3489,1285,4990,1231,134,97,654,1,1,83,2,286897,0
286928,-298,-3251,221,-1586,-1954,-5497,18203,1463,137,2842,3992,35561,402,32,127,0,0,3616,1252,3810,1231,134,97,664,1,1,83,2,286928,0
286938,-324,-2956,121,-1654,-1657,-6700,18763,1120,-283,2086,2832,35550,447,32,127,0,0,3718,1032,2850,1231,134,97,674,1,1,83,2,286928,0
286948,81,-3576,309,-1729,-1673,-7541,19114,616,-682,1481,1368,35563,380,32,127,0,0,3779,576,2230,1231,134,97,684,1,1,83,2,286928,0
286958,-151,-4235,728,-1447,-1630,-8468,19259,229,-805,1235,584,35597,275,32,127,0,0,3806,203,1890,1231,134,97,694,1,1,83,2,286959,0
286968,-192,-4196,827,-1543,-1571,-8656,19329,149,-491,1014,520,35648,123,32,127,0,0,3832,170,1460,1231,134,97,704,1,1,83,2,286959,0
286978,-784,-3842,1238,-1562,-858,-8031,19436,274,-23,720,744,35670,71,32,127,0,0,3852,252,1100,1231,134,97,714,1,1,83,2,286975,0
286988,-617,-3427,1290,-1666,-1868,-6936,19579,327,148,402,-392,35664,40,32,127,0,0,3966,1241,0,1231,134,97,724,1,1,83,2,286975,0
286998,292,-2665,1050,-2017,-2267,-5180,19425,-610,-570,-1278,-2024,35662,43,32,127,0,0,4162,2065,0,1231,134,97,734,1,1,83,2,286975,0
287008,-175,-2121,962,-2043,-2618,-4156,18972,-1181,-1213,-1220,-3504,35664,51,32,127,0,0,4386,2334,0,1231,134,97,744,1,1,83,2,287006,0
287018,104,-1264,618,-1795,-2564,-2650,18352,-1282,-687,572,-168,35658,108,32,127,0,0,4676,2850,0,1231,134,97,754,1,1,83,2,287006,0
287028,910,-1255,-106,-1598,-1164,-3623,18400,679,1083,2375,2040,35657,95,32,127,0,0,4808,1137,0,1231,134,97,764,1,1,83,2,287006,0
287038,1222,-1041,-404,-1304,496,-3894,18792,855,1949,288,1328,35647,102,32,127,0,0,4775,-455,0,1231,134,97,774,1,1,83,2,287037,0
287048,875,-921,-262,-942,1410,-3571,19076,454,393,-919,-536,35661,55,32,127,0,0,4629,-1455,0,1231,134,97,784,0,1,83,2,287037,0
287058,859,-856,-220,-562,2124,-2294,18888,-636,-1120,-1028,-1936,35659,55,32,127,0,0,4471,-1571,0,1231,134,97,794,0,1,83,2,287084,0
287068,646,-944,85,-317,2308,-1414,18464,-1051,-1366,-882,-2832,35662,51,32,127,0,0,4302,-1647,0,1231,134,97,804,0,1,83,2,287084,0
287078,716,-953,275,-87,2601,-217,17889,-1331,-722,-677,-3264,35655,54,32,127,0,0,4162,-1422,0,1231,134,97,814,0,1,83,2,287100,0
287088,840,-962,395,-45,2818,455,17252,-1415,-406,-450,-3408,35648,69,32,127,0,0,4019,-1455,0,1231,134,97,824,0,1,83,2,287100,0
287098,1195,-937,477,22,3302,1402,16593,-1471,-154,-428,-3536,35645,62,32,127,0,0,3867,-1554,0,1231,134,97,834,0,1,83,2,287100,0
287108,1347,-831,426,36,3649,2122,15897,-1577,-109,-589,-3896,35643,74,32,127,0,0,3687,-1752,0,1231,134,97,844,0,1,83,2,287100,0
287119,1521,-611,345,12,3859,3428,15123,-1757,-235,-580,-4232,35640,86,32,127,0,0,3482,-1845,0,1231,134,97,855,0,1,83,2,287100,0
287129,1526,-478,170,78,3666,4935,14292,-1839,-253,-438,-4248,35646,93,32,127,0,0,3313,-1702,0,1231,134,97,865,0,1,83,2,287131,0
287139,1555,-588,44,157,3417,5949,13472,-1778,-64,-304,-4064,35655,86,32,127,0,0,3177,-1351,0,1231,134,97,875,0,1,83,2,287131,0
287149,1696,-534,-34,183,3040,7166,12716,-1620,160,-225,-3696,35661,101,32,127,0,0,3054,-1208,0,1231,134,97,885,0,1,83,2,287146,0
287159,1658,-566,115,291,2720,7878,12028,-1472,256,-238,-3352,35659,91,32,127,0,0,2942,-1098,0,1231,134,97,895,0,1,83,2,287146,0
287169,1567,-754,247,505,1949,9080,11404,-1342,251,-259,-2976,35653,82,32,127,0,0,2849,-933,0,1231,134,97,905,0,1,83,2,287162,0
287179,1514,-903,529,606,1214,9906,10832,-1209,215,-188,-2416,35660,63,32,127,0,0,2790,-538,0,1231,134,97,915,0,1,83,2,287178,0
287189,1515,-1093,797,767,152,10911,10343,-1007,272,-98,-1680,35665,62,32,127,0,0,2770,-131,0,1231,134,97,925,0,1,83,2,287178,0
287199,1599,-1157,700,930,-406,11254,9967,-737,387,-27,-864,35667,45,32,127,0,0,2770,-10,0,1231,134,97,935,0,1,83,2,287178,0
287209,1437,-1209,254,1245,-1259,11667,9721,-462,468,-29,-216,35670,45,32,127,0,0,2775,43,0,1231,134,97,945,0,1,83,2,287209,0
287219,1662,-1432,74,1501,-1602,12103,9622,-84,536,353,176,35678,29,32,127,0,0,2788,164,0,1231,134,97,955,0,1,83,2,287209,0
287229,2015,-1714,67,1941,-1882,12996,9690,204,611,407,408,35680,37,32,127,0,0,2825,395,0,1231,134,97,965,0,1,83,2,287209,0
287239,1934,-1847,171,2180,-2006,13546,9824,323,406,537,824,35673,29,32,127,0,0,2891,692,0,1231,134,97,975,0,1,83,2,287225,0
287249,1685,-1845,296,2394,-2017,13789,10017,479,233,594,1304,35667,26,32,127,0,0,2970,780,0,1231,134,97,985,0,1,83,2,287240,0
287259,1377,-1937,247,2498,-1843,13577,10286,633,270,503,1384,35673,35,32,127,0,0,3016,417,0,1231,134,97,995,0,1,83,2,287240,0
287269,967,-2256,-74,2738,-1372,13023,10582,656,180,297,1208,35671,30,32,127,0,0,3032,109,0,1231,134,97,1005,0,1,83,2,287287,0
287279,902,-2481,-209,2952,-1017,12735,10850,549,-23,178,712,35667,32,32,127,0,0,3030,-32,0,1231,134,97,1015,0,1,83,2,287287,0
287289,599,-2548,-108,3273,-440,11995,11067,438,-166,116,336,35654,29,32,127,0,0,3025,-32,0,1231,134,97,1025,0,1,83,2,287287,0
287299,495,-2528,7,3378,-81,11254,11217,275,-225,-9,72,35655,32,32,127,0,0,3012,-87,0,1231,134,97,1035,0,1,83,2,287287,0
287309,412,-2560,119,3328,411,9924,11265,32,-335,-198,-64,35655,29,32,127,0,0,2999,-153,0,1231,134,97,1045,0,1,83,2,287303,0
287319,409,-2646,120,3158,769,8937,11247,-29,-316,-80,-8,35656,7,32,127,0,0,2994,-54,0,1231,134,97,1055,0,1,83,2,287303,0
287329,486,-2670,-29,2697,1512,7151,11261,34,-26,117,112,35658,-4,32,127,0,0,2999,21,0,1231,134,97,1065,0,1,83,2,287303,0
287339,623,-2554,-293,2315,2139,5812,11291,82,86,329,144,35670,2,32,127,0,0,3005,76,0,1231,134,97,1075,0,1,83,2,287334,0
287349,1003,-2130,-585,1447,3019,3478,11364,188,124,349,280,35679,12,32,127,0,0,3021,131,0,1231,134,97,1085,0,1,83,2,287334,0
287359,1271,-1909,-543,962,3512,1628,11464,241,131,360,360,35674,13,32,127,0,0,3034,142,0,1231,134,97,1095,0,1,83,2,287350,0
287370,1765,-1419,-557,356,4044,-1157,11597,256,81,191,160,35668,24,32,127,0,0,3024,-120,0,1231,134,97,1106,0,1,83,2,287350,0
287380,1944,-1068,-435,17,4165,-2782,11676,106,-62,-270,-96,35681,16,32,127,0,0,2998,-225,0,1231,134,97,1116,0,1,83,2,287381,0
287390,442,-6285,-1552,-682,4081,-4396,11639,-143,-335,-383,-224,35685,8,32,127,0,0,2992,-27,0,1231,134,97,1126,0,1,83,2,287381,0
287400,3174,-7005,1379,-1535,4886,-4985,11636,167,-126,1368,1952,35668,24,32,127,0,0,3270,3015,0,5432,998,98,8,1,1,310,-3,287381,0
287410,1555,-1503,347,1257,1283,-7582,12076,1253,1042,1576,3568,35648,69,32,127,0,0,3364,719,0,5432,998,98,18,1,1,310,-3,287412,0
287420,283,-490,501,-75,-76,-7257,12711,1403,1212,422,3232,35641,90,32,127,0,0,3383,159,0,5432,998,98,28,1,1,310,-3,287428,0
287430,17,-3191,-523,-678,-2332,-5317,13318,1346,206,715,3664,35636,100,32,127,0,0,3491,1164,0,5432,998,98,38,1,1,310,-3,287428,0
287440,-305,-3012,-710,-221,-4058,-5603,14020,1625,149,867,4176,35640,83,32,127,0,0,3610,1159,0,5432,998,98,48,1,1,310,-3,287459,0
287450,149,-1747,-1382,-433,-3181,-7714,14833,1820,416,400,3784,35634,89,32,127,0,0,3621,-49,0,5432,998,98,58,1,1,310,-3,287459,0
287460,2764,-4164,-70,-845,-1766,-9425,15595,1600,74,-54,2200,35639,70,32,127,0,0,3494,-1455,0,5432,998,98,68,1,1,310,-3,287459,0
287470,-3076,-1155,641,-307,356,-10270,16066,567,-743,-2418,-1248,35647,40,32,127,0,0,3204,-2785,0,5432,998,98,78,1,1,310,-3,287475,0
287480,2400,-113,1699,-884,-321,-8664,15479,-1801,-2768,827,-4272,35660,-3,32,127,0,0,3102,-1400,640,5432,998,98,88,1,1,310,-3,287475,0
287490,2583,-292,64,-1114,-1507,-9141,13935,-4018,-3883,393,-9536,35667,-7,32,127,0,0,2834,-2779,840,5432,998,98,98,1,1,310,-3,287475,0
287500,-1484,-901,-840,-671,643,-10174,11882,-4570,-2746,287,-10176,35672,-8,32,127,0,0,2459,-3768,1040,5432,998,98,108,1,1,310,-3,287475,0
287510,142,-1633,-694,100,3758,-9213,9864,-4345,-656,310,-8688,35684,-8,32,127,0,0,2131,-3191,1240,5432,998,98,118,1,1,310,-3,287521,0
287520,3658,-509,620,-56,1362,-8338,8105,-3645,654,698,-6424,35692,-26,32,127,0,0,1869,-2554,1860,5432,998,98,128,1,1,310,-3,287521,0
287530,3939,-2907,956,194,-702,-5683,6710,-2789,1253,1164,-3840,35696,-76,32,127,0,0,1671,-1840,2540,5432,998,98,138,1,1,310,-3,287521,0
287540,4215,-1802,997,282,-551,-4303,5853,-1460,1773,1635,-400,35696,-112,32,127,0,0,1551,-1137,2730,5432,998,98,148,1,1,310,-3,287521,0
287550,2878,-1742,1139,-189,-819,-2473,5707,227,2478,2262,1696,35694,-95,32,127,0,0,1475,-752,2850,5432,998,98,158,1,1,310,-3,287553,0
287560,2049,-1849,1282,-454,-972,-1685,6109,1159,2419,1815,4056,35669,0,32,127,0,0,1428,-444,2930,5432,998,98,168,1,1,310,-3,287553,0
287570,-1367,-4002,1075,-578,-1425,-300,6943,2079,1790,2207,5640,35624,150,32,127,0,0,1435,115,3000,5432,998,98,178,1,1,310,-3,287553,0
287580,4371,-3587,1904,-739,-2072,1367,7715,1386,606,2343,2944,35588,240,32,127,0,0,1612,1653,3040,5432,998,98,188,1,1,310,-3,287568,0
287590,1704,-469,-40,-882,-1688,765,7942,124,-1398,1858,352,35587,238,32,127,0,0,1666,379,3170,5432,998,98,198,1,1,310,-3,287568,0
287600,-785,-2818,60,-608,-1128,72,7874,-140,-1590,2048,360,35611,168,32,127,0,0,1660,-65,3260,5432,998,98,208,1,1,310,-3,287584,0
287611,-547,-2780,-374,-469,-247,-576,7916,164,-88,1863,1096,35646,87,32,127,0,0,1669,120,3280,5432,998,98,219,1,1,310,-3,287599,0
287621,1289,-3369,20,-801,943,-307,8089,485,480,1939,2000,35651,78,32,127,0,0,1691,230,3340,5432,998,98,229,1,1,310,-3,287615,0
287631,1693,-3371,688,-898,27,184,8437,899,598,2176,3256,35646,109,32,127,0,0,1749,648,3430,5432,998,98,239,1,1,310,-3,287615,0
287641,1671,-3188,1014,-885,-1021,1110,9015,1444,797,2226,4656,35616,161,32,127,0,0,1867,1241,3550,5432,998,98,249,1,1,310,-3,287646,0
287651,1040,-3074,1037,-823,-1627,1630,9884,2119,1024,2277,6304,35589,248,32,127,0,0,2045,1867,3730,5432,998,98,259,1,1,310,-3,287646,0
287661,474,-2732,915,-1011,-2414,2204,11052,2738,1137,2392,7648,35553,358,32,127,0,0,2280,2406,3470,5432,998,98,269,1,1,310,-3,287646,0
287671,401,-2628,866,-921,-2898,2263,12382,2963,846,2062,8136,35531,430,32,127,0,0,2548,2702,2980,5432,998,98,279,1,1,310,-3,287646,0
287681,-54,-2222,-13,-1048,-1983,2039,13742,3000,310,1842,7696,35526,455,32,127,0,0,2801,2559,2390,5432,998,98,289,1,1,310,-3,287709,0
287691,-296,-1807,-293,-883,-1587,1506,15085,2901,10,1503,6776,35543,440,32,127,0,0,3043,2384,1550,5432,998,98,299,1,1,310,-3,287709,0
287701,31,-1567,-622,-656,-1147,468,16247,2365,-424,774,5120,35575,362,32,127,0,0,3256,2098,500,5432,998,98,309,1,1,310,-3,287709,0
287711,50,-1607,-432,-674,-872,-74,16840,246,-1580,-5465,-2432,35592,285,32,127,0,0,3414,1461,0,5432,998,98,319,1,1,310,-3,287724,0
287721,-1847,-1510,250,-435,-547,-904,16365,-1122,-3397,-475,-2736,35615,170,32,127,0,0,3520,1087,0,5432,998,98,329,1,1,310,-3,287724,0
287731,-34,-2613,128,-860,-974,-876,15818,-1227,-1880,-402,-2792,35634,111,32,127,0,0,3689,1768,0,5432,998,98,339,1,1,310,-3,287724,0
287741,-756,-2787,681,-1055,-1178,-1174,15240,-1304,-161,-380,-2120,35645,95,32,127,0,0,3858,1691,0,5432,998,98,349,1,1,310,-3,287724,0
287751,-919,-2497,636,-1137,-1434,-1628,14792,-718,229,2037,824,35667,64,32,127,0,0,4045,1889,0,5432,998,98,359,1,1,310,-3,287724,0
287761,-877,-1917,259,-1308,-1328,-2782,15023,738,1675,1203,2264,35670,71,32,127,0,0,4214,1702,0,5432,998,98,369,1,1,310,-3,287756,0
287771,-587,-1931,279,-1386,-1057,-3671,15497,1149,1693,864,2832,35664,69,32,127,0,0,4343,1219,0,5432,998,98,379,1,1,310,-3,287756,0
287781,-889,-2158,471,-1391,-801,-4680,16055,1228,537,472,2864,35646,76,32,127,0,0,4442,977,0,5432,998,98,389,1,1,310,-3,287771,0
287791,-740,-2240,617,-1506,-864,-5282,16599,1179,85,360,2640,35645,62,32,127,0,0,4524,769,0,5432,998,98,399,1,1,310,-3,287849,0
287801,-721,-2050,368,-1738,-981,-6198,17102,1081,-116,312,2360,35656,56,32,127,0,0,4587,670,0,5432,998,98,409,1,1,310,-3,287849,0
287811,-804,-1813,106,-1903,-826,-6707,17554,951,-178,256,1960,35662,50,32,127,0,0,4631,472,0,5432,998,98,419,1,1,310,-3,287849,0
287821,-1006,-1822,-228,-1926,-669,-7334,17945,831,-220,273,1632,35653,52,32,127,0,0,4675,439,0,5432,998,98,429,1,1,310,-3,287849,0
287831,-991,-1945,-262,-1949,-634,-7694,18276,688,-225,349,1392,35648,47,32,127,0,0,4717,450,0,5432,998,98,439,1,1,310,-3,287849,0
287841,-1007,-1925,15,-1904,-907,-7987,18567,617,-186,410,1296,35650,35,32,127,0,0,4754,362,0,5432,998,98,449,1,1,310,-3,287865,0
287851,-1596,-2190,373,-1934,-549,-7590,18827,550,-131,414,1144,35651,44,32,127,0,0,4807,538,0,5432,998,98,459,1,1,310,-3,287865,0
287861,-939,-2452,934,-2076,-755,-6814,19075,582,-73,853,1848,35647,50,32,127,0,0,4937,1395,0,5432,998,98,469,1,1,310,-3,287865,0
287871,-774,-3022,1247,-2380,-769,-6854,19448,900,249,981,2536,35644,68,32,127,0,0,5064,1241,0,5432,998,98,479,1,1,310,-3,287865,0
287882,1000,-4131,1526,-2489,402,-6822,19971,1089,430,728,2712,35655,69,32,127,0,0,5160,802,0,5432,998,98,490,1,1,310,-3,287865,0
287892,648,-4377,1372,-2341,1764,-6851,20445,980,135,174,1640,35669,68,32,127,0,0,5106,-620,0,5432,998,98,500,1,1,310,-3,287881,0
287902,120,-3556,931,-1979,3009,-6281,20778,595,-334,-743,-344,35683,46,32,127,0,0,4962,-1488,0,5432,998,98,510,0,1,310,-3,287912,0
287912,140,-3002,860,-1692,3082,-5756,20644,-539,-1228,-1198,-1896,35681,34,32,127,0,0,4799,-1730,0,5432,998,98,520,0,1,310,-3,287912,0
287922,-69,-2257,836,-1385,2639,-5178,20249,-1014,-1385,-1088,-3080,35665,39,32,127,0,0,4619,-1796,0,5432,998,98,530,0,1,310,-3,287928,0
287932,295,-2054,775,-1274,2269,-4567,19654,-1430,-820,-912,-3768,35653,66,32,127,0,0,4442,-1697,0,5432,998,98,540,0,1,310,-3,287928,0
287942,765,-1944,577,-962,1942,-3258,18919,-1675,-630,-582,-4096,35641,83,32,127,0,0,4283,-1549,0,5432,998,98,550,0,1,310,-3,287928,0
287952,1073,-1794,489,-710,1952,-2370,18130,-1743,-342,-358,-4008,35649,119,32,127,0,0,4134,-1455,0,5432,998,98,560,0,1,310,-3,287928,0
287962,1384,-1431,499,-396,2122,-1147,17351,-1702,-64,-336,-3984,35654,95,32,127,0,0,3979,-1625,0,5432,998,98,570,0,1,310,-3,287959,0
287972,1636,-1228,547,-304,2253,-367,16577,-1716,32,-478,-4256,35659,80,32,127,0,0,3799,-1873,0,5432,998,98,580,0,1,310,-3,287990,0
287982,2097,-928,669,-239,2340,842,15742,-1907,-126,-670,-4776,35650,84,32,127,0,0,3580,-2241,0,5432,998,98,590,0,1,310,-3,287990,0
287992,2386,-676,740,-276,2288,1740,14790,-2171,-364,-752,-5328,35643,111,32,127,0,0,3321,-2631,0,5432,998,98,600,0,1,310,-3,287990,0
288002,2501,-194,698,-378,1773,3452,13729,-2410,-435,-874,-6056,35641,159,32,127,0,0,3034,-2823,0,5432,998,98,610,0,1,310,-3,287990,0
288012,2333,-66,556,-471,983,4999,12601,-2490,-328,-524,-6152,35635,168,32,127,0,0,2804,-2224,0,5432,998,98,620,0,1,310,-3,288021,0
288022,2355,-633,419,-269,-301,7629,11491,-2410,58,-190,-5360,35646,155,32,127,0,0,2677,-1181,0,5432,998,98,630,0,1,310,-3,288021,0
288032,2368,-802,371,-20,-911,9092,10457,-2191,58,112,-3872,35653,103,32,127,0,0,2619,-483,0,5432,998,98,640,0,1,310,-3,288021,0
288042,2064,-598,410,562,-1275,10393,9604,-1721,234,327,-2400,35680,95,32,127,0,0,2586,-318,0,5432,998,98,650,0,1,310,-3,288021,0
288052,1927,-330,344,893,-1538,10798,8991,-1190,814,318,-1416,35694,54,32,127,0,0,2537,-499,0,5432,998,98,660,0,1,310,-3,288131,0
288062,1627,-628,96,1521,-2134,11392,8573,-822,844,93,-1032,35697,35,32,127,0,0,2469,-626,0,5432,998,98,670,0,1,310,-3,288131,0
288072,1643,-984,96,1872,-2722,12014,8278,-589,615,-67,-760,35686,25,32,127,0,0,2440,-252,0,5432,998,98,680,0,1,310,-3,288131,0
288082,1842,-1288,441,2606,-2959,12627,8062,-429,382,-74,-216,35672,18,32,127,0,0,2443,43,0,5432,998,98,690,0,1,310,-3,288131,0
288092,1423,-1447,546,3047,-3072,12920,7960,-94,356,484,200,35661,21,32,127,0,0,2462,192,0,5432,998,98,700,0,1,310,-3,288131,0
288102,1433,-1504,323,3469,-3087,13471,8033,235,574,599,600,35662,16,32,127,0,0,2518,576,0,5432,998,98,710,0,1,310,-3,288162,0
288112,1640,-1548,18,3686,-2801,13766,8194,425,502,704,1200,35659,21,32,127,0,0,2612,889,0,5432,998,98,720,0,1,310,-3,288162,0
288122,1541,-1627,-425,4061,-1885,13916,8422,602,353,743,1632,35655,22,32,127,0,0,2700,889,0,5432,998,98,730,0,1,310,-3,288162,0
288133,1434,-1795,-676,4370,-656,13831,8780,766,317,586,1824,35653,47,32,127,0,0,2775,637,0,5432,998,98,741,0,1,310,-3,288162,0
288143,1244,-1791,-712,4474,264,13585,9140,797,188,373,1624,35656,53,32,127,0,0,2805,241,0,5432,998,98,751,0,1,310,-3,288162,0
288153,769,-1993,-584,4293,1178,13137,9476,703,-8,192,1096,35664,65,32,127,0,0,2810,10,0,5432,998,98,761,0,1,310,-3,288162,0
288163,748,-2238,-461,4039,1647,12688,9753,569,-179,122,648,35670,27,32,127,0,0,2810,21,0,5432,998,98,771,0,1,310,-3,288193,0
288173,804,-2830,-451,3565,2337,11694,9963,409,-245,143,360,35684,22,32,127,0,0,2810,21,0,5432,998,98,781,0,1,310,-3,288209,0
288183,941,-3161,-387,3282,2744,10802,10111,287,-247,101,152,35684,12,32,127,0,0,2810,0,0,5432,998,98,791,0,1,310,-3,288209,0
288193,1176,-3165,-259,2918,3189,9058,10203,143,-222,25,64,35686,23,32,127,0,0,2810,0,0,5432,998,98,801,0,1,310,-3,288224,0
288203,1212,-2735,-307,2596,3211,7599,10233,32,-231,224,104,35679,34,32,127,0,0,2816,87,0,5432,998,98,811,0,1,310,-3,288224,0
288213,1570,-1984,-594,1965,3188,4985,10258,88,-112,538,288,35673,32,32,127,0,0,2830,153,0,5432,998,98,821,0,1,310,-3,288224,0
288223,1867,-1624,-881,1416,3295,3163,10351,226,148,356,328,35657,38,32,127,0,0,2836,65,0,5432,998,98,831,0,1,310,-3,288240,0
288233,2232,-1378,-1029,529,3632,505,10467,253,154,204,208,35664,27,32,127,0,0,2834,-21,0,5432,998,98,841,0,1,310,-3,288240,0
288243,2551,-1288,-870,-101,3787,-1169,10565,197,-5,-24,56,35675,20,32,127,0,0,2830,-54,0,5432,998,98,851,0,1,310,-3,288240,0
288253,1742,-3509,-769,-754,3278,-3464,10591,5,-183,-161,-88,35685,13,32,127,0,0,2819,-120,0,5432,998,98,861,0,1,310,-3,288240,0
288263,4399,-8794,843,-2037,1828,-4083,10588,81,-182,903,880,35681,13,32,127,0,0,3102,3262,0,7801,1357,99,7,1,2,382,0,288240,0
288273,3415,-2472,212,1280,-1916,-6427,10768,440,356,521,1304,35678,-12,32,127,0,0,3302,1735,0,7801,1357,99,17,1,2,382,0,288349,0
288283,339,-1381,970,-111,-3109,-6619,11042,676,516,682,1472,35675,-3,32,127,0,0,3355,439,0,7801,1357,99,27,1,2,382,0,288381,0
288293,-846,-3360,583,-1034,-4582,-5571,11349,682,231,541,1752,35667,12,32,127,0,0,3438,834,0,7801,1357,99,37,1,2,382,0,288412,0
288303,-1373,-2248,235,-862,-6392,-6303,11687,763,100,460,1864,35659,43,32,127,0,0,3511,714,0,7801,1357,99,47,1,2,382,0,288427,0
288313,-1224,-2021,-476,-1184,-2977,-8212,12046,781,99,217,1336,35648,35,32,127,0,0,3502,-164,0,7801,1357,99,57,1,2,382,0,288443,0
288323,-1683,-2285,-416,-1210,-1253,-9351,12342,574,-108,-168,-24,35650,23,32,127,0,0,3403,-1010,0,7801,1357,99,67,1,2,382,0,288474,0
288333,2691,-4084,228,-758,1230,-12294,12336,-319,-773,-1516,-1480,35650,31,32,127,0,0,3192,-2241,0,7801,1357,99,77,1,2,382,0,288474,0
288343,-196,-423,-1269,-833,1553,-13396,11951,-1189,-1394,-2460,-4776,35639,69,32,127,0,0,2775,-4196,0,7801,1357,99,87,1,2,382,0,288474,0
288353,2020,403,637,-726,-207,-12108,11034,-2284,-1760,-1524,-6336,35612,166,32,127,0,0,2425,-3438,0,7801,1357,99,97,1,2,382,0,288474,0
288363,2407,237,-164,-892,-463,-10558,9828,-2765,-1517,-846,-6848,35590,228,32,127,0,0,2113,-3098,0,7801,1357,99,107,1,2,382,0,288474,0
288374,3655,-245,-101,-328,-364,-7902,8409,-2858,-557,-458,-6760,35582,228,32,127,0,0,1841,-2318,0,7801,1357,99,118,1,2,382,0,288490,0
288384,4485,-586,-97,-213,-406,-6635,7128,-2799,-77,-175,-6200,35610,173,32,127,0,0,1646,-1895,0,7801,1357,99,128,1,2,382,0,288490,0
288394,3753,-1730,417,-67,-532,-4593,5944,-2507,228,-190,-5568,35634,115,32,127,0,0,1493,-1543,0,7801,1357,99,138,1,2,382,0,288490,0
288404,2961,-2302,861,75,-703,-3324,4914,-2167,513,-202,-4952,35645,82,32,127,0,0,1394,-988,0,7801,1357,99,148,1,2,382,0,288490,0
288414,1525,-2923,929,-17,-756,-2538,4031,-1852,575,-142,-4128,35642,52,32,127,0,0,1308,-802,0,7801,1357,99,158,1,2,382,0,288490,0
288424,764,-2779,1007,-308,-715,-2759,3270,-1599,508,-143,-3408,35649,49,32,127,0,0,1234,-714,0,7801,1357,99,168,1,2,382,0,288568,0
288434,556,-2466,501,-670,-47,-3183,2618,-1379,440,-295,-3192,35663,52,32,127,0,0,1142,-950,0,7801,1357,99,178,1,2,382,0,288568,0
288444,1221,-2212,329,-665,113,-2911,2013,-1324,277,-551,-3136,35675,61,32,127,0,0,1049,-889,0,7801,1357,99,188,1,2,382,0,288568,0
288454,2128,-2274,468,-508,-118,-1943,1419,-1281,88,-408,-2808,35669,90,32,127,0,0,994,-554,0,7801,1357,99,198,1,2,382,0,288568,0
288464,2457,-2096,871,-404,-372,-1243,888,-1091,154,-128,-1872,35662,90,32,127,0,0,976,-159,0,7801,1357,99,208,1,2,382,0,288568,0
288474,2358,-1785,1395,-363,-431,-225,490,-788,400,-44,-1040,35667,91,32,127,0,0,988,93,0,7801,1357,99,218,1,2,382,0,288568,0
288484,2451,-2246,867,-704,-794,629,216,-522,496,-45,-216,35684,58,32,127,0,0,1032,560,0,7801,1357,99,228,1,2,382,0,288568,0
288494,2250,-2901,717,-979,-968,1624,164,193,691,1159,880,35705,43,32,127,0,0,1121,867,0,7801,1357,99,238,1,2,382,0,288568,0
288504,2250,-3245,476,-1161,-1298,2245,385,599,1017,1004,2008,35713,17,32,127,0,0,1255,1373,0,7801,1357,99,248,1,2,382,0,288568,0
288514,1352,-3487,568,-907,-1596,2641,803,1054,856,1104,3104,35709,47,32,127,0,0,1428,1746,0,7801,1357,99,258,1,2,382,0,288568,0
288524,524,-3452,420,-721,-1798,2763,1417,1466,760,979,3952,35698,82,32,127,0,0,1629,2065,0,7801,1357,99,268,1,2,382,0,288568,0
288534,-77,-3316,301,-477,-1882,2541,2191,1798,674,956,4696,35682,127,32,127,0,0,1852,2279,0,7801,1357,99,278,1,2,382,0,288568,0
288544,-422,-3133,216,-370,-1924,2405,3091,2046,533,806,5216,35674,150,32,127,0,0,2109,2570,0,7801,1357,99,288,1,2,382,0,288615,0
288554,-822,-2727,27,-366,-2069,2091,4062,2184,361,802,5712,35647,178,32,127,0,0,2380,2708,0,7801,1357,99,298,1,2,382,0,288615,0
288564,-931,-2287,23,-427,-2085,1863,5105,2354,270,750,6192,35631,172,32,127,0,0,2660,2861,0,7801,1357,99,308,1,2,382,0,288615,0
288574,-807,-1942,-50,-905,-1739,959,6273,2656,387,650,6456,35605,170,32,127,0,0,2928,2598,0,7801,1357,99,318,1,2,382,0,288615,0
288584,-1122,-2122,188,-1098,-2021,457,7516,2734,378,426,6568,35619,149,32,127,0,0,3203,2823,0,7801,1357,99,328,1,2,382,0,288615,0
288594,-1196,-2195,538,-1124,-1909,-805,8753,2727,100,688,6768,35626,146,32,127,0,0,3446,2438,0,7801,1357,99,338,1,2,382,0,288615,0
288604,-1466,-2267,341,-1144,-1551,-1604,10014,2774,37,375,6528,35649,137,32,127,0,0,3660,2109,0,7801,1357,99,348,1,2,382,0,288615,0
288614,-1181,-2154,259,-1490,-1201,-2931,11240,2650,-27,288,6176,35638,109,32,127,0,0,3855,1878,0,7801,1357,99,358,1,2,382,0,288630,0
288624,-838,-2060,432,-1652,-1206,-3854,12376,2431,-263,212,5664,35640,103,32,127,0,0,4012,1521,0,7801,1357,99,368,1,2,382,0,288630,0
288634,-736,-2509,481,-1679,-1172,-4964,13429,2272,-335,100,4888,35630,71,32,127,0,0,4134,1159,0,7801,1357,99,378,1,2,382,0,288630,0
288645,-1013,-2554,412,-1791,-1126,-5632,14486,2040,-321,38,4008,35636,69,32,127,0,0,4251,1043,0,7801,1357,99,389,1,2,382,0,288630,0
288655,-1090,-2346,311,-1941,-880,-6137,15322,1747,-409,28,3288,35647,40,32,127,0,0,4346,922,0,7801,1357,99,399,1,2,382,0,288646,0
288665,-1066,-2002,175,-2166,-600,-6812,16015,1426,-513,86,2856,35665,16,32,127,0,0,4438,944,0,7801,1357,99,409,1,2,382,0,288662,0
288675,-981,-1956,81,-2307,-472,-7165,16590,1212,-497,257,2632,35670,10,32,127,0,0,4521,812,0,7801,1357,99,419,1,2,382,0,288662,0
288685,-1071,-1954,156,-2434,-401,-7410,17096,1089,-342,389,2464,35666,41,32,127,0,0,4605,823,0,7801,1357,99,429,1,2,382,0,288677,0
288695,-1168,-1877,407,-2374,-763,-7447,17572,1029,-176,450,2352,35655,56,32,127,0,0,4680,703,0,7801,1357,99,439,1,2,382,0,288693,0
288705,-2452,-2237,693,-2440,-444,-6831,18024,977,-93,500,2424,35652,72,32,127,0,0,4792,1208,0,7801,1357,99,449,1,2,382,0,288693,0
288715,-1282,-2161,1450,-2606,-269,-6843,18510,1142,32,986,3088,35650,64,32,127,0,0,4959,1691,0,7801,1357,99,459,1,2,382,0,288724,0
288725,710,-3454,1107,-3023,991,-7691,19123,1423,348,805,3352,35640,73,32,127,0,0,5047,736,0,7801,1357,99,469,1,2,382,0,288724,0
288735,589,-4038,1189,-3103,2273,-7673,19723,1233,193,74,1872,35637,79,32,127,0,0,4985,-747,0,7801,1357,99,479,1,2,382,0,288724,0
288745,185,-3741,1088,-2623,3636,-6707,20136,735,-457,-846,-328,35641,65,32,127,0,0,4842,-1516,0,7801,1357,99,489,0,2,382,0,288724,0
288755,186,-3273,1050,-2354,3777,-5952,20019,-557,-1447,-1249,-1840,35649,56,32,127,0,0,4677,-1658,0,7801,1357,99,499,0,2,382,0,288755,0
288765,-465,-2311,1118,-1886,3081,-5185,19612,-1039,-1558,-1035,-3024,35661,56,32,127,0,0,4508,-1691,0,7801,1357,99,509,0,2,382,0,288755,0
288775,-122,-2054,1068,-1817,2518,-4696,19017,-1402,-825,-775,-3696,35655,74,32,127,0,0,4337,-1713,0,7801,1357,99,519,0,2,382,0,288755,0
288785,544,-2164,897,-1636,1809,-3492,18300,-1641,-572,-576,-3864,35643,83,32,127,0,0,4181,-1505,0,7801,1357,99,529,0,2,382,0,288787,0
288795,1064,-2259,754,-1393,1720,-2605,17546,-1659,-287,-361,-3832,35644,80,32,127,0,0,4038,-1439,0,7801,1357,99,539,0,2,382,0,288787,0
288805,1381,-1975,686,-887,1758,-1304,16798,-1636,-33,-355,-3896,35644,68,32,127,0,0,3878,-1647,0,7801,1357,99,549,0,2,382,0,288787,0
288815,1552,-1666,595,-604,1648,-440,16030,-1732,-29,-572,-4296,35644,65,32,127,0,0,3691,-1878,0,7801,1357,99,559,0,2,382,0,288802,0
288825,1683,-1180,654,-305,1187,931,15173,-1959,-234,-682,-4784,35643,83,32,127,0,0,3484,-2043,0,7801,1357,99,569,0,2,382,0,288818,0
288835,1848,-951,691,-224,774,2026,14233,-2095,-339,-546,-5040,35651,95,32,127,0,0,3289,-1999,0,7801,1357,99,579,0,2,382,0,288834,0
288845,2359,-576,696,-218,261,3777,13277,-2102,-171,-453,-5064,35659,96,32,127,0,0,3095,-1878,0,7801,1357,99,589,0,2,382,0,288834,0
288855,2519,-333,692,-115,27,4924,12342,-2041,21,-393,-5040,35658,98,32,127,0,0,2906,-1845,0,7801,1357,99,599,0,2,382,0,288849,0
288866,2371,-105,408,143,-534,6868,11327,-2025,63,-364,-4856,35652,85,32,127,0,0,2719,-1702,0,7801,1357,99,610,0,2,382,0,288849,0
288876,2172,-232,210,314,-1078,8364,10414,-1983,33,-207,-4336,35655,83,32,127,0,0,2604,-1120,0,7801,1357,99,620,0,2,382,0,288978,0
288886,1916,-578,208,973,-1635,10280,9580,-1756,185,-14,-3280,35665,75,32,127,0,0,2543,-582,0,7801,1357,99,630,0,2,382,0,288978,0
288896,1659,-493,221,1400,-1795,11071,8890,-1415,452,103,-2168,35666,53,32,127,0,0,2523,-208,0,7801,1357,99,640,0,2,382,0,288978,0
288906,1249,-383,216,2052,-2087,11665,8362,-1049,599,154,-1248,35667,16,32,127,0,0,2509,-93,0,7801,1357,99,650,0,2,382,0,288978,0
288916,1101,-503,58,2456,-2278,11932,7986,-738,605,121,-592,35658,-14,32,127,0,0,2496,-98,0,7801,1357,99,660,0,2,382,0,288978,0
288926,1381,-975,180,3105,-2153,12400,7738,-451,527,195,-72,35663,-13,32,127,0,0,2499,82,0,7801,1357,99,670,0,2,382,0,288994,0
288936,1292,-1397,230,3564,-2049,12897,7681,38,625,526,216,35663,-14,32,127,0,0,2525,302,0,7801,1357,99,680,0,2,382,0,288994,0
288946,1701,-1474,240,4013,-1662,13710,7772,265,662,576,624,35657,-12,32,127,0,0,2593,703,0,7801,1357,99,690,0,2,382,0,288994,0
288956,1787,-1360,89,4220,-1345,14053,7941,404,399,614,1056,35652,1,32,127,0,0,2671,758,0,7801,1357,99,700,0,2,382,0,288994,0
288966,1575,-1502,-6,4376,-1087,14326,8164,530,244,623,1312,35652,21,32,127,0,0,2746,692,0,7801,1357,99,710,0,2,382,0,288994,0
288976,1528,-1820,17,4478,-919,14493,8431,596,181,561,1448,35654,19,32,127,0,0,2816,697,0,7801,1357,99,720,0,2,382,0,288994,0
288986,1437,-2239,19,4653,-400,14536,8721,652,115,518,1480,35653,32,32,127,0,0,2880,571,0,7801,1357,99,730,0,2,382,0,288994,0
288996,1152,-2331,-61,4656,-66,14342,9027,673,71,386,1424,35655,29,32,127,0,0,2924,433,0,7801,1357,99,740,0,2,382,0,288994,0
289006,838,-2382,-214,4535,353,13534,9322,627,5,277,1144,35658,39,32,127,0,0,2954,208,0,7801,1357,99,750,0,2,382,0,288994,0
289016,661,-2555,-386,4436,683,12739,9582,540,-147,161,680,35671,26,32,127,0,0,2954,0,0,7801,1357,99,760,0,2,382,0,288994,0
289026,710,-2918,-536,4209,1290,11326,9791,425,-185,76,248,35692,28,32,127,0,0,2954,-16,0,7801,1357,99,770,0,2,382,0,289025,0
289036,794,-3010,-472,4013,1794,10108,9910,183,-198,-114,8,35699,16,32,127,0,0,2956,-27,0,7801,1357,99,780,0,2,382,0,289025,0
289046,923,-2666,-402,3458,2536,7698,9914,-31,-404,-47,8,35687,20,32,127,0,0,2965,60,0,7801,1357,99,790,0,2,382,0,289025,0
289056,1122,-2308,-558,2794,3058,5783,9920,33,-223,216,88,35671,7,32,127,0,0,2973,93,0,7801,1357,99,800,0,2,382,0,289057,0
289066,1749,-1886,-1010,1651,4032,2772,9961,123,84,205,96,35669,7,32,127,0,0,2986,126,0,7801,1357,99,810,0,2,382,0,289057,0
289076,2131,-1664,-1193,954,4804,780,10000,72,71,184,72,35673,23,32,127,0,0,2982,5,0,7801,1357,99,820,0,2,382,0,289072,0
289086,2543,-1694,-1253,75,5545,-2019,10016,19,-54,116,40,35676,27,32,127,0,0,2989,21,0,7801,1357,99,830,0,2,382,0,289072,0
289096,2965,-10339,-1585,-1670,4306,-2907,10052,188,-27,1133,1768,35673,27,32,127,0,0,3290,3581,0,1208,461,100,0,1,2,396,-1,289088,0
289106,3335,-1544,3502,1805,3784,-8022,10564,1556,926,2316,4544,35663,55,32,127,0,0,3573,2416,0,1208,461,100,10,1,2,396,-1,289103,0
289116,4110,-1356,1640,1135,469,-9805,11323,1857,1645,298,3752,35640,101,32,127,0,0,3596,-21,0,1208,461,100,20,1,2,396,-1,289103,0
289127,530,-2809,-51,-734,-3095,-8399,12117,1433,185,-235,1728,35632,100,32,127,0,0,3568,-230,0,1208,461,100,31,1,2,396,-1,289103,0
289137,-747,-2683,-1208,-936,-5932,-7404,12603,928,-731,-259,896,35645,78,32,127,0,0,3601,417,0,1208,461,100,41,1,2,396,-1,289135,0
289147,172,-2385,-1668,-622,-5049,-8437,12925,631,-738,-3,656,35677,18,32,127,0,0,3612,21,0,1208,461,100,51,1,2,396,-1,289135,0
289157,1041,-3202,-1130,-1229,-2488,-10324,13128,349,-519,-640,-384,35680,10,32,127,0,0,3517,-1010,0,1208,461,100,61,1,2,396,-1,289135,0
289167,-1696,-762,271,-218,-354,-13536,13010,-492,-877,-1679,-2816,35670,17,32,127,0,0,3170,-3757,0,1208,461,100,71,1,2,396,-1,289150,0
289177,872,-1806,927,-1123,2207,-13958,12398,-1727,-1630,-2354,-5760,35653,45,32,127,0,0,2746,-4163,0,1208,461,100,81,1,2,396,-1,289166,0
289187,2497,550,931,-707,-37,-13575,11302,-2684,-1902,-1618,-7440,35625,148,32,127,0,0,2353,-3834,0,1208,461,100,91,1,2,396,-1,289181,0
289197,5340,-59,1165,-789,-504,-10477,9878,-3281,-1501,-415,-7672,35599,231,32,127,0,0,2034,-3065,0,1208,461,100,101,1,2,396,-1,289181,0
289207,4602,-367,39,-724,-724,-8811,8409,-3187,-635,-230,-7456,35590,240,32,127,0,0,1760,-2669,0,1208,461,100,111,1,2,396,-1,289213,0
289217,4887,-528,-12,-420,-811,-6046,6980,-3126,59,-130,-6704,35621,177,32,127,0,0,1575,-1746,0,1208,461,100,121,1,2,396,-1,289213,0
