state_time,accelx,accely,accelz,gyrox,gyroy,gyroz,mot_ang,mot_vel,mot_acc,mot_cur,mot_volt,batt_volt,batt_curr,temperature,status_mn,status_ex,status_re,ank_ang,ank_vel,ank_torque,peak_ank_torque,step_energy,step_count,step_time,gait_state,movement,speed,incline,sys_time,eventFlags
147701,71,-2024,323,-38,-9,-74,14225,-63,-21,-189,-72,35998,-48,30,127,0,0,3799,21,0,7915,-493,41,9349,-4,0,-22,0,162231,0
147711,31,-2026,332,-37,-1,-73,14226,24,8,-50,-32,36003,-54,30,127,0,0,3799,-21,0,7915,-493,41,9359,-4,0,-22,0,147701,0
147721,65,-2024,340,-39,-13,-71,14221,-11,39,-169,-80,35996,-58,30,127,0,0,3796,-10,0,7915,-493,41,9369,-4,0,-22,0,147732,0
147731,45,-2031,345,-37,-4,-76,14220,12,-4,-210,-56,35987,-54,30,127,0,0,3794,-10,0,7915,-493,41,9379,-4,0,-22,0,147732,0
147741,60,-2029,347,-36,-4,-71,14218,-1,17,-190,-104,35989,-53,30,127,0,0,3792,-54,0,7915,-493,41,9389,-4,0,-22,0,147732,0
147751,62,-2027,343,-37,-10,-68,14213,-18,-7,-302,-40,35984,-35,30,127,0,0,3792,10,0,7915,-493,41,9399,-4,0,-22,0,147732,0
147761,83,-2035,342,-37,-9,-69,14214,-10,1,-354,-96,35981,-51,30,127,0,0,3792,32,0,7915,-493,41,9409,-4,0,-22,0,147763,0
147771,53,-2021,336,-36,-2,-73,14213,14,5,-273,-72,35982,-36,30,127,0,0,3792,-21,0,7915,-493,41,9419,-4,0,-22,0,147779,0
147781,69,-2031,341,-42,-13,-67,14212,-2,2,-282,-64,35984,-37,30,127,0,0,3790,-21,0,7915,-493,41,9429,-4,0,-22,0,147779,0
147791,90,-2027,337,-37,-2,-69,14211,0,-6,-343,-88,35983,-35,30,127,0,0,3790,0,0,7915,-493,41,9439,-4,0,-22,0,147779,0
147801,83,-2030,336,-30,-3,-58,14211,0,1,-354,-88,35986,-31,30,127,0,0,3790,0,0,7915,-493,41,9449,-4,0,-22,0,147826,0
147811,77,-2031,339,-35,-11,-50,14208,-12,3,-366,-88,35994,-23,30,127,0,0,3790,21,0,7915,-493,41,9459,-4,0,-22,0,147826,0
147821,82,-2024,340,-33,-12,-47,14210,2,4,-357,-88,35997,-30,30,127,0,0,3792,21,0,7915,-493,41,9469,-4,0,-22,0,147826,0
147831,64,-2018,339,-36,-9,-43,14211,0,5,-317,-136,35993,-42,30,127,0,0,3790,-10,0,7915,-493,41,9479,-4,0,-22,0,147841,0
147841,77,-2024,339,-27,-10,-35,14207,-10,-5,-383,-104,35981,-63,30,127,0,0,3790,21,0,7915,-493,41,9489,-4,0,-22,0,147841,0
147851,65,-2021,335,-30,-6,-41,14209,10,3,-360,-88,35973,-57,30,127,0,0,3788,-32,0,7915,-493,41,9499,-4,0,-22,0,147841,0
147861,52,-2026,344,-29,-8,-39,14206,3,7,-382,-120,35978,-50,30,127,0,0,3788,-10,0,7915,-493,41,9509,-4,0,-22,0,147857,0
147871,57,-2023,340,-29,-9,-39,14206,-3,-4,-381,-80,35989,-45,30,127,0,0,3790,10,0,7915,-493,41,9519,-4,0,-22,0,147857,0
147881,54,-2026,340,-29,-15,-42,14207,-1,3,-359,-80,35994,-49,30,127,0,0,3790,10,0,7915,-493,41,9529,-4,0,-22,0,147872,0
147891,80,-2024,346,-27,-9,-38,14208,-6,2,-364,-72,35991,-55,30,127,0,0,3785,-32,0,7915,-493,41,9539,-4,0,-22,0,147872,0
147901,42,-2031,338,-32,-10,-44,14207,4,-1,-380,-80,35989,-48,30,127,0,0,3790,0,0,7915,-493,41,9549,-4,0,-22,0,147904,0
147911,43,-2028,343,-33,-16,-38,14205,-8,-2,-352,-80,35995,-37,30,127,0,0,3790,10,0,7915,-493,41,9559,-4,0,-22,0,147904,0
147921,78,-2026,342,-35,-10,-50,14205,-5,-3,-314,-88,36001,-42,30,127,0,0,3790,-10,0,7915,-493,41,9569,-4,0,-22,0,147904,0
147931,49,-2033,338,-30,-13,-48,14206,-7,-1,-347,-80,35998,-45,30,127,0,0,3790,-21,0,7915,-493,41,9579,-4,0,-22,0,147935,0
147941,61,-2024,336,-28,-9,-42,14206,5,-3,-361,-80,35999,-44,30,127,0,0,3788,-21,0,7915,-493,41,9589,-4,0,-22,0,147935,0
147951,81,-2020,334,-26,-7,-44,14204,-11,-1,-379,-112,35999,-42,30,127,0,0,3788,0,0,7915,-493,41,9599,-4,0,-22,0,147951,0
147961,63,-2023,342,-28,-11,-44,14206,0,1,-362,-80,36001,-46,30,127,0,0,3788,-21,0,7915,-493,41,9609,-4,0,-22,0,147951,0
147971,82,-2023,335,-25,-11,-44,14205,2,4,-366,-80,35990,-50,30,127,0,0,3790,0,0,7915,-493,41,9619,-4,0,-22,0,147966,0
147981,89,-2031,331,-22,-4,-40,14206,-9,-1,-367,-120,35992,-56,30,127,0,0,3790,21,0,7915,-493,41,9629,-4,0,-22,0,147982,0
147991,77,-2025,339,-11,-2,-32,14205,4,0,-357,-80,35988,-54,30,127,0,0,3790,10,0,7915,-493,41,9639,-4,0,-22,0,147982,0
148001,66,-2029,340,-24,-8,-28,14205,3,0,-357,-112,35988,-62,30,127,0,0,3788,-21,0,7915,-493,41,9649,-4,0,-22,0,148013,0
148011,74,-2021,341,-15,-7,-21,14205,-1,-3,-376,-32,35998,-56,30,127,0,0,3788,10,0,7915,-493,41,9659,-4,0,-22,0,148013,0
148021,41,-2025,343,-16,-4,-26,14206,-1,-3,-364,-48,35994,-57,30,127,0,0,3792,10,0,7915,-493,41,9669,-4,0,-22,0,148013,0
148031,46,-2019,343,-11,-4,-22,14207,8,1,-335,-80,35993,-52,30,127,0,0,3790,0,0,7915,-493,41,9679,-4,0,-22,0,148029,0
148041,75,-2028,344,-20,0,-26,14205,1,-3,-355,-80,35980,-56,30,127,0,0,3792,21,0,7915,-493,41,9689,-4,0,-22,0,148029,0
148051,55,-2028,341,-18,1,-18,14206,-2,0,-326,-80,35990,-56,30,127,0,0,3790,0,0,7915,-493,41,9699,-4,0,-22,0,148044,0
148061,68,-2038,343,-16,-3,-22,14206,3,-1,-350,-80,35993,-61,30,127,0,0,3792,32,0,7915,-493,41,9709,-4,0,-22,0,148044,0
148071,62,-2031,341,-15,-1,-18,14209,8,10,-290,-88,35992,-62,30,127,0,0,3792,10,0,7915,-493,41,9719,-4,0,-22,0,148075,0
148081,83,-2030,350,-13,2,-24,14207,-1,-4,-273,-56,35993,-55,30,127,0,0,3790,-10,0,7915,-493,41,9729,-4,0,-22,0,148075,0
148091,80,-2027,351,-14,-2,-24,14205,-11,-11,-306,-56,35984,-49,30,127,0,0,3790,-10,0,7915,-493,41,9739,-4,0,-22,0,148075,0
148101,64,-2026,354,-18,-6,-25,14207,-5,0,-320,-56,35993,-46,30,127,0,0,3792,21,0,7915,-493,41,9749,-4,0,-22,0,148107,0
148111,71,-2026,350,-21,-8,-19,14209,-5,1,-274,-64,35987,-32,30,127,0,0,3792,0,0,7915,-493,41,9759,-4,0,-22,0,148107,0
148121,59,-2023,347,-24,-8,-14,14208,10,-4,-250,-64,35987,-28,30,127,0,0,3790,-21,0,7915,-493,41,9769,-4,0,-22,0,148107,0
148131,72,-2021,346,-26,-7,-22,14205,-15,-5,-267,-64,35982,-27,30,127,0,0,3794,43,0,7915,-493,41,9779,-4,0,-22,0,148122,0
148141,72,-2023,347,-23,-9,-21,14211,4,8,-234,-64,35976,-44,30,127,0,0,3792,0,0,7915,-493,41,9789,-4,0,-22,0,148154,0
148151,57,-2019,338,-22,-10,-25,14210,5,3,-229,-64,35988,-47,30,127,0,0,3794,21,0,7915,-493,41,9799,-4,0,-22,0,148154,0
148161,65,-2024,351,-28,-7,-33,14213,7,2,-152,-56,35987,-46,30,127,0,0,3794,-10,0,7915,-493,41,9809,-4,0,-22,0,148154,0
148171,48,-2024,351,-28,-2,-46,14209,-6,-7,-188,-8,35984,-51,30,127,0,0,3794,10,0,7915,-493,41,9819,-4,0,-22,0,148169,0
148181,63,-2023,353,-28,-11,-47,14211,-9,-3,-170,-88,35971,-59,30,127,0,0,3792,-43,0,7915,-493,41,9829,-4,0,-22,0,148169,0
148191,30,-2030,344,-24,-5,-50,14211,10,1,-156,-56,35982,-49,30,127,0,0,3794,-21,0,7915,-493,41,9839,-4,0,-22,0,148200,0
148201,41,-2032,360,-31,-8,-53,14213,-8,3,-124,-24,35991,-26,30,127,0,0,3796,0,0,7915,-493,41,9849,-4,0,-22,0,148200,0
148211,35,-2032,350,-34,-10,-63,14214,0,-2,-119,-96,35992,-31,30,127,0,0,3796,-10,0,7915,-493,41,9859,-4,0,-22,0,148200,0
148221,55,-2027,346,-35,-13,-68,14213,14,0,-111,-24,35980,-40,30,127,0,0,3796,-10,0,7915,-493,41,9869,-4,0,-22,0,148200,0
148231,22,-2028,347,-36,-15,-83,14210,-20,0,-147,16,35983,-64,30,127,0,0,3796,54,0,7915,-493,41,9879,-4,0,-22,0,148232,0
148241,47,-2027,354,-29,-18,-93,14217,2,12,-132,0,35990,-51,30,127,0,0,3796,0,0,7915,-493,41,9889,-4,0,-22,0,148232,0
148251,69,-2021,349,-32,-17,-92,14214,4,1,-126,-64,35994,-41,30,127,0,0,3796,-10,0,7915,-493,41,9899,-4,0,-22,0,148232,0
148261,46,-2026,358,-37,-10,-82,14213,1,-17,-156,-48,35989,-46,30,127,0,0,3794,-32,0,7915,-493,41,9909,-4,0,-22,0,148263,0
148271,61,-2017,356,-36,-16,-90,14211,4,-6,-209,-48,35986,-61,30,127,0,0,3794,-10,0,7915,-493,41,9919,-4,0,-22,0,148263,0
148281,63,-2027,361,-46,-19,-83,14212,5,4,-235,-80,35986,-52,30,127,0,0,3792,-32,0,7915,-493,41,9929,-4,0,-22,0,148279,0
148291,72,-2026,353,-49,-7,-83,14210,1,-1,-261,-80,35985,-40,30,127,0,0,3792,0,0,7915,-493,41,9939,-4,0,-22,0,148279,0
148301,55,-2024,337,-48,-8,-77,14211,-3,7,-233,-64,35987,-41,30,127,0,0,3792,-43,0,7915,-493,41,9949,-4,0,-22,0,148325,0
148311,67,-2023,342,-42,-2,-83,14208,-3,-3,-282,-64,35990,-38,30,127,0,0,3792,0,0,7915,-493,41,9959,-4,0,-22,0,148325,0
148321,83,-2028,341,-48,-8,-76,14209,-10,-3,-329,-88,35989,-45,30,127,0,0,3790,10,0,7915,-493,41,9969,-4,0,-22,0,148325,0
148331,74,-2022,345,-42,-8,-66,14207,-2,4,-339,-48,35977,-53,30,127,0,0,3790,0,0,7915,-493,41,9979,-4,0,-22,0,148341,0
148341,52,-2027,341,-38,-8,-72,14208,-7,3,-350,-48,35970,-56,30,127,0,0,3790,0,0,7915,-493,41,9989,-4,0,-22,0,148341,0
148351,75,-2030,346,-38,-5,-74,14207,-6,-2,-330,-96,35975,-56,30,127,0,0,3792,10,0,7915,-493,41,9999,-4,0,-22,0,148341,0
148361,78,-2026,350,-36,-3,-76,14207,4,2,-323,-80,35981,-54,30,127,0,0,3788,-21,0,7915,-493,41,10009,-4,0,-22,0,148404,0
148371,86,-2024,353,-34,-2,-80,14207,-3,-3,-383,-104,35986,-35,30,127,0,0,3788,-21,0,7915,-493,41,10019,-4,0,-22,0,148404,0
148381,92,-2022,354,-47,-2,-68,14203,-7,-3,-416,-96,35986,-45,30,127,0,0,3790,32,0,7915,-493,41,10029,-4,0,-22,0,148419,0
148391,77,-2028,353,-37,-3,-60,14205,5,5,-396,-104,35980,-31,30,127,0,0,3785,-32,0,7915,-493,41,10039,-4,0,-22,0,148419,0
148401,75,-2025,345,-40,-2,-57,14201,-11,-2,-450,-120,35970,-49,30,127,0,0,3788,21,0,7915,-493,41,10049,-4,0,-22,0,148419,0
148411,74,-2024,355,-43,-7,-49,14200,5,-1,-418,-112,35963,-46,30,127,0,0,3783,-10,0,7915,-493,41,10059,-4,0,-22,0,148419,0
148421,86,-2027,343,-36,-2,-58,14195,-25,1,-477,-176,35962,-43,30,127,0,0,3781,10,0,7915,-493,41,10069,-4,0,-22,0,148419,0
148431,88,-2019,330,-38,-3,-51,14191,-11,-8,-441,-72,35967,-39,30,127,0,0,3785,32,0,7915,-493,41,10079,-4,0,-22,0,148419,0
148441,69,-2024,352,-35,3,-52,14191,9,13,-326,-112,35978,-30,30,127,0,0,3785,-21,0,7915,-493,41,10089,-4,0,-22,0,148435,0
148451,61,-2023,338,-34,-10,-51,14189,-5,6,-381,-96,35986,-31,30,127,0,0,3785,0,0,7915,-493,41,10099,-4,0,-22,0,148450,0
148461,66,-2025,345,-36,-10,-56,14185,-13,-4,-417,-64,35993,-44,30,127,0,0,3781,0,0,7915,-493,41,10109,-4,0,-22,0,148450,0
148471,77,-2026,347,-30,-8,-63,14175,-29,-16,-392,-40,35983,-53,30,127,0,0,3785,65,0,7915,-493,41,10119,-4,0,-22,0,148450,0
148481,63,-2027,356,-36,-1,-75,14170,5,-5,-234,-56,35976,-53,30,127,0,0,3785,-21,0,7915,-493,41,10129,-4,0,-22,0,148482,0
148491,68,-2025,352,-36,-7,-81,14167,-12,17,-335,-96,35975,-53,30,127,0,0,3781,0,0,7915,-493,41,10139,-4,0,-22,0,148482,0
148501,48,-2029,361,-44,-7,-86,14158,-8,-12,-308,-80,35978,-48,30,127,0,0,3779,-21,0,7915,-493,41,10149,-4,0,-22,0,148497,0
148511,62,-2023,362,-39,-4,-88,14157,-5,8,-381,-64,35980,-49,30,127,0,0,3781,32,0,7915,-493,41,10159,-4,0,-22,0,148497,0
148521,71,-2029,354,-53,-5,-98,14157,-5,15,-356,-104,35978,-56,30,127,0,0,3779,0,0,7915,-493,41,10169,-4,0,-22,0,148528,0
148531,58,-2025,362,-53,-3,-111,14154,-3,-1,-399,-120,35982,-54,30,127,0,0,3779,0,0,7915,-493,41,10179,-4,0,-22,0,148528,0
148541,58,-2026,351,-56,-8,-106,14153,10,-2,-377,-152,35984,-51,30,127,0,0,3777,0,0,7915,-493,41,10189,-4,0,-22,0,148528,0
148551,66,-2021,350,-52,-10,-118,14149,-2,4,-414,-168,35977,-48,30,127,0,0,3772,-54,0,7915,-493,41,10199,-4,0,-22,0,148544,0
148561,73,-2026,344,-55,-2,-124,14142,-21,-14,-480,-176,35978,-58,30,127,0,0,3770,-10,0,7915,-493,41,10209,-4,0,-22,0,148560,0
148571,78,-2031,347,-49,0,-121,14132,-23,-23,-480,-144,35988,-62,30,127,0,0,3768,-32,0,7915,-493,41,10219,-4,0,-22,0,148560,0
148581,90,-2026,356,-53,-11,-117,14105,-72,-30,-417,-136,35985,-64,30,127,0,0,3766,-21,0,7915,-493,41,10229,-4,0,-22,0,148560,0
148591,61,-2028,350,-50,-2,-130,14070,-57,-49,-234,-64,35991,-62,30,127,0,0,3763,-32,0,7915,-493,41,10239,-4,0,-22,0,148591,0
148601,92,-2025,354,-56,-7,-124,14069,0,46,-346,-88,35988,-78,30,127,0,0,3763,0,0,7915,-493,41,10249,-4,0,-22,0,148591,0
148611,85,-2025,363,-57,-11,-115,14067,-21,56,-414,-144,35986,-85,30,127,0,0,3759,-10,0,7915,-493,41,10259,-4,0,-22,0,148622,0
148621,90,-2024,345,-64,-9,-113,14049,-52,-29,-376,-136,35989,-94,30,127,0,0,3757,-10,0,7915,-493,41,10269,-4,0,-22,0,148622,0
148631,78,-2021,341,-60,-4,-131,14020,-40,-53,-268,-88,35978,-105,30,127,0,0,3755,-21,0,7915,-493,41,10279,-4,0,-22,0,148638,0
148641,103,-2019,342,-58,-4,-112,14024,16,49,-361,-88,35980,-116,30,127,0,0,3755,0,0,7915,-493,41,10289,-4,0,-22,0,148638,0
148651,101,-2028,347,-58,-20,-118,14020,-11,51,-352,-80,35969,-123,30,127,0,0,3752,-21,0,7915,-493,41,10299,-4,0,-22,0,148638,0
148661,84,-2022,347,-57,-12,-101,14019,-8,-10,-470,-192,35978,-123,30,127,0,0,3748,-10,0,7915,-493,41,10309,-4,0,-22,0,148716,0
148671,74,-2022,334,-56,-8,-104,14012,-14,-6,-480,-144,35983,-114,30,127,0,0,3746,-21,0,7915,-493,41,10319,-4,0,-22,0,148732,0
148681,108,-2023,346,-53,-11,-104,14009,-14,3,-553,-160,35986,-111,30,127,0,0,3746,0,0,7915,-493,41,10329,-4,0,-22,0,148732,0
148691,105,-2023,348,-56,-8,-101,14002,-10,-1,-538,-168,35977,-107,30,127,0,0,3744,-21,0,7915,-493,41,10339,-4,0,-22,0,148732,0
148701,96,-2028,346,-54,-17,-97,13981,-61,-32,-470,-168,35974,-119,30,127,0,0,3741,-43,0,7915,-493,41,10349,-4,0,-22,0,148732,0
148711,85,-2020,344,-58,-15,-96,13947,-68,-63,-346,-104,35975,-110,30,127,0,0,3741,32,0,7915,-493,41,10359,-4,0,-22,0,148732,0
148721,94,-2029,338,-58,-10,-94,13943,12,31,-323,-56,35976,-105,30,127,0,0,3741,21,0,7915,-493,41,10369,-4,0,-22,0,148732,0
148731,109,-2027,339,-56,-12,-96,13942,-14,71,-379,-128,35973,-89,30,127,0,0,3737,-32,0,7915,-493,41,10379,-4,0,-22,0,148732,0
148741,81,-2031,337,-52,-11,-87,13936,-10,-12,-408,-96,35971,-89,30,127,0,0,3737,10,0,7915,-493,41,10389,-4,0,-22,0,148732,0
148751,92,-2028,344,-54,-14,-88,13925,-37,-19,-383,-88,35977,-81,30,127,0,0,3735,10,0,7915,-493,41,10399,-4,0,-22,0,148747,0
148761,94,-2032,342,-56,-10,-95,13904,-49,-34,-238,-112,35987,-74,30,127,0,0,3733,-32,0,7915,-493,41,10409,-4,0,-22,0,148763,0
148771,97,-2019,348,-57,-8,-89,13894,-5,-3,-239,-72,36001,-76,30,127,0,0,3730,-32,0,7915,-493,41,10419,-4,0,-22,0,148763,0
148781,113,-2026,347,-48,-13,-77,13893,-14,44,-342,-88,35994,-57,30,127,0,0,3730,10,0,7915,-493,41,10429,-4,0,-22,0,148763,0
148791,97,-2024,340,-50,-18,-73,13894,0,14,-311,-128,35993,-57,30,127,0,0,3730,-10,0,7915,-493,41,10439,-4,0,-22,0,148794,0
148801,92,-2024,340,-46,-8,-72,13889,-8,-3,-326,-80,35988,-47,30,127,0,0,3728,-10,0,7915,-493,41,10449,-4,0,-22,0,148794,0
148811,102,-2019,345,-43,-10,-68,13887,-5,-4,-367,-104,35988,-65,30,127,0,0,3728,10,0,7915,-493,41,10459,-4,0,-22,0,148794,0
148821,113,-2029,340,-50,-15,-64,13885,-13,3,-375,-120,35983,-70,30,127,0,0,3726,10,0,7915,-493,41,10469,-4,0,-22,0,148810,0
148831,112,-2029,335,-47,-6,-56,13881,2,-3,-358,-112,35988,-69,30,127,0,0,3726,-21,0,7915,-493,41,10479,-4,0,-22,0,148841,0
148841,105,-2018,343,-40,-9,-52,13877,-12,-3,-357,-104,35997,-40,30,127,0,0,3726,10,0,7915,-493,41,10489,-4,0,-22,0,148841,0
148851,112,-2024,341,-35,-15,-45,13873,-9,3,-341,-96,35994,-39,30,127,0,0,3726,0,0,7915,-493,41,10499,-4,0,-22,0,148841,0
148861,97,-2026,337,-46,-15,-38,13860,-29,-16,-290,-112,35989,-35,30,127,0,0,3726,0,0,7915,-493,41,10509,-4,0,-22,0,148857,0
148871,82,-2024,337,-37,-10,-33,13842,-30,-24,-161,-32,35991,-47,30,127,0,0,3726,10,0,7915,-493,41,10519,-4,0,-22,0,148857,0
148881,95,-2027,339,-34,-6,-39,13843,13,25,-173,-24,35988,-49,30,127,0,0,3726,10,0,7915,-493,41,10529,-4,0,-22,0,148872,0
148891,101,-2027,340,-30,-12,-43,13840,-7,31,-171,-56,35992,-51,30,127,0,0,3726,0,0,7915,-493,41,10539,-4,0,-22,0,148903,0
148901,109,-2026,353,-30,-10,-34,13843,13,1,-152,-32,35992,-60,30,127,0,0,3726,0,0,7915,-493,41,10549,-4,0,-22,0,148903,0
148911,102,-2034,357,-29,-9,-33,13840,-7,-5,-154,-32,35990,-54,30,127,0,0,3726,21,0,7915,-493,41,10559,-4,0,-22,0,148903,0
148921,95,-2021,361,-37,-6,-33,13841,0,-4,-152,-64,35984,-53,30,127,0,0,3726,0,0,7915,-493,41,10569,-4,0,-22,0,148903,0
148931,83,-2022,353,-39,-9,-27,13843,14,8,-132,-40,35977,-45,30,127,0,0,3726,0,0,7915,-493,41,10579,-4,0,-22,0,148935,0
148941,90,-2021,341,-40,-9,-32,13841,-3,3,-167,-56,35985,-46,30,127,0,0,3726,10,0,7915,-493,41,10589,-4,0,-22,0,148950,0
148951,80,-2021,345,-38,-6,-28,13841,6,-1,-146,-32,35986,-44,30,127,0,0,3724,-21,0,7915,-493,41,10599,-4,0,-22,0,148950,0
148961,78,-2018,340,-36,-3,-38,13840,-2,4,-188,-16,35988,-53,30,127,0,0,3726,21,0,7915,-493,41,10609,-4,0,-22,0,148950,0
148971,84,-2024,338,-37,-4,-39,13842,8,-4,-159,-32,35993,-61,30,127,0,0,3724,-32,0,7915,-493,41,10619,-4,0,-22,0,148966,0
148981,73,-2021,340,-40,-3,-40,13840,-2,4,-185,-16,36001,-62,30,127,0,0,3726,21,0,7915,-493,41,10629,-4,0,-22,0,148966,0
148991,118,-2021,345,-36,-9,-38,13842,-5,2,-138,-32,36000,-74,30,127,0,0,3726,0,0,7915,-493,41,10639,-4,0,-22,0,148997,0
149001,97,-2024,352,-36,-10,-34,13840,0,0,-174,-56,35994,-72,30,127,0,0,3726,32,0,7915,-493,41,10649,-4,0,-22,0,148997,0
149011,102,-2025,354,-37,-5,-38,13841,0,1,-132,-32,35983,-67,30,127,0,0,3726,0,0,7915,-493,41,10659,-4,0,-22,0,148997,0
149021,92,-2017,349,-41,-6,-36,13841,0,-1,-135,-32,35986,-66,30,127,0,0,3726,0,0,7915,-493,41,10669,-4,0,-22,0,149013,0
149031,91,-2022,350,-41,-13,-36,13840,6,-4,-128,-32,35985,-73,30,127,0,0,3726,-10,0,7915,-493,41,10679,-4,0,-22,0,149106,0
149041,113,-2037,346,-45,-4,-36,13841,0,2,-125,-32,35994,-72,30,127,0,0,3726,10,0,7915,-493,41,10689,-4,0,-22,0,149106,0
149051,114,-2039,345,-44,-8,-34,13842,-2,1,-125,-32,35993,-64,30,127,0,0,3726,0,0,7915,-493,41,10699,-4,0,-22,0,149122,0
149061,83,-2031,338,-40,-1,-34,13840,6,-4,-135,-32,35988,-60,30,127,0,0,3726,0,0,7915,-493,41,10709,-4,0,-22,0,149122,0
149071,82,-2022,344,-43,-4,-40,13840,-1,1,-116,-32,35977,-64,30,127,0,0,3726,-21,0,7915,-493,41,10719,-4,0,-22,0,149122,0
149081,100,-2027,346,-40,1,-34,13839,-5,-6,-117,-40,35975,-56,30,127,0,0,3726,-10,0,7915,-493,41,10729,-4,0,-22,0,149138,0
149091,94,-2028,349,-42,0,-32,13839,-14,-6,-134,-32,35977,-46,30,127,0,0,3724,-21,0,7915,-493,41,10739,-4,0,-22,0,149138,0
149101,85,-2024,364,-47,-3,-35,13840,-3,-2,-153,-32,35977,-51,30,127,0,0,3726,10,0,7915,-493,41,10749,-4,0,-22,0,149138,0
149111,92,-2027,350,-55,-11,-28,13841,-3,-2,-105,-48,35976,-64,30,127,0,0,3728,10,0,7915,-493,41,10759,-4,0,-22,0,149138,0
149121,69,-2024,344,-49,-8,-29,13842,8,-4,-101,-32,35972,-66,30,127,0,0,3726,-21,0,7915,-493,41,10769,-4,0,-22,0,149138,0
149131,74,-2024,344,-57,-8,-39,13841,4,0,-107,-48,35971,-66,30,127,0,0,3726,-10,0,7915,-493,41,10779,-4,0,-22,0,149138,0
149141,68,-2027,340,-43,-6,-52,13841,-5,3,-138,-32,35974,-55,30,127,0,0,3728,21,0,7915,-493,41,10789,-4,0,-22,0,149138,0
149151,70,-2016,346,-50,-9,-47,13842,7,8,-93,-8,35989,-55,30,127,0,0,3728,21,0,7915,-493,41,10799,-4,0,-22,0,149138,0
149161,95,-2031,355,-48,-12,-50,13842,-7,6,-101,-32,36004,-27,30,127,0,0,3728,10,0,7915,-493,41,10809,-4,0,-22,0,149169,0
149171,70,-2021,353,-52,-9,-51,13841,15,-6,-125,0,36012,-27,30,127,0,0,3726,10,0,7915,-493,41,10819,-4,0,-22,0,149169,0
149181,84,-2021,348,-58,-15,-60,13842,-1,11,-107,0,36000,-33,30,127,0,0,3728,10,0,7915,-493,41,10829,-4,0,-22,0,149200,0
149191,81,-2025,339,-56,-5,-50,13842,-1,-5,-85,-48,35987,-63,30,127,0,0,3728,10,0,7915,-493,41,10839,-4,0,-22,0,149200,0
149201,89,-2024,337,-54,-19,-55,13840,2,0,-117,-32,35985,-65,30,127,0,0,3726,-10,0,7915,-493,41,10849,-4,0,-22,0,149216,0
149211,85,-2023,332,-48,-10,-62,13841,10,-1,-137,-32,35991,-57,30,127,0,0,3726,0,0,7915,-493,41,10859,-4,0,-22,0,149216,0
149221,89,-2023,339,-51,-16,-59,13839,-16,0,-142,-32,35998,-55,30,127,0,0,3726,0,0,7915,-493,41,10869,-4,0,-22,0,149216,0
149231,101,-2027,348,-47,-10,-67,13840,-11,-1,-143,-32,35989,-57,30,127,0,0,3726,0,0,7915,-493,41,10879,-4,0,-22,0,149216,0
149241,108,-2029,347,-49,-10,-57,13841,1,1,-157,-32,35993,-57,30,127,0,0,3726,21,0,7915,-493,41,10889,-4,0,-22,0,149247,0
149251,114,-2022,341,-48,-15,-59,13840,-11,1,-143,-32,35993,-58,30,127,0,0,3726,10,0,7915,-493,41,10899,-4,0,-22,0,149247,0
149261,107,-2033,342,-43,-8,-59,13841,0,-1,-133,-32,35997,-56,30,127,0,0,3726,0,0,7915,-493,41,10909,-4,0,-22,0,149247,0
149271,85,-2031,345,-48,-11,-56,13839,-5,-6,-163,-32,35987,-56,30,127,0,0,3726,21,0,7915,-493,41,10919,-4,0,-22,0,149278,0
149281,87,-2026,343,-44,-8,-52,13841,-1,3,-119,-32,35983,-55,30,127,0,0,3726,-21,0,7915,-493,41,10929,-4,0,-22,0,149278,0
149291,89,-2027,341,-43,-10,-57,13841,12,-3,-135,-64,35983,-54,30,127,0,0,3726,0,0,7915,-493,41,10939,-4,0,-22,0,149278,0
149301,93,-2023,343,-46,-7,-50,13841,8,-5,-121,-64,35987,-60,30,127,0,0,3726,-10,0,7915,-493,41,10949,-4,0,-22,0,149294,0
149311,60,-2026,337,-48,-9,-52,13840,0,0,-139,-64,35981,-43,30,127,0,0,3726,0,0,7915,-493,41,10959,-4,0,-22,0,149294,0
149321,95,-2026,338,-44,-5,-56,13840,1,7,-132,-64,35979,-46,30,127,0,0,3726,0,0,7915,-493,41,10969,-4,0,-22,0,149325,0
149331,79,-2026,337,-43,-7,-59,13841,1,0,-132,-32,35985,-54,30,127,0,0,3726,0,0,7915,-493,41,10979,-4,0,-22,0,149325,0
149341,92,-2027,340,-40,-4,-60,13839,-6,1,-132,-64,35978,-77,30,127,0,0,3724,-21,0,7915,-493,41,10989,-4,0,-22,0,149325,0
149351,94,-2022,343,-37,-15,-57,13841,5,1,-148,-32,35985,-67,30,127,0,0,3726,0,0,7915,-493,41,10999,-4,0,-22,0,149356,0
149361,94,-2023,343,-38,-6,-63,13840,-8,0,-143,-32,35987,-56,30,127,0,0,3726,0,0,7915,-493,41,11009,-4,0,-22,0,149356,0
149371,95,-2018,338,-39,-8,-63,13841,7,3,-136,-32,35991,-57,30,127,0,0,3724,-21,0,7915,-493,41,11019,-4,0,-22,0,149356,0
149381,79,-2016,336,-36,-2,-80,13840,0,-4,-150,-32,35989,-60,30,127,0,0,3724,-21,0,7915,-493,41,11029,-4,0,-22,0,149372,0
149391,81,-2017,340,-34,-3,-90,13839,-4,-4,-179,-56,35989,-56,30,127,0,0,3726,10,0,7915,-493,41,11039,-4,0,-22,0,149466,0
149401,86,-2021,349,-39,-5,-93,13840,-5,2,-164,-56,35990,-42,30,127,0,0,3722,-43,0,7915,-493,41,11049,-4,0,-22,0,149466,0
149411,82,-2013,334,-38,2,-111,13833,-10,-10,-259,-64,35984,-48,30,127,0,0,3719,-10,0,7915,-493,41,11059,-4,0,-22,0,149466,0
149421,93,-2029,346,-34,-4,-112,13834,-5,-6,-341,-152,35971,-46,30,127,0,0,3715,-43,0,7915,-493,41,11069,-4,0,-22,0,149466,0
149431,90,-2014,346,-34,-2,-123,13824,-20,-1,-406,-104,35967,-54,30,127,0,0,3715,0,0,7915,-493,41,11079,-4,0,-22,0,149466,0
149441,84,-2029,358,-45,-2,-130,13818,-10,-10,-392,-128,35965,-55,30,127,0,0,3708,-65,0,7915,-493,41,11089,-4,0,-22,0,149481,0
149451,104,-2027,358,-44,-5,-129,13810,-33,0,-503,-160,35963,-68,30,127,0,0,3708,-10,0,7915,-493,41,11099,-4,0,-22,0,149481,0
149461,80,-2027,351,-48,-9,-139,13780,-78,-45,-345,-88,35960,-75,30,127,0,0,3706,-21,0,7915,-493,41,11109,-4,0,-22,0,149481,0
149471,71,-2028,346,-50,1,-153,13760,-26,-25,-326,-72,35960,-74,30,127,0,0,3704,-21,0,7915,-493,41,11119,-4,0,-22,0,149481,0
149481,109,-2030,354,-52,-2,-153,13758,-7,65,-485,-176,35958,-63,30,127,0,0,3700,-10,0,7915,-493,41,11129,-4,0,-22,0,149481,0
149491,82,-2021,342,-56,-10,-163,13742,-39,4,-482,-160,35962,-61,30,127,0,0,3695,-21,0,7915,-493,41,11139,-4,0,-22,0,149481,0
149501,96,-2026,344,-61,-5,-166,13704,-94,-72,-329,-112,35973,-58,30,127,0,0,3691,-54,0,7915,-493,41,11149,-4,0,-22,0,149513,0
149511,85,-2036,347,-54,-8,-161,13676,-49,-24,-321,-80,35992,-53,30,127,0,0,3687,-32,0,7915,-493,41,11159,-4,0,-22,0,149513,0
149521,133,-2035,355,-62,-5,-164,13648,-71,22,-251,-72,35992,-37,30,127,0,0,3687,-21,0,7915,-493,41,11169,-4,0,-22,0,149513,0
149531,102,-2029,337,-54,-7,-152,13643,12,39,-297,-104,35988,-18,30,127,0,0,3680,-76,0,7915,-493,41,11179,-4,0,-22,0,149513,0
149541,117,-2028,339,-56,-11,-142,13638,-10,48,-426,-112,35977,-3,30,127,0,0,3676,-65,0,7915,-493,41,11189,-4,0,-22,0,149544,0
149551,136,-2037,348,-60,-10,-137,13631,-22,-6,-507,-152,35985,-1,30,127,0,0,3673,-32,0,7915,-493,41,11199,-4,0,-22,0,149560,0
149561,134,-2030,349,-59,-18,-126,13619,-36,-7,-575,-176,35983,4,30,127,0,0,3671,0,0,7915,-493,41,11209,-4,0,-22,0,149560,0
149571,130,-2026,346,-64,-13,-123,13595,-60,-35,-409,-128,35977,7,30,127,0,0,3671,0,0,7915,-493,41,11219,-4,0,-22,0,149560,0
149581,113,-2020,334,-62,-11,-110,13576,-20,-19,-359,-136,35973,0,30,127,0,0,3667,-32,0,7915,-493,41,11229,-4,0,-22,0,149575,0
149591,145,-2019,328,-57,-7,-102,13575,3,43,-444,-168,35982,1,30,127,0,0,3665,-32,0,7915,-493,41,11239,-4,0,-22,0,149575,0
149601,149,-2014,328,-60,-18,-81,13568,-21,31,-510,-184,35990,-19,30,127,0,0,3665,10,0,7915,-493,41,11249,-4,0,-22,0,149606,0
149611,132,-2016,330,-54,-13,-65,13559,-18,-16,-445,-208,35987,-22,30,127,0,0,3662,-21,0,7915,-493,41,11259,-4,0,-22,0,149606,0
149621,151,-2020,332,-46,-14,-49,13542,-42,-21,-401,-120,35985,-28,30,127,0,0,3662,0,0,7915,-493,41,11269,-4,0,-22,0,149622,0
149631,130,-2029,330,-42,-13,-46,13509,-62,-40,-212,-56,35980,-39,30,127,0,0,3660,-10,0,7915,-493,41,11279,-4,0,-22,0,149622,0
149641,146,-2020,322,-38,-4,-32,13508,4,34,-253,-72,35983,-46,30,127,0,0,3660,-10,0,7915,-493,41,11289,-4,0,-22,0,149638,0
149651,138,-2019,325,-29,-11,-23,13507,0,61,-253,-40,35989,-38,30,127,0,0,3660,-10,0,7915,-493,41,11299,-4,0,-22,0,149653,0
149661,124,-2018,321,-18,-4,-22,13509,2,2,-246,-48,35988,-41,30,127,0,0,3660,-21,0,7915,-493,41,11309,-4,0,-22,0,149653,0
149671,130,-2009,327,-16,-2,-15,13507,2,-2,-283,-72,35990,-32,30,127,0,0,3660,0,0,7915,-493,41,11319,-4,0,-22,0,149669,0
149681,124,-2020,344,-20,4,2,13509,10,1,-255,-48,35992,-41,30,127,0,0,3660,-21,0,7915,-493,41,11329,-4,0,-22,0,149684,0
149691,136,-2019,344,-12,1,0,13508,-6,-3,-239,-48,35991,-45,30,127,0,0,3662,0,0,7915,-493,41,11339,-4,0,-22,0,149684,0
149701,118,-2015,343,-12,-2,12,13507,-3,-2,-229,-16,35990,-40,30,127,0,0,3662,10,0,7915,-493,41,11349,-4,0,-22,0,149684,0
149711,142,-2024,342,-11,-2,19,13509,-5,4,-208,-48,35990,-54,30,127,0,0,3665,10,0,7915,-493,41,11359,-4,0,-22,0,149809,0
149721,138,-2018,349,-13,-2,37,13511,3,-2,-149,-64,36001,-45,30,127,0,0,3662,-10,0,7915,-493,41,11369,-4,0,-22,0,149825,0
149731,146,-2020,349,-17,-6,46,13510,9,0,-102,-8,35999,-44,30,127,0,0,3667,0,0,7915,-493,41,11379,-4,0,-22,0,149825,0
149741,159,-2024,351,-17,-19,72,13515,-6,7,-70,16,35986,-40,30,127,0,0,3671,43,0,7915,-493,41,11389,-4,0,-22,0,149825,0
149751,104,-2031,339,-22,-20,90,13523,28,4,80,16,35971,-40,30,127,0,0,3676,54,0,7915,-493,41,11399,-4,0,-22,0,149825,0
149761,118,-2028,347,-18,-21,95,13527,11,4,148,16,35972,-33,30,127,0,0,3676,32,0,7915,-493,41,11409,-4,0,-22,0,149825,0
149771,111,-2032,358,-13,-11,92,13530,16,-7,254,136,35971,-41,30,127,0,0,3682,43,0,7915,-493,41,11419,-4,0,-22,0,149825,0
149781,114,-2037,355,-25,-10,88,13559,71,48,255,56,35968,-49,30,127,0,0,3687,43,0,7915,-493,41,11429,-4,0,-22,0,149825,0
149791,89,-2036,355,-31,-20,105,13607,95,95,26,56,35971,-46,30,127,0,0,3691,54,0,7915,-493,41,11439,-4,0,-22,0,149825,0
149801,60,-2036,352,-26,-16,88,13633,60,0,54,32,35978,-34,30,127,0,0,3693,10,0,7915,-493,41,11449,-4,0,-22,0,149825,0
149811,120,-2043,367,-32,-17,94,13646,4,-63,37,24,35981,-16,30,127,0,0,3697,54,0,7915,-493,41,11459,-4,0,-22,0,149841,0
149821,61,-2032,368,-32,-5,80,13649,13,-50,205,80,35976,-4,30,127,0,0,3700,32,0,7915,-493,41,11469,-4,0,-22,0,149841,0
149831,88,-2024,365,-39,-4,63,13655,16,-4,291,104,35977,-7,30,127,0,0,3704,21,0,7915,-493,41,11479,-4,0,-22,0,149841,0
149841,101,-2027,362,-46,-10,57,13667,26,20,331,104,35975,-9,30,127,0,0,3708,43,0,7915,-493,41,11489,-4,0,-22,0,149841,0
149851,61,-2029,356,-44,-11,51,13679,33,13,372,144,35987,-10,30,127,0,0,3711,21,0,7915,-493,41,11499,-4,0,-22,0,149841,0
149861,59,-2021,359,-51,-5,33,13712,91,46,249,96,35999,-1,30,127,0,0,3713,21,0,7915,-493,41,11509,-4,0,-22,0,149841,0
149871,97,-2015,354,-54,-9,20,13737,44,30,189,64,36014,10,30,127,0,0,3715,10,0,7915,-493,41,11519,-4,0,-22,0,149903,0
149881,56,-2011,340,-54,-8,-5,13745,16,-53,225,56,36018,-8,30,127,0,0,3715,-10,0,7915,-493,41,11529,-4,0,-22,0,149903,0
149891,55,-2010,343,-50,-4,-12,13759,23,-22,41,48,36008,-27,30,127,0,0,3715,10,0,7915,-493,41,11539,-4,0,-22,0,149903,0
149901,67,-2016,336,-46,5,-38,13765,11,-15,82,24,35989,-46,30,127,0,0,3715,-10,0,7915,-493,41,11549,-4,0,-22,0,149903,0
149911,87,-2017,337,-50,-3,-44,13767,-3,-23,48,24,35976,-53,30,127,0,0,3717,21,0,7915,-493,41,11559,-4,0,-22,0,149903,0
149921,45,-2018,340,-45,-9,-52,13768,4,-11,78,16,35979,-63,30,127,0,0,3719,0,0,7915,-493,41,11569,-4,0,-22,0,149903,0
149931,49,-2012,334,-42,-10,-52,13767,0,-3,83,24,35999,-59,30,127,0,0,3717,10,0,7915,-493,41,11579,-4,0,-22,0,149950,0
149941,112,-2016,341,-40,-8,-70,13767,-3,-5,113,48,36011,-51,30,127,0,0,3719,21,0,7915,-493,41,11589,-4,0,-22,0,149950,0
149951,99,-2031,340,-39,-8,-59,13771,-1,8,92,48,36010,-56,30,127,0,0,3715,0,0,7915,-493,41,11599,-4,0,-22,0,149950,0
149961,85,-2018,344,-38,-2,-59,13769,-7,-7,73,16,35997,-61,30,127,0,0,3719,10,0,7915,-493,41,11609,-4,0,-22,0,149950,0
149971,90,-2028,330,-32,-4,-53,13773,8,4,178,-16,35988,-79,30,127,0,0,3717,-43,0,7915,-493,41,11619,-4,0,-22,0,149966,0
149981,68,-2031,339,-23,-9,-42,13772,0,-3,52,24,36001,-76,30,127,0,0,3717,-21,0,7915,-493,41,11629,-4,0,-22,0,149966,0
149991,133,-2029,341,-27,-12,-42,13772,1,-5,52,8,36011,-64,30,127,0,0,3717,0,0,7915,-493,41,11639,-4,0,-22,0,150001,0
150001,70,-2031,343,-22,-6,-45,13773,8,6,62,8,36015,-53,30,127,0,0,3717,-32,0,7915,-493,41,11649,-4,0,-22,0,150001,0
150011,65,-2029,345,-23,-7,-44,13769,-4,-10,-12,32,36004,-40,30,127,0,0,3715,10,0,7915,-493,41,11659,-4,0,-22,0,150017,0
150021,51,-2032,338,-15,-3,-53,13772,9,11,15,8,35996,-40,30,127,0,0,3715,-21,0,7915,-493,41,11669,-4,0,-22,0,150017,0
150031,67,-2025,340,-21,-12,-57,13769,-10,5,21,16,35983,-58,30,127,0,0,3717,0,0,7915,-493,41,11679,-4,0,-22,0,150017,0
150041,68,-2039,346,-15,3,-58,13773,5,-3,106,72,35992,-57,30,127,0,0,3722,10,0,7915,-493,41,11689,-4,0,-22,0,150032,0
150051,77,-2026,352,-22,-9,-70,13774,3,3,84,8,36003,-53,30,127,0,0,3717,-10,0,7915,-493,41,11699,-4,0,-22,0,150064,0
150061,137,-2029,364,-30,-8,-77,13773,5,-2,57,0,36014,-47,30,127,0,0,3717,10,0,7915,-493,41,11709,-4,0,-22,0,150064,0
150071,113,-2026,380,-36,-14,-74,13771,-9,0,10,-8,36004,-48,30,127,0,0,3715,-10,0,7915,-493,41,11719,-4,0,-22,0,150079,0
150081,89,-2025,377,-44,-15,-74,13770,-4,-2,-12,-8,35989,-61,30,127,0,0,3715,-21,0,7915,-493,41,11729,-4,0,-22,0,150079,0
150091,70,-2027,376,-56,-14,-95,13771,9,-3,-15,-8,35983,-65,30,127,0,0,3713,-43,0,7915,-493,41,11739,-4,0,-22,0,150111,0
150101,71,-2026,358,-61,0,-128,13769,-7,-1,-61,-40,35991,-77,30,127,0,0,3715,-10,0,7915,-493,41,11749,-4,0,-22,0,150111,0
150111,60,-2034,357,-61,-2,-131,13769,6,3,-83,-32,36000,-69,30,127,0,0,3713,-10,0,7915,-493,41,11759,-4,0,-22,0,150126,0
150121,80,-2021,357,-72,-1,-135,13767,0,1,-156,0,35992,-72,30,127,0,0,3708,-43,0,7915,-493,41,11769,-4,0,-22,0,150126,0
150131,100,-2023,353,-71,2,-147,13762,-7,-11,-232,-64,35985,-65,30,127,0,0,3704,-76,0,7915,-493,41,11779,-4,0,-22,0,150142,0
150141,112,-2028,355,-71,-2,-142,13751,-27,-19,-307,-96,35977,-68,30,127,0,0,3704,-32,0,7915,-493,41,11789,-4,0,-22,0,150142,0
150151,103,-2024,350,-75,-7,-143,13738,-27,-20,-252,-136,35981,-71,30,127,0,0,3702,-32,0,7915,-493,41,11799,-4,0,-22,0,150142,0
150161,106,-2018,350,-80,-5,-144,13710,-70,-36,-205,-40,35985,-58,30,127,0,0,3697,-21,0,7915,-493,41,11809,-4,0,-22,0,150157,0
150171,87,-2016,344,-82,2,-146,13694,-8,5,-255,-56,35989,-46,30,127,0,0,3693,-43,0,7915,-493,41,11819,-4,0,-22,0,150157,0
150181,134,-2021,342,-82,-6,-131,13687,-21,49,-345,-80,35986,-37,30,127,0,0,3691,-10,0,7915,-493,41,11829,-4,0,-22,0,150173,0
150191,120,-2026,339,-78,-10,-118,13671,-52,-17,-310,-104,35975,-25,30,127,0,0,3689,-21,0,7915,-493,41,11839,-4,0,-22,0,150173,0
150201,74,-2016,337,-79,-5,-126,13640,-53,-49,-174,-40,35977,-3,30,127,0,0,3687,-10,0,7915,-493,41,11849,-4,0,-22,0,150220,0
150211,111,-2025,341,-76,-4,-120,13642,10,51,-277,-80,35986,29,30,127,0,0,3682,-54,0,7915,-493,41,11859,-4,0,-22,0,150220,0
150221,94,-2016,337,-76,-11,-121,13636,-17,44,-359,-96,35987,25,30,127,0,0,3682,-10,0,7915,-493,41,11869,-4,0,-22,0,150236,0
150231,119,-2029,341,-76,-8,-106,13637,12,-7,-423,-144,35979,22,30,127,0,0,3678,-21,0,7915,-493,41,11879,-4,0,-22,0,150236,0
150241,112,-2028,338,-73,-1,-113,13627,-24,1,-438,-120,35973,4,30,127,0,0,3676,-10,0,7915,-493,41,11889,-4,0,-22,0,150236,0
150251,122,-2032,345,-66,-2,-105,13623,-14,-14,-501,-136,35973,10,30,127,0,0,3676,-10,0,7915,-493,41,11899,-4,0,-22,0,150236,0
150261,123,-2026,344,-73,-7,-102,13610,-37,-15,-407,-184,35990,10,30,127,0,0,3671,-32,0,7915,-493,41,11909,-4,0,-22,0,150267,0
150271,123,-2025,345,-71,-7,-95,13587,-65,-30,-347,-112,35998,-4,30,127,0,0,3671,0,0,7915,-493,41,11919,-4,0,-22,0,150282,0
150281,94,-2028,335,-72,-11,-91,13576,0,-2,-335,-80,36001,-8,30,127,0,0,3669,-10,0,7915,-493,41,11929,-4,0,-22,0,150282,0
150291,136,-2024,338,-69,-5,-88,13576,-11,52,-401,-80,35981,-17,30,127,0,0,3667,-32,0,7915,-493,41,11939,-4,0,-22,0,150282,0
150301,114,-2028,331,-61,-6,-88,13572,-11,6,-466,-128,35969,-30,30,127,0,0,3667,0,0,7915,-493,41,11949,-4,0,-22,0,150282,0
150311,111,-2029,330,-60,-12,-87,13572,3,-2,-440,-168,35979,-36,30,127,0,0,3660,-65,0,7915,-493,41,11959,-4,0,-22,0,150314,0
150321,115,-2031,331,-57,1,-90,13567,-8,0,-477,-176,35994,-36,30,127,0,0,3662,-43,0,7915,-493,41,11969,-4,0,-22,0,150314,0
150331,120,-2020,340,-55,-6,-88,13554,-32,-19,-463,-104,35990,-37,30,127,0,0,3662,0,0,7915,-493,41,11979,-4,0,-22,0,150329,0
150341,132,-2027,338,-51,-7,-72,13535,-63,-24,-370,-128,35979,-46,30,127,0,0,3660,-10,0,7915,-493,41,11989,-4,0,-22,0,150329,0
150351,114,-2028,337,-52,-4,-81,13502,-60,-52,-220,-64,35981,-47,30,127,0,0,3660,0,0,7915,-493,41,11999,-4,0,-22,0,150347,0
150361,138,-2017,342,-45,-2,-64,13495,-2,34,-261,-32,35992,-52,30,127,0,0,3660,21,0,7915,-493,41,12009,-4,0,-22,0,150379,0
150371,130,-2025,342,-52,-3,-58,13495,-7,67,-283,-32,35994,-51,30,127,0,0,3658,0,0,7915,-493,41,12019,-4,0,-22,0,150379,0
150381,128,-2016,331,-46,-11,-42,13493,-8,0,-293,-64,35983,-45,30,127,0,0,3658,10,0,7915,-493,41,12029,-4,0,-22,0,150379,0
150391,131,-2025,328,-48,-12,-39,13489,-15,-3,-259,-56,35967,-49,30,127,0,0,3656,-10,0,7915,-493,41,12039,-4,0,-22,0,150379,0
150401,108,-2026,336,-42,-10,-39,13475,-44,-21,-209,-104,35974,-42,30,127,0,0,3656,0,0,7915,-493,41,12049,-4,0,-22,0,150410,0
150411,106,-2017,326,-42,-6,-35,13465,-6,-16,-88,0,35986,-48,30,127,0,0,3656,-21,0,7915,-493,41,12059,-4,0,-22,0,150425,0
150421,111,-2025,339,-38,2,-37,13466,-1,29,-172,0,35984,-49,30,127,0,0,3656,0,0,7915,-493,41,12069,-4,0,-22,0,150425,0
150431,124,-2019,333,-36,2,-35,13468,10,18,-125,-8,35980,-49,30,127,0,0,3658,-21,0,7915,-493,41,12079,-4,0,-22,0,150425,0
150441,128,-2023,338,-36,2,-27,13468,7,4,-64,-48,35960,-66,30,127,0,0,3658,-10,0,7915,-493,41,12089,-4,0,-22,0,150425,0
150451,91,-2026,336,-40,-3,-26,13467,3,-2,-89,0,35973,-66,30,127,0,0,3654,-32,0,7915,-493,41,12099,-4,0,-22,0,150441,0
150461,96,-2026,348,-39,-1,-31,13463,-17,-2,-155,-32,35978,-54,30,127,0,0,3656,10,0,7915,-493,41,12109,-4,0,-22,0,150472,0
150471,120,-2022,344,-46,-4,-24,13466,5,3,-115,-48,35988,-44,30,127,0,0,3656,0,0,7915,-493,41,12119,-4,0,-22,0,150472,0
150481,126,-2026,342,-43,-8,-25,13464,0,1,-124,0,35984,-48,30,127,0,0,3656,0,0,7915,-493,41,12129,-4,0,-22,0,150488,0
150491,121,-2025,341,-46,-3,-30,13463,-9,-6,-161,8,35984,-49,30,127,0,0,3656,0,0,7915,-493,41,12139,-4,0,-22,0,150488,0
150501,109,-2025,341,-42,-6,-28,13465,0,2,-130,-8,35977,-55,30,127,0,0,3658,10,0,7915,-493,41,12149,-4,0,-22,0,150504,0
150511,107,-2021,336,-44,-3,-31,13466,1,1,-61,-8,35981,-50,30,127,0,0,3658,10,0,7915,-493,41,12159,-4,0,-22,0,150519,0
150521,125,-2025,332,-40,4,-30,13467,2,3,-30,-16,35972,-61,30,127,0,0,3658,0,0,7915,-493,41,12169,-4,0,-22,0,150535,0
150531,117,-2026,331,-42,-4,-20,13465,-3,-3,-63,-8,35974,-66,30,127,0,0,3658,21,0,7915,-493,41,12179,-4,0,-22,0,150535,0
150541,120,-2027,329,-38,-7,-27,13467,7,-1,-38,-16,35970,-58,30,127,0,0,3658,0,0,7915,-493,41,12189,-4,0,-22,0,150550,0
150551,113,-2015,335,-38,-10,-24,13466,4,0,-75,0,35974,-46,30,127,0,0,3658,21,0,7915,-493,41,12199,-4,0,-22,0,150550,0
150561,139,-2026,333,-36,-4,-30,13469,1,-3,-32,-16,35975,-43,30,127,0,0,3658,0,0,7915,-493,41,12209,-4,0,-22,0,150550,0
150571,114,-2025,338,-38,-6,-26,13467,3,-2,-27,-16,35988,-34,30,127,0,0,3658,10,0,7915,-493,41,12219,-4,0,-22,0,150550,0
150581,119,-2022,341,-32,7,-23,13468,0,-2,-20,16,35997,-32,30,127,0,0,3660,10,0,7915,-493,41,12229,-4,0,-22,0,150613,0
150591,130,-2016,336,-37,-1,-15,13467,1,3,-18,24,36004,-33,30,127,0,0,3658,0,0,7915,-493,41,12239,-4,0,-22,0,150613,0
150601,115,-2021,342,-35,-2,-7,13468,6,0,-16,8,35987,-32,30,127,0,0,3660,0,0,7915,-493,41,12249,-4,0,-22,0,150613,0
150611,118,-2020,343,-32,-8,-5,13467,-4,-3,10,8,35970,-48,30,127,0,0,3660,10,0,7915,-493,41,12259,-4,0,-22,0,150613,0
150621,110,-2028,339,-38,-2,3,13470,6,3,65,-8,35966,-56,30,127,0,0,3662,0,0,7915,-493,41,12269,-4,0,-22,0,150613,0
150631,110,-2028,343,-32,-11,15,13470,-4,3,53,40,35968,-52,30,127,0,0,3662,32,0,7915,-493,41,12279,-4,0,-22,0,150628,0
150641,104,-2028,339,-33,-15,17,13472,1,-2,98,56,35970,-55,30,127,0,0,3665,10,0,7915,-493,41,12289,-4,0,-22,0,150628,0
150651,102,-2028,343,-31,-11,15,13476,10,7,167,32,35978,-54,30,127,0,0,3667,21,0,7915,-493,41,12299,-4,0,-22,0,150660,0
150661,101,-2033,342,-31,-9,16,13478,7,-2,198,56,35989,-54,30,127,0,0,3669,32,0,7915,-493,41,12309,-4,0,-22,0,150660,0
150671,105,-2029,337,-34,-7,16,13489,29,15,198,96,35992,-56,30,127,0,0,3669,10,0,7915,-493,41,12319,-4,0,-22,0,150660,0
150681,105,-2029,341,-32,-10,15,13506,43,14,101,32,35986,-52,30,127,0,0,3671,32,0,7915,-493,41,12329,-4,0,-22,0,150691,0
150691,101,-2023,348,-35,-10,22,13516,14,2,79,32,35983,-51,30,127,0,0,3671,21,0,7915,-493,41,12339,-4,0,-22,0,150691,0
150701,72,-2028,352,-38,-7,11,13519,12,-33,140,24,35978,-51,30,127,0,0,3671,-43,0,7915,-493,41,12349,-4,0,-22,0,150691,0
150711,85,-2016,348,-39,-3,1,13519,16,-17,192,32,35985,-45,30,127,0,0,3676,-10,0,7915,-493,41,12359,-4,0,-22,0,150722,0
150721,87,-2022,343,-43,-7,-2,13525,10,8,221,56,35988,-41,30,127,0,0,3673,-43,0,7915,-493,41,12369,-4,0,-22,0,150722,0
150731,113,-2027,344,-48,-7,-12,13525,1,-4,200,96,35985,-44,30,127,0,0,3676,0,0,7915,-493,41,12379,-4,0,-22,0,150722,0
150741,89,-2019,344,-44,-5,-20,13527,0,-6,230,40,35985,-33,30,127,0,0,3678,21,0,7915,-493,41,12389,-4,0,-22,0,150722,0
150751,75,-2020,348,-42,-5,-24,13528,3,2,245,88,35987,-41,30,127,0,0,3680,21,0,7915,-493,41,12399,-4,0,-22,0,150753,0
150761,96,-2015,350,-44,-7,-37,13530,8,-3,253,72,35998,-41,30,127,0,0,3678,21,0,7915,-493,41,12409,-4,0,-22,0,150753,0
150771,95,-2027,343,-46,-1,-44,13531,6,-5,264,40,35994,-41,30,127,0,0,3676,-32,0,7915,-493,41,12419,-4,0,-22,0,150753,0
150781,71,-2028,347,-46,-15,-46,13530,7,-8,235,72,35995,-51,30,127,0,0,3678,10,0,7915,-493,41,12429,-4,0,-22,0,150785,0
150791,94,-2020,343,-50,-12,-52,13534,-1,3,241,64,35995,-49,30,127,0,0,3678,0,0,7915,-493,41,12439,-4,0,-22,0,150785,0
150801,93,-2029,344,-46,-14,-64,13533,3,1,229,64,35997,-53,30,127,0,0,3678,0,0,7915,-493,41,12449,-4,0,-22,0,150800,0
150811,104,-2024,341,-48,-13,-66,13534,7,-6,231,96,35987,-64,30,127,0,0,3676,-21,0,7915,-493,41,12459,-4,0,-22,0,150800,0
150821,111,-2030,335,-50,-10,-70,13532,-10,-6,197,32,35976,-61,30,127,0,0,3678,10,0,7915,-493,41,12469,-4,0,-22,0,150832,0
150831,99,-2035,324,-46,-13,-64,13532,0,1,178,40,35981,-59,30,127,0,0,3678,21,0,7915,-493,41,12479,-4,0,-22,0,150832,0
150841,138,-2023,324,-43,-3,-51,13532,1,6,191,80,35987,-53,30,127,0,0,3673,-21,0,7915,-493,41,12489,-4,0,-22,0,150832,0
150851,153,-2024,331,-35,-1,-49,13531,-3,-6,146,48,35983,-49,30,127,0,0,3676,0,0,7915,-493,41,12499,-4,0,-22,0,150863,0
150861,138,-2028,337,-30,-6,-33,13533,7,2,164,40,35988,-51,30,127,0,0,3676,0,0,7915,-493,41,12509,-4,0,-22,0,150878,0
150871,130,-2026,341,-35,-3,-18,13531,5,4,192,32,35988,-52,30,127,0,0,3676,0,0,7915,-493,41,12519,-4,0,-22,0,150878,0
150881,128,-2026,338,-26,-3,-13,13531,-11,-2,184,48,35991,-46,30,127,0,0,3673,-21,0,7915,-493,41,12529,-4,0,-22,0,150878,0
150891,131,-2022,334,-24,8,-7,13533,15,4,201,32,35984,-44,30,127,0,0,3676,-21,0,7915,-493,41,12539,-4,0,-22,0,150910,0
150901,117,-2021,344,-26,5,0,13532,-7,3,209,32,35981,-32,30,127,0,0,3676,0,0,7915,-493,41,12549,-4,0,-22,0,150910,0
150911,105,-2032,356,-31,1,2,13532,4,-4,176,40,35982,-43,30,127,0,0,3676,10,0,7915,-493,41,12559,-4,0,-22,0,150925,0
150921,89,-2027,353,-29,1,-7,13532,-7,-1,175,48,35986,-48,30,127,0,0,3676,0,0,7915,-493,41,12569,-4,0,-22,0,150925,0
150931,80,-2028,341,-29,5,-13,13533,10,-2,162,40,35981,-57,30,127,0,0,3678,32,0,7915,-493,41,12579,-4,0,-22,0,150925,0
150941,98,-2023,333,-30,1,-18,13535,6,8,223,24,35980,-49,30,127,0,0,3676,-10,0,7915,-493,41,12589,-4,0,-22,0,150925,0
150951,88,-2032,343,-31,-2,-26,13533,-2,-1,224,32,35997,-38,30,127,0,0,3678,0,0,7915,-493,41,12599,-4,0,-22,0,150972,0
150961,81,-2022,347,-30,-7,-35,13533,0,-5,232,64,36006,-41,30,127,0,0,3678,0,0,7915,-493,41,12609,-4,0,-22,0,150972,0
150971,86,-2026,352,-32,-5,-36,13534,-1,2,228,64,36001,-40,30,127,0,0,3676,-32,0,7915,-493,41,12619,-4,0,-22,0,150972,0
150981,60,-2024,353,-42,-11,-38,13531,0,-10,144,56,35986,-48,30,127,0,0,3676,-10,0,7915,-493,41,12629,-4,0,-22,0,150972,0
150991,88,-2019,349,-37,-16,-45,13533,3,7,192,32,35979,-38,30,127,0,0,3676,0,0,7915,-493,41,12639,-4,0,-22,0,150988,0
151001,87,-2028,353,-44,-11,-53,13533,0,6,221,32,35996,-41,30,127,0,0,3678,10,0,7915,-493,41,12649,-4,0,-22,0,150988,0
151011,84,-2025,360,-54,-14,-48,13535,4,-1,227,24,36010,-33,30,127,0,0,3676,-10,0,7915,-493,41,12659,-4,0,-22,0,151019,0
151021,79,-2029,348,-53,-13,-55,13532,2,-2,192,48,36009,-48,30,127,0,0,3678,10,0,7915,-493,41,12669,-4,0,-22,0,151019,0
151031,87,-2013,335,-54,-18,-57,13534,0,4,207,40,36000,-47,30,127,0,0,3676,-10,0,7915,-493,41,12679,-4,0,-22,0,151019,0
151041,122,-2039,337,-49,-8,-58,13531,-2,-3,181,48,35985,-44,30,127,0,0,3678,32,0,7915,-493,41,12689,-4,0,-22,0,151019,0
151051,116,-2024,330,-44,-11,-50,13533,3,3,195,40,35991,-42,30,127,0,0,3676,0,0,7915,-493,41,12699,-4,0,-22,0,151050,0
151061,123,-2025,326,-36,-1,-43,13533,6,0,172,40,35993,-39,30,127,0,0,3676,-10,0,7915,-493,41,12709,-4,0,-22,0,151066,0
151071,101,-2022,330,-32,-1,-36,13533,11,3,156,40,35989,-45,30,127,0,0,3676,0,0,7915,-493,41,12719,-4,0,-22,0,151066,0
151081,120,-2026,329,-21,3,-22,13532,-2,4,179,48,35988,-52,30,127,0,0,3678,10,0,7915,-493,41,12729,-4,0,-22,0,151066,0
151091,116,-2024,335,-22,7,-17,13534,15,6,208,40,35992,-60,30,127,0,0,3676,-10,0,7915,-493,41,12739,-4,0,-22,0,151081,0
151101,113,-2030,343,-20,8,-10,13531,-10,-1,184,48,35998,-59,30,127,0,0,3676,0,0,7915,-493,41,12749,-4,0,-22,0,151144,0
151111,107,-2028,346,-18,8,-14,13533,11,0,180,40,35998,-49,30,127,0,0,3673,-43,0,7915,-493,41,12759,-4,0,-22,0,151144,0
151121,69,-2022,346,-20,11,-12,13532,-2,5,173,48,35991,-46,30,127,0,0,3678,10,0,7915,-493,41,12769,-4,0,-22,0,151144,0
151131,94,-2022,345,-13,8,-9,13534,0,-1,222,32,35989,-45,30,127,0,0,3678,0,0,7915,-493,41,12779,-4,0,-22,0,151144,0
151141,102,-2029,349,-15,2,0,13533,5,0,214,80,35983,-53,30,127,0,0,3678,10,0,7915,-493,41,12789,-4,0,-22,0,151144,0
151151,102,-2020,352,-19,-6,11,13533,-5,-1,201,80,35979,-48,30,127,0,0,3678,10,0,7915,-493,41,12799,-4,0,-22,0,151160,0
151161,105,-2024,339,-17,-11,13,13536,20,6,303,104,35980,-48,30,127,0,0,3682,-10,0,7915,-493,41,12809,-4,0,-22,0,151160,0
151171,111,-2028,340,-16,-9,16,13550,33,27,279,112,35998,-36,30,127,0,0,3687,54,0,7915,-493,41,12819,-4,0,-22,0,151160,0
151181,95,-2028,343,-14,-6,32,13594,116,78,118,40,36017,-26,30,127,0,0,3684,-21,0,7915,-493,41,12829,-4,0,-22,0,151191,0
151191,155,-2026,349,-16,-17,22,13606,-11,-8,24,40,36017,-15,30,127,0,0,3689,21,0,7915,-493,41,12839,-4,0,-22,0,151191,0
151201,101,-2021,344,-15,-5,36,13608,7,-84,150,72,36006,-9,30,127,0,0,3691,32,0,7915,-493,41,12849,-4,0,-22,0,151191,0
151211,83,-2026,343,-16,-1,30,13618,33,13,162,40,35995,-6,30,127,0,0,3693,43,0,7915,-493,41,12859,-4,0,-22,0,151206,0
151221,105,-2017,332,-11,-7,31,13641,54,39,69,48,36000,1,30,127,0,0,3693,10,0,7915,-493,41,12869,-4,0,-22,0,151300,0
151231,103,-2026,353,-19,-12,26,13644,-8,-6,123,24,36002,10,30,127,0,0,3697,10,0,7915,-493,41,12879,-4,0,-22,0,151300,0
151241,64,-2016,346,-17,2,10,13647,9,-45,222,72,35993,13,30,127,0,0,3697,-10,0,7915,-493,41,12889,-4,0,-22,0,151300,0
151251,88,-2020,349,-14,7,2,13650,-9,-1,196,80,35980,0,30,127,0,0,3697,10,0,7915,-493,41,12899,-4,0,-22,0,151300,0
151261,94,-2019,362,-20,7,-3,13650,0,-8,202,80,35966,-1,30,127,0,0,3702,21,0,7915,-493,41,12909,-4,0,-22,0,151316,0
151271,80,-2023,374,-19,3,4,13652,13,1,293,72,35969,5,30,127,0,0,3702,10,0,7915,-493,41,12919,-4,0,-22,0,151331,0
151281,91,-2023,376,-31,-11,5,13655,-7,11,285,112,35965,1,30,127,0,0,3704,32,0,7915,-493,41,12929,-4,0,-22,0,151331,0
151291,65,-2027,377,-37,-7,0,13661,21,0,369,128,35969,1,30,127,0,0,3704,-21,0,7915,-493,41,12939,-4,0,-22,0,151331,0
151301,69,-2019,361,-43,-13,-14,13662,-3,4,347,80,35973,8,30,127,0,0,3704,-10,0,7915,-493,41,12949,-4,0,-22,0,151331,0
151311,77,-2025,345,-45,-6,-21,13663,5,-10,370,144,35973,10,30,127,0,0,3704,-32,0,7915,-493,41,12959,-4,0,-22,0,151331,0
151321,83,-2026,325,-39,-6,-21,13665,10,5,376,128,35970,6,30,127,0,0,3708,0,0,7915,-493,41,12969,-4,0,-22,0,151331,0
151331,96,-2021,333,-35,-5,-21,13676,28,16,384,112,35974,-19,30,127,0,0,3706,-21,0,7915,-493,41,12979,-4,0,-22,0,151331,0
151341,93,-2027,346,-26,-1,-13,13689,37,27,244,96,35983,-10,30,127,0,0,3711,32,0,7915,-493,41,12989,-4,0,-22,0,151331,0
151351,80,-2028,348,-36,-14,2,13709,26,20,125,80,36007,2,30,127,0,0,3713,65,0,7915,-493,41,12999,-4,0,-22,0,151331,0
151361,79,-2022,357,-34,-11,0,13713,15,-16,248,96,36002,4,30,127,0,0,3713,0,0,7915,-493,41,13009,-4,0,-22,0,151363,0
151371,87,-2027,355,-39,-6,-1,13714,-3,-37,248,80,36004,-13,30,127,0,0,3713,21,0,7915,-493,41,13019,-4,0,-22,0,151363,0
151381,90,-2030,353,-40,-10,0,13716,0,-2,274,80,35986,-23,30,127,0,0,3713,0,0,7915,-493,41,13029,-4,0,-22,0,151378,0
151391,83,-2024,354,-38,-7,1,13717,0,2,281,112,35984,-23,30,127,0,0,3713,10,0,7915,-493,41,13039,-4,0,-22,0,151378,0
151401,83,-2021,348,-37,-5,-4,13720,9,2,307,88,35979,-19,30,127,0,0,3715,10,0,7915,-493,41,13049,-4,0,-22,0,151394,0
151411,79,-2027,352,-40,-10,-10,13726,23,10,376,88,35986,-32,30,127,0,0,3715,-32,0,7915,-493,41,13059,-4,0,-22,0,151410,0
151421,81,-2023,347,-42,-3,-10,13733,2,11,294,88,35994,-54,30,127,0,0,3719,32,0,7915,-493,41,13069,-4,0,-22,0,151410,0
151431,72,-2028,349,-40,1,-10,13745,30,6,309,40,35993,-57,30,127,0,0,3722,21,0,7915,-493,41,13079,-4,0,-22,0,151410,0
151441,73,-2021,349,-41,-4,-11,13771,72,34,227,96,35982,-51,30,127,0,0,3724,21,0,7915,-493,41,13089,-4,0,-22,0,151456,0
151451,108,-2020,353,-41,-12,0,13785,-1,10,137,24,35974,-49,30,127,0,0,3722,10,0,7915,-493,41,13099,-4,0,-22,0,151456,0
151461,66,-2020,345,-39,-5,-6,13782,6,-63,201,72,35977,-61,30,127,0,0,3724,32,0,7915,-493,41,13109,-4,0,-22,0,151456,0
151471,84,-2020,351,-37,-4,-8,13784,-3,-18,194,72,35974,-65,30,127,0,0,3724,10,0,7915,-493,41,13119,-4,0,-22,0,151472,0
151481,75,-2019,344,-40,-7,-9,13785,9,1,257,80,35966,-74,30,127,0,0,3724,-32,0,7915,-493,41,13129,-4,0,-22,0,151472,0
151491,93,-2020,348,-40,-2,-8,13785,-1,0,264,80,35971,-56,30,127,0,0,3726,0,0,7915,-493,41,13139,-4,0,-22,0,151488,0
151501,88,-2021,350,-40,-8,-7,13788,6,-5,274,72,35986,-56,30,127,0,0,3726,0,0,7915,-493,41,13149,-4,0,-22,0,151488,0
151511,90,-2021,349,-41,-3,-7,13787,1,1,278,72,35989,-53,30,127,0,0,3726,0,0,7915,-493,41,13159,-4,0,-22,0,151503,0
151521,71,-2026,354,-42,-6,-10,13789,12,1,322,96,35991,-56,30,127,0,0,3726,-32,0,7915,-493,41,13169,-4,0,-22,0,151519,0
151531,84,-2021,354,-46,-10,-5,13791,-1,6,271,56,35980,-59,30,127,0,0,3728,10,0,7915,-493,41,13179,-4,0,-22,0,151535,0
151541,75,-2024,342,-50,-6,-12,13793,9,-1,300,88,35980,-61,30,127,0,0,3728,21,0,7915,-493,41,13189,-4,0,-22,0,151535,0
151551,67,-2027,347,-42,-6,-15,13804,39,12,328,88,35979,-58,30,127,0,0,3728,-21,0,7915,-493,41,13199,-4,0,-22,0,151550,0
151561,88,-2024,354,-41,-7,-20,13826,47,39,148,32,35980,-71,30,127,0,0,3730,10,0,7915,-493,41,13209,-4,0,-22,0,151550,0
151571,92,-2020,347,-44,-10,-23,13833,5,3,118,64,35979,-78,30,127,0,0,3730,-32,0,7915,-493,41,13219,-4,0,-22,0,151550,0
151581,46,-2027,351,-42,3,-29,13834,21,-49,165,16,35977,-79,30,127,0,0,3730,-21,0,7915,-493,41,13229,-4,0,-22,0,151581,0
151591,87,-2024,345,-38,-2,-30,13834,1,-13,194,48,35984,-77,30,127,0,0,3733,0,0,7915,-493,41,13239,-4,0,-22,0,151597,0
151601,67,-2028,346,-43,-4,-23,13836,2,2,216,48,35987,-61,30,127,0,0,3733,-21,0,7915,-493,41,13249,-4,0,-22,0,151613,0
151611,81,-2026,348,-41,-3,-27,13835,4,-3,217,48,35986,-45,30,127,0,0,3735,10,0,7915,-493,41,13259,-4,0,-22,0,151659,0
151621,87,-2026,350,-48,-8,-24,13837,-1,2,256,64,35974,-35,30,127,0,0,3737,43,0,7915,-493,41,13269,-4,0,-22,0,151659,0
151631,58,-2022,360,-47,-5,-29,13839,-1,5,268,96,35974,-43,30,127,0,0,3733,-21,0,7915,-493,41,13279,-4,0,-22,0,151659,0
151641,55,-2026,338,-53,-1,-40,13840,11,3,257,96,35981,-57,30,127,0,0,3735,-21,0,7915,-493,41,13289,-4,0,-22,0,151675,0
151651,73,-2018,345,-49,-7,-37,13838,-9,-6,233,64,35981,-58,30,127,0,0,3733,-32,0,7915,-493,41,13299,-4,0,-22,0,151675,0
151661,45,-2022,351,-52,-5,-41,13840,8,1,207,32,35970,-55,30,127,0,0,3733,-21,0,7915,-493,41,13309,-4,0,-22,0,151675,0
151671,60,-2024,341,-47,-11,-42,13840,9,6,225,64,35965,-64,30,127,0,0,3733,-21,0,7915,-493,41,13319,-4,0,-22,0,151675,0
151681,55,-2029,345,-50,-8,-53,13840,0,1,218,32,35976,-64,30,127,0,0,3733,-21,0,7915,-493,41,13329,-4,0,-22,0,151675,0
151691,65,-2016,353,-45,-4,-54,13840,5,-2,223,64,35987,-64,30,127,0,0,3735,0,0,7915,-493,41,13339,-4,0,-22,0,151675,0
151701,77,-2019,342,-51,-9,-53,13839,-1,2,238,64,35991,-62,30,127,0,0,3733,-32,0,7915,-493,41,13349,-4,0,-22,0,151691,0
151711,87,-2020,349,-49,-6,-54,13837,-4,-3,179,80,35982,-66,30,127,0,0,3733,0,0,7915,-493,41,13359,-4,0,-22,0,151722,0
151721,71,-2033,342,-42,-6,-43,13839,-1,2,184,40,35990,-82,30,127,0,0,3733,-21,0,7915,-493,41,13369,-4,0,-22,0,151722,0
151731,98,-2043,342,-43,-10,-39,13839,3,0,173,40,35990,-83,30,127,0,0,3733,0,0,7915,-493,41,13379,-4,0,-22,0,151722,0
151741,113,-2019,345,-52,-21,-48,13838,0,3,179,40,35986,-71,30,127,0,0,3730,-32,0,7915,-493,41,13389,-4,0,-22,0,151769,0
151751,154,-2068,326,-55,-25,-54,13837,5,-4,127,16,35971,-62,30,127,0,0,3735,21,0,7915,-493,41,13399,-4,0,-22,0,151769,0
151761,642,-2111,197,-122,-15,-423,13840,4,8,188,40,35978,-53,30,127,0,0,3730,-21,0,7915,-493,41,13409,-4,0,-22,0,151769,0
151771,620,-1903,223,-154,98,-832,13836,-12,3,53,-72,35992,-63,30,127,0,0,3708,-274,0,7915,-493,41,13419,-4,0,-22,0,151769,0
151781,148,-1934,454,-170,-8,-221,13794,-129,-78,-463,-296,36003,-61,30,127,0,0,3693,-131,0,7915,-493,41,13429,-4,0,-22,0,151769,0
151791,172,-2123,544,-72,-75,-16,13705,-197,-166,-276,-120,36008,-49,30,127,0,0,3693,0,0,7915,-493,41,13439,-4,0,-22,0,151769,0
151801,356,-2108,176,-141,-53,-393,13646,-90,-33,0,-32,36017,-36,30,127,0,0,3693,0,0,7915,-493,41,13449,-4,0,-22,0,151800,0
151811,360,-1926,129,-161,40,-860,13649,14,197,-182,-144,36019,-24,30,127,0,0,3671,-230,0,7915,-493,41,13459,-4,0,-22,0,151800,0
151821,209,-1935,329,-213,41,-691,13608,-135,35,-626,-392,36006,-1,30,127,0,0,3643,-263,0,7915,-493,41,13469,-4,0,-22,0,151816,0
151831,386,-2075,435,-167,-24,-445,13511,-243,-202,-500,-376,35982,3,30,127,0,0,3632,-109,0,7915,-493,41,13479,-4,0,-22,0,151816,0
151841,455,-2080,178,-173,-81,-505,13399,-234,-139,-323,-296,35981,-3,30,127,0,0,3618,-120,0,7915,-493,41,13489,-4,0,-22,0,151847,0
151851,361,-2039,9,-157,-6,-638,13307,-202,13,-300,-248,35992,-30,30,127,0,0,3607,-87,0,7915,-493,41,13499,-4,0,-22,0,151847,0
151861,383,-2019,310,-69,58,-617,13232,-145,71,-360,-224,35997,-67,30,127,0,0,3592,-109,0,7915,-493,41,13509,-4,0,-22,0,151847,0
151871,582,-1987,554,-81,52,-397,13167,-135,55,-406,-208,35989,-80,30,127,0,0,3585,-43,0,7915,-493,41,13519,-4,0,-22,0,151863,0
151881,769,-1999,354,-173,-63,-157,13113,-100,35,-259,-120,35978,-79,30,127,0,0,3585,0,0,7915,-493,41,13529,-4,0,-22,0,151878,0
151891,666,-2043,58,-146,-76,-128,13087,-50,74,-143,-16,35994,-77,30,127,0,0,3585,10,0,7915,-493,41,13539,-4,0,-22,0,151894,0
151901,470,-2037,-12,-5,-27,-124,13086,17,106,-94,48,35993,-64,30,127,0,0,3585,0,0,7915,-493,41,13549,-4,0,-22,0,151894,0
151911,427,-2060,91,75,-8,-72,13084,-20,50,-127,-24,35995,-59,30,127,0,0,3585,10,0,7915,-493,41,13559,-4,0,-22,0,151909,0
151921,314,-2097,239,125,-4,12,13085,2,-7,-112,-24,35993,-51,30,127,0,0,3590,76,0,7915,-493,41,13569,-4,0,-22,0,151925,0
151931,284,-2094,230,126,-11,27,13088,5,13,10,48,35998,-59,30,127,0,0,3592,43,0,7915,-493,41,13579,-4,0,-22,0,151925,0
151941,265,-2037,329,115,-26,-81,13098,19,11,128,40,36009,-45,30,127,0,0,3596,43,0,7915,-493,41,13589,-4,0,-22,0,151925,0
151951,221,-2003,400,76,-30,-140,13116,53,25,181,64,36001,-53,30,127,0,0,3596,-32,0,7915,-493,41,13599,-4,0,-22,0,151972,0
151961,70,-2014,512,-19,-64,-195,13142,53,30,8,24,36002,-51,30,127,0,0,3599,-43,0,7915,-493,41,13609,-4,0,-22,0,151988,0
151971,-25,-2029,500,-59,-80,-272,13140,-31,-51,-48,8,35993,-61,30,127,0,0,3599,21,0,7915,-493,41,13619,-4,0,-22,0,152003,0
151981,26,-2064,471,-116,-95,-408,13143,17,-44,-34,32,35986,-74,30,127,0,0,3599,10,0,7915,-493,41,13629,-4,0,-22,0,152003,0
151991,81,-2056,495,-157,-111,-488,13141,-4,12,-19,-32,35986,-73,30,127,0,0,3594,-65,0,7915,-493,41,13639,-4,0,-22,0,152003,0
152001,101,-1981,522,-236,-112,-717,13136,-6,-18,-162,-24,35985,-62,30,127,0,0,3588,-76,0,7915,-493,41,13649,-4,0,-22,0,152019,0
152011,-31,-2180,511,-269,-136,-791,13126,-42,-20,-417,-208,35983,-65,30,127,0,0,3570,-164,0,7915,-493,41,13659,-4,0,-22,0,152019,0
152021,38,-2122,544,-294,-166,-877,13073,-151,-105,-412,-216,35979,-57,30,127,0,0,3557,-164,0,7915,-493,41,13669,-4,0,-22,0,152019,0
152031,29,-2157,470,-322,-230,-921,13008,-145,-108,-442,-264,35985,-59,30,127,0,0,3546,-98,0,7915,-493,41,13679,-4,0,-22,0,152019,0
152041,184,-2079,280,-404,-226,-916,12939,-170,-23,-382,-232,35997,-43,30,127,0,0,3535,-65,0,7915,-493,41,13689,-4,0,-22,0,152034,0
152051,204,-2039,267,-425,-222,-925,12863,-154,-23,-268,-136,35999,-26,30,127,0,0,3528,-43,0,7915,-493,41,13699,-4,0,-22,0,152034,0
152061,273,-2066,169,-394,-203,-939,12821,-73,66,-260,-136,36003,-19,30,127,0,0,3524,-54,0,7915,-493,41,13709,-4,0,-22,0,152081,0
152071,280,-2055,164,-369,-176,-905,12811,-7,125,-431,-176,36003,-23,30,127,0,0,3515,-54,0,7915,-493,41,13719,-4,0,-22,0,152081,0
152081,350,-2071,232,-348,-149,-802,12797,-49,44,-528,-200,35988,-34,30,127,0,0,3513,-10,0,7915,-493,41,13729,-4,0,-22,0,152081,0
152091,371,-2028,225,-345,-121,-748,12756,-105,-70,-263,-128,35983,-36,30,127,0,0,3515,0,0,7915,-493,41,13739,-4,0,-22,0,152081,0
152101,390,-2038,200,-326,-50,-687,12735,-15,-5,-218,-64,35972,-31,30,127,0,0,3513,0,0,7915,-493,41,13749,-4,0,-22,0,152081,0
152111,406,-1964,225,-310,-34,-659,12736,16,87,-237,-64,35983,-42,30,127,0,0,3513,-10,0,7915,-493,41,13759,-4,0,-22,0,152113,0
152121,428,-1951,213,-297,-34,-597,12736,1,36,-206,-32,35998,-46,30,127,0,0,3513,-10,0,7915,-493,41,13769,-4,0,-22,0,152113,0
152131,444,-1946,229,-278,-42,-556,12739,14,-1,-149,-24,35993,-26,30,127,0,0,3515,-32,0,7915,-493,41,13779,-4,0,-22,0,152113,0
152141,376,-1953,248,-247,-62,-500,12739,-7,2,-154,-56,35986,-30,30,127,0,0,3517,-10,0,7915,-493,41,13789,-4,0,-22,0,152128,0
152151,371,-1973,265,-237,-84,-422,12741,11,-6,-68,16,35981,-38,30,127,0,0,3520,21,0,7915,-493,41,13799,-4,0,-22,0,152144,0
152161,438,-1986,273,-233,-92,-340,12755,29,30,19,64,35988,-46,30,127,0,0,3531,87,0,7915,-493,41,13809,-4,0,-22,0,152175,0
152171,393,-1942,251,-231,-112,-324,12773,38,29,206,160,35995,-46,30,127,0,0,3539,65,0,7915,-493,41,13819,-4,0,-22,0,152175,0
152181,330,-1943,242,-209,-102,-344,12805,94,32,256,88,35981,-39,30,127,0,0,3546,87,0,7915,-493,41,13829,-4,0,-22,0,152175,0
152191,351,-1982,263,-207,-88,-327,12863,128,79,98,72,35984,-33,30,127,0,0,3550,32,0,7915,-493,41,13839,-4,0,-22,0,152191,0
152201,365,-1987,289,-224,-89,-295,12894,20,-17,6,80,35976,-16,30,127,0,0,3557,76,0,7915,-493,41,13849,-4,0,-22,0,152191,0
152211,301,-1967,292,-223,-100,-313,12896,17,-120,323,104,35989,8,30,127,0,0,3566,87,0,7915,-493,41,13859,-4,0,-22,0,152206,0
152221,343,-2025,307,-226,-96,-335,12912,45,-13,404,152,35995,18,30,127,0,0,3568,32,0,7915,-493,41,13869,-4,0,-22,0,152206,0
152231,294,-2009,329,-225,-106,-348,12939,76,48,340,112,36000,10,30,127,0,0,3570,10,0,7915,-493,41,13879,-4,0,-22,0,152222,0
152241,318,-2019,306,-255,-122,-360,12972,59,42,261,120,35997,-2,30,127,0,0,3579,32,0,7915,-493,41,13889,-4,0,-22,0,152237,0
152251,277,-2013,289,-257,-129,-403,13000,81,-6,274,112,35994,-16,30,127,0,0,3581,32,0,7915,-493,41,13899,-4,0,-22,0,152237,0
152261,314,-2052,280,-256,-105,-407,13035,57,10,104,24,35997,-27,30,127,0,0,3583,10,0,7915,-493,41,13909,-4,0,-22,0,152269,0
152271,339,-2028,304,-256,-101,-407,13040,6,-49,174,72,36004,-51,30,127,0,0,3585,21,0,7915,-493,41,13919,-4,0,-22,0,152269,0
152281,377,-2029,290,-276,-110,-388,13046,21,-61,206,48,35993,-65,30,127,0,0,3590,54,0,7915,-493,41,13929,-4,0,-22,0,152284,0
152291,370,-2032,274,-277,-128,-358,13067,62,38,151,32,36004,-59,30,127,0,0,3592,65,0,7915,-493,41,13939,-4,0,-22,0,152300,0
152301,379,-2020,260,-286,-154,-314,13084,30,32,241,104,35983,-61,30,127,0,0,3599,65,0,7915,-493,41,13949,-4,0,-22,0,152300,0
152311,354,-2008,249,-286,-163,-315,13099,37,-17,424,192,35978,-63,30,127,0,0,3607,76,0,7915,-493,41,13959,-4,0,-22,0,152300,0
152321,340,-2011,223,-293,-159,-346,13140,120,41,342,120,35983,-61,30,127,0,0,3614,65,0,7915,-493,41,13969,-4,0,-22,0,152300,0
152331,377,-2032,242,-316,-143,-365,13192,124,76,250,128,35998,-62,30,127,0,0,3621,54,0,7915,-493,41,13979,-4,0,-22,0,152409,0
152341,362,-2029,252,-343,-128,-377,13238,75,12,105,80,36006,-61,30,127,0,0,3625,76,0,7915,-493,41,13989,-4,0,-22,0,152409,0
152351,300,-2017,278,-350,-134,-401,13268,76,-48,105,64,35998,-78,30,127,0,0,3627,43,0,7915,-493,41,13999,-4,0,-22,0,152409,0
152361,321,-2035,284,-383,-146,-445,13275,-5,-73,229,88,35984,-95,30,127,0,0,3634,43,0,7915,-493,41,14009,-4,0,-22,0,152425,0
152371,271,-2014,280,-380,-166,-483,13280,13,-60,358,136,35977,-117,30,127,0,0,3636,21,0,7915,-493,41,14019,-4,0,-22,0,152425,0
152381,329,-2002,233,-397,-165,-533,13292,31,11,371,88,35974,-123,30,127,0,0,3640,32,0,7915,-493,41,14029,-4,0,-22,0,152425,0
152391,356,-2015,191,-404,-165,-542,13312,65,24,373,112,35966,-117,30,127,0,0,3640,10,0,7915,-493,41,14039,-4,0,-22,0,152425,0
152401,430,-2056,235,-422,-151,-503,13341,42,41,201,72,35965,-103,30,127,0,0,3647,87,0,7915,-493,41,14049,-4,0,-22,0,152425,0
152411,426,-2031,256,-425,-155,-513,13348,10,-34,406,176,35970,-80,30,127,0,0,3651,65,0,7915,-493,41,14059,-4,0,-22,0,152425,0
152421,428,-1997,216,-435,-179,-524,13366,58,-18,474,168,35973,-65,30,127,0,0,3658,21,0,7915,-493,41,14069,-4,0,-22,0,152425,0
152431,418,-2001,215,-446,-199,-517,13415,107,81,253,128,35969,-51,30,127,0,0,3662,65,0,7915,-493,41,14079,-4,0,-22,0,152425,0
152441,378,-1974,192,-456,-229,-533,13461,106,50,207,96,35973,-53,30,127,0,0,3671,65,0,7915,-493,41,14089,-4,0,-22,0,152425,0
152451,387,-1970,141,-471,-256,-560,13481,23,-51,293,136,35989,-61,30,127,0,0,3676,76,0,7915,-493,41,14099,-4,0,-22,0,152441,0
152461,235,-1950,149,-498,-261,-660,13498,52,-58,397,208,36013,-47,30,127,0,0,3682,87,0,7915,-493,41,14109,-4,0,-22,0,152472,0
152471,214,-2037,149,-531,-252,-736,13535,71,41,282,176,36013,-43,30,127,0,0,3687,109,0,7915,-493,41,14119,-4,0,-22,0,152472,0
152481,102,-2109,207,-564,-203,-918,13568,85,29,295,88,35994,-38,30,127,0,0,3687,0,0,7915,-493,41,14129,-4,0,-22,0,152472,0
152491,104,-2135,217,-593,-197,-1038,13601,39,-1,44,24,35975,-41,30,127,0,0,3687,0,0,7915,-493,41,14139,-4,0,-22,0,152503,0
152501,118,-2139,278,-649,-200,-1294,13596,-9,-89,124,32,35980,-36,30,127,0,0,3682,-65,0,7915,-493,41,14149,-4,0,-22,0,152503,0
152511,17,-2133,261,-663,-136,-1509,13588,-34,-75,-118,-80,35981,-22,30,127,0,0,3671,-120,0,7915,-493,41,14159,-4,0,-22,0,152503,0
152521,19,-2160,235,-726,-85,-1683,13561,-71,-40,-355,-192,35977,-14,30,127,0,0,3656,-131,0,7915,-493,41,14169,-4,0,-22,0,152503,0
152531,196,-2214,244,-829,-16,-1678,13500,-180,-99,-325,-224,35966,-22,30,127,0,0,3643,-131,0,7915,-493,41,14179,-4,0,-22,0,152534,0
152541,388,-2412,344,-895,-136,-1649,13419,-166,-115,-130,-104,35977,-35,30,127,0,0,3645,0,0,7915,-493,41,14189,-4,0,-26,0,152534,0
152551,208,-2355,309,-836,-256,-1737,13396,8,68,49,-24,35978,-45,30,127,0,0,3645,-21,0,7915,-493,41,14199,-4,0,-26,0,152534,0
152561,100,-2341,157,-752,-320,-1827,13403,3,180,-48,32,35973,-46,30,127,0,0,3651,65,0,7915,-493,41,14209,-4,0,-25,0,152566,0
152571,171,-2377,230,-708,-289,-1967,13414,41,58,221,128,35982,-47,30,127,0,0,3665,98,0,7915,-493,41,14219,-4,0,-25,0,152566,0
152581,208,-2385,265,-683,-330,-2096,13463,130,81,244,144,35985,-41,30,127,0,0,3676,109,0,7915,-493,41,14229,-4,0,-25,0,152566,0
152591,251,-2361,239,-720,-388,-2155,13519,122,88,271,256,35998,-34,30,127,0,0,3693,197,0,7915,-493,41,14239,-4,0,-24,0,152597,0
152601,198,-2320,189,-706,-452,-2315,13588,176,34,328,288,35991,-40,30,127,0,0,3713,230,0,7915,-493,41,14249,-4,0,-24,0,152612,0
152611,183,-2303,159,-679,-516,-2429,13684,219,83,339,296,35989,-32,30,127,0,0,3733,208,0,7915,-493,41,14259,-4,0,-24,0,152612,0
152621,277,-2316,162,-625,-554,-2579,13784,223,63,348,352,35980,-24,30,127,0,0,3755,230,0,7915,-493,41,14269,-4,0,-23,0,152612,0
152631,332,-2279,162,-598,-614,-2621,13892,236,16,374,384,35972,-24,30,127,0,0,3781,274,0,7915,-493,41,14279,-4,0,-23,0,152628,0
152641,541,-2246,135,-631,-654,-2670,14008,265,38,376,464,35982,-22,30,127,0,0,3812,318,0,7915,-493,41,14289,-4,0,-22,0,152644,0
152651,613,-2141,141,-662,-658,-2678,14139,290,41,418,512,35978,-53,30,127,0,0,3840,329,0,7915,-493,41,14299,-4,0,-21,0,152644,0
152661,895,-2128,144,-673,-714,-2813,14283,309,49,388,544,35978,-49,30,127,0,0,3867,285,0,7915,-493,41,14309,-4,0,-21,0,152675,0
152671,815,-2114,215,-633,-764,-2812,14432,335,38,342,408,35988,-52,30,127,0,0,3884,175,0,7915,-493,41,14319,-4,0,-20,0,152675,0
152681,869,-1847,277,-530,-684,-2518,14572,296,-5,297,360,35996,-30,30,127,0,0,3900,186,0,7915,-493,41,14329,-4,0,-20,0,152675,0
152691,449,-1555,255,-405,-582,-2030,14689,237,-61,261,192,35989,-30,30,127,0,0,3904,21,0,7915,-493,41,14339,-4,0,-19,0,152675,0
152701,-80,-1189,417,-59,-401,-939,14755,104,-139,116,112,35970,-36,30,127,0,0,3908,54,0,7915,-493,41,14349,-4,0,-18,0,152690,0
152711,-49,-1007,284,181,-304,-377,14771,22,-202,257,136,35975,-74,30,127,0,0,3911,0,0,7915,-493,41,14359,-4,0,-18,0,152737,0
152721,-35,-960,372,460,-363,568,14794,48,-87,186,96,35981,-99,30,127,0,0,3911,-32,0,7915,-493,41,14369,-4,0,-16,0,152737,0
152731,-208,-987,350,676,-371,1206,14791,-44,-33,-58,-96,35983,-117,30,127,0,0,3893,-186,0,7915,-493,41,14379,-4,0,-15,0,152737,0
152741,-204,-1131,359,1002,-321,2225,14734,-164,-153,-374,-232,35977,-121,30,127,0,0,3871,-164,0,7915,-493,41,14389,-4,0,-14,0,152737,0
152751,-235,-1224,399,1165,-278,2881,14626,-258,-196,-278,-288,35971,-107,30,127,0,0,3843,-230,0,7915,-493,41,14399,-4,0,-13,0,152737,0
152761,-250,-1392,470,1378,-163,3731,14503,-271,-124,-278,-336,35981,-88,30,127,0,0,3816,-252,0,7915,-493,41,14409,-4,0,-11,0,152753,0
152771,-245,-1505,486,1490,-85,4260,14376,-289,-38,-299,-336,35995,-53,30,127,0,0,3790,-252,0,7915,-493,41,14419,-4,0,-9,0,152800,0
152781,-210,-1694,468,1652,51,4952,14251,-285,-2,-356,-408,35999,-44,30,127,0,0,3759,-274,0,7915,-493,41,14429,-4,0,-7,0,152800,0
152791,-205,-1783,446,1774,160,5332,14111,-300,-25,-337,-472,36000,-36,30,127,0,0,3733,-274,0,7915,-493,41,14439,-4,0,-5,0,152800,0
152801,-158,-1933,449,1943,312,5827,13972,-302,-24,-356,-464,35986,-46,30,127,0,0,3706,-252,0,7915,-493,41,14449,-4,0,-3,0,152800,0
152811,-155,-2058,481,2031,405,6085,13833,-308,8,-317,-424,35974,-64,30,127,0,0,3684,-252,0,7915,-493,41,14459,-4,0,-1,0,152800,0
152821,-210,-2198,541,2144,555,6355,13702,-281,13,-315,-392,35967,-66,30,127,0,0,3665,-186,0,7915,-493,41,14469,-4,0,1,0,152815,0
152831,-157,-2255,555,2225,653,6476,13579,-250,30,-294,-256,35977,-51,30,127,0,0,3651,-120,0,7915,-493,41,14479,-4,0,3,0,152831,0
152841,-116,-2266,500,2322,762,6613,13483,-207,68,-263,-192,35997,-27,30,127,0,0,3647,-43,0,7915,-493,41,14489,-4,0,6,0,152831,0
152851,-138,-2239,480,2378,809,6646,13416,-96,101,-127,-24,35998,-20,30,127,0,0,3647,0,0,7915,-493,41,14499,-4,0,8,0,152847,0
152861,-109,-2243,427,2428,851,6692,13406,21,168,-36,24,35992,-18,30,127,0,0,3647,0,0,7915,-493,41,14509,-4,0,11,0,152862,0
152871,-105,-2293,452,2430,882,6706,13412,0,149,-125,-24,35993,-44,30,127,0,0,3647,0,0,7915,-493,41,14519,-4,0,13,0,152862,0
152881,-171,-2376,467,2428,888,6684,13411,9,1,-57,-16,35993,-45,30,127,0,0,3647,0,0,7915,-493,41,14529,-4,0,16,0,152862,0
152891,-169,-2410,466,2398,846,6641,13410,-6,-4,-99,-16,35998,-50,30,127,0,0,3647,0,0,7915,-493,41,14539,-4,0,18,0,152956,0
152901,-96,-2442,439,2325,752,6531,13411,9,6,-56,-32,35990,-48,30,127,0,0,3647,-10,0,7915,-493,41,14549,-4,0,21,0,152956,0
152911,-87,-2421,411,2268,640,6438,13410,0,2,-63,-16,35992,-56,30,127,0,0,3647,-10,0,7915,-493,41,14559,-4,0,22,0,152956,0
152921,-68,-2320,382,2196,360,6244,13412,3,-1,4,-8,35997,-64,30,127,0,0,3647,-43,0,7915,-493,41,14569,-4,0,25,0,152972,0
152931,-29,-2249,364,2180,107,6077,13410,-18,0,-98,-16,35992,-70,30,127,0,0,3647,0,0,7915,-493,41,14579,-4,0,27,0,152972,0
152941,61,-2162,304,2196,-366,5770,13412,5,-4,-80,-24,35990,-57,30,127,0,0,3647,-21,0,7915,-493,41,14589,-4,0,29,0,152972,0
152951,99,-2116,293,2189,-711,5469,13409,-10,4,-114,0,35984,-50,30,127,0,0,3643,-43,0,7915,-493,41,14599,-4,0,30,0,152972,0
152961,41,-1978,286,2142,-1146,4805,13406,-21,-13,-303,-136,35986,-32,30,127,0,0,3623,-241,0,7915,-493,41,14609,-4,0,32,0,152972,0
152971,120,-1860,269,1958,-1339,4398,13366,-123,-80,-582,-352,35991,-24,30,127,0,0,3599,-252,0,7915,-493,41,14619,-4,0,33,0,152972,0
152981,27,-1955,373,1614,-1612,3926,13273,-230,-181,-504,-440,35992,-28,30,127,0,0,3574,-208,0,7915,-493,41,14629,-4,0,35,0,152987,0
152991,-41,-2077,366,1429,-1727,3488,13156,-253,-136,-453,-440,35997,-58,30,127,0,0,3552,-197,0,7915,-493,41,14639,-4,0,36,-12,152987,0
153001,-68,-2199,269,1245,-1732,2629,13038,-258,-35,-397,-424,36000,-72,30,127,0,0,3531,-241,0,7915,-493,41,14649,-4,0,37,-12,152987,0
153011,-98,-2207,227,1116,-1609,2058,12922,-268,-2,-462,-520,36022,-69,30,127,0,0,3493,-362,0,7915,-493,41,14659,-4,0,37,-13,153034,0
153021,-36,-2004,214,786,-1280,1325,12791,-292,-31,-517,-632,36015,-29,30,127,0,0,3458,-340,0,7915,-493,41,14669,-4,0,38,-13,153034,0
153031,106,-1922,202,571,-1043,919,12639,-344,-71,-463,-600,36007,-10,30,127,0,0,3432,-252,0,7915,-493,41,14679,-4,0,38,-14,153034,0
153041,146,-1824,104,303,-728,246,12483,-339,-47,-393,-504,35992,-13,30,127,0,0,3412,-186,0,7915,-493,41,14689,-4,0,38,-15,153050,0
153051,149,-1772,75,190,-485,-238,12341,-304,34,-404,-496,35988,-42,30,127,0,0,3383,-252,0,7915,-493,41,14699,-4,0,38,-15,153050,0
153061,205,-1717,48,7,-63,-844,12212,-268,55,-467,-456,35990,-58,30,127,0,0,3361,-208,0,7915,-493,41,14709,-4,0,38,-17,153050,0
153071,-614,-6295,-568,-446,92,-907,12081,-297,22,-394,-296,35991,-44,30,127,0,0,3394,439,0,7915,-493,41,14719,-4,0,38,-18,153144,0
153081,536,-4480,2685,6,2181,-1582,12056,201,227,1256,1816,35983,-19,30,127,0,0,3636,2548,0,7915,-493,41,14729,-4,0,38,-19,153144,0
153091,-249,-84,1157,1305,813,-2915,12442,1079,1107,1295,3048,35977,15,30,127,0,0,3788,1384,0,7915,-493,41,14739,-4,0,37,-19,153144,0
153101,-461,-2459,563,-111,790,-2791,13009,1258,1103,448,2848,35963,28,30,127,0,0,3869,823,0,7915,-493,41,14749,-4,0,36,-20,153144,0
153111,-658,-1634,442,470,889,-1917,13552,1170,199,398,3032,35955,29,30,127,0,0,3999,1296,0,7915,-493,41,14759,-4,0,36,-21,153144,0
153121,-1169,-1088,-567,-383,1184,-1617,14118,1283,-4,648,3432,35945,7,30,127,0,0,4166,1724,0,7915,-493,41,14769,-4,0,35,-22,153159,0
153131,-779,-2312,-735,-640,1496,-2078,14770,1512,242,781,4008,35951,2,30,127,0,0,4339,1768,0,7915,-493,41,14779,-4,0,34,-23,153159,0
153141,-324,-2761,-283,-359,829,-2818,15525,1708,378,595,4072,35955,19,30,127,0,0,4478,1307,0,7915,-493,41,14789,-4,0,34,-24,153159,0
153151,-138,-2718,-232,-289,154,-2929,16298,1669,205,377,3656,35954,36,30,127,0,0,4576,900,0,7915,-493,41,14799,-4,0,33,-25,153159,0
153161,57,-2323,52,-186,-707,-2737,16994,1470,-148,267,3184,35950,33,30,127,0,0,4658,812,0,7915,-493,41,14809,-4,0,32,-26,153159,0
153171,312,-2282,398,-247,-869,-2704,17594,1265,-341,333,2808,35971,4,30,127,0,0,4739,769,0,7915,-493,41,14819,-4,0,31,-27,153159,0
153181,535,-2027,805,-166,-729,-2901,18132,1140,-293,325,2384,35997,-21,30,127,0,0,4785,428,0,7915,-493,41,14829,-4,0,30,0,153190,0
153191,382,-2019,1068,-357,-514,-3112,18594,959,-262,180,1624,36015,-27,30,127,0,0,4790,0,0,7915,-493,41,14839,-4,0,29,0,153190,0
153201,400,-2015,1456,-511,-258,-2866,18953,709,-349,70,896,36000,-44,30,127,0,0,4787,-21,0,7915,-493,41,14849,-4,0,28,0,153190,0
153211,359,-1999,1404,-654,-169,-2877,19195,472,-434,128,304,35981,-55,30,127,0,0,4776,-131,0,7915,-493,41,14859,-4,0,27,0,153190,0
153221,35,-1946,1022,-753,-281,-2937,19328,200,-443,-169,-136,35983,-58,30,127,0,0,4746,-351,0,7915,-493,41,14869,-4,0,25,0,153237,0
153231,177,-2171,816,-656,82,-3202,19265,-232,-574,-466,-560,35995,-62,30,127,0,0,4693,-615,0,7915,-493,41,14879,-4,0,24,0,153237,0
153241,-27,-2092,544,-665,98,-3341,19096,-415,-538,-428,-960,35993,-51,30,127,0,0,4618,-758,0,7915,-493,41,14889,-4,0,23,0,153237,0
153251,94,-1840,519,-770,50,-3420,18861,-568,-315,-503,-1376,35978,-36,30,127,0,0,4532,-845,0,7915,-493,41,14899,-4,0,22,0,153237,0
153261,27,-1938,364,-793,-66,-3074,18562,-699,-251,-504,-1720,35964,-51,30,127,0,0,4438,-933,0,7915,-493,41,14909,-4,0,20,0,153253,0
153271,47,-1915,286,-737,-154,-2891,18205,-806,-237,-475,-1920,35976,-46,30,127,0,0,4357,-823,0,7915,-493,41,14919,-4,0,19,0,153284,0
153281,-89,-1889,291,-642,-133,-3001,17812,-877,-179,-411,-1984,35984,-41,30,127,0,0,4269,-889,0,7915,-493,41,14929,-4,0,17,0,153284,0
153291,-99,-1904,350,-611,-68,-3033,17403,-911,-97,-392,-2080,35977,-32,30,127,0,0,4183,-867,0,7915,-493,41,14939,-4,0,17,0,153300,0
153301,-5,-1898,472,-528,-9,-2978,16980,-941,-57,-375,-2168,35966,-21,30,127,0,0,4093,-955,0,7915,-493,41,14949,-4,0,17,0,153300,0
153311,227,-1899,607,-499,-17,-2851,16539,-971,-56,-348,-2176,35965,-31,30,127,0,0,4014,-791,0,7915,-493,41,14959,-4,0,17,0,153300,0
153321,449,-1863,659,-532,-79,-2656,16099,-962,-27,-301,-2104,35986,-16,30,127,0,0,3937,-736,0,7915,-493,41,14969,-4,0,17,0,153362,0
153331,501,-1847,640,-586,-98,-2496,15664,-950,17,-301,-2000,35996,-22,30,127,0,0,3860,-747,0,7915,-493,41,14979,-4,0,17,0,153362,0
153341,501,-1823,594,-616,-151,-2215,15248,-913,42,-339,-1928,35992,-28,30,127,0,0,3792,-670,0,7915,-493,41,14989,-4,0,17,0,153362,0
153351,446,-1868,481,-615,-203,-2003,14854,-854,66,-324,-1776,35980,-35,30,127,0,0,3730,-593,0,7915,-493,41,14999,-4,0,17,0,153362,0
153361,356,-1931,385,-557,-224,-1838,14484,-791,96,-330,-1680,35966,-45,30,127,0,0,3676,-538,0,7915,-493,41,15009,-4,0,17,0,153362,0
153371,295,-1956,394,-506,-211,-1804,14143,-735,105,-355,-1568,35957,-39,30,127,0,0,3625,-505,0,7915,-493,41,15019,-4,0,17,0,153362,0
153381,213,-2010,439,-469,-169,-1806,13824,-694,93,-360,-1496,35952,-53,30,127,0,0,3572,-494,0,7915,-493,41,15029,-4,0,17,0,153378,0
153391,243,-1999,489,-440,-140,-1805,13524,-649,74,-360,-1408,35962,-41,30,127,0,0,3522,-516,0,7915,-493,41,15039,-4,0,17,0,153409,0
153401,281,-2031,481,-445,-177,-1840,13238,-618,58,-374,-1392,35976,-45,30,127,0,0,3465,-538,0,7915,-493,41,15049,-4,0,17,0,153409,0
153411,277,-1996,479,-463,-206,-1869,12961,-603,47,-434,-1360,35976,-28,30,127,0,0,3410,-549,0,7915,-493,41,15059,-4,0,17,0,153409,0
153421,187,-1997,481,-525,-243,-1922,12684,-613,15,-432,-1408,35963,-21,30,127,0,0,3357,-560,0,7915,-493,41,15069,-4,0,17,0,153409,0
153431,165,-1945,489,-591,-237,-1993,12401,-615,-10,-450,-1408,35958,-41,30,127,0,0,3298,-571,0,7915,-493,41,15079,-4,0,17,0,153409,0
153441,149,-1962,478,-630,-231,-2127,12109,-637,-21,-472,-1464,35968,-50,30,127,0,0,3234,-659,0,7915,-493,41,15089,-4,0,17,0,153503,0
153451,222,-1958,490,-625,-211,-2202,11810,-667,-29,-511,-1560,35979,-36,30,127,0,0,3172,-626,0,7915,-493,41,15099,-4,0,17,0,153503,0
153461,327,-1953,533,-625,-235,-2302,11497,-697,-43,-481,-1552,35975,-30,30,127,0,0,3106,-670,0,7915,-493,41,15109,-4,0,17,0,153503,0
153471,475,-1977,576,-643,-262,-2362,11182,-706,-29,-474,-1592,35966,-11,30,127,0,0,3034,-703,0,7915,-493,41,15119,-4,0,17,0,153503,0
153481,551,-2045,619,-646,-328,-2367,10859,-709,-27,-481,-1576,35959,-24,30,127,0,0,2970,-681,0,7915,-493,41,15129,-4,0,17,0,153503,0
153491,574,-2070,630,-630,-393,-2296,10536,-707,-11,-457,-1512,35960,-30,30,127,0,0,2913,-571,0,7915,-493,41,15139,-4,0,17,0,153503,0
153501,639,-1998,537,-668,-515,-2190,10226,-672,32,-458,-1408,35957,-14,30,127,0,0,2863,-483,0,7915,-493,41,15149,-4,0,17,0,153503,0
153511,591,-1890,426,-636,-603,-2173,9943,-609,71,-439,-1304,35956,-40,30,127,0,0,2819,-483,0,7915,-493,41,15159,-4,0,17,0,153503,0
153521,600,-1910,255,-576,-664,-2142,9678,-584,84,-461,-1224,35969,-38,30,127,0,0,2770,-439,0,7915,-493,41,15169,-4,0,17,0,153518,0
153531,625,-1810,268,-516,-773,-2139,9423,-553,49,-446,-1136,35990,-41,30,127,0,0,2726,-428,0,7915,-493,41,15179,-4,0,17,0,153518,0
153541,657,-1937,269,-512,-753,-2088,9186,-502,51,-427,-1008,36003,-37,30,127,0,0,2687,-384,0,7915,-493,41,15189,-4,0,17,0,153597,0
153551,692,-1978,270,-474,-831,-2052,8965,-473,77,-431,-952,36013,-35,30,127,0,0,2647,-384,0,7915,-493,41,15199,-4,0,17,0,153597,0
153561,705,-2198,290,-504,-790,-2010,8756,-457,50,-415,-880,36002,-38,30,127,0,0,2610,-362,0,7915,-493,41,15209,-4,0,17,0,153597,0
153571,650,-2160,397,-607,-728,-1902,8553,-436,33,-411,-784,35985,-51,30,127,0,0,2586,-230,0,7915,-493,41,15219,-4,0,17,0,153597,0
153581,643,-1943,330,-671,-665,-1890,8376,-382,70,-419,-656,35967,-57,30,127,0,0,2559,-230,0,7915,-493,41,15229,-4,0,17,0,153597,0
153591,666,-1906,205,-647,-669,-1894,8211,-337,72,-370,-512,35960,-73,30,127,0,0,2540,-219,0,7915,-493,41,15239,-4,0,17,0,153597,0
153601,738,-1964,226,-590,-676,-1864,8069,-284,71,-361,-368,35963,-58,30,127,0,0,2520,-219,0,7915,-493,41,15249,-4,0,17,0,153597,0
153611,817,-1971,301,-617,-692,-1801,7950,-263,84,-392,-352,35971,-36,30,127,0,0,2509,-131,0,7915,-493,41,15259,-4,0,17,0,153597,0
153621,774,-1922,360,-681,-759,-1781,7850,-200,73,-364,-272,35987,-22,30,127,0,0,2496,-109,0,7915,-493,41,15269,-4,0,17,0,153612,0
153631,754,-1894,324,-708,-760,-1787,7776,-149,84,-313,-168,35998,-35,30,127,0,0,2489,-76,0,7915,-493,41,15279,-4,0,17,0,153628,0
153641,779,-1809,328,-732,-768,-1791,7736,-58,111,-378,-128,36009,-68,30,127,0,0,2478,-109,0,7915,-493,41,15289,-4,0,17,0,153643,0
153651,910,-1776,324,-825,-852,-1743,7718,-49,115,-559,-144,36004,-96,30,127,0,0,2476,-43,0,7915,-493,41,15299,-4,0,17,0,153643,0
153661,927,-1924,261,-1003,-981,-1678,7684,-71,3,-373,-112,35989,-102,30,127,0,0,2474,-21,0,7915,-493,41,15309,-4,0,17,0,153643,0
153671,735,-1959,183,-1087,-972,-1709,7678,11,23,-395,-88,35984,-99,30,127,0,0,2476,21,0,7915,-493,41,15319,-4,0,17,0,153690,0
153681,457,-2176,202,-1142,-921,-1846,7680,-10,70,-403,-64,35982,-101,30,127,0,0,2476,32,0,7915,-493,41,15329,-4,0,17,0,153690,0
153691,224,-2395,239,-1135,-872,-1917,7681,-3,7,-379,-32,35991,-101,30,127,0,0,2482,98,0,7915,-493,41,15339,-4,0,17,0,153690,0
153701,356,-2443,362,-1110,-720,-2098,7692,43,23,-110,40,35980,-89,30,127,0,0,2500,153,0,7915,-493,41,15349,-4,0,17,0,153706,0
153711,384,-2302,377,-1069,-701,-2278,7724,88,60,243,176,35973,-80,30,127,0,0,2515,153,0,7915,-493,41,15359,-4,0,17,0,153706,0
153721,545,-2169,451,-1071,-803,-2512,7796,169,120,233,208,35968,-81,30,127,0,0,2535,197,0,7915,-493,41,15369,-4,0,0,0,153706,0
153731,563,-2130,495,-1094,-878,-2597,7876,168,87,287,232,35980,-80,30,127,0,0,2551,142,0,7915,-493,41,15379,-4,0,0,0,153737,0
153741,653,-2158,490,-1189,-1013,-2610,7964,207,15,266,232,35996,-78,30,127,0,0,2579,241,0,7915,-493,41,15389,-4,0,1,0,153737,0
153751,468,-2039,534,-1192,-1219,-2597,8054,206,21,382,376,35992,-60,30,127,0,0,2614,351,0,7915,-493,41,15399,-4,0,1,0,153737,0
153761,624,-2138,135,-1430,-1199,-2404,8180,312,66,408,568,35981,-46,30,127,0,0,2676,659,0,7915,-493,41,15409,-4,0,3,0,153768,0
153771,812,-2033,285,-1454,-978,-3023,8350,404,157,493,848,35982,-34,30,127,0,0,2724,417,0,7915,-493,41,15419,-4,0,4,0,153768,0
153781,-323,-2288,276,-1466,-1292,-2507,8551,444,145,342,824,35994,-31,30,127,0,0,2779,582,0,7915,-493,41,15429,-4,0,5,0,153768,0
153791,663,-2736,386,-1654,-1280,-2674,8763,499,69,498,1248,35995,-44,30,127,0,0,2871,933,0,7915,-493,41,15439,-4,0,6,0,153784,0
153801,107,-2911,393,-1575,-1186,-3101,9033,629,136,532,1480,35972,-40,30,127,0,0,2948,823,0,7915,-493,41,15449,-4,0,9,0,153878,0
153811,308,-2806,227,-1636,-1294,-3075,9342,705,195,514,1832,35981,-38,30,127,0,0,3062,1208,0,7915,-493,41,15459,-4,0,10,0,153878,0
153821,-64,-2480,276,-1435,-1357,-3094,9719,889,202,687,2280,35983,-29,30,127,0,0,3192,1329,0,7915,-493,41,15469,-4,0,13,0,153878,0
153831,167,-2601,63,-1418,-1390,-3228,10189,1111,313,751,2888,35980,-22,30,127,0,0,3337,1417,0,7915,-493,41,15479,-4,0,15,0,153893,0
153841,-225,-3182,109,-1416,-1206,-3642,10761,1318,386,645,3240,35959,-12,30,127,0,0,3480,1439,0,7915,-493,41,15489,-4,0,18,0,153893,0
153851,-246,-3269,166,-1376,-1166,-3865,11400,1432,328,582,3472,35951,3,30,127,0,0,3629,1527,0,7915,-493,41,15499,-4,0,21,0,153893,0
153861,60,-3156,337,-1416,-1176,-4515,12078,1518,196,595,3808,35954,6,30,127,0,0,3788,1560,0,7915,-493,41,15509,-4,0,25,0,153893,0
153871,290,-3660,587,-1460,-1154,-4849,12790,1576,149,546,3912,35956,7,30,127,0,0,3924,1384,0,7915,-493,41,15519,-4,0,28,0,153893,0
153881,513,-3781,1004,-1560,-1091,-5136,13508,1586,76,472,3840,35953,13,30,127,0,0,4056,1252,0,7915,-493,41,15529,-4,0,32,0,153893,0
153891,636,-3407,1092,-1737,-1347,-5177,14214,1546,-12,406,3728,35950,15,30,127,0,0,4187,1329,0,7915,-493,41,15539,-4,0,36,0,153893,0
153901,944,-3078,1064,-1948,-1687,-4744,14920,1557,-21,463,3808,35954,2,30,127,0,0,4322,1362,0,7915,-493,41,15549,-4,0,41,0,153893,0
153911,845,-2979,916,-1980,-1831,-4235,15634,1584,10,562,3840,35964,-2,30,127,0,0,4475,1505,0,7915,-493,41,15559,-4,0,45,0,153893,0
153921,446,-2289,719,-1914,-1934,-3161,16294,1625,57,775,4104,35973,4,30,127,0,0,4649,1746,0,7915,-493,41,15569,-4,0,51,0,153909,0
153931,174,-1737,814,-1714,-2027,-2322,17072,1740,131,927,4584,35972,34,30,127,0,0,4844,2010,0,7915,-493,41,15579,-4,0,56,0,153940,0
153941,513,-756,749,-1221,-1573,-1259,17923,1930,234,1038,5168,35960,59,30,127,0,0,5060,2142,0,7915,-493,41,15589,-4,0,63,0,153940,0
153951,1676,-887,-227,-1300,-275,-1879,18879,2156,356,701,4960,35957,86,30,127,0,0,5167,856,0,7915,-493,41,15599,-4,0,68,0,153940,0
153961,1280,-686,-250,-1311,1096,-2187,19800,1927,111,-11,3000,35950,68,30,127,0,0,5117,-637,0,7915,-493,41,15609,-4,0,75,0,153940,0
153971,875,-588,-21,-924,1585,-2036,20481,1270,-598,-767,304,35959,15,30,127,0,0,4968,-1571,0,7915,-493,41,15619,-4,0,79,0,153971,0
153981,1011,-645,-77,-589,1717,-1024,20586,-362,-1680,-2532,-1728,35980,-34,30,127,0,0,4794,-1724,0,7915,-493,41,15629,-4,0,86,0,153987,0
153991,460,-672,171,-381,1533,-356,20225,-948,-2086,-951,-2856,35989,-28,30,127,0,0,4636,-1571,0,7915,-493,41,15639,-4,0,90,54,153987,0
154001,515,-790,167,-163,1257,745,19678,-1286,-1098,-612,-3192,35978,-6,30,127,0,0,4510,-1197,0,7915,-493,41,15649,-4,0,96,49,153987,0
154011,575,-865,164,-16,1189,1366,19060,-1364,-450,-306,-3080,35967,13,30,127,0,0,4405,-1043,0,7915,-493,41,15659,-4,0,101,46,154003,0
154021,771,-914,125,217,1267,2166,18450,-1312,-85,-226,-2856,35977,-23,30,127,0,0,4315,-867,0,7915,-493,41,15669,-4,0,107,42,154018,0
154031,843,-832,38,337,1424,2639,17879,-1232,103,-182,-2632,35983,-42,30,127,0,0,4223,-922,0,7915,-493,41,15679,-4,0,111,39,154018,0
154041,901,-763,32,498,1626,3349,17344,-1154,142,-225,-2576,35996,-46,30,127,0,0,4122,-1010,0,7915,-493,41,15689,-4,0,118,35,154034,0
154051,951,-727,1,617,1693,3816,16825,-1147,92,-288,-2608,35988,-34,30,127,0,0,4014,-1131,0,7915,-493,41,15699,-4,0,122,32,154050,0
154061,971,-772,-56,749,1736,4487,16302,-1172,3,-396,-2680,35983,-15,30,127,0,0,3906,-1087,0,7915,-493,41,15709,-4,0,128,28,154050,0
154071,918,-811,-53,825,1751,4902,15759,-1207,-56,-453,-2856,35974,-11,30,127,0,0,3781,-1186,0,7915,-493,41,15719,-4,0,132,25,154081,0
154081,861,-886,9,887,1667,5607,15190,-1270,-84,-469,-2968,35974,-30,30,127,0,0,3669,-1153,0,7915,-493,41,15729,-4,0,139,22,154081,0
154091,822,-997,103,950,1580,6072,14615,-1272,-60,-481,-2944,35972,-33,30,127,0,0,3568,-988,0,7915,-493,41,15739,-4,0,143,20,154081,0
154101,814,-1217,136,1108,1414,6763,14054,-1221,15,-364,-2768,35966,-19,30,127,0,0,3482,-856,0,7915,-493,41,15749,-4,0,149,16,154081,0
154111,863,-1303,195,1213,1381,7175,13532,-1115,111,-276,-2440,35969,-20,30,127,0,0,3416,-626,0,7915,-493,41,15759,-4,0,153,14,154112,0
154121,881,-1395,250,1332,1295,7700,13059,-993,176,-209,-2112,35991,-37,30,127,0,0,3364,-516,0,7915,-493,41,15769,-4,0,159,11,154112,0
154131,862,-1439,232,1404,1165,8001,12644,-880,210,-221,-1792,35992,-39,30,127,0,0,3322,-384,0,7915,-493,41,15779,-4,0,163,9,154128,0
154141,829,-1589,218,1506,874,8385,12281,-759,208,-200,-1312,35993,-45,30,127,0,0,3293,-241,0,7915,-493,41,15789,-4,0,169,7,154143,0
154151,842,-1738,180,1609,681,8599,11979,-618,217,-183,-864,35983,-42,30,127,0,0,3289,-32,0,7915,-493,41,15799,-4,0,173,5,154143,0
154161,857,-1882,217,1842,518,8691,11744,-469,245,-139,-384,35989,-34,30,127,0,0,3289,-10,0,7915,-493,41,15809,-4,0,179,3,154143,0
154171,886,-1935,260,1983,389,8737,11595,-256,298,-47,-64,36003,-53,30,127,0,0,3293,21,0,7915,-493,41,15819,-4,0,183,2,154284,0
154181,915,-2054,306,2136,212,8950,11557,5,388,94,48,36002,-51,30,127,0,0,3295,54,0,7915,-493,41,15829,-4,0,189,0,154284,0
154191,1103,-2166,301,2221,196,9216,11588,88,343,148,192,36001,-67,30,127,0,0,3320,241,0,7915,-493,41,15839,-4,0,193,0,154284,0
154201,874,-2208,237,2433,331,9453,11657,189,183,379,352,35987,-58,30,127,0,0,3355,340,0,7915,-493,41,15849,-4,0,199,-1,154315,0
154211,752,-2200,173,2563,448,9456,11784,303,185,401,464,35977,-72,30,127,0,0,3388,296,0,7915,-493,41,15859,-4,0,202,-2,154331,0
154221,606,-2199,142,2757,674,9301,11940,358,120,301,440,35969,-74,30,127,0,0,3412,208,0,7915,-493,41,15869,-4,0,207,-3,154331,0
154231,622,-2242,160,2827,791,9253,12089,330,18,255,312,35967,-64,30,127,0,0,3427,164,0,7915,-493,41,15879,-4,0,211,-4,154331,0
154241,712,-2311,214,2887,889,9325,12216,251,-18,225,264,35970,-56,30,127,0,0,3449,208,0,7915,-493,41,15889,-4,0,216,-5,154331,0
154251,713,-2346,258,2906,866,9359,12330,249,-74,260,296,35978,-41,30,127,0,0,3471,197,0,7915,-493,41,15899,-4,0,219,-5,154331,0
154261,696,-2427,279,2877,721,9316,12433,221,-47,296,296,35972,-38,30,127,0,0,3493,197,0,7915,-493,41,15909,-4,0,224,-5,154331,0
154271,639,-2513,284,2851,564,9274,12537,225,-16,296,272,35966,-58,30,127,0,0,3511,164,0,7915,-493,41,15919,-4,0,227,-6,154346,0
154281,585,-2621,257,2764,260,9164,12631,200,-20,278,248,35963,-73,30,127,0,0,3522,120,0,7915,-493,41,15929,-4,0,231,-6,154346,0
154291,525,-2701,224,2718,-7,9060,12714,186,-35,238,224,35975,-73,30,127,0,0,3541,131,0,7915,-493,41,15939,-4,0,234,-6,154346,0
154301,414,-2772,189,2688,-514,8768,12790,168,-32,350,304,35974,-66,30,127,0,0,3570,285,0,7915,-493,41,15949,-4,0,237,-6,154346,0
154311,387,-2802,145,2715,-919,8369,12893,266,35,389,384,35976,-51,30,127,0,0,3603,329,0,7915,-493,41,15959,-4,0,239,-6,154346,0
154321,329,-2786,105,2727,-1453,7469,13021,287,106,391,456,35974,-29,30,127,0,0,3627,241,0,7915,-493,41,15969,-4,0,242,-6,154346,0
154331,123,-2730,86,2638,-1728,6768,13165,323,81,320,424,35980,-25,30,127,0,0,3649,186,0,7915,-493,41,15979,-4,0,244,-6,154346,0
154341,-46,-2719,15,2249,-1913,5568,13315,327,45,243,352,35986,-28,30,127,0,0,3676,241,0,7915,-493,41,15989,-4,0,245,-6,154346,0
154351,-87,-2759,-46,1904,-1843,4652,13455,316,-5,294,480,35991,-53,30,127,0,0,3708,340,0,7915,-493,41,15999,-4,0,246,-6,154346,0
154361,-88,-2724,-152,1341,-1456,3065,13601,334,-8,327,528,36000,-61,30,127,0,0,3741,329,0,7915,-493,41,16009,-4,0,247,-6,154346,0
154371,-34,-2598,-257,889,-1111,1985,13765,361,47,270,520,36017,-54,30,127,0,0,3766,263,0,7915,-493,41,16019,-4,0,247,-6,154409,0
154381,48,-2485,-237,186,-416,403,13925,340,22,227,328,36018,-42,30,127,0,0,3779,131,0,7915,-493,41,16029,-4,0,247,-6,154409,0
154391,62,-2517,-173,-270,68,-572,14064,283,-51,91,112,35999,-38,30,127,0,0,3779,-32,0,7915,-493,41,16039,-4,0,247,-6,154424,0
154401,236,-2511,42,-824,670,-1765,14118,32,-193,-148,16,35970,-62,30,127,0,0,3779,-21,0,7915,-493,41,16049,-4,0,247,-6,154424,0
154411,328,-2442,177,-1051,906,-2465,14097,-47,-329,123,40,35959,-78,30,127,0,0,3779,-10,0,7915,-493,41,16059,-4,0,247,-6,154424,0
154421,511,-2261,257,-1213,1063,-3342,14098,5,-92,24,16,35968,-89,30,127,0,0,3777,-32,0,7915,-493,41,16069,-4,0,247,-6,154424,0
154431,576,-2111,281,-1225,1108,-3772,14095,-1,43,21,24,35973,-77,30,127,0,0,3777,-32,0,7915,-493,41,16079,-4,0,247,-6,154424,0
154441,580,-1920,280,-1157,1145,-4231,14094,-1,2,-31,16,35967,-66,30,127,0,0,3777,10,0,2620,489,42,1,1,1,247,-6,154424,0
154451,-178,-2989,120,-1107,1213,-4302,14117,117,31,687,728,35965,-63,30,127,0,0,3772,-43,0,2620,489,42,11,1,1,247,-6,154456,0
154461,-1759,-4230,1795,-395,1686,-1075,14288,491,329,1219,2144,35963,-53,30,127,0,0,3871,1120,0,2620,489,42,21,1,1,247,-6,154456,0
154471,-1545,-2055,1636,452,1498,-1180,14728,1174,793,1460,3480,35959,-12,30,127,0,0,3979,1010,0,2620,489,42,31,1,1,247,-6,154471,0
154481,-1019,-820,458,578,-68,-780,15403,1605,983,1144,4496,35942,39,30,127,0,0,4128,1582,0,2620,489,42,41,1,1,247,-6,154471,0
154491,-137,-1680,-185,181,-13,-1071,16288,2073,838,1241,5600,35936,75,30,127,0,0,4293,1680,0,2620,489,42,51,1,1,247,-6,154487,0
154501,-954,-2074,113,111,-187,-1884,17348,2423,740,1117,6184,35936,104,30,127,0,0,4436,1340,0,2620,489,42,61,1,1,247,-6,154487,0
154511,-1056,-2245,269,366,-262,-1987,18495,2544,497,734,6312,35932,112,30,127,0,0,4557,1153,0,2620,489,42,71,1,1,247,-6,154503,0
154521,-626,-1146,115,139,-138,-1970,19661,2550,201,530,6136,35929,116,30,127,0,0,4658,1021,0,2620,489,42,81,1,1,247,-6,154518,0
154531,-304,-954,-150,-461,123,-1795,20752,2314,-92,264,5192,35932,76,30,127,0,0,4768,1120,0,2620,489,42,91,1,1,247,-6,154518,0
154541,-165,-2232,-175,-541,494,-1956,21699,1982,-430,179,4480,35947,12,30,127,0,0,4875,1043,0,2620,489,42,101,1,1,247,-6,154534,0
154551,-147,-2360,-353,-325,461,-2395,22529,1765,-509,222,3856,35971,-19,30,127,0,0,4950,725,0,2620,489,42,111,1,1,247,-6,154565,0
154561,-348,-2460,380,-54,305,-2838,23261,1534,-403,90,2896,35967,-32,30,127,0,0,4983,307,0,2620,489,42,121,1,1,247,-6,154565,0
154571,-387,-2360,677,-4,12,-2889,23860,1221,-435,-28,1840,35973,-36,30,127,0,0,4989,65,0,2620,489,42,131,1,1,247,-6,154581,0
154581,-358,-2191,777,-146,-453,-2778,24302,869,-556,-50,1008,35967,-50,30,127,0,0,5000,87,0,2620,489,42,141,1,1,247,-6,154581,0
154591,-316,-2165,903,-151,-625,-2816,24605,578,-572,10,472,35974,-49,30,127,0,0,5003,0,0,2620,489,42,151,1,1,247,-6,154581,0
154601,-282,-1815,920,-163,-717,-2778,24789,324,-485,-7,80,35976,-53,30,127,0,0,5000,-21,0,2620,489,42,161,1,1,247,-6,154596,0
154611,-445,-1891,907,-165,-498,-2939,24831,-20,-500,-214,-152,35987,-65,30,127,0,0,4981,-219,0,2620,489,42,171,1,1,247,-6,154596,0
154621,-388,-1640,648,-284,-175,-3101,24755,-193,-511,-272,-264,35984,-75,30,127,0,0,4957,-285,0,2620,489,42,181,1,1,247,-6,154628,0
154631,-242,-1671,624,-371,36,-3065,24645,-255,-279,-347,-400,35993,-78,30,127,0,0,4926,-285,0,2620,489,42,191,1,1,247,-6,154628,0
154641,-80,-1844,506,-411,59,-2957,24512,-314,-105,-383,-512,35986,-54,30,127,0,0,4891,-340,0,2620,489,42,201,1,1,247,-6,154628,0
154651,554,-2586,540,-400,84,-3125,24403,-160,-14,199,88,35971,-27,30,127,0,0,4840,-582,700,2620,489,42,211,1,1,247,-6,154643,0
154661,-603,-1789,439,-386,-2,-2843,24436,118,337,416,224,35977,-27,30,127,0,0,4772,-681,900,2620,489,42,221,1,1,247,-6,154659,0
154671,1336,-2637,668,-459,-165,-1972,24419,-113,193,610,64,35985,-46,30,127,0,0,4763,-120,1100,2620,489,42,231,1,1,247,-6,154659,0
154681,442,-2186,532,-499,-698,-1916,24245,-497,-396,611,-224,35998,-62,30,127,0,0,4735,-296,1300,2620,489,42,241,1,1,247,-6,154659,0
154691,-258,-2050,289,-439,-286,-2268,23870,-965,-699,512,-872,35996,-65,30,127,0,0,4677,-637,1500,2620,489,42,251,1,1,247,-6,154706,0
154701,-784,-1972,170,-217,404,-2794,23359,-1170,-669,714,-1064,35996,-78,30,127,0,0,4590,-878,1500,2620,489,42,261,1,1,247,-6,154706,0
154711,-427,-1947,433,-157,613,-2730,22842,-1107,-270,826,-832,35998,-112,30,127,0,0,4495,-933,1500,2620,489,42,271,1,1,247,-6,154721,0
154721,-11,-1967,622,-180,204,-2377,22403,-885,140,864,-248,36003,-131,30,127,0,0,4405,-867,1500,2620,489,42,281,1,1,247,-6,154721,0
154731,161,-1949,471,-252,-2,-2020,22110,-529,428,1155,96,35991,-118,30,127,0,0,4343,-604,1500,2620,489,42,291,1,1,247,-6,154721,0
154741,448,-1979,552,-264,-289,-1550,21941,-357,540,1016,-16,35989,-92,30,127,0,0,4313,-307,1500,2620,489,42,301,1,1,247,-6,154753,0
154751,240,-1990,606,-222,-373,-1554,21728,-536,149,804,-176,35985,-83,30,127,0,0,4273,-406,1500,2620,489,42,311,1,1,247,-6,154753,0
154761,-114,-1967,637,-213,84,-1854,21419,-746,-288,681,-336,35987,-74,30,127,0,0,4214,-615,1500,2620,489,42,321,1,1,247,-6,154753,0
154771,-158,-1877,657,-224,291,-1939,21064,-776,-278,778,-240,35987,-69,30,127,0,0,4148,-692,1500,2620,489,42,331,1,1,247,-6,154753,0
154781,162,-1912,719,-271,112,-1689,20758,-619,8,961,-40,35990,-68,30,127,0,0,4086,-549,1500,2620,489,42,341,1,1,247,-6,154784,0
154791,255,-1939,607,-291,-98,-1368,20547,-394,283,1081,40,35995,-69,30,127,0,0,4047,-373,1500,2620,489,42,351,1,1,247,-6,154784,0
154801,265,-1952,505,-302,-268,-1166,20397,-319,310,915,24,35989,-70,30,127,0,0,4016,-285,1500,2620,489,42,361,1,1,247,-6,154784,0
154811,164,-1957,520,-300,-234,-1240,20229,-405,79,872,-40,35992,-72,30,127,0,0,3988,-307,1500,2620,489,42,371,1,1,247,-6,154815,0
154821,29,-1916,521,-319,-28,-1396,19999,-553,-155,774,-160,36000,-79,30,127,0,0,3944,-472,1500,2620,489,42,381,1,1,247,-6,154815,0
154831,-47,-1933,508,-327,56,-1465,19719,-630,-217,757,-152,36000,-70,30,127,0,0,3895,-538,1500,2620,489,42,391,1,1,247,-6,154815,0
154841,30,-1981,452,-327,2,-1382,19468,-498,-47,987,16,36001,-84,30,127,0,0,3845,-483,1500,2620,489,42,401,1,1,247,-6,154877,0
154851,276,-1996,421,-346,-128,-1194,19307,-321,237,987,56,35993,-88,30,127,0,0,3816,-318,1500,2620,489,42,411,1,1,247,-6,154877,0
154861,276,-1973,473,-319,-248,-1122,19160,-341,210,881,8,35988,-92,30,127,0,0,3785,-274,1500,2620,489,42,421,1,1,247,-6,154877,0
154871,16,-1952,472,-299,-239,-1226,18973,-415,-53,861,-16,35987,-71,30,127,0,0,3755,-318,1500,2620,489,42,431,1,1,247,-6,154877,0
154881,-71,-1949,536,-323,-64,-1487,18743,-549,-157,798,-80,35976,-56,30,127,0,0,3708,-450,1500,2620,489,42,441,1,1,247,-6,154877,0
154891,-81,-1961,531,-378,5,-1625,18480,-590,-157,819,-112,35982,-72,30,127,0,0,3660,-549,1560,2620,489,42,451,1,1,247,-6,154877,0
154901,-194,-1992,456,-440,-97,-1716,18208,-575,-75,938,-72,35994,-75,30,127,0,0,3610,-505,1720,2620,489,42,461,1,1,247,-6,154893,0
154911,-38,-1977,384,-507,-216,-1717,17978,-470,60,1159,-32,36008,-86,30,127,0,0,3561,-450,1890,2620,489,42,471,1,1,247,-6,154971,0
154921,-10,-2004,604,-555,-399,-1811,17783,-487,112,1162,-40,36015,-91,30,127,0,0,3522,-450,2070,2620,489,42,481,1,1,247,-6,154971,0
154931,-2,-1951,589,-616,-419,-1980,17535,-590,-43,1203,-88,36016,-99,30,127,0,0,3476,-483,2280,2620,489,42,491,1,1,247,-6,154971,0
154941,-251,-1943,614,-686,-236,-2361,17213,-762,-219,1270,-192,36002,-91,30,127,0,0,3414,-659,2500,2620,489,42,501,1,1,247,-6,154971,0
154951,-167,-1946,588,-734,-153,-2608,16830,-881,-266,1390,-280,35986,-82,30,127,0,0,3346,-692,2610,2620,489,42,511,1,1,247,-6,154971,0
154961,30,-1935,588,-802,-152,-2827,16411,-936,-182,1535,-288,35988,-78,30,127,0,0,3262,-834,2720,2620,489,42,521,1,1,247,-6,154971,0
154971,210,-1939,607,-849,-246,-2926,15973,-972,-98,1623,-344,35995,-116,30,127,0,0,3177,-856,2820,2620,489,42,531,1,1,247,-6,154971,0
154981,265,-1927,623,-933,-313,-3038,15527,-988,-49,1683,-320,36000,-122,30,127,0,0,3089,-933,2930,2620,489,42,541,1,1,247,-6,154971,0
154991,206,-1956,541,-978,-337,-3057,15081,-969,-12,1798,-272,35999,-137,30,127,0,0,2997,-900,3030,2620,489,42,551,1,1,247,-6,154987,0
155001,444,-1963,485,-999,-389,-3048,14659,-910,58,1891,-216,35997,-117,30,127,0,0,2917,-769,3120,2620,489,42,561,1,1,247,-6,155018,0
155011,492,-1936,427,-959,-445,-3019,14258,-873,82,1907,-200,36005,-132,30,127,0,0,2843,-714,3210,2620,489,42,571,1,1,247,-6,155018,0
155021,399,-1917,377,-941,-478,-3018,13868,-851,61,1974,-168,36011,-137,30,127,0,0,2768,-736,3290,2620,489,42,581,1,1,247,-6,155018,0
155031,452,-1908,369,-910,-472,-3028,13488,-825,44,2030,-160,36007,-135,30,127,0,0,2696,-692,3370,2620,489,42,591,1,1,247,-6,155018,0
155041,676,-1998,444,-848,-446,-2983,13115,-816,31,2065,-152,35996,-127,30,127,0,0,2625,-714,3430,2620,489,42,601,1,1,247,-6,155049,0
155051,799,-2069,478,-812,-493,-2864,12751,-785,34,2154,-88,35998,-117,30,127,0,0,2557,-681,3500,2620,489,42,611,1,1,247,-6,155049,0
155061,755,-2035,372,-785,-646,-2668,12431,-661,110,2267,-16,35998,-107,30,127,0,0,2496,-626,3550,2620,489,42,621,1,1,247,-6,155049,0
155071,689,-2079,289,-744,-705,-2481,12188,-468,244,2402,80,35997,-103,30,127,0,0,2454,-439,3600,2620,489,42,631,1,1,247,-6,155081,0
155081,994,-2009,212,-692,-817,-2233,12021,-350,296,2273,136,36000,-65,30,127,0,0,2423,-296,3650,2620,489,42,641,1,1,247,-6,155081,0
155091,938,-1876,158,-616,-856,-2155,11868,-333,154,2269,152,35995,-39,30,127,0,0,2397,-252,3700,2620,489,42,651,1,1,247,-6,155081,0
155101,772,-1994,129,-778,-897,-1961,11738,-256,69,2309,216,35999,-38,30,127,0,0,2373,-175,3760,2620,489,42,661,1,1,247,-6,155112,0
155111,739,-2249,74,-750,-841,-1867,11654,-144,144,2273,456,36005,-66,30,127,0,0,2357,-131,3800,2620,489,42,671,1,1,247,-6,155112,0
155121,685,-2156,-83,-758,-712,-1697,11653,42,258,2240,800,35989,-81,30,127,0,0,2357,43,3860,2620,489,42,681,1,1,247,-6,155112,0
155131,657,-2029,-59,-727,-641,-1715,11673,34,184,2430,768,35978,-67,30,127,0,0,2362,65,3920,2620,489,42,691,1,1,247,-6,155127,0
155141,590,-2061,108,-757,-606,-1786,11690,45,14,2446,792,35956,-46,30,127,0,0,2364,32,3980,2620,489,42,701,1,1,247,-6,155159,0
155151,750,-2323,260,-816,-626,-1790,11734,110,58,2444,888,35968,-44,30,127,0,0,2373,76,4040,2620,489,42,711,1,1,247,-6,155159,0
155161,591,-2238,473,-793,-622,-1845,11790,152,81,2409,1136,35961,-56,30,127,0,0,2386,131,4110,2620,489,42,721,1,1,247,-6,155159,0
155171,597,-2268,501,-857,-720,-1819,11903,300,140,2453,1576,35956,-38,30,127,0,0,2408,252,4180,2620,489,42,731,1,1,247,-6,155174,0
155181,663,-2332,665,-921,-837,-1743,12088,458,254,2545,1856,35945,-13,30,127,0,0,2441,351,4270,2620,489,42,741,1,1,247,-6,155174,0
155191,501,-2218,725,-925,-983,-1636,12337,585,260,2613,2264,35952,38,30,127,0,0,2489,494,4360,2620,489,42,751,1,1,247,-6,155174,0
155201,802,-2190,476,-1055,-1168,-1707,12658,746,261,2735,2792,35949,73,30,127,0,0,2551,659,4480,2620,489,42,761,1,1,247,-6,155206,0
155211,548,-2408,552,-1115,-1266,-1831,13046,890,266,2866,3120,35942,117,30,127,0,0,2619,703,4620,2620,489,42,771,1,1,247,-6,155221,0
155221,381,-2267,843,-1236,-1375,-1740,13457,887,160,2866,3048,35913,138,30,127,0,0,2698,802,4790,2620,489,42,781,1,1,247,-6,155221,0
155231,147,-2273,633,-1304,-1398,-1973,13865,908,-31,2892,3128,35907,158,30,127,0,0,2772,758,4970,2620,489,42,791,1,1,247,-6,155221,0
155241,215,-2851,521,-1468,-1492,-2459,14290,954,80,3063,3296,35903,181,30,127,0,0,2856,812,5150,2620,489,42,801,1,1,247,-6,155252,0
155251,30,-2915,470,-1460,-1502,-2590,14746,1021,92,3113,3464,35909,191,30,127,0,0,2937,845,5310,2620,489,42,811,1,1,247,-6,155252,0
155261,-530,-2666,183,-1468,-1325,-2708,15258,1182,156,3218,3872,35899,217,30,127,0,0,3043,1043,5510,2620,489,42,821,1,1,247,-6,155252,0
155271,-375,-2697,36,-1559,-1256,-2915,15870,1426,306,3337,4640,35885,249,30,127,0,0,3166,1274,5690,2620,489,42,831,1,1,247,-6,155252,0
155281,-79,-2846,110,-1624,-1179,-3101,16606,1692,443,3388,5200,35869,290,30,127,0,0,3309,1483,5770,2620,489,42,841,1,1,247,-6,155330,0
155291,-226,-2834,110,-1594,-1265,-3205,17444,1903,432,3424,5792,35850,358,30,127,0,0,3467,1625,5880,2620,489,42,851,1,1,247,-6,155330,0
155301,-410,-2765,299,-1457,-1308,-3325,18376,2113,378,3511,6272,35833,423,30,127,0,0,3640,1801,6000,2620,489,42,861,1,1,247,-6,155346,0
155311,-516,-2980,364,-1428,-1200,-3449,19405,2326,367,3591,6808,35796,479,30,127,0,0,3832,1922,6130,2620,489,42,871,1,1,247,-6,155348,0
155321,35,-2840,377,-1432,-1315,-4041,20483,2372,284,3584,7000,35774,530,30,127,0,0,4031,1988,6240,2620,489,42,881,1,1,247,-6,155348,0
155331,300,-2894,206,-1520,-1523,-4239,21548,2316,63,3645,6816,35754,573,30,127,0,0,4236,2032,0,2620,489,42,891,1,1,247,-6,155348,0
155341,1103,-3507,539,-1683,-1700,-4683,22516,2015,-196,3068,5336,35756,597,30,127,0,0,4427,1878,0,2620,489,42,901,1,1,247,-6,155348,0
155351,883,-3361,711,-1566,-1730,-5253,23243,1386,-652,2190,3240,35776,499,30,127,0,0,4565,1307,0,2620,489,42,911,1,1,247,-6,155348,0
155361,930,-2995,724,-1649,-1647,-6196,23623,586,-1136,1253,872,35839,329,30,127,0,0,4636,626,0,2620,489,42,921,1,1,247,-6,155348,0
155371,3326,-3173,695,-1718,-398,-7985,22963,-3009,-2559,-8749,-8424,35835,475,30,127,0,0,4570,-889,0,2620,489,42,931,1,1,247,-6,155364,0
155381,-2066,-2160,874,-1335,-2385,-5408,21384,-3412,-4207,10,-6624,35815,511,30,127,0,0,4510,-329,0,2620,489,42,941,0,1,247,-6,155395,0
155391,1021,-1784,757,-1474,-2024,-3737,20044,-2610,-1211,2062,-2424,35837,421,30,127,0,0,4686,1900,0,2620,489,42,951,0,1,247,-6,155395,0
155401,596,-1105,731,-1186,-2252,-1932,19431,-813,1850,3261,1112,35889,195,30,127,0,0,4904,2296,0,2620,489,42,961,0,1,247,-6,155395,0
155411,622,-886,372,-1127,-1887,-644,19704,916,3128,1946,3424,35986,-128,30,127,0,0,5178,2823,0,2620,489,42,971,0,1,247,-6,155395,0
155421,1057,-1045,-16,-1239,-718,-620,20381,1717,2440,1739,4912,35975,-50,30,127,0,0,5411,2208,0,2620,489,42,981,0,1,247,-6,155411,0
155431,1086,-1043,-23,-1001,138,-843,21271,2011,1179,835,5128,35943,67,30,127,0,0,5541,1153,0,2620,489,42,991,0,1,247,-6,155442,0
155441,976,-955,-179,-484,1407,-1130,22159,1902,403,165,3672,35945,75,30,127,0,0,5526,-285,0,2620,489,42,1001,0,1,247,-6,155442,0
155451,922,-923,-27,-236,2180,-1078,22905,1490,-275,-418,1200,35959,29,30,127,0,0,5396,-1395,0,2620,489,42,1011,0,1,247,-6,155442,0
155461,867,-839,256,70,2686,-43,23232,179,-1040,-2516,-1064,35961,-31,30,127,0,0,5240,-1593,0,2620,489,42,1021,0,1,247,-6,155442,0
155471,694,-760,282,197,2952,321,22976,-694,-1994,-931,-2184,35954,-41,30,127,0,0,5069,-1713,0,2620,489,42,1031,0,1,247,-6,155505,0
155481,702,-769,268,278,2890,1382,22536,-1072,-1442,-937,-2896,35955,-24,30,127,0,0,4904,-1625,0,2620,489,42,1041,0,1,247,-6,155505,0
155491,724,-757,205,362,2771,2009,21970,-1297,-596,-700,-3368,35948,-7,30,127,0,0,4757,-1450,0,2620,489,42,1051,0,1,247,-6,155505,0
155501,837,-738,122,497,2538,2946,21344,-1406,-352,-482,-3448,35939,1,30,127,0,0,4623,-1296,0,2620,489,42,1061,0,1,247,-6,155505,0
155511,920,-719,31,608,2369,3510,20691,-1433,-162,-322,-3328,35949,-4,30,127,0,0,4497,-1219,0,2620,489,42,1071,0,1,247,-6,155520,0
155521,1096,-728,-79,685,2206,4246,20040,-1442,-44,-345,-3376,35950,-14,30,127,0,0,4363,-1307,0,2620,489,42,1081,0,1,247,-6,155520,0
155531,1164,-731,-107,780,2191,4631,19377,-1453,-20,-306,-3464,35960,-25,30,127,0,0,4220,-1461,0,2620,489,42,1091,0,1,247,-6,155520,0
155541,1108,-747,-96,864,2139,5291,18709,-1490,-31,-457,-3632,35975,-27,30,127,0,0,4058,-1604,0,2620,489,42,1101,0,1,247,-6,155552,0
155551,1039,-763,-61,889,2053,5784,18010,-1569,-70,-524,-3832,35984,-18,30,127,0,0,3893,-1593,0,2620,489,42,1111,0,1,247,-6,155552,0
155561,844,-865,-6,883,1770,6642,17282,-1619,-123,-483,-3872,35977,12,30,127,0,0,3744,-1450,0,2620,489,42,1121,0,1,247,-6,155552,0
155571,813,-1002,57,912,1550,7178,16540,-1620,-86,-298,-3664,35964,9,30,127,0,0,3621,-1175,0,2620,489,42,1131,0,1,247,-6,155552,0
155581,793,-1218,99,1082,1266,7836,15827,-1532,27,-181,-3176,35965,-6,30,127,0,0,3531,-900,0,2620,489,42,1141,0,1,247,-6,155583,0
155591,783,-1342,102,1241,1120,8179,15190,-1340,197,-121,-2624,35975,-16,30,127,0,0,3462,-626,0,2620,489,42,1151,0,1,247,-6,155583,0
155601,738,-1495,144,1462,895,8549,14658,-1094,349,-90,-1928,35984,-22,30,127,0,0,3416,-461,0,2620,489,42,1161,0,1,247,-6,155583,0
155611,755,-1547,158,1583,806,8722,14242,-838,425,-120,-1448,35981,-16,30,127,0,0,3390,-219,0,2620,489,42,1171,0,1,247,-6,155598,0
155621,804,-1729,15,1704,744,8988,13918,-644,407,-95,-864,35992,-34,30,127,0,0,3377,-142,0,2620,489,42,1181,0,1,247,-6,155630,0
155631,872,-1861,1,1825,761,9046,13688,-437,359,-70,-312,35998,-48,30,127,0,0,3377,-54,0,2620,489,42,1191,0,1,247,-6,155630,0
155641,854,-2103,63,2026,745,9043,13569,-158,377,221,96,35992,-40,30,127,0,0,3379,0,0,2620,489,42,1201,0,1,247,-6,155661,0
155651,843,-2328,169,2115,743,9206,13621,173,554,237,144,35980,-49,30,127,0,0,3392,153,0,2620,489,42,1211,0,1,247,-6,155677,0
155661,982,-2468,314,2221,844,9471,13717,221,415,305,376,35971,-20,30,127,0,0,3425,362,0,2620,489,42,1221,0,1,247,-6,155692,0
155671,870,-2435,275,2284,907,9485,13851,333,135,462,728,35965,-14,30,127,0,0,3469,461,0,2620,489,42,1231,0,1,247,-6,155692,0
155681,757,-2375,130,2370,1044,9201,14032,428,164,387,784,35961,-17,30,127,0,0,3493,208,0,2620,489,42,1241,0,1,247,-6,155692,0
155691,726,-2366,72,2429,1100,9033,14233,446,134,290,672,35959,-44,30,127,0,0,3506,98,0,2620,489,42,1251,0,1,247,-6,155692,0
155701,738,-2372,131,2487,1103,8948,14426,422,18,239,416,35970,-56,30,127,0,0,3511,54,0,2620,489,42,1261,0,1,247,-6,155692,0
155711,756,-2389,201,2462,1037,8981,14592,339,-62,186,360,35979,-46,30,127,0,0,3524,153,0,2620,489,42,1271,0,1,247,-6,155692,0
155721,665,-2391,269,2375,829,8967,14725,264,-112,241,368,35992,-29,30,127,0,0,3539,175,0,2620,489,42,1281,0,1,247,-6,155739,0
155731,570,-2434,275,2331,613,8876,14850,274,-82,320,400,35989,-48,30,127,0,0,3561,230,0,2620,489,42,1291,0,1,247,-6,155739,0
155741,497,-2519,249,2240,226,8701,14986,312,-2,374,504,35997,-79,30,127,0,0,3590,274,0,2620,489,42,1301,0,1,247,-6,155739,0
155751,480,-2597,230,2192,-62,8586,15138,349,56,396,616,35984,-74,30,127,0,0,3621,340,0,2620,489,42,1311,0,1,247,-6,155739,0
155761,472,-2671,235,2108,-592,8286,15316,403,85,424,824,35965,-38,30,127,0,0,3671,472,0,2620,489,42,1321,0,1,247,-6,155739,0
155771,473,-2736,252,2086,-973,7864,15520,462,104,435,1048,35962,-20,30,127,0,0,3719,494,0,2620,489,42,1331,0,1,247,-6,155770,0
155781,369,-2763,368,2090,-1563,6990,15757,523,115,416,1008,35968,-31,30,127,0,0,3748,263,0,2620,489,42,1341,0,1,247,-6,155786,0
155791,291,-2731,422,2033,-2005,6390,15994,505,61,321,848,35973,-50,30,127,0,0,3770,230,0,2620,489,42,1351,0,1,247,-6,155786,0
155801,220,-2621,419,1819,-2576,5495,16210,463,-41,318,848,35971,-47,30,127,0,0,3796,307,0,2620,489,42,1361,0,1,247,-6,155786,0
155811,141,-2522,363,1609,-2843,4811,16415,454,-69,367,920,35966,-25,30,127,0,0,3836,450,0,2620,489,42,1371,0,1,247,-6,155801,0
155821,120,-2394,251,1223,-2977,3508,16623,466,-15,422,944,35974,-42,30,127,0,0,3871,351,0,2620,489,42,1381,0,1,247,-6,155817,0
155831,96,-2329,236,930,-2870,2519,16841,490,37,415,952,35977,-62,30,127,0,0,3893,186,0,2620,489,42,1391,0,1,247,-6,155817,0
155841,9,-2309,256,394,-2572,1184,17054,453,13,295,624,35983,-53,30,127,0,0,3893,-10,0,2620,489,42,1401,0,1,247,-6,155833,0
155851,18,-2292,255,41,-2290,400,17229,361,-81,246,376,35987,-45,30,127,0,0,3893,0,0,2620,489,42,1411,0,1,247,-6,155833,0
155861,46,-2275,199,-425,-1815,-642,17361,259,-161,237,272,35983,-54,30,127,0,0,3895,10,0,2620,489,42,1421,0,1,247,-6,155895,0
155871,68,-2255,142,-625,-1440,-1315,17449,170,-167,255,216,35988,-62,30,127,0,0,3900,21,0,2620,489,42,1431,0,1,247,-6,155895,0
155881,106,-2199,137,-797,-906,-2081,17503,127,-140,344,200,35982,-54,30,127,0,0,3897,0,0,2620,489,42,1441,0,1,247,-6,155895,0
155891,149,-2107,159,-839,-514,-2466,17561,124,-53,314,192,35982,-31,30,127,0,0,3897,0,0,2620,489,42,1451,0,1,247,-6,155895,0
155901,146,-1970,149,-865,28,-2931,17606,78,-22,346,200,35973,-11,30,127,0,0,3897,-10,0,2620,489,42,1461,0,1,247,-6,155895,0
155911,-1398,-5246,-542,-1136,271,-2669,17637,59,-52,430,224,35974,-18,30,127,0,0,3924,318,0,2620,489,42,1471,0,1,247,-6,155911,0
155921,-1093,-3778,2037,-423,2113,-845,17688,195,29,1112,1352,35992,-17,30,127,0,0,4100,1856,0,6722,2480,43,9,1,1,254,-4,155911,0
155931,-1408,-1019,1429,408,1522,-1915,17980,855,557,1459,2712,35998,-11,30,127,0,0,4220,1076,0,6722,2480,43,19,1,1,254,-4,155926,0
155941,-988,-1154,175,-51,553,-1631,18479,1164,890,859,3144,35995,-15,30,127,0,0,4328,1164,0,6722,2480,43,29,1,1,254,-4,155942,0
155951,-756,-1339,126,-154,908,-1613,19075,1377,525,914,3776,35980,-1,30,127,0,0,4478,1450,0,6722,2480,43,39,1,1,254,-4,155942,0
155961,-1278,-1892,1,7,867,-1838,19784,1628,406,964,4344,35970,20,30,127,0,0,4627,1483,0,6722,2480,43,49,1,1,254,-4,155973,0
155971,-1391,-2037,300,245,1013,-2135,20576,1779,372,847,4568,35967,41,30,127,0,0,4763,1318,0,6722,2480,43,59,1,1,254,-4,155973,0
155981,-711,-1686,416,145,1224,-2874,21399,1812,198,622,4536,35962,47,30,127,0,0,4866,988,0,6722,2480,43,69,1,1,254,-4,155973,0
155991,-368,-1600,423,-307,1308,-3054,22209,1761,17,500,4256,35962,30,30,127,0,0,4946,791,0,6722,2480,43,79,1,1,254,-4,155973,0
156001,-87,-1937,177,-615,1341,-3064,22984,1671,-104,326,3656,35955,23,30,127,0,0,5016,714,0,6722,2480,43,89,1,1,254,-4,156005,0
156011,-98,-2157,-33,-518,1190,-3250,23687,1481,-214,128,2928,35968,2,30,127,0,0,5071,516,0,6722,2480,43,99,1,1,254,-4,156005,0
156021,-220,-2389,172,-349,826,-3648,24275,1212,-373,73,2120,35974,-7,30,127,0,0,5093,175,0,6722,2480,43,109,1,1,254,-4,156036,0
156031,-243,-2176,584,-221,375,-3630,24743,940,-458,-5,1144,35977,-27,30,127,0,0,5088,-54,0,6722,2480,43,119,1,1,254,-4,156036,0
156041,47,-2224,887,-267,-152,-3565,25070,632,-503,-25,432,35985,-51,30,127,0,0,5082,-87,0,6722,2480,43,129,1,1,254,-4,156051,0
156051,-187,-1970,998,-334,-406,-3624,25254,291,-541,-240,-112,35983,-62,30,127,0,0,5060,-241,0,6722,2480,43,139,1,1,254,-4,156051,0
156061,-296,-1735,890,-670,-352,-3698,25229,-184,-692,-564,-448,35981,-44,30,127,0,0,5025,-362,0,6722,2480,43,149,1,1,254,-4,156051,0
156071,-247,-1783,886,-793,-269,-3650,25087,-351,-620,-377,-592,35983,-31,30,127,0,0,4983,-417,0,6722,2480,43,159,1,1,254,-4,156067,0
156081,228,-2124,679,-809,311,-4156,24917,-377,-232,-398,-808,35978,-37,30,127,0,0,4910,-791,540,6722,2480,43,169,1,1,254,-4,156067,0
156091,-511,-1606,464,-824,232,-4146,24777,-229,30,354,32,35997,-65,30,127,0,0,4827,-845,740,6722,2480,43,179,1,1,254,-4,156176,0
156101,1546,-2065,753,-923,-491,-2853,24628,-415,63,450,-168,35991,-72,30,127,0,0,4794,-340,940,6722,2480,43,189,1,1,254,-4,156176,0
156111,920,-2027,564,-948,-535,-2851,24256,-1020,-524,393,-1392,35993,-64,30,127,0,0,4732,-692,1140,6722,2480,43,199,1,1,254,-4,156176,0
156121,-698,-2079,63,-828,121,-3490,23622,-1523,-975,503,-2192,35980,-64,30,127,0,0,4631,-1043,1340,6722,2480,43,209,1,1,254,-4,156192,0
156131,-896,-2031,166,-578,770,-3825,22895,-1596,-628,686,-2024,35981,-80,30,127,0,0,4497,-1329,1500,6722,2480,43,219,1,1,254,-4,156192,0
156141,161,-1939,622,-634,560,-3524,22247,-1347,39,861,-1360,35983,-102,30,127,0,0,4368,-1274,1500,6722,2480,43,229,1,1,254,-4,156192,0
156151,407,-1947,790,-614,101,-2982,21718,-1078,407,881,-696,35988,-85,30,127,0,0,4264,-1010,1500,6722,2480,43,239,1,1,254,-4,156192,0
156161,150,-1858,442,-654,-237,-2425,21321,-783,488,993,-160,35988,-98,30,127,0,0,4190,-747,1500,6722,2480,43,249,1,1,254,-4,156192,0
156171,188,-1795,500,-642,-296,-2152,21056,-515,503,1176,-32,35989,-111,30,127,0,0,4139,-483,1500,6722,2480,43,259,1,1,254,-4,156192,0
156181,417,-1991,495,-620,-212,-1990,20814,-589,266,854,-208,35985,-115,30,127,0,0,4093,-472,1500,6722,2480,43,269,1,1,254,-4,156192,0
156191,-6,-1952,454,-578,-103,-2135,20445,-903,-265,668,-632,35982,-92,30,127,0,0,4023,-703,1500,6722,2480,43,279,1,1,254,-4,156192,0
156201,-297,-1964,380,-469,166,-2440,19986,-1036,-425,772,-768,35980,-93,30,127,0,0,3939,-823,1500,6722,2480,43,289,1,1,254,-4,156192,0
156211,-119,-1985,334,-477,238,-2447,19533,-958,-123,813,-384,35995,-84,30,127,0,0,3854,-856,1500,6722,2480,43,299,1,1,254,-4,156192,0
156221,158,-2029,419,-472,-38,-2057,19173,-707,221,1042,-128,36021,-103,30,127,0,0,3790,-637,1500,6722,2480,43,309,1,1,254,-4,156208,0
156231,353,-1986,429,-486,-234,-1716,18940,-437,484,1164,0,36024,-92,30,127,0,0,3744,-428,1500,6722,2480,43,319,1,1,254,-4,156239,0
156241,374,-1929,540,-409,-421,-1604,18751,-438,291,953,-40,36015,-88,30,127,0,0,3706,-373,1650,6722,2480,43,329,1,1,254,-4,156239,0
156251,74,-1895,414,-435,-257,-1739,18504,-588,-86,898,-128,35995,-81,30,127,0,0,3658,-505,1820,6722,2480,43,339,1,1,254,-4,156239,0
156261,-131,-1864,398,-441,-41,-2009,18188,-726,-252,990,-160,35982,-79,30,127,0,0,3601,-582,2030,6722,2480,43,349,1,1,254,-4,156254,0
156271,73,-1911,418,-459,-18,-2022,17871,-663,-141,1268,-88,35983,-80,30,127,0,0,3539,-626,2260,6722,2480,43,359,1,1,254,-4,156270,0
156281,376,-2015,441,-474,-221,-1715,17621,-488,130,1588,16,35984,-84,30,127,0,0,3491,-494,2490,6722,2480,43,369,1,1,254,-4,156286,0
156291,533,-2000,494,-475,-380,-1545,17443,-350,280,1601,56,35985,-85,30,127,0,0,3458,-307,2710,6722,2480,43,379,1,1,254,-4,156286,0
156301,414,-1975,613,-513,-416,-1528,17274,-385,150,1659,64,35983,-98,30,127,0,0,3418,-373,2920,6722,2480,43,389,1,1,254,-4,156286,0
156311,364,-1939,584,-536,-394,-1651,17068,-496,-66,1720,-16,35979,-89,30,127,0,0,3383,-373,3150,6722,2480,43,399,1,1,254,-4,156301,0
156321,292,-1924,389,-572,-216,-1836,16798,-630,-203,1781,-104,35985,-91,30,127,0,0,3335,-494,3340,6722,2480,43,409,1,1,254,-4,156317,0
156331,260,-1938,291,-552,-153,-1882,16493,-661,-194,1979,-48,35992,-89,30,127,0,0,3276,-626,3460,6722,2480,43,419,1,1,254,-4,156317,0
156341,223,-1975,277,-521,-225,-1755,16217,-565,-9,2189,72,36004,-109,30,127,0,0,3225,-505,3580,6722,2480,43,429,1,1,254,-4,156333,0
156351,414,-2004,323,-503,-305,-1641,15999,-452,175,2271,72,36009,-108,30,127,0,0,3181,-417,3700,6722,2480,43,439,1,1,254,-4,156333,0
156361,588,-1972,353,-489,-352,-1582,15810,-402,176,2277,112,35997,-88,30,127,0,0,3146,-329,3810,6722,2480,43,449,1,1,254,-4,156442,0
156371,510,-1941,358,-482,-344,-1583,15618,-427,42,2303,56,35995,-73,30,127,0,0,3106,-384,3930,6722,2480,43,459,1,1,254,-4,156442,0
156381,465,-1931,365,-481,-267,-1676,15387,-526,-77,2322,56,35983,-80,30,127,0,0,3060,-483,4040,6722,2480,43,469,1,1,254,-4,156442,0
156391,413,-1988,348,-489,-220,-1701,15145,-527,-97,2427,64,35990,-98,30,127,0,0,3010,-494,4150,6722,2480,43,479,1,1,254,-4,156442,0
156401,372,-2032,387,-474,-282,-1646,14918,-477,5,2557,104,35977,-80,30,127,0,0,2968,-450,4260,6722,2480,43,489,1,1,254,-4,156458,0
156411,522,-2006,414,-466,-339,-1630,14718,-437,77,2606,136,35975,-76,30,127,0,0,2928,-384,4360,6722,2480,43,499,1,1,254,-4,156458,0
156421,366,-2000,426,-472,-400,-1637,14528,-418,60,2648,128,35971,-78,30,127,0,0,2891,-373,4470,6722,2480,43,509,1,1,254,-4,156458,0
156431,536,-1973,441,-463,-393,-1698,14340,-421,17,2714,128,35974,-77,30,127,0,0,2858,-351,4570,6722,2480,43,519,1,1,254,-4,156458,0
156441,488,-1929,481,-490,-362,-1683,14149,-421,-5,2792,128,35972,-64,30,127,0,0,2821,-351,4680,6722,2480,43,529,1,1,254,-4,156458,0
156451,635,-1948,471,-504,-387,-1671,13953,-432,-20,2847,136,35972,-58,30,127,0,0,2783,-351,4780,6722,2480,43,539,1,1,254,-4,156458,0
156461,557,-2044,513,-544,-447,-1620,13771,-377,16,2931,160,35968,-71,30,127,0,0,2746,-373,4880,6722,2480,43,549,1,1,254,-4,156458,0
156471,556,-2023,511,-592,-523,-1601,13610,-347,75,2991,232,35969,-87,30,127,0,0,2718,-296,4970,6722,2480,43,559,1,1,254,-4,156458,0
156481,483,-2093,460,-604,-571,-1564,13475,-286,92,3059,296,35972,-67,30,127,0,0,2693,-252,5070,6722,2480,43,569,1,1,254,-4,156473,0
156491,538,-2000,483,-586,-677,-1599,13355,-260,74,3122,320,35982,-38,30,127,0,0,2669,-219,5170,6722,2480,43,579,1,1,254,-4,156504,0
156501,475,-2009,419,-597,-754,-1703,13229,-282,15,3179,320,35982,-46,30,127,0,0,2647,-230,5270,6722,2480,43,589,1,1,254,-4,156504,0
156511,605,-2025,410,-609,-821,-1719,13117,-224,13,3236,424,35979,-70,30,127,0,0,2625,-197,5360,6722,2480,43,599,1,1,254,-4,156504,0
156521,585,-1811,180,-772,-1131,-1689,13027,-175,72,3274,472,35960,-47,30,127,0,0,2610,-131,5460,6722,2480,43,609,1,1,254,-4,156504,0
156531,628,-2078,377,-902,-1179,-1597,12974,-95,108,3279,672,35965,-24,30,127,0,0,2597,-109,5570,6722,2480,43,619,1,1,254,-4,156536,0
156541,235,-2440,211,-954,-971,-1630,12941,-50,113,3337,904,35963,20,30,127,0,0,2592,-65,5680,6722,2480,43,629,1,1,254,-4,156536,0
156551,157,-2331,208,-965,-878,-1739,12953,40,121,3417,1104,35960,33,30,127,0,0,2592,10,5790,6722,2480,43,639,1,1,254,-4,156536,0
156561,184,-2200,176,-973,-809,-1977,12963,17,82,3566,1088,35954,56,30,127,0,0,2594,10,5910,6722,2480,43,649,1,1,254,-4,156551,0
156571,305,-2294,178,-972,-773,-2108,12972,30,-8,3623,1128,35949,64,30,127,0,0,2597,0,6040,6722,2480,43,659,1,1,254,-4,156567,0
156581,417,-2409,410,-1007,-807,-2154,13017,139,63,3621,1400,35949,68,30,127,0,0,2605,76,6180,6722,2480,43,669,1,1,254,-4,156567,0
156591,471,-2293,546,-1065,-918,-2131,13117,255,168,3650,1832,35957,83,30,127,0,0,2625,175,6340,6722,2480,43,679,1,1,254,-4,156583,0
156601,599,-2289,467,-1195,-1128,-2053,13287,433,247,3814,2208,35943,112,30,127,0,0,2658,351,6520,6722,2480,43,689,1,1,254,-4,156583,0
156611,503,-2249,502,-1257,-1216,-2035,13512,530,244,3942,2568,35928,133,30,127,0,0,2702,439,6740,6722,2480,43,699,1,1,254,-4,156598,0
156621,521,-2135,495,-1317,-1598,-1977,13803,682,229,4240,3016,35900,177,30,127,0,0,2753,516,6990,6722,2480,43,709,1,1,254,-4,156614,0
156631,432,-2121,324,-1447,-1502,-1974,14166,851,265,4318,3488,35883,215,30,127,0,0,2823,703,7280,6722,2480,43,719,1,1,254,-4,156629,0
156641,268,-2526,410,-1609,-1434,-2057,14606,1001,292,4538,3848,35865,279,30,127,0,0,2904,769,7620,6722,2480,43,729,1,1,254,-4,156629,0
156651,177,-2486,657,-1694,-1319,-2066,15076,1041,211,4682,3952,35848,330,30,127,0,0,2992,867,8020,6722,2480,43,739,1,1,254,-4,156645,0
156661,-49,-2603,88,-1848,-1286,-2438,15593,1182,142,4858,4296,35830,395,30,127,0,0,3098,1087,8460,6722,2480,43,749,1,1,254,-4,156645,0
156671,-167,-2747,45,-1874,-1303,-2550,16184,1342,231,5157,4904,35805,462,30,127,0,0,3212,1153,8970,6722,2480,43,759,1,1,254,-4,156676,0
156681,-507,-2802,-3,-1903,-1128,-2596,16865,1573,314,5478,5536,35781,529,30,127,0,0,3339,1252,9600,6722,2480,43,769,1,1,254,-4,156676,0
156691,-429,-2655,90,-1906,-1035,-2623,17666,1852,408,5809,6352,35735,634,30,127,0,0,3489,1483,10070,6722,2480,43,779,1,1,254,-4,156676,0
156701,-425,-2887,108,-2054,-962,-2715,18609,2170,505,6048,7352,35699,784,30,127,0,0,3671,1801,10470,6722,2480,43,789,1,1,254,-4,156692,0
156711,-412,-2966,340,-2057,-914,-2846,19682,2435,529,6285,7944,35653,932,30,127,0,0,3867,1977,10940,6722,2480,43,799,1,1,254,-4,156708,0
156721,-628,-3082,426,-1895,-883,-3114,20837,2576,416,6487,8456,35597,1094,30,127,0,0,4084,2109,11410,6722,2480,43,809,1,1,254,-4,156708,0
156731,-455,-3185,497,-1800,-829,-3293,22020,2608,203,6708,8768,35552,1230,30,127,0,0,4311,2274,11910,6722,2480,43,819,1,1,254,-4,156739,0
156741,-190,-2783,611,-1744,-1018,-3836,23245,2754,119,6989,9032,35503,1360,30,127,0,0,4550,2395,12280,6722,2480,43,829,1,1,254,-4,156786,0
156751,431,-2753,427,-1880,-1212,-4041,24557,2928,259,7016,8856,35473,1475,30,127,0,0,4772,2219,11730,6722,2480,43,839,1,1,254,-4,156801,0
156761,931,-3551,686,-1983,-1489,-4130,25866,2819,171,6737,8400,35438,1550,30,127,0,0,4992,2175,11010,6722,2480,43,849,1,1,254,-4,156801,0
156771,534,-3436,679,-1891,-1728,-4415,27018,2409,-313,6216,6912,35443,1522,30,127,0,0,5187,1922,10130,6722,2480,43,859,1,1,254,-4,156801,0
156781,529,-3003,792,-1915,-1900,-5016,27950,1888,-721,5550,5536,35483,1361,30,127,0,0,5345,1549,9050,6722,2480,43,869,1,1,254,-4,156817,0
156791,657,-2915,740,-1881,-2059,-5166,28647,1402,-884,4769,4256,35567,1097,30,127,0,0,5475,1252,7470,6722,2480,43,879,1,1,254,-4,156817,0
156801,756,-2651,774,-1746,-2429,-4916,29164,1021,-794,3814,3224,35661,785,30,127,0,0,5572,933,0,6722,2480,43,889,1,1,254,-4,156817,0
156811,624,-2009,660,-1720,-2612,-4643,29538,735,-625,2654,2232,35755,496,30,127,0,0,5644,692,0,6722,2480,43,899,1,1,254,-4,156817,0
156821,162,-1400,746,-1504,-2877,-4042,29835,634,-425,1922,2048,35836,276,30,127,0,0,5704,604,0,6722,2480,43,909,1,1,254,-4,156817,0
156831,-438,-924,996,-717,-2842,-3266,30157,771,-97,1221,2256,35889,127,30,127,0,0,5767,648,0,6722,2480,43,919,1,1,254,-4,156817,0
156841,1826,-1356,-849,-745,-1466,-1314,29665,-2610,-1371,-10033,-9056,35858,345,30,127,0,0,5879,1219,0,6722,2480,43,929,1,1,254,-4,156879,0
156851,544,-1260,-459,-1073,-73,-1832,28118,-3328,-4063,391,-5352,35805,518,30,127,0,0,5888,-65,0,6722,2480,43,939,1,1,254,-4,156879,0
156861,1319,-1291,88,-539,1150,-1283,26919,-2304,-1238,1297,-3128,35827,449,30,127,0,0,5833,-615,0,6722,2480,43,949,0,1,254,-4,156879,0
156871,1176,-819,-100,-158,2015,-947,26112,-1605,1490,382,-2544,35849,267,30,127,0,0,5706,-1329,0,6722,2480,43,959,0,1,254,-4,156879,0
156881,972,-620,-46,143,2951,-187,25491,-1292,1109,-57,-2984,35980,-125,30,127,0,0,5530,-1768,0,6722,2480,43,969,0,1,254,-4,156879,0
156891,825,-598,175,320,3215,285,24886,-1402,391,-901,-3888,35985,-60,30,127,0,0,5326,-2098,0,6722,2480,43,979,0,1,254,-4,156895,0
156901,654,-561,329,539,3169,962,24132,-1755,-273,-963,-4464,35977,12,30,127,0,0,5117,-2087,0,6722,2480,43,989,0,1,254,-4,156895,0
156911,632,-540,329,635,2942,1509,23266,-1960,-511,-766,-4848,35972,47,30,127,0,0,4913,-2021,0,6722,2480,43,999,0,1,254,-4,156895,0
156921,741,-524,183,810,2543,2349,22446,-2008,-304,-595,-4896,35964,67,30,127,0,0,4726,-1834,0,6722,2480,43,1009,0,1,254,-4,156926,0
156931,807,-539,81,915,2181,2941,21532,-2009,-84,-465,-4896,35958,32,30,127,0,0,4557,-1702,0,6722,2480,43,1019,0,1,254,-4,156926,0
156941,950,-601,-95,1067,1833,3750,20629,-1972,16,-310,-4768,35955,10,30,127,0,0,4390,-1691,0,6722,2480,43,1029,0,1,254,-4,156926,0
156951,1027,-588,-158,1205,1797,4199,19735,-1956,40,-299,-4624,35941,-6,30,127,0,0,4218,-1724,0,6722,2480,43,1039,0,1,254,-4,156942,0
156961,980,-543,-155,1422,1867,4967,18849,-1934,37,-333,-4656,35956,-3,30,127,0,0,4036,-1834,0,6722,2480,43,1049,0,1,254,-4,156957,0
156971,868,-620,-85,1527,1842,5583,17980,-1910,43,-412,-4600,35963,-15,30,127,0,0,3862,-1735,0,6722,2480,43,1059,0,1,254,-4,156957,0
156981,685,-741,20,1551,1620,6549,17111,-1904,26,-319,-4344,35965,-18,30,127,0,0,3715,-1439,0,6722,2480,43,1069,0,1,254,-4,156973,0
156991,663,-876,176,1565,1384,7120,16272,-1820,68,-205,-3872,35967,-23,30,127,0,0,3603,-1109,0,6722,2480,43,1079,0,1,254,-4,156989,0
157001,711,-1082,236,1770,1109,7726,15496,-1653,180,-109,-3280,35966,-22,30,127,0,0,3509,-889,0,6722,2480,43,1089,0,1,254,-4,156989,0
157011,708,-1256,146,1937,894,8026,14823,-1399,340,-93,-2736,35971,-33,30,127,0,0,3429,-758,0,6722,2480,43,1099,0,1,254,-4,156989,0
157021,682,-1487,195,2161,603,8525,14268,-1154,431,-122,-2248,35969,-47,30,127,0,0,3368,-560,0,6722,2480,43,1109,0,1,254,-4,157036,0
157031,674,-1619,207,2287,424,8839,13812,-944,406,-105,-1576,35978,-43,30,127,0,0,3344,-219,0,6722,2480,43,1119,0,1,254,-4,157036,0
157041,720,-1776,126,2523,327,9031,13455,-716,376,-42,-840,35978,-20,30,127,0,0,3342,-21,0,6722,2480,43,1129,0,1,254,-4,157036,0
157051,695,-1952,29,2713,375,9044,13204,-474,395,-1,-208,35974,-14,30,127,0,0,3342,-10,0,6722,2480,43,1139,0,1,254,-4,157036,0
157061,799,-2272,-3,3002,544,9216,13079,-173,454,360,152,35979,-27,30,127,0,0,3350,87,0,6722,2480,43,1149,0,1,254,-4,157051,0
157071,949,-2413,117,3145,630,9480,13126,167,578,460,408,35990,-42,30,127,0,0,3377,307,0,6722,2480,43,1159,0,1,254,-4,157067,0
157081,770,-2523,292,3315,685,9602,13258,333,458,420,712,35991,-61,30,127,0,0,3429,527,0,6722,2480,43,1169,0,1,254,-4,157067,0
157091,740,-2579,248,3397,716,9383,13444,437,252,463,1104,35979,-57,30,127,0,0,3480,505,0,6722,2480,43,1179,0,1,254,-4,157082,0
157101,693,-2679,146,3544,821,8948,13675,538,184,416,1112,35970,-62,30,127,0,0,3511,285,0,6722,2480,43,1189,0,1,254,-4,157161,0
157111,753,-2668,130,3588,885,8836,13925,546,120,307,952,35980,-61,30,127,0,0,3533,208,0,6722,2480,43,1199,0,1,254,-4,157176,0
157121,759,-2582,190,3530,864,8864,14158,493,-6,259,872,35981,-55,30,127,0,0,3559,241,0,6722,2480,43,1209,0,1,254,-4,157176,0
157131,744,-2530,227,3439,746,8851,14374,463,-61,287,888,35971,-46,30,127,0,0,3596,406,0,6722,2480,43,1219,0,1,254,-4,157176,0
157141,743,-2503,242,3281,482,8642,14590,481,-25,364,952,35957,-44,30,127,0,0,3632,329,0,6722,2480,43,1229,0,1,254,-4,157176,0
