state_time,accelx,accely,accelz,gyrox,gyroy,gyroz,mot_ang,mot_vel,mot_acc,mot_cur,mot_volt,batt_volt,batt_curr,temperature,status_mn,status_ex,status_re,ank_ang,ank_vel,ank_torque,peak_ank_torque,step_energy,step_count,step_time,gait_state,movement,speed,incline,sys_time,eventFlags
359124,-81,-2054,384,-89,41,141,14766,6,-24,280,104,35709,-33,33,127,0,0,3910,27,0,2789,176,149,2444,1,0,73,12,359135,0
359134,-60,-2053,378,-85,37,141,14774,11,17,302,64,35700,-31,32,127,0,0,3914,27,0,2789,176,149,2454,1,0,73,12,359135,0
359144,-68,-2056,375,-90,36,139,14783,25,15,241,48,35694,-37,32,127,0,0,3911,-5,0,2789,176,149,2464,1,0,73,12,359135,0
359154,-69,-2057,376,-90,39,142,14794,18,7,127,24,35702,-49,32,127,0,0,3911,-5,0,2789,176,149,2474,1,0,73,12,359135,0
359164,-49,-2060,382,-89,35,136,14795,-12,-27,63,24,35712,-27,33,127,0,0,3914,32,0,2789,176,149,2484,1,0,73,12,359166,0
359174,-42,-2061,380,-90,38,140,14800,7,-12,96,32,35712,-18,32,127,0,0,3913,32,0,2789,176,149,2494,1,0,73,12,359166,0
359184,-66,-2053,382,-86,38,146,14799,-11,-1,101,16,35706,-18,32,127,0,0,3911,5,0,2789,176,149,2504,-4,0,73,12,359166,0
359194,-74,-2060,370,-89,37,145,14800,13,-11,144,32,35704,-28,33,127,0,0,3910,-43,0,2789,176,149,2514,-4,0,73,12,359182,0
359204,-57,-2054,380,-89,34,149,14802,-1,6,106,56,35708,-34,33,127,0,0,3915,32,0,2789,176,149,2524,-4,0,73,12,359182,0
359214,-73,-2053,377,-84,31,148,14808,12,6,213,40,35703,-25,33,127,0,0,3915,-16,0,2789,176,149,2534,-4,0,73,12,359197,0
359224,-52,-2054,378,-90,36,148,14808,1,-1,246,40,35703,-22,32,127,0,0,3915,-21,0,2789,176,149,2544,-4,0,73,12,359213,0
359234,-86,-2061,373,-87,37,149,14810,7,-14,230,40,35702,-21,32,127,0,0,3918,-10,0,2789,176,149,2554,-4,0,73,12,359213,0
359244,-91,-2055,370,-86,38,141,14810,-2,6,273,64,35710,-30,33,127,0,0,3917,0,0,2789,176,149,2564,-4,0,73,12,359229,0
359254,-81,-2054,370,-84,37,143,14811,6,-2,271,80,35705,-37,32,127,0,0,3919,10,0,2789,176,149,2574,-4,0,73,12,359229,0
359264,-78,-2051,373,-87,36,147,14812,-1,-2,284,80,35701,-35,32,127,0,0,3916,0,0,2789,176,149,2584,-4,0,73,12,359244,0
359274,-81,-2052,382,-84,30,141,14815,15,0,312,72,35710,-45,33,127,0,0,3916,-43,0,2789,176,149,2594,-4,0,73,12,359260,0
359284,-57,-2058,385,-88,33,147,14814,-1,-2,290,80,35708,-37,32,127,0,0,3919,16,0,2789,176,149,2604,-4,0,73,12,359291,0
359294,-67,-2063,379,-89,36,141,14816,-3,1,328,72,35706,-11,33,127,0,0,3919,-5,0,2789,176,149,2614,-4,0,73,12,359291,0
359304,-59,-2059,377,-88,33,147,14816,-5,2,325,96,35695,-13,32,127,0,0,3918,-21,0,2789,176,149,2624,-4,0,73,12,359291,0
359314,-72,-2062,373,-90,30,142,14817,0,1,377,96,35690,-7,32,127,0,0,3925,5,0,2789,176,149,2634,-4,0,73,12,359291,0
359324,-78,-2060,378,-89,33,144,14821,5,2,400,112,35705,-20,32,127,0,0,3924,5,0,2789,176,149,2644,-4,0,73,12,359322,0
359334,-79,-2063,382,-88,35,150,14821,-5,-7,406,112,35708,7,33,127,0,0,3924,0,0,2789,176,149,2654,-4,0,73,12,359322,0
359344,-67,-2050,386,-91,35,140,14824,10,0,443,104,35699,9,32,127,0,0,3917,-120,0,2789,176,149,2664,-4,0,73,12,359322,0
359354,-85,-2063,382,-91,40,142,14823,18,-1,433,128,35690,5,32,127,0,0,3926,-5,0,2789,176,149,2674,-4,0,73,12,359338,0
359364,-63,-2059,380,-93,34,148,14826,-5,7,453,120,35696,-12,32,127,0,0,3929,60,0,2789,176,149,2684,-4,0,73,12,359385,0
359375,-70,-2052,380,-94,36,151,14827,0,-3,477,112,35700,-12,32,127,0,0,3926,-10,0,2789,176,149,2695,-4,0,73,12,359385,0
359385,-77,-2052,377,-90,36,150,14827,1,1,495,144,35694,-8,32,127,0,0,3926,-10,0,2789,176,149,2705,-4,0,73,12,359385,0
359395,-63,-2050,375,-95,40,152,14828,-4,1,473,120,35691,-12,32,127,0,0,3928,10,0,2789,176,149,2715,-4,0,73,12,359385,0
359405,-72,-2052,371,-94,40,159,14830,14,2,522,144,35706,-4,32,127,0,0,3928,0,0,2789,176,149,2725,-4,0,73,12,359401,0
359415,-67,-2056,374,-91,42,163,14834,11,11,528,136,35712,-2,33,127,0,0,3933,54,0,2789,176,149,2735,-4,0,73,12,359401,0
359425,-82,-2056,375,-87,32,160,14839,16,12,542,152,35714,4,32,127,0,0,3928,-43,0,2789,176,149,2745,-4,0,73,12,359401,0
359435,-69,-2053,373,-97,39,156,14845,17,5,536,120,35707,-9,33,127,0,0,3933,0,0,2789,176,149,2755,-4,0,73,12,359432,0
359445,-71,-2055,375,-90,31,169,14861,39,19,416,136,35704,-19,33,127,0,0,3935,54,0,2789,176,149,2765,-4,0,73,12,359432,0
359455,-74,-2053,373,-90,29,176,14884,56,35,407,128,35701,-26,32,127,0,0,3939,21,0,2789,176,149,2775,-4,0,73,12,359447,0
359465,-70,-2054,378,-88,34,165,14887,-4,-25,437,104,35693,1,33,127,0,0,3939,43,0,2789,176,149,2785,-4,0,73,12,359447,0
359475,-94,-2050,375,-90,32,165,14889,4,-41,470,184,35690,-9,32,127,0,0,3939,10,0,2789,176,149,2795,-4,0,73,12,359463,0
359485,-87,-2054,384,-87,34,150,14890,-1,0,486,168,35693,-11,32,127,0,0,3939,0,0,2789,176,149,2805,-4,0,73,12,359479,0
359495,-90,-2055,378,-84,34,145,14890,3,-7,480,136,35705,-18,33,127,0,0,3939,0,0,2789,176,149,2815,-4,0,73,12,359494,0
359505,-89,-2049,377,-89,34,147,14892,10,4,492,136,35707,3,32,127,0,0,3941,10,0,2789,176,149,2825,-4,0,73,12,359494,0
359515,-89,-2055,385,-93,32,152,14891,-6,0,502,160,35698,14,32,127,0,0,3941,10,0,2789,176,149,2835,-4,0,73,12,359494,0
359525,-92,-2052,367,-91,33,143,14891,-5,-2,489,152,35694,1,32,127,0,0,3941,0,0,2789,176,149,2845,-4,0,73,12,359510,0
359535,-90,-2053,373,-81,30,139,14892,0,-2,500,192,35704,9,32,127,0,0,3941,0,0,2789,176,149,2855,-4,0,73,12,359541,0
359545,-91,-2064,373,-82,36,137,14894,6,2,518,184,35705,10,32,127,0,0,3944,0,0,2789,176,149,2865,-4,0,73,12,359541,0
359555,-82,-2064,381,-82,34,134,14901,19,12,545,168,35699,20,32,127,0,0,3946,21,0,2789,176,149,2875,-4,0,73,12,359541,0
359565,-81,-2056,373,-84,31,137,14913,36,23,490,144,35682,15,32,127,0,0,3946,21,0,2789,176,149,2885,-4,0,73,12,359541,0
359575,-89,-2056,376,-83,33,142,14942,84,48,317,72,35692,2,33,127,0,0,3941,-43,0,2789,176,149,2895,-4,0,73,12,359572,0
359585,-76,-2054,385,-85,30,140,14953,-3,-8,198,56,35701,-9,32,127,0,0,3944,0,0,2789,176,149,2905,-4,0,73,12,359572,0
359595,-105,-2058,378,-87,31,145,14953,12,-62,253,48,35706,-9,32,127,0,0,3946,10,0,2789,176,149,2915,-4,0,73,12,359572,0
359605,-87,-2048,373,-85,36,139,14951,-3,-17,292,88,35700,-20,32,127,0,0,3944,0,0,2789,176,149,2925,-4,0,73,12,359604,0
359615,-69,-2046,370,-83,31,137,14952,-9,-7,288,120,35699,-28,33,127,0,0,3948,21,0,2789,176,149,2935,-4,0,73,12,359604,0
359625,-80,-2048,370,-83,32,134,14954,-7,3,351,96,35699,-35,32,127,0,0,3948,-10,0,2789,176,149,2945,-4,0,73,12,359604,0
359636,-88,-2050,376,-76,28,135,14955,-3,1,359,96,35702,6,33,127,0,0,3951,32,0,2789,176,149,2956,-4,0,73,12,359635,0
359646,-73,-2043,384,-80,34,142,14956,-4,-2,331,120,35687,4,32,127,0,0,3950,65,0,2789,176,149,2966,-4,0,73,12,359635,0
359656,-82,-2039,382,-80,26,144,14960,3,4,381,96,35683,4,32,127,0,0,3948,10,0,2789,176,149,2976,-4,0,73,12,359635,0
359666,-76,-2055,372,-83,40,129,14958,-6,-7,332,120,35680,-23,33,127,0,0,3950,38,0,2789,176,149,2986,-4,0,73,12,359650,0
359676,-80,-2053,375,-81,36,146,14959,-7,-4,328,112,35700,8,32,127,0,0,3950,49,0,2789,176,149,2996,-4,0,73,12,359682,0
359686,-70,-2054,378,-76,32,136,14960,4,4,336,88,35694,21,32,127,0,0,3948,-16,0,2789,176,149,3006,-4,0,73,12,359682,0
359696,-80,-2054,380,-78,35,141,14960,11,-3,338,88,35691,15,33,127,0,0,3951,16,0,2789,176,149,3016,-4,0,73,12,359682,0
359706,-83,-2060,377,-80,32,157,14961,0,0,395,136,35688,5,32,127,0,0,3949,-5,0,2789,176,149,3026,-4,0,73,12,359682,0
359716,-62,-2060,374,-77,26,161,14961,-9,-4,379,136,35704,15,32,127,0,0,3949,16,0,2789,176,149,3036,-4,0,73,12,359713,0
359726,-53,-2059,374,-75,28,165,14964,-3,2,404,128,35704,17,32,127,0,0,3949,-16,0,2789,176,149,3046,-4,0,73,12,359713,0
359736,-70,-2058,375,-79,31,165,14966,9,-1,412,128,35700,22,32,127,0,0,3952,-10,0,2789,176,149,3056,-4,0,73,12,359713,0
359746,-113,-2063,380,-74,24,158,14969,14,1,439,120,35699,-3,33,127,0,0,3956,0,0,2789,176,149,3066,-4,0,73,12,359744,0
359756,-105,-2061,382,-80,35,150,14973,5,8,411,128,35702,-22,32,127,0,0,3955,43,0,2789,176,149,3076,-4,0,73,12,359744,0
359766,-92,-2061,392,-85,30,135,14980,15,4,399,120,35697,-16,32,127,0,0,3951,-5,0,2789,176,149,3086,-4,0,73,12,359744,0
359776,-85,-2059,399,-88,36,130,14989,24,7,327,96,35690,-24,32,127,0,0,3955,-10,0,2789,176,149,3096,-4,0,73,12,359760,0
359786,-99,-2049,390,-89,26,122,15005,32,14,260,72,35696,-27,32,127,0,0,3955,0,0,2789,176,149,3106,-4,0,73,12,359791,0
359796,-84,-2049,382,-96,31,116,15007,-10,-20,249,64,35704,-46,32,127,0,0,3955,0,0,2789,176,149,3116,-4,0,73,12,359791,0
359806,-95,-2043,371,-96,34,112,15007,-4,-26,240,40,35709,-37,33,127,0,0,3956,-5,0,2789,176,149,3126,-4,0,73,12,359791,0
359816,-107,-2056,373,-96,26,115,15007,1,-1,251,64,35696,-41,32,127,0,0,3955,0,0,2789,176,149,3136,-4,0,73,12,359885,0
359826,-84,-2048,372,-95,28,105,15007,5,-1,248,64,35701,-42,32,127,0,0,3955,0,0,2789,176,149,3146,-4,0,73,12,359885,0
359836,-85,-2053,374,-95,33,105,15006,3,-2,246,64,35699,-42,33,127,0,0,3951,-32,0,2789,176,149,3156,-4,0,73,12,359885,0
359846,-92,-2061,372,-103,33,103,15006,8,2,225,40,35703,-39,32,127,0,0,3952,-21,0,2789,176,149,3166,-4,0,73,12,359885,0
359856,-84,-2066,375,-96,28,105,15008,2,4,248,64,35690,-34,32,127,0,0,3955,-10,0,2789,176,149,3176,-4,0,73,12,359885,0
359866,-83,-2057,371,-98,30,108,15006,-2,-4,218,48,35687,-52,33,127,0,0,3956,16,0,2789,176,149,3186,-4,0,73,12,359900,0
359876,-80,-2056,376,-95,36,111,15007,-1,0,222,64,35689,-43,32,127,0,0,3955,32,0,2789,176,149,3196,-4,0,73,12,359900,0
359886,-63,-2059,382,-99,41,116,15007,0,-1,198,40,35689,-52,33,127,0,0,3952,10,0,2789,176,149,3206,-4,0,73,12,359900,0
359896,-71,-2053,381,-91,41,116,15007,-4,-1,190,24,35690,-48,32,127,0,0,3953,-5,0,2789,176,149,3216,-4,0,73,12,359900,0
359907,-107,-2057,375,-91,44,125,15008,11,4,202,40,35687,-44,32,127,0,0,3955,21,0,2789,176,149,3227,-4,0,73,12,359900,0
359917,-63,-2054,372,-92,42,128,15007,6,3,221,48,35694,-57,33,127,0,0,3952,0,0,2789,176,149,3237,-4,0,73,12,359900,0
359927,-67,-2057,374,-88,39,125,15008,11,4,230,64,35710,-56,32,127,0,0,3955,0,0,2789,176,149,3247,-4,0,73,12,359916,0
359937,-83,-2048,378,-90,41,128,15007,-10,4,236,64,35711,-38,33,127,0,0,3955,10,0,2789,176,149,3257,-4,0,73,12,359916,0
359947,-87,-2062,381,-84,41,121,15007,-7,-3,232,64,35705,-48,32,127,0,0,3955,10,0,2789,176,149,3267,-4,0,73,12,359932,0
359957,-80,-2050,382,-94,41,123,15007,6,-1,217,80,35699,-55,32,127,0,0,3952,10,0,2789,176,149,3277,-4,0,73,12,359979,0
359967,-54,-2050,375,-92,46,121,15006,-6,0,217,80,35709,-74,32,127,0,0,3952,-21,0,2789,176,149,3287,-4,0,73,12,359994,0
359977,-91,-2055,380,-88,37,126,15006,-4,1,159,24,35718,-52,32,127,0,0,3952,0,0,2789,176,149,3297,-4,0,73,12,359994,0
359987,-108,-2057,380,-88,36,126,15008,15,7,198,40,35712,-37,32,127,0,0,3952,0,0,2789,176,149,3307,-4,0,73,12,359994,0
359997,-110,-2058,375,-91,42,123,15007,11,2,223,72,35702,-41,32,127,0,0,3952,-10,0,2789,176,149,3317,-4,0,73,12,359994,0
360007,-86,-2052,370,-92,41,118,15006,-4,-2,189,40,35695,-46,33,127,0,0,3952,-10,0,2789,176,149,3327,-4,0,73,12,359994,0
360017,-83,-2053,374,-88,46,111,15007,8,1,172,40,35704,-31,33,127,0,0,3955,54,0,2789,176,149,3337,-4,0,73,12,359994,0
360027,-80,-2052,384,-93,39,107,15006,-8,5,196,40,35711,-17,32,127,0,0,3952,0,0,2789,176,149,3347,-4,0,73,12,360010,0
360037,-75,-2045,386,-96,44,106,15007,4,0,188,40,35718,-28,32,127,0,0,3952,10,0,2789,176,149,3357,-4,0,73,12,360041,0
360047,-84,-2050,382,-101,47,107,15006,-3,0,202,32,35719,-16,32,127,0,0,3952,-10,0,2789,176,149,3367,-4,0,73,12,360041,0
360057,-100,-2055,379,-102,47,104,15005,-4,-4,171,56,35711,-31,33,127,0,0,3952,10,0,2789,176,149,3377,-4,0,73,12,360041,0
360067,-79,-2046,386,-103,42,111,15004,-18,3,143,48,35705,-37,32,127,0,0,3952,32,0,2789,176,149,3387,-4,0,73,12,360057,0
360077,-80,-2058,373,-101,42,103,15007,0,5,174,8,35702,-37,32,127,0,0,3948,-54,0,2789,176,149,3397,-4,0,73,12,360057,0
360087,-90,-2049,367,-95,38,95,15004,9,-6,95,-8,35702,-37,32,127,0,0,3950,-21,0,2789,176,149,3407,-4,0,73,12,360072,0
360097,-87,-2057,370,-94,38,97,15005,0,5,116,24,35713,-57,32,127,0,0,3948,-21,0,2789,176,149,3417,-4,0,73,12,360103,0
360107,-76,-2060,372,-97,40,89,15002,-7,1,48,8,35710,-26,33,127,0,0,3948,-21,0,2789,176,149,3427,-4,0,73,12,360103,0
360117,-84,-2055,378,-95,39,85,15004,8,3,20,0,35711,-32,32,127,0,0,3948,0,0,2789,176,149,3437,-4,0,73,12,360103,0
360128,-85,-2061,379,-99,33,88,15001,-10,4,-22,8,35703,-37,32,127,0,0,3945,16,0,2789,176,149,3448,-4,0,73,12,360103,0
360138,-77,-2061,382,-100,36,85,15001,-6,-1,-79,-16,35705,-68,33,127,0,0,3946,5,0,2789,176,149,3458,-4,0,73,12,360119,0
360148,-97,-2062,375,-100,42,84,15000,1,-1,-87,-40,35705,-40,32,127,0,0,3944,-5,0,2789,176,149,3468,-4,0,73,12,360150,0
360158,-86,-2060,370,-100,43,75,14996,-2,-7,-143,-32,35704,-32,32,127,0,0,3940,-27,0,2789,176,149,3478,-4,0,73,12,360150,0
360168,-81,-2059,379,-99,45,70,14994,5,1,-125,-48,35700,-34,32,127,0,0,3938,-65,0,2789,176,149,3488,-4,0,73,12,360150,0
360178,-82,-2061,370,-99,41,69,14990,-11,0,-192,-64,35700,-38,32,127,0,0,3939,-43,0,2789,176,149,3498,-4,0,73,12,360166,0
360188,-76,-2056,379,-100,41,77,14981,-28,-13,-223,-48,35711,-31,33,127,0,0,3939,21,0,2789,176,149,3508,-4,0,73,12,360244,0
360198,-85,-2050,384,-105,40,72,14968,-19,-19,-100,-40,35705,-14,33,127,0,0,3934,-49,0,2789,176,149,3518,-4,0,73,12,360260,0
360208,-59,-2053,385,-101,43,66,14957,-17,6,-98,-48,35700,-15,33,127,0,0,3935,-43,0,2789,176,149,3528,-4,0,73,12,360260,0
360218,-59,-2052,377,-105,41,77,14950,-23,10,-200,-80,35698,-34,32,127,0,0,3940,71,0,2789,176,149,3538,-4,0,73,12,360260,0
360228,-90,-2061,371,-108,45,83,14950,7,16,-164,-80,35705,-40,33,127,0,0,3930,-27,0,2789,176,149,3548,-4,0,73,12,360275,0
360238,-77,-2049,375,-110,38,89,14943,-5,-1,-223,-64,35705,-24,32,127,0,0,3930,0,0,2789,176,149,3558,-4,0,73,12,360275,0
360248,-55,-2052,375,-116,38,93,14942,-7,1,-288,-112,35692,-14,32,127,0,0,3929,-21,0,2789,176,149,3568,-4,0,73,12,360275,0
360258,-80,-2051,380,-111,37,102,14938,0,6,-258,-80,35689,-19,32,127,0,0,3925,-38,0,2789,176,149,3578,-4,0,73,12,360275,0
360268,-43,-2049,379,-117,32,100,14935,-16,2,-303,-72,35696,-30,32,127,0,0,3925,-16,0,2789,176,149,3588,-4,0,73,12,360275,0
360278,-65,-2061,373,-115,35,103,14936,-3,6,-331,-96,35697,-7,33,127,0,0,3929,16,0,2789,176,149,3598,-4,0,73,12,360275,0
360288,-84,-2061,376,-123,38,102,14936,-2,2,-333,-96,35702,-2,32,127,0,0,3926,10,0,2789,176,149,3608,-4,0,73,12,360275,0
360298,-82,-2061,370,-118,40,100,14934,-9,-3,-315,-96,35702,-1,32,127,0,0,3926,-5,0,2789,176,149,3618,-4,0,73,12,360275,0
360308,-69,-2058,367,-120,34,106,14934,-3,2,-338,-112,35727,-14,33,127,0,0,3924,-38,0,2789,176,149,3628,-4,0,73,12,360338,0
360318,-85,-2051,369,-118,37,93,14931,-3,-7,-359,-112,35732,7,32,127,0,0,3921,-76,0,2789,176,149,3638,-4,0,73,12,360338,0
360328,-74,-2060,374,-112,42,92,14925,-7,-8,-352,-120,35726,0,32,127,0,0,3925,-43,0,2789,176,149,3648,-4,0,73,12,360338,0
360338,-90,-2054,368,-119,31,90,14916,-21,-7,-332,-104,35706,-11,33,127,0,0,3922,-16,0,2789,176,149,3658,-4,0,73,12,360338,0
360348,-84,-2058,366,-117,37,87,14890,-70,-43,-174,-72,35694,-4,32,127,0,0,3923,-5,0,2789,176,149,3668,-4,0,73,12,360353,0
360358,-96,-2060,371,-119,43,75,14870,-10,-13,-35,-32,35694,7,33,127,0,0,3919,-10,0,2789,176,149,3678,-4,0,73,12,360369,0
360369,-56,-2064,364,-118,39,69,14869,-12,61,-126,-48,35700,15,33,127,0,0,3919,-32,0,2789,176,149,3689,-4,0,73,12,360369,0
360379,-60,-2074,361,-116,38,85,14867,-14,4,-216,-40,35704,24,32,127,0,0,3915,0,0,2789,176,149,3699,-4,0,73,12,360369,0
360389,-64,-2058,362,-117,29,92,14862,-14,-4,-251,-64,35717,9,33,127,0,0,3915,0,0,2789,176,149,3709,-4,0,73,12,360400,0
360399,-71,-2057,360,-116,32,98,14857,-15,2,-281,-80,35722,8,33,127,0,0,3911,-21,0,2789,176,149,3719,-4,0,73,12,360400,0
360409,-59,-2058,362,-113,30,97,14842,-35,-22,-213,-88,35720,5,33,127,0,0,3911,-32,0,2789,176,149,3729,-4,0,73,12,360400,0
360419,-66,-2052,357,-106,37,91,14817,-40,-36,-62,-16,35714,15,33,127,0,0,3911,-10,0,2789,176,149,3739,-4,0,73,12,360416,0
360429,-24,-2053,367,-114,41,110,14818,5,41,-107,-24,35708,-9,32,127,0,0,3911,10,0,2789,176,149,3749,-4,0,73,12,360416,0
360439,-64,-2055,369,-110,35,119,14819,13,45,-95,-24,35717,-24,32,127,0,0,3908,-10,0,2789,176,149,3759,-4,0,73,12,360447,0
360449,-85,-2049,362,-112,28,122,14817,-2,-3,-89,-24,35717,-4,32,127,0,0,3911,0,0,2789,176,149,3769,-4,0,73,12,360447,0
360459,-57,-2056,361,-110,34,124,14817,-9,2,-82,-24,35715,0,32,127,0,0,3908,-21,0,2789,176,149,3779,-4,0,73,12,360447,0
360469,-60,-2056,361,-105,37,123,14819,3,3,-98,-24,35721,-2,33,127,0,0,3911,10,0,2789,176,149,3789,-4,0,73,12,360447,0
360479,-46,-2056,363,-104,35,132,14817,-8,4,-79,-24,35723,-22,33,127,0,0,3911,0,0,2789,176,149,3799,-4,0,73,12,360463,0
360489,-51,-2053,356,-103,24,141,14818,0,1,-109,-48,35728,-5,32,127,0,0,3913,21,0,2789,176,149,3809,-4,0,73,12,360510,0
360499,-84,-2058,359,-101,38,149,14821,25,8,-58,-24,35718,7,32,127,0,0,3911,0,0,2789,176,149,3819,-4,0,73,12,360510,0
360509,-67,-2064,363,-100,43,141,14816,2,2,-58,-24,35705,-8,33,127,0,0,3911,0,0,2789,176,149,3829,-4,0,73,12,360510,0
360519,-53,-2067,374,-97,33,147,14817,-1,-2,-69,-24,35698,-13,32,127,0,0,3911,0,0,2789,176,149,3839,-4,0,73,12,360510,0
360529,-60,-2063,365,-100,44,151,14817,-4,3,-75,-24,35695,-29,33,127,0,0,3911,0,0,2789,176,149,3849,-4,0,73,12,360510,0
360539,-60,-2067,358,-101,46,152,14818,5,0,-67,-24,35694,-22,32,127,0,0,3911,-10,0,2789,176,149,3859,-4,0,73,12,360510,0
360549,-56,-2058,365,-92,44,166,14819,8,-1,-58,-24,35702,-20,32,127,0,0,3911,-21,0,2789,176,149,3869,-4,0,73,12,360541,0
360559,-77,-2058,357,-95,38,169,14818,10,0,-65,-24,35709,-41,33,127,0,0,3915,54,0,2789,176,149,3879,-4,0,73,12,360541,0
360569,-46,-2048,366,-97,37,179,14820,3,3,46,-16,35710,-37,32,127,0,0,3915,43,0,2789,176,149,3889,-4,0,73,12,360556,0
360579,-53,-2058,366,-92,27,191,14820,2,-3,82,16,35704,-12,32,127,0,0,3917,32,0,2789,176,149,3899,-4,0,73,12,360556,0
360589,-71,-2054,369,-96,27,198,14825,18,7,178,64,35689,-4,32,127,0,0,3919,32,0,2789,176,149,3909,-4,0,73,12,360572,0
360599,-72,-2059,364,-92,26,199,14825,5,0,218,24,35693,-7,32,127,0,0,3922,32,0,2789,176,149,3919,-4,0,73,12,360603,0
360609,-79,-2051,365,-97,31,198,14831,21,3,344,88,35697,-37,32,127,0,0,3924,21,0,2789,176,149,3929,-4,0,73,12,360603,0
360619,-69,-2055,363,-93,28,208,14835,7,6,367,72,35700,-23,33,127,0,0,3926,10,0,2789,176,149,3939,-4,0,73,12,360603,0
360629,-86,-2049,355,-94,39,209,14836,3,-15,390,112,35691,-20,32,127,0,0,3926,10,0,2789,176,149,3949,-4,0,73,12,360635,0
360640,-77,-2056,364,-87,28,202,14840,14,0,437,120,35692,-16,33,127,0,0,3932,49,0,2789,176,149,3960,-4,0,73,12,360635,0
360650,-86,-2051,361,-91,33,200,14855,39,27,429,136,35701,-21,33,127,0,0,3933,43,0,2789,176,149,3970,-4,0,73,12,360635,0
360660,-82,-2058,366,-89,28,203,14890,77,54,318,96,35704,-18,33,127,0,0,3938,21,0,2789,176,149,3980,-4,0,73,12,360697,0
360670,-69,-2060,361,-88,27,203,14895,-6,-29,394,104,35701,9,32,127,0,0,3940,16,0,2789,176,149,3990,-4,0,73,12,360697,0
360680,-104,-2059,355,-87,24,205,14896,6,-62,412,128,35699,10,32,127,0,0,3939,27,0,2789,176,149,4000,-4,0,73,12,360697,0
360690,-83,-2068,362,-91,33,185,14898,14,0,472,144,35702,7,32,127,0,0,3941,0,0,2789,176,149,4010,-4,0,73,12,360697,0
360700,-84,-2064,371,-93,36,194,14904,14,10,469,160,35696,3,33,127,0,0,3944,49,0,2789,176,149,4020,-4,0,73,12,360697,0
360710,-85,-2064,371,-87,25,182,14923,49,36,407,120,35690,-5,32,127,0,0,3944,-5,0,2789,176,149,4030,-4,0,73,12,360697,0
360720,-91,-2058,370,-91,29,195,14958,57,52,210,72,35689,-4,32,127,0,0,3949,60,0,2789,176,149,4040,-4,0,73,12,360697,0
360730,-104,-2057,370,-94,24,184,14963,-1,-44,349,136,35700,-19,33,127,0,0,3946,5,0,2789,176,149,4050,-4,0,73,12,360713,0
360740,-100,-2055,372,-90,27,187,14964,-2,-60,358,136,35725,-19,32,127,0,0,3949,5,0,2789,176,149,4060,-4,0,73,12,360713,0
360750,-91,-2063,367,-94,35,167,14968,14,5,398,120,35727,-11,33,127,0,0,3952,-10,0,2789,176,149,4070,-4,0,73,12,360744,0
360760,-85,-2060,371,-95,33,165,14972,12,8,400,112,35716,-13,32,127,0,0,3956,32,0,2789,176,149,4080,-4,0,73,12,360744,0
360770,-91,-2057,365,-94,37,169,14982,30,12,401,120,35691,-27,32,127,0,0,3955,0,0,2789,176,149,4090,-4,0,73,12,360760,0
360780,-80,-2054,365,-98,30,167,14999,43,27,286,136,35691,-42,32,127,0,0,3956,43,0,2789,176,149,4100,-4,0,73,12,360760,0
360790,-79,-2057,366,-96,37,177,15015,17,10,274,72,35700,-34,33,127,0,0,3957,-5,0,2789,176,149,4110,-4,0,73,12,360791,0
360800,-76,-2054,362,-94,28,167,15015,10,-42,367,104,35699,-10,32,127,0,0,3962,16,0,2789,176,149,4120,-4,0,73,12,360791,0
360810,-88,-2056,358,-97,31,170,15018,-4,-13,403,112,35699,-23,32,127,0,0,3961,0,0,2789,176,149,4130,-4,0,73,12,360791,0
360820,-92,-2061,366,-99,34,158,15019,1,1,403,136,35696,-29,32,127,0,0,3960,-21,0,2789,176,149,4140,-4,0,73,12,360791,0
360830,-88,-2049,363,-97,30,161,15016,-11,-13,392,136,35704,-43,32,127,0,0,3960,27,0,2789,176,149,4150,-4,0,73,12,360822,0
360840,-79,-2054,365,-102,33,165,15023,5,6,437,152,35696,-24,33,127,0,0,3962,-10,0,2789,176,149,4160,-4,0,73,12,360822,0
360850,-110,-2060,367,-98,34,149,15022,1,-2,472,176,35692,-34,33,127,0,0,3968,27,0,2789,176,149,4170,-4,0,73,12,360853,0
360860,-109,-2056,371,-100,31,152,15026,-5,3,480,168,35697,-46,32,127,0,0,3968,71,0,2789,176,149,4180,-4,0,73,12,360853,0
360870,-94,-2052,364,-106,32,135,15028,2,-5,499,168,35699,-62,33,127,0,0,3964,10,0,2789,176,149,4190,-4,0,73,12,360853,0
360880,-98,-2052,361,-105,36,130,15030,6,-3,505,160,35697,-54,32,127,0,0,3971,38,0,2789,176,149,4200,-4,0,73,12,360869,0
360891,-97,-2060,370,-103,30,116,15033,11,6,503,144,35685,-33,32,127,0,0,3966,-43,0,2789,176,149,4211,-4,0,73,12,360869,0
360901,-98,-2061,363,-109,33,109,15033,-4,0,492,144,35697,-36,33,127,0,0,3968,10,0,2789,176,149,4221,-4,0,73,12,360947,0
360911,-96,-2063,368,-108,34,109,15034,-2,-4,505,176,35715,-41,32,127,0,0,3966,0,0,2789,176,149,4231,-4,0,73,12,360947,0
360921,-116,-2073,367,-108,36,108,15035,-4,-4,494,184,35714,-35,33,127,0,0,3966,-21,0,2789,176,149,4241,-4,0,73,12,360963,0
360931,-76,-2057,367,-114,37,102,15038,5,3,502,184,35702,-53,32,127,0,0,3966,-21,0,2789,176,149,4251,-4,0,73,12,360963,0
360941,-104,-2060,366,-113,39,112,15039,0,-6,456,120,35685,-61,32,127,0,0,3968,0,0,2789,176,149,4261,-4,0,73,12,360963,0
360951,-103,-2058,361,-114,31,107,15040,8,-2,469,112,35698,-71,33,127,0,0,3966,-10,0,2789,176,149,4271,-4,0,73,12,360963,0
360961,-87,-2058,362,-106,38,105,15040,11,1,516,160,35703,-55,32,127,0,0,3966,-10,0,2789,176,149,4281,-4,0,73,12,360963,0
360971,-79,-2056,359,-115,32,106,15042,-7,6,393,112,35698,-35,32,127,0,0,3966,0,0,2789,176,149,4291,-4,0,73,12,360963,0
360981,-89,-2059,348,-112,29,108,15044,15,-4,450,48,35692,-45,32,127,0,0,3966,-43,0,2789,176,149,4301,-4,0,73,12,360963,0
360991,-107,-2053,353,-110,37,112,15046,7,4,418,104,35701,-38,32,127,0,0,3966,-21,0,2789,176,149,4311,-4,0,73,12,360978,0
361001,-93,-2053,353,-107,33,111,15044,-2,-10,394,112,35716,-49,33,127,0,0,3966,0,0,2789,176,149,4321,-4,0,73,12,360978,0
361011,-83,-2051,350,-106,39,111,15045,1,5,393,104,35726,-40,33,127,0,0,3966,0,0,2789,176,149,4331,-4,0,73,12,361025,0
361021,-79,-2058,354,-111,36,112,15044,0,-2,375,120,35726,-36,33,127,0,0,3966,10,0,2789,176,149,4341,-4,0,73,12,361025,0
361031,-81,-2053,360,-103,38,121,15044,-6,0,358,120,35720,-45,32,127,0,0,3963,10,0,2789,176,149,4351,-4,0,73,12,361025,0
361041,-80,-2063,359,-108,38,111,15044,-5,-4,361,112,35712,-48,32,127,0,0,3966,10,0,2789,176,149,4361,-4,0,73,12,361041,0
361051,-92,-2063,356,-102,40,117,15044,-5,-1,349,88,35704,-62,32,127,0,0,3966,21,0,2789,176,149,4371,-4,0,73,12,361041,0
361061,-86,-2061,360,-101,42,122,15045,11,-1,357,88,35702,-68,32,127,0,0,3963,-10,0,2789,176,149,4381,-4,0,73,12,361041,0
361071,-78,-2050,361,-100,37,123,15043,-2,3,341,120,35711,-77,33,127,0,0,3963,10,0,2789,176,149,4391,-4,0,73,12,361072,0
361081,-88,-2064,352,-98,37,120,15043,-3,-2,321,88,35724,-64,33,127,0,0,3966,21,0,2789,176,149,4401,-4,0,73,12,361072,0
361091,-106,-2057,356,-104,37,128,15042,0,4,357,80,35723,-44,33,127,0,0,3963,-10,0,2789,176,149,4411,-4,0,73,12,361072,0
361101,-98,-2057,354,-104,38,119,15042,4,3,330,88,35708,-40,32,127,0,0,3966,21,0,2789,176,149,4421,-4,0,73,12,361103,0
361111,-104,-2066,349,-99,35,118,15043,3,5,354,88,35703,-51,32,127,0,0,3966,0,0,2789,176,149,4431,-4,0,73,12,361103,0
361121,-89,-2054,357,-100,41,122,15043,4,6,363,120,35714,-66,33,127,0,0,3963,10,0,2789,176,149,4441,-4,0,73,12,361103,0
361132,-70,-2052,353,-98,41,112,15042,-10,-4,341,88,35719,-51,32,127,0,0,3967,5,0,2789,176,149,4452,-4,0,73,12,361119,0
361142,-98,-2053,362,-97,44,119,15044,9,-2,377,88,35709,-39,32,127,0,0,3963,-21,0,2789,176,149,4462,-4,0,73,12,361119,0
361152,-83,-2056,356,-100,47,113,15042,-3,-1,331,88,35703,-47,33,127,0,0,3967,32,0,2789,176,149,4472,-4,0,73,12,361150,0
361162,-86,-2058,350,-96,40,112,15046,9,5,357,80,35716,-39,32,127,0,0,3963,-32,0,2789,176,149,4482,-4,0,73,12,361150,0
361172,-92,-2063,354,-100,36,112,15041,-7,-12,332,88,35717,-37,33,127,0,0,3963,0,0,2789,176,149,4492,-4,0,73,12,361150,0
361182,-82,-2063,350,-97,28,116,15043,-2,-1,309,88,35708,-42,32,127,0,0,3963,5,0,2789,176,149,4502,-4,0,73,12,361166,0
361192,-97,-2057,352,-92,34,115,15042,-3,1,320,88,35702,-44,32,127,0,0,3963,0,0,2789,176,149,4512,-4,0,73,12,361166,0
361202,-96,-2059,348,-87,41,115,15043,0,-2,339,88,35704,-73,33,127,0,0,3963,-16,0,2789,176,149,4522,-4,0,73,12,361197,0
361212,-99,-2060,351,-92,37,112,15043,2,-1,335,88,35719,-62,33,127,0,0,3963,-10,0,2789,176,149,4532,-4,0,73,12,361197,0
361222,-87,-2054,355,-87,37,106,15042,3,-1,322,88,35709,-49,32,127,0,0,3963,0,0,2789,176,149,4542,-4,0,73,12,361213,0
361232,-90,-2052,354,-91,39,105,15043,4,5,317,88,35705,-35,32,127,0,0,3963,27,0,2789,176,149,4552,-4,0,73,12,361213,0
361242,-90,-2057,360,-90,28,101,15043,0,0,307,64,35704,-44,32,127,0,0,3964,0,0,2789,176,149,4562,-4,0,73,12,361244,0
361252,-109,-2063,360,-98,40,98,15043,11,4,307,40,35717,-56,32,127,0,0,3966,-5,0,2789,176,149,4572,-4,0,73,12,361244,0
361262,-104,-2057,354,-94,40,98,15041,10,0,304,72,35723,-48,33,127,0,0,3961,10,0,2789,176,149,4582,-4,0,73,12,361244,0
361272,-92,-2057,351,-99,35,90,15040,-3,0,264,72,35710,-51,32,127,0,0,3955,-60,0,2789,176,149,4592,-4,0,73,12,361244,0
361282,-89,-2058,350,-99,33,81,15035,-11,-8,210,56,35703,-53,32,127,0,0,3959,-10,0,2789,176,149,4602,-4,0,73,12,361353,0
361292,-86,-2062,363,-95,34,78,15037,9,4,237,32,35708,-57,32,127,0,0,3957,-65,0,2789,176,149,4612,-4,0,73,12,361353,0
361302,-105,-2060,351,-97,42,85,15034,0,3,196,56,35710,-48,32,127,0,0,3956,-21,0,2789,176,149,4622,-4,0,73,12,361353,0
361312,-78,-2064,355,-102,43,90,15033,-2,-2,153,40,35699,-39,32,127,0,0,3957,0,0,2789,176,149,4632,-4,0,73,12,361353,0
361322,-76,-2064,354,-98,34,87,15032,7,6,151,40,35689,-44,33,127,0,0,3957,0,0,2789,176,149,4642,-4,0,73,12,361353,0
361332,-79,-2063,359,-96,36,92,15032,0,2,152,40,35693,-43,32,127,0,0,3953,-32,0,2789,176,149,4652,-4,0,73,12,361369,0
361342,-74,-2065,351,-97,34,99,15027,-13,-13,111,24,35697,-44,33,127,0,0,3955,10,0,2789,176,149,4662,-4,0,73,12,361369,0
361352,-68,-2063,357,-92,39,103,15026,-11,-1,91,8,35692,-47,32,127,0,0,3952,-21,0,2789,176,149,4672,-4,0,73,12,361369,0
361362,-67,-2059,351,-92,34,102,15024,-3,1,105,32,35684,-46,32,127,0,0,3948,-49,0,2789,176,149,4682,-4,0,73,12,361369,0
361372,-42,-2059,354,-97,29,108,15023,-8,-4,33,8,35688,-60,33,127,0,0,3952,-10,0,2789,176,149,4692,-4,0,73,12,361369,0
361383,-78,-2065,356,-93,29,115,15022,2,2,20,24,35704,-52,33,127,0,0,3952,21,0,2789,176,149,4703,-4,0,73,12,361369,0
361393,-57,-2061,355,-96,32,113,15022,-3,12,32,56,35715,-38,33,127,0,0,3950,-10,0,2789,176,149,4713,-4,0,73,12,361369,0
361403,-50,-2056,352,-89,39,112,15021,7,-1,44,-32,35725,-32,33,127,0,0,3950,-32,0,2789,176,149,4723,-4,0,73,12,361400,0
361413,-97,-2057,350,-95,41,125,15022,0,0,36,16,35726,-37,32,127,0,0,3952,0,0,2789,176,149,4733,-4,0,73,12,361400,0
361423,-79,-2056,356,-95,44,123,15019,-7,-4,28,-24,35715,-56,33,127,0,0,3950,-10,0,2789,176,149,4743,-4,0,73,12,361400,0
361433,-99,-2058,342,-95,37,119,15021,4,5,40,-32,35703,-49,32,127,0,0,3950,-10,0,2789,176,149,4753,-4,0,73,12,361416,0
361443,-90,-2052,343,-89,31,114,15019,-9,-1,6,-8,35699,-55,32,127,0,0,3952,21,0,2789,176,149,4763,-4,0,73,12,361416,0
361453,-74,-2054,354,-90,29,119,15020,4,-1,57,-24,35714,-52,32,127,0,0,3950,-32,0,2789,176,149,4773,-4,0,73,12,361447,0
361463,-89,-2053,352,-86,40,121,15020,13,5,52,32,35714,-40,32,127,0,0,3952,0,0,2789,176,149,4783,-4,0,73,12,361447,0
361473,-89,-2057,358,-89,40,124,15021,9,-1,86,-32,35702,-36,32,127,0,0,3952,-21,0,2789,176,149,4793,-4,0,73,12,361447,0
361483,-119,-2054,353,-90,42,125,15020,12,0,38,-8,35693,-30,33,127,0,0,3950,-10,0,2789,176,149,4803,-4,0,73,12,361463,0
361493,-55,-2066,352,-82,40,113,15019,-2,4,51,16,35696,-44,32,127,0,0,3950,0,0,2789,176,149,4813,-4,0,73,12,361478,0
361503,-59,-2070,348,-85,35,125,15019,-11,2,57,24,35708,-49,33,127,0,0,3950,-32,0,2789,176,149,4823,-4,0,73,12,361494,0
361513,-113,-2055,357,-80,39,130,15020,4,-2,46,-16,35699,-45,32,127,0,0,3950,-32,0,2789,176,149,4833,-4,0,73,12,361494,0
361523,-108,-2056,351,-83,34,131,15021,13,10,78,16,35687,-42,32,127,0,0,3950,-32,0,2789,176,149,4843,-4,0,73,12,361494,0
361533,-101,-2058,356,-83,33,131,15017,-9,-5,42,32,35693,-35,32,127,0,0,3955,43,0,2789,176,149,4853,-4,0,73,12,361525,0
361543,-93,-2063,355,-78,42,130,15019,-3,2,82,16,35697,-55,32,127,0,0,3950,-43,0,2789,176,149,4863,-4,0,73,12,361525,0
361553,-109,-2065,352,-76,33,129,15017,14,1,80,24,35697,-53,33,127,0,0,3955,10,0,2789,176,149,4873,-4,0,73,12,361525,0
361563,-117,-2059,360,-74,34,130,15019,-5,3,112,-16,35693,-37,33,127,0,0,3952,-32,0,2789,176,149,4883,-4,0,73,12,361541,0
361573,-50,-2053,355,-78,40,126,15019,0,-1,82,16,35696,-48,32,127,0,0,3952,10,0,2789,176,149,4893,-4,0,73,12,361572,0
361583,-72,-2064,348,-79,45,128,15017,-4,1,37,0,35701,-57,32,127,0,0,3950,0,0,2789,176,149,4903,-4,0,73,12,361572,0
361593,-76,-2056,347,-77,39,137,15017,5,-1,-2,-8,35698,-71,32,127,0,0,3952,21,0,2789,176,149,4913,-4,0,73,12,361572,0
361603,-105,-2065,347,-73,34,135,15021,17,14,73,32,35694,-48,32,127,0,0,3952,10,0,2789,176,149,4923,-4,0,73,12,361587,0
361614,-89,-2050,355,-71,28,132,15019,-2,2,106,16,35702,-55,33,127,0,0,3952,-16,0,2789,176,149,4934,-4,0,73,12,361603,0
361624,-67,-2059,359,-72,39,126,15021,11,-1,130,40,35712,-52,32,127,0,0,3951,-38,0,2789,176,149,4944,-4,0,73,12,361619,0
361634,-104,-2047,353,-75,32,134,15021,6,4,90,16,35707,-44,33,127,0,0,3956,-5,0,2789,176,149,4954,-4,0,73,12,361619,0
361644,-139,-2051,353,-74,30,138,15021,8,2,143,40,35698,-32,33,127,0,0,3951,-5,0,2789,176,149,4964,-4,0,73,12,361634,0
361654,-110,-2054,354,-73,36,120,15019,-3,-4,130,40,35687,-34,33,127,0,0,3955,5,0,2789,176,149,4974,-4,0,73,12,361634,0
361664,-84,-2060,357,-73,34,125,15021,-5,-3,166,40,35693,-61,32,127,0,0,3951,-32,0,2789,176,149,4984,-4,0,73,12,361666,0
361674,-99,-2054,355,-68,32,117,15022,10,7,149,40,35703,-55,32,127,0,0,3955,-10,0,2789,176,149,4994,-4,0,73,12,361666,0
361684,-94,-2063,354,-76,30,117,15019,-13,-2,142,24,35696,-56,32,127,0,0,3956,10,0,2789,176,149,5004,-4,0,73,12,361666,0
361694,-65,-2056,355,-75,28,116,15021,9,-1,163,32,35695,-31,32,127,0,0,3955,0,0,2789,176,149,5014,-4,0,73,12,361681,0
361704,-88,-2058,355,-73,30,115,15018,-8,2,103,16,35691,-57,32,127,0,0,3956,54,0,2789,176,149,5024,-4,0,73,12,361697,0
361714,-77,-2073,356,-74,32,112,15021,-2,1,161,40,35700,-59,32,127,0,0,3955,0,0,2789,176,149,5034,-4,0,73,12,361697,0
361724,-87,-2065,357,-71,34,117,15021,0,0,162,40,35695,-44,33,127,0,0,3955,0,0,2789,176,149,5044,-4,0,73,12,361697,0
361734,-80,-2066,360,-74,31,120,15020,-5,-6,161,16,35694,-30,32,127,0,0,3956,-5,0,2789,176,149,5054,-4,0,73,12,361744,0
361744,-107,-2067,358,-75,35,120,15021,0,-1,133,40,35691,-38,32,127,0,0,3955,5,0,2789,176,149,5064,-4,0,73,12,361744,0
361754,-59,-2060,363,-78,34,122,15022,4,3,119,40,35697,-59,33,127,0,0,3951,-27,0,2789,176,149,5074,-4,0,73,12,361744,0
361764,-73,-2063,369,-81,34,124,15020,0,-3,78,40,35691,-57,32,127,0,0,3955,38,0,2789,176,149,5084,-4,0,73,12,361759,0
361774,-71,-2062,361,-78,33,118,15019,-11,-4,136,40,35690,-42,32,127,0,0,3948,-49,0,2789,176,149,5094,-4,0,73,12,361759,0
361784,-55,-2060,350,-84,33,113,15019,-7,-5,104,16,35703,-46,33,127,0,0,3952,-43,0,2789,176,149,5104,-4,0,73,12,361791,0
361794,-106,-2058,354,-77,28,126,15019,-3,-1,75,0,35713,-39,32,127,0,0,3953,-5,0,2789,176,149,5114,-4,0,73,12,361791,0
361804,-98,-2058,350,-76,34,125,15017,-3,-4,76,40,35709,-40,33,127,0,0,3951,32,0,2789,176,149,5124,-4,0,73,12,361791,0
361814,-68,-2053,354,-74,29,118,15018,-16,2,64,24,35695,-37,32,127,0,0,3952,0,0,2789,176,149,5134,-4,0,73,12,361791,0
361824,-65,-2053,356,-77,33,115,15022,6,7,108,16,35693,-40,32,127,0,0,3949,-76,0,2789,176,149,5144,-4,0,73,12,361822,0
361834,-112,-2049,356,-83,33,130,15021,15,4,92,24,35701,-50,32,127,0,0,3952,-10,0,2789,176,149,5154,-4,0,73,12,361822,0
361844,-76,-2057,362,-82,37,125,15018,-4,-5,109,24,35706,-51,32,127,0,0,3956,27,0,2789,176,149,5164,-4,0,73,12,361837,0
361854,-91,-2060,354,-80,33,128,15021,-9,7,126,16,35694,-34,32,127,0,0,3952,-32,0,2789,176,149,5174,-4,0,73,12,361837,0
361864,-115,-2059,357,-75,35,134,15018,4,-4,69,16,35699,-18,32,127,0,0,3952,16,0,2789,176,149,5184,-4,0,73,12,361900,0
361875,-87,-2060,358,-79,40,123,15019,-9,1,117,16,35703,-27,32,127,0,0,3955,0,0,2789,176,149,5195,-4,0,73,12,361900,0
361885,-51,-2051,361,-74,33,128,15022,8,4,130,48,35717,-35,32,127,0,0,3955,0,0,2789,176,149,5205,-4,0,73,12,361900,0
361895,-85,-2059,358,-78,40,122,15021,8,4,144,0,35699,-33,33,127,0,0,3952,-32,0,2789,176,149,5215,-4,0,73,12,361900,0
361905,-115,-2053,360,-79,32,126,15020,10,-4,124,48,35692,-44,32,127,0,0,3955,0,0,2789,176,149,5225,-4,0,73,12,361900,0
361915,-99,-2054,363,-82,32,117,15020,3,2,150,40,35688,-54,32,127,0,0,3955,21,0,2789,176,149,5235,-4,0,73,12,361900,0
361925,-71,-2061,363,-80,31,113,15019,-7,-1,117,8,35695,-60,33,127,0,0,3955,10,0,2789,176,149,5245,-4,0,73,12,361916,0
361935,-97,-2061,364,-82,25,120,15020,-7,10,93,-24,35714,-48,32,127,0,0,3955,0,0,2789,176,149,5255,-4,0,73,12,361947,0
361945,-50,-2055,352,-79,36,122,15022,18,8,146,48,35719,-10,32,127,0,0,3952,-21,0,2789,176,149,5265,-4,0,73,12,361947,0
361955,-72,-2052,357,-79,38,115,15019,11,-2,111,16,35725,-29,33,127,0,0,3952,-10,0,2789,176,149,5275,-4,0,73,12,361947,0
361965,-91,-2067,365,-79,38,125,15020,1,2,130,40,35726,-32,32,127,0,0,3955,-10,0,2789,176,149,5285,-4,0,73,12,361947,0
361975,-102,-2068,359,-77,32,123,15019,-5,0,117,56,35723,-46,33,127,0,0,3955,21,0,2789,176,149,5295,-4,0,73,12,361962,0
361985,-72,-2060,364,-83,35,126,15020,-7,3,102,-16,35716,-35,32,127,0,0,3955,0,0,2789,176,149,5305,-4,0,73,12,361962,0
361995,-85,-2059,365,-78,36,135,15023,15,10,165,32,35711,-19,32,127,0,0,3952,-21,0,2789,176,149,5315,-4,0,73,12,361994,0
362005,-105,-2060,356,-78,31,130,15019,0,0,126,56,35712,-52,33,127,0,0,3955,10,0,2789,176,149,5325,-4,0,73,12,361994,0
362015,-71,-2060,357,-83,33,134,15020,-17,-4,112,0,35711,-51,32,127,0,0,3955,10,0,2789,176,149,5335,-4,0,73,12,361994,0
362025,-91,-2053,356,-74,37,136,15020,7,6,91,16,35714,-37,32,127,0,0,3955,43,0,2789,176,149,5345,-4,0,73,12,362103,0
362035,-86,-2045,359,-78,32,134,15020,-5,-1,123,56,35705,-28,32,127,0,0,3955,10,0,2789,176,149,5355,-4,0,73,12,362103,0
362045,-82,-2058,360,-77,38,116,15021,9,-1,155,32,35702,-32,32,127,0,0,3955,0,0,2789,176,149,5365,-4,0,73,12,362103,0
362055,-92,-2051,359,-82,32,119,15021,10,-2,118,0,35701,-51,32,127,0,0,3955,21,0,2789,176,149,5375,-4,0,73,12,362119,0
362065,-81,-2052,364,-81,38,116,15020,-1,-2,154,32,35697,-47,33,127,0,0,3952,-32,0,2789,176,149,5385,-4,0,73,12,362119,0
362075,-90,-2060,358,-81,36,110,15021,20,2,100,16,35691,-45,32,127,0,0,3955,0,0,2789,176,149,5395,-4,0,73,12,362119,0
362085,-73,-2046,362,-83,31,120,15020,4,3,116,16,35694,-38,32,127,0,0,3955,10,0,2789,176,149,5405,-4,0,73,12,362119,0
362095,-68,-2056,360,-82,39,124,15021,-3,5,126,-32,35697,-46,33,127,0,0,3952,-21,0,2789,176,149,5415,-4,0,73,12,362119,0
362105,-62,-2062,358,-82,32,118,15020,11,-1,54,-8,35701,-52,32,127,0,0,3955,32,0,2789,176,149,5425,-4,0,73,12,362119,0
362115,-60,-2054,366,-86,34,126,15021,6,3,57,-24,35694,-41,32,127,0,0,3952,21,0,2789,176,149,5435,-4,0,73,12,362119,0
362125,-58,-2071,359,-85,34,115,15021,9,7,88,48,35691,-50,33,127,0,0,3952,0,0,2789,176,149,5445,-4,0,73,12,362119,0
362136,-65,-2069,358,-87,29,108,15018,1,-10,93,24,35702,-47,32,127,0,0,3952,0,0,2789,176,149,5456,-4,0,73,12,362119,0
362146,-98,-2062,368,-86,32,111,15018,-10,-3,78,24,35721,-47,33,127,0,0,3956,32,0,2789,176,149,5466,-4,0,73,12,362134,0
362156,-79,-2063,366,-87,36,120,15020,-4,0,105,16,35733,-45,33,127,0,0,3952,-5,0,2789,176,149,5476,-4,0,73,12,362134,0
362166,-81,-2061,372,-88,30,121,15020,8,2,84,16,35725,-36,33,127,0,0,3952,0,0,2789,176,149,5486,-4,0,73,12,362181,0
362176,-91,-2060,365,-94,38,120,15020,10,3,52,16,35726,-57,33,127,0,0,3952,16,0,2789,176,149,5496,-4,0,73,12,362181,0
362186,-84,-2049,361,-93,32,121,15019,-4,0,49,40,35721,-54,32,127,0,0,3951,27,0,2789,176,149,5506,-4,0,73,12,362197,0
362196,-56,-2045,357,-96,31,121,15020,-2,4,51,16,35709,-41,33,127,0,0,3952,0,0,2789,176,149,5516,-4,0,73,12,362197,0
362206,-64,-2063,353,-87,25,120,15020,0,-1,52,16,35694,-35,32,127,0,0,3949,-27,0,2789,176,149,5526,-4,0,73,12,362197,0
362216,-81,-2054,353,-89,26,123,15017,0,-8,-4,0,35692,-36,32,127,0,0,3953,32,0,2789,176,149,5536,-4,0,73,12,362197,0
362226,-65,-2049,357,-89,37,118,15020,2,1,51,-8,35710,-50,32,127,0,0,3953,27,0,2789,176,149,5546,-4,0,73,12,362212,0
362236,-99,-2059,357,-91,29,121,15020,13,1,48,-8,35722,-30,33,127,0,0,3953,27,0,2789,176,149,5556,-4,0,73,12,362228,0
362246,-92,-2048,364,-92,35,123,15019,0,2,66,16,35715,-20,32,127,0,0,3949,-27,0,2789,176,149,5566,-4,0,73,12,362244,0
362256,-92,-2053,362,-91,31,128,15017,0,-1,27,0,35705,-27,32,127,0,0,3953,38,0,2789,176,149,5576,-4,0,73,12,362244,0
362266,-105,-2057,360,-89,36,120,15019,0,2,58,-8,35703,-43,33,127,0,0,3953,0,0,2789,176,149,5586,-4,0,73,12,362259,0
362276,-123,-2061,363,-93,34,126,15017,-7,-1,-2,48,35710,-44,33,127,0,0,3951,71,0,2789,176,149,5596,-4,0,73,12,362275,0
362286,-29,-2064,364,-93,37,109,15021,4,6,78,16,35699,-31,33,127,0,0,3956,16,0,2789,176,149,5606,-4,0,73,12,362275,0
362296,-106,-2061,362,-89,28,114,15020,13,-1,93,16,35697,-28,33,127,0,0,3952,-10,0,2789,176,149,5616,-4,0,73,12,362275,0
362306,-60,-2056,354,-92,45,125,15019,8,-7,65,-8,35704,-37,32,127,0,0,3953,0,0,2789,176,149,5626,-4,0,73,12,362306,0
362316,-109,-2063,359,-95,38,126,15019,7,-1,49,-8,35715,-36,32,127,0,0,3953,27,0,2789,176,149,5636,-4,0,73,12,362306,0
362326,-82,-2053,363,-91,34,125,15020,9,5,77,-8,35709,-35,32,127,0,0,3953,0,0,2789,176,149,5646,-4,0,73,12,362306,0
362336,-112,-2049,365,-97,36,126,15021,22,11,84,16,35691,-40,32,127,0,0,3952,-10,0,2789,176,149,5656,-4,0,73,12,362322,0
362346,-67,-2053,365,-95,36,124,15018,6,-1,23,0,35688,-64,33,127,0,0,3953,32,0,2789,176,149,5666,-4,0,73,12,362337,0
362356,-94,-2054,366,-97,35,125,15017,-19,-1,4,24,35701,-64,32,127,0,0,3949,43,0,2789,176,149,5676,-4,0,73,12,362337,0
362366,-64,-2058,362,-93,32,107,15018,-1,0,31,24,35701,-37,33,127,0,0,3952,21,0,2789,176,149,5686,-4,0,73,12,362337,0
362377,-74,-2061,367,-96,43,102,15019,-7,-3,78,16,35700,-35,32,127,0,0,3952,-10,0,2789,176,149,5697,-4,0,73,12,362369,0
362387,-82,-2062,365,-101,38,106,15020,0,-2,39,-8,35697,-39,32,127,0,0,3950,10,0,2789,176,149,5707,-4,0,73,12,362384,0
362397,-51,-2058,358,-103,30,95,15017,-14,-1,-27,0,35702,-60,33,127,0,0,3948,0,0,2789,176,149,5717,-4,0,73,12,362400,0
362407,-56,-2045,348,-105,38,106,15015,-8,-8,-74,8,35703,-58,33,127,0,0,3948,21,0,2789,176,149,5727,-4,0,73,12,362400,0
362417,-47,-2061,358,-99,34,98,15014,-19,-4,-86,-24,35693,-56,33,127,0,0,3948,10,0,2789,176,149,5737,-4,0,73,12,362415,0
362427,-63,-2051,357,-100,39,108,15016,4,-1,-60,-24,35706,-60,32,127,0,0,3948,0,0,2789,176,149,5747,-4,0,73,12,362431,0
362437,-64,-2053,357,-97,35,107,15013,-11,-7,-106,-8,35708,-36,33,127,0,0,3948,21,0,2789,176,149,5757,-4,0,73,12,362447,0
362447,-88,-2059,361,-99,34,107,15017,18,2,-57,-56,35706,-24,33,127,0,0,3948,-32,0,2789,176,149,5767,-4,0,73,12,362447,0
362457,-85,-2051,354,-104,35,112,15013,0,-2,-90,-48,35691,-26,33,127,0,0,3946,-10,0,2789,176,149,5777,-4,0,73,12,362447,0
362467,-82,-2048,353,-97,41,107,15011,-2,-3,-140,-32,35686,-39,33,127,0,0,3944,-21,0,2789,176,149,5787,-4,0,73,12,362447,0
362477,-95,-2060,351,-96,38,102,15011,2,8,-163,-72,35694,-56,32,127,0,0,3946,0,0,2789,176,149,5797,-4,0,73,12,362494,0
362487,-83,-2054,351,-94,31,105,15011,1,1,-143,-40,35709,-50,32,127,0,0,3946,-10,0,2789,176,149,5807,-4,0,73,12,362494,0
362497,-80,-2049,356,-97,36,103,15009,-2,-1,-184,-56,35704,-41,32,127,0,0,3944,0,0,2789,176,149,5817,-4,0,73,12,362494,0
362507,-82,-2055,360,-91,39,99,15009,0,-2,-166,-32,35694,-34,32,127,0,0,3944,-10,0,2789,176,149,5827,-4,0,73,12,362494,0
362517,-84,-2061,356,-96,39,97,15007,-7,-3,-203,-48,35683,-44,33,127,0,0,3941,-21,0,2789,176,149,5837,-4,0,73,12,362525,0
362527,-71,-2062,351,-94,36,99,15006,-4,-1,-251,-72,35701,-42,32,127,0,0,3941,-10,0,2789,176,149,5847,-4,0,73,12,362525,0
362537,-68,-2060,355,-91,37,98,15007,-4,7,-214,-48,35701,-32,33,127,0,0,3944,0,0,2789,176,149,5857,-4,0,73,12,362525,0
362547,-72,-2060,357,-92,34,101,15003,-11,-11,-255,-104,35694,-40,32,127,0,0,3944,10,0,2789,176,149,5867,-4,0,73,12,362525,0
362557,-59,-2061,363,-94,41,107,15002,0,-5,-232,-96,35694,-43,32,127,0,0,3941,10,0,2789,176,149,5877,-4,0,73,12,362556,0
362567,-76,-2062,358,-96,39,107,15000,-8,4,-258,-48,35710,-53,33,127,0,0,3939,0,0,2789,176,149,5887,-4,0,73,12,362556,0
362577,-69,-2060,357,-89,32,116,14998,-3,1,-309,-72,35715,-39,33,127,0,0,3939,0,0,2789,176,149,5897,-4,0,73,12,362556,0
362587,-81,-2063,355,-94,41,115,14992,-13,-8,-293,-56,35697,-32,32,127,0,0,3937,10,0,2789,176,149,5907,-4,0,73,12,362572,0
362597,-64,-2058,353,-90,40,117,14988,-19,-5,-334,-120,35682,-47,33,127,0,0,3939,21,0,2789,176,149,5917,-4,0,73,12,362587,0
362607,-90,-2065,351,-91,34,121,14978,-20,-12,-239,-64,35688,-40,32,127,0,0,3939,32,0,2789,176,149,5927,-4,0,73,12,362587,0
362617,-49,-2057,352,-87,39,125,14973,-9,-1,-191,-56,35697,-33,32,127,0,0,3937,0,0,2789,176,149,5937,-4,0,73,12,362603,0
362628,-66,-2052,359,-87,41,114,14965,1,5,-122,-40,35694,-24,32,127,0,0,3937,-27,0,2789,176,149,5948,-4,0,73,12,362619,0
362638,-85,-2060,355,-87,42,124,14963,0,11,-136,-40,35690,-26,32,127,0,0,3940,10,0,2789,176,149,5958,-4,0,73,12,362619,0
362648,-104,-2053,366,-88,34,126,14963,2,16,-95,-8,35696,-42,33,127,0,0,3936,16,0,2789,176,149,5968,-4,0,73,12,362619,0
362658,-73,-2060,356,-91,37,119,14964,2,4,-102,-16,35712,-22,33,127,0,0,3936,5,0,2789,176,149,5978,-4,0,73,12,362650,0
362668,-54,-2059,355,-95,33,120,14964,-3,-1,-76,-8,35707,-20,33,127,0,0,3936,-16,0,2789,176,149,5988,-4,0,73,12,362665,0
362678,-86,-2054,357,-90,35,121,14960,-24,-12,-135,-24,35700,-6,32,127,0,0,3934,-5,0,2789,176,149,5998,-4,0,73,12,362665,0
362688,-49,-2062,353,-90,37,113,14960,-7,-3,-117,0,35687,-14,32,127,0,0,3936,-16,0,2789,176,149,6008,-4,0,73,12,362665,0
362698,-45,-2055,360,-95,35,116,14960,-13,8,-105,-24,35698,-23,32,127,0,0,3937,0,0,2789,176,149,6018,-4,0,73,12,362697,0
362708,-66,-2056,357,-89,35,120,14961,2,-3,-88,-56,35703,-12,33,127,0,0,3935,-65,0,2789,176,149,6028,-4,0,73,12,362697,0
362718,-117,-2060,352,-95,33,126,14960,21,0,-52,-24,35695,-20,32,127,0,0,3937,-38,0,2789,176,149,6038,-4,0,73,12,362697,0
362728,-80,-2059,359,-91,38,123,14957,-17,-6,-113,-24,35698,-13,32,127,0,0,3937,5,0,2789,176,149,6048,-4,0,73,12,362728,0
362738,-45,-2052,354,-87,33,120,14960,12,6,-55,-32,35707,-22,33,127,0,0,3934,-38,0,2789,176,149,6058,-4,0,73,12,362728,0
362748,-46,-2057,355,-92,35,114,14957,-4,3,-83,-16,35714,-13,33,127,0,0,3937,16,0,2789,176,149,6068,-4,0,73,12,362728,0
362758,-91,-2056,363,-89,37,125,14958,-11,-3,-93,-24,35699,-7,32,127,0,0,3937,-21,0,2789,176,149,6078,-4,0,73,12,362775,0
362768,-97,-2054,358,-89,36,133,14961,16,11,-61,-32,35695,-20,33,127,0,0,3937,-27,0,2789,176,149,6088,-4,0,73,12,362806,0
362778,-74,-2066,354,-85,31,120,14956,-5,-1,-74,-24,35697,-17,32,127,0,0,3940,49,0,2789,176,149,6098,-4,0,73,12,362806,0
362788,-61,-2058,355,-84,34,125,14958,-11,-6,-74,0,35707,-19,33,127,0,0,3936,16,0,2789,176,149,6108,-4,0,73,12,362806,0
362798,-57,-2066,356,-91,29,120,14958,-2,3,-91,-24,35688,-26,32,127,0,0,3937,16,0,2789,176,149,6118,-4,0,73,12,362806,0
362808,-66,-2058,358,-86,30,125,14958,2,1,-66,-24,35681,-20,32,127,0,0,3937,21,0,2789,176,149,6128,-4,0,73,12,362806,0
362818,-106,-2069,345,-87,37,129,14959,0,0,-69,-24,35685,-41,33,127,0,0,3937,-38,0,2789,176,149,6138,-4,0,73,12,362806,0
362828,-123,-2061,348,-87,28,128,14960,21,0,-76,-32,35695,-33,32,127,0,0,3940,-5,0,2789,176,149,6148,-4,0,73,12,362806,0
362838,-61,-2056,359,-86,32,128,14959,6,5,-35,0,35700,-26,33,127,0,0,3936,-10,0,2789,176,149,6158,-4,0,73,12,362822,0
362848,-55,-2050,361,-90,38,122,14957,0,-8,-62,-24,35701,-21,33,127,0,0,3934,-32,0,2789,176,149,6168,-4,0,73,12,362853,0
362858,-110,-2064,355,-84,34,113,14958,0,-3,-66,-24,35706,-16,33,127,0,0,3937,-10,0,2789,176,149,6178,-4,0,73,12,362853,0
362868,-86,-2057,351,-90,30,115,14958,-7,1,-51,0,35712,-18,32,127,0,0,3939,32,0,2789,176,149,6188,-4,0,73,12,362853,0
362879,-65,-2060,348,-87,31,107,14957,-18,0,-72,-24,35707,-2,33,127,0,0,3937,0,0,2789,176,149,6199,-4,0,73,12,362853,0
362889,-60,-2055,346,-87,40,113,14960,1,4,-86,-64,35698,-2,33,127,0,0,3935,-21,0,2789,176,149,6209,-4,0,73,12,362884,0
362899,-77,-2049,352,-89,39,107,14957,12,-1,-108,-16,35700,-21,33,127,0,0,3935,0,0,2789,176,149,6219,-4,0,73,12,362884,0
362909,-81,-2066,350,-76,31,102,14955,-17,-1,-134,-40,35708,-19,33,127,0,0,3935,0,0,2789,176,149,6229,-4,0,73,12,362884,0
362919,-68,-2055,356,-87,38,107,14958,9,1,-80,-24,35716,-17,32,127,0,0,3935,-21,0,2789,176,149,6239,-4,0,73,12,362915,0
362929,-71,-2061,355,-85,43,100,14955,-7,-2,-125,-56,35708,-9,32,127,0,0,3935,-10,0,2789,176,149,6249,-4,0,73,12,362915,0
362939,-63,-2067,363,-81,39,98,14954,-4,-10,-161,-40,35702,-19,33,127,0,0,3935,0,0,2789,176,149,6259,-4,0,73,12,362915,0
362949,-59,-2060,356,-88,37,105,14954,-5,4,-188,-72,35704,-17,32,127,0,0,3933,0,0,2789,176,149,6269,-4,0,73,12,362947,0
362959,-69,-2064,358,-89,32,112,14952,2,-4,-229,-16,35713,-10,33,127,0,0,3933,21,0,2789,176,149,6279,-4,0,73,12,362947,0
362969,-57,-2066,358,-89,39,103,14952,-8,3,-206,-72,35708,-2,32,127,0,0,3933,-10,0,2789,176,149,6289,-4,0,73,12,362947,0
362979,-81,-2063,360,-92,31,110,14953,9,1,-225,-56,35702,3,32,127,0,0,3933,0,0,2789,176,149,6299,-4,0,73,12,362962,0
362989,-70,-2060,352,-94,35,113,14951,-3,3,-226,-56,35698,-34,33,127,0,0,3933,10,0,2789,176,149,6309,-4,0,73,12,362978,0
362999,-59,-2059,357,-85,34,112,14950,-18,-4,-218,-56,35719,-29,33,127,0,0,3935,21,0,2789,176,149,6319,-4,0,73,12,362993,0
363009,-65,-2059,353,-88,38,111,14952,3,1,-123,-40,35720,-18,33,127,0,0,3935,-10,0,2789,176,149,6329,-4,0,73,12,362993,0
363019,-94,-2060,349,-87,38,113,14951,0,-1,-179,-56,35700,-26,32,127,0,0,3933,0,0,2789,176,149,6339,-4,0,73,12,363009,0
363029,-71,-2063,359,-87,31,115,14950,0,-4,-239,-40,35691,-23,32,127,0,0,3930,-21,0,2789,176,149,6349,-4,0,73,12,363025,0
363039,-68,-2058,357,-84,28,115,14947,-2,3,-237,-48,35702,-28,33,127,0,0,3930,0,0,2789,176,149,6359,-4,0,73,12,363025,0
363049,-74,-2059,351,-90,32,108,14944,-25,-3,-273,-72,35715,-7,32,127,0,0,3928,-21,0,2789,176,149,6369,-4,0,73,12,363040,0
363059,-50,-2062,343,-83,38,111,14947,15,1,-234,-40,35712,17,32,127,0,0,3930,-21,0,2789,176,149,6379,-4,0,73,12,363056,0
363069,-84,-2057,359,-80,32,112,14945,2,-3,-229,-72,35709,-7,33,127,0,0,3933,10,0,2789,176,149,6389,-4,0,73,12,363056,0
363079,-82,-2069,356,-77,41,126,14944,-14,-4,-226,-32,35711,-8,33,127,0,0,3930,21,0,2789,176,149,6399,-4,0,73,12,363056,0
363089,-70,-2062,350,-80,37,125,14944,-11,6,-264,-104,35716,-31,32,127,0,0,3930,0,0,2789,176,149,6409,-4,0,73,12,363087,0
363099,-79,-2055,345,-77,38,128,14945,13,4,-255,-104,35717,-23,32,127,0,0,3930,0,0,2789,176,149,6419,-4,0,73,12,363087,0
363109,-58,-2068,348,-78,34,132,14943,4,-6,-252,-96,35712,-26,33,127,0,0,3930,0,0,2789,176,149,6429,-4,0,73,12,363087,0
363120,-75,-2064,356,-75,35,135,14944,2,-2,-234,-88,35709,-36,32,127,0,0,3932,-5,0,2789,176,149,6440,-4,0,73,12,363103,0
363130,-98,-2057,356,-76,29,136,14945,9,3,-229,-64,35715,-25,33,127,0,0,3934,32,0,2789,176,149,6450,-4,0,73,12,363228,0
363140,-103,-2050,361,-76,37,133,14945,-7,3,-196,-64,35720,-17,32,127,0,0,3927,-27,0,2789,176,149,6460,-4,0,73,12,363228,0
363150,-83,-2060,350,-76,40,114,14943,2,-6,-266,-64,35711,-7,32,127,0,0,3930,16,0,2789,176,149,6470,-4,0,73,12,363228,0
363160,-75,-2066,351,-75,34,123,14943,-5,3,-253,-64,35699,-27,33,127,0,0,3927,-5,0,2789,176,149,6480,-4,0,73,12,363228,0
363170,-97,-2069,358,-78,35,124,14944,3,3,-248,-64,35705,-31,32,127,0,0,3930,-10,0,2789,176,149,6490,-4,0,73,12,363243,0
363180,-83,-2063,361,-78,31,123,14943,1,0,-250,-64,35702,-11,33,127,0,0,3930,27,0,2789,176,149,6500,-4,0,73,12,363243,0
363190,-71,-2065,358,-76,32,119,14942,-13,-2,-287,-88,35696,-17,32,127,0,0,3932,27,0,2789,176,149,6510,-4,0,73,12,363243,0
363200,-108,-2062,355,-77,40,121,14943,9,2,-233,-64,35692,-9,32,127,0,0,3930,0,0,2789,176,149,6520,-4,0,73,12,363243,0
363210,-81,-2071,357,-78,34,126,14944,6,5,-209,-64,35699,-28,33,127,0,0,3930,-27,0,2789,176,149,6530,-4,0,73,12,363243,0
363220,-79,-2057,358,-77,29,126,14944,0,2,-191,-64,35702,-11,32,127,0,0,3930,-21,0,2789,176,149,6540,-4,0,73,12,363243,0
363230,-99,-2056,359,-75,35,121,14943,0,-2,-222,-64,35694,0,32,127,0,0,3930,0,0,2789,176,149,6550,-4,0,73,12,363243,0
363240,-75,-2057,361,-78,32,120,14944,0,7,-225,-64,35700,-9,33,127,0,0,3927,-32,0,2789,176,149,6560,-4,0,73,12,363243,0
363250,-85,-2060,351,-75,41,116,14943,4,-2,-238,-64,35712,-1,32,127,0,0,3927,-60,0,2789,176,149,6570,-4,0,73,12,363243,0
363260,-66,-2067,356,-82,38,115,14942,4,-3,-244,-88,35719,-7,33,127,0,0,3932,-16,0,2789,176,149,6580,-4,0,73,12,363243,0
363270,-106,-2048,359,-79,35,124,14942,-1,5,-233,-64,35716,-3,33,127,0,0,3930,-10,0,2789,176,149,6590,-4,0,73,12,363259,0
363280,-76,-2053,358,-77,34,123,14944,5,7,-234,-88,35726,-2,33,127,0,0,3932,-5,0,2789,176,149,6600,-4,0,73,12,363275,0
363290,-87,-2055,354,-87,32,121,14943,4,4,-256,-40,35746,-21,32,127,0,0,3929,21,0,2789,176,149,6610,-4,0,73,12,363275,0
363300,-57,-2054,357,-83,28,119,14943,-5,2,-249,-64,35747,-28,32,127,0,0,3930,-21,0,2789,176,149,6620,-4,0,73,12,363275,0
363310,-60,-2050,354,-83,42,113,14943,5,0,-235,-64,35720,-23,32,127,0,0,3930,0,0,2789,176,149,6630,-4,0,73,12,363290,0
363320,-77,-2051,358,-82,26,109,14944,5,2,-229,-64,35706,-12,32,127,0,0,3930,0,0,2789,176,149,6640,-4,0,73,12,363321,0
363330,-75,-2064,359,-82,36,107,14943,-1,-2,-221,-64,35708,-20,32,127,0,0,3927,-32,0,2789,176,149,6650,-4,0,73,12,363321,0
363340,-69,-2062,357,-87,41,102,14941,0,-5,-305,-56,35716,-26,32,127,0,0,3930,10,0,2789,176,149,6660,-4,0,73,12,363321,0
363350,-65,-2057,362,-88,44,96,14943,6,5,-236,-64,35702,-9,33,127,0,0,3927,-32,0,2789,176,149,6670,-4,0,73,12,363321,0
363360,-69,-2062,360,-89,41,103,14939,-11,-3,-319,-104,35689,-2,32,127,0,0,3929,21,0,2789,176,149,6680,-4,0,73,12,363337,0
363371,-67,-2068,358,-90,45,104,14942,11,6,-301,-88,35698,-14,32,127,0,0,3930,10,0,2789,176,149,6691,-4,0,73,12,363368,0
363381,-58,-2051,353,-91,43,110,14939,7,5,-315,-112,35725,-20,33,127,0,0,3926,-10,0,2789,176,149,6701,-4,0,73,12,363368,0
363391,-65,-2063,356,-86,40,110,14938,2,0,-326,-72,35731,-15,33,127,0,0,3928,10,0,2789,176,149,6711,-4,0,73,12,363368,0
363401,-65,-2062,357,-87,37,120,14937,-7,6,-342,-104,35712,2,32,127,0,0,3924,-21,0,2789,176,149,6721,-4,0,73,12,363400,0
363411,-61,-2065,355,-84,39,122,14934,-4,-1,-371,-96,35698,-14,33,127,0,0,3926,21,0,2789,176,149,6731,-4,0,73,12,363400,0
363421,-71,-2067,354,-88,31,123,14935,-2,3,-341,-96,35697,-10,32,127,0,0,3924,-21,0,2789,176,149,6741,-4,0,73,12,363400,0
363431,-64,-2061,352,-88,43,122,14934,0,1,-359,-88,35703,-7,33,127,0,0,3924,-21,0,2789,176,149,6751,-4,0,73,12,363415,0
363441,-77,-2052,351,-84,41,123,14933,-5,0,-381,-80,35704,-9,33,127,0,0,3924,0,0,2789,176,149,6761,-4,0,73,12,363415,0
363451,-69,-2059,356,-88,31,118,14930,-10,0,-403,-144,35700,-1,33,127,0,0,3924,0,0,2789,176,149,6771,-4,0,73,12,363446,0
363461,-78,-2057,348,-79,40,120,14925,-4,-5,-346,-64,35708,-18,33,127,0,0,3924,0,0,2789,176,149,6781,-4,0,73,12,363446,0
363471,-54,-2056,348,-80,37,114,14926,-6,7,-324,-64,35711,-6,32,127,0,0,3926,0,0,2789,176,149,6791,-4,0,73,12,363446,0
363481,-60,-2052,349,-77,43,121,14926,1,6,-318,-64,35703,7,32,127,0,0,3924,10,0,2789,176,149,6801,-4,0,73,12,363462,0
363491,-49,-2053,354,-74,37,123,14925,-11,-2,-345,-64,35694,15,32,127,0,0,3926,32,0,2789,176,149,6811,-4,0,73,12,363462,0
363501,-68,-2059,356,-70,39,123,14927,3,-1,-305,-112,35692,5,33,127,0,0,3926,-10,0,2789,176,149,6821,-4,0,73,12,363556,0
363511,-103,-2056,353,-77,31,119,14925,2,0,-290,-72,35714,-11,33,127,0,0,3924,-10,0,2789,176,149,6831,-4,0,73,12,363556,0
363521,-81,-2056,358,-76,32,121,14923,-7,-7,-322,-104,35714,-3,32,127,0,0,3926,10,0,2789,176,149,6841,-4,0,73,12,363556,0
363531,-88,-2059,357,-80,30,122,14924,3,5,-302,-64,35703,-11,32,127,0,0,3924,-21,0,2789,176,149,6851,-4,0,73,12,363571,0
363541,-88,-2057,352,-70,28,118,14923,0,3,-309,-104,35687,-7,32,127,0,0,3926,0,0,2789,176,149,6861,-4,0,73,12,363571,0
363551,-85,-2051,357,-72,38,119,14922,-4,-3,-308,-104,35684,-16,33,127,0,0,3924,-10,0,2789,176,149,6871,-4,0,73,12,363571,0
363561,-83,-2061,354,-71,35,107,14922,-2,2,-308,-56,35692,-13,32,127,0,0,3922,-43,0,2789,176,149,6881,-4,0,73,12,363571,0
363571,-66,-2060,360,-71,33,98,14919,-5,-4,-352,-72,35687,-4,32,127,0,0,3924,10,0,2789,176,149,6891,-4,0,73,12,363571,0
363581,-73,-2059,360,-72,35,100,14911,-9,-10,-240,-40,35684,-10,33,127,0,0,3922,-21,0,2789,176,149,6901,-4,0,73,12,363571,0
363591,-64,-2068,365,-70,38,96,14898,-43,-12,-218,-80,35692,-6,32,127,0,0,3922,-21,0,2789,176,149,6911,-4,0,73,12,363571,0
363601,-91,-2057,357,-70,38,86,14877,-42,-26,-105,-32,35708,-1,33,127,0,0,3922,0,0,2789,176,149,6921,-4,0,73,12,363587,0
363611,-83,-2063,365,-70,38,86,14878,12,36,-104,-64,35721,15,33,127,0,0,3917,-43,0,2789,176,149,6931,-4,0,73,12,363587,0
363622,-66,-2057,374,-78,43,82,14870,-19,12,-217,-40,35725,11,33,127,0,0,3916,5,0,2789,176,149,6942,-4,0,73,12,363618,0
363632,-74,-2065,369,-76,43,87,14871,7,-6,-169,-32,35726,-19,33,127,0,0,3913,-38,0,2789,176,149,6952,-4,0,73,12,363618,0
363642,-74,-2068,354,-82,40,82,14867,-20,2,-228,-48,35717,-20,32,127,0,0,3914,-27,0,2789,176,149,6962,-4,0,73,12,363618,0
363652,-68,-2058,352,-77,38,81,14864,-7,-7,-282,-112,35700,-2,33,127,0,0,3914,-43,0,2789,176,149,6972,-4,0,73,12,363634,0
363662,-79,-2057,351,-72,39,76,14850,-42,-8,-283,-88,35686,8,32,127,0,0,3917,49,0,2789,176,149,6982,-4,0,73,12,363665,0
363672,-102,-2052,347,-67,43,64,14827,-50,-36,-110,-48,35689,6,32,127,0,0,3907,-10,0,2789,176,149,6992,-4,0,73,12,363665,0
363682,-112,-2048,347,-66,52,45,14816,5,14,-129,-64,35703,-9,32,127,0,0,3910,-32,0,2789,176,149,7002,-4,0,73,12,363665,0
363692,-59,-2052,348,-65,56,37,14815,-10,50,-161,-64,35704,-4,32,127,0,0,3906,-21,0,2789,176,149,7012,-4,0,73,12,363681,0
363702,-50,-2050,346,-64,47,43,14814,-9,7,-280,-88,35693,-6,32,127,0,0,3901,-32,0,2789,176,149,7022,-4,0,73,12,363681,0
363712,-49,-2053,363,-57,40,43,14807,-7,-14,-335,-144,35694,-21,33,127,0,0,3904,-10,0,2789,176,149,7032,-4,0,73,12,363696,0
363722,-38,-2058,364,-57,49,50,14803,-9,1,-401,-136,35702,-27,33,127,0,0,3897,5,0,2789,176,149,7042,-4,0,73,12,363743,0
363732,-47,-2058,370,-65,43,61,14803,3,13,-450,-176,35720,-28,32,127,0,0,3896,-38,0,2789,176,149,7052,-4,0,73,12,363743,0
363742,-50,-2052,370,-66,42,71,14793,-21,-8,-502,-168,35707,-15,32,127,0,0,3893,-16,0,2789,176,149,7062,-4,0,73,12,363759,0
363752,-56,-2056,369,-71,45,81,14785,-25,-12,-553,-168,35699,-34,33,127,0,0,3891,16,0,2789,176,149,7072,-4,0,73,12,363759,0
363762,-45,-2053,363,-73,35,93,14765,-41,-23,-423,-136,35689,-38,32,127,0,0,3891,5,0,2789,176,149,7082,-4,0,73,12,363759,0
363772,-56,-2053,366,-75,33,93,14739,-47,-29,-307,-104,35691,-33,33,127,0,0,3889,0,0,2789,176,149,7092,-4,0,73,12,363759,0
363782,-53,-2058,366,-72,31,102,14733,2,37,-346,-112,35688,-26,32,127,0,0,3886,-32,0,2789,176,149,7102,-4,0,73,12,363774,0
363792,-46,-2061,364,-74,31,108,14733,4,51,-372,-112,35688,-18,32,127,0,0,3886,-38,0,2789,176,149,7112,-4,0,73,12,363774,0
363802,-52,-2059,365,-77,30,121,14731,-2,4,-377,-112,35709,-29,32,127,0,0,3883,-32,0,2789,176,149,7122,-4,0,73,12,363821,0
363812,-41,-2063,352,-69,24,123,14730,2,-2,-384,-104,35730,-42,32,127,0,0,3886,-10,0,2789,176,149,7132,-4,0,73,12,363837,0
363822,-50,-2063,361,-72,29,135,14729,0,2,-380,-104,35728,-24,33,127,0,0,3883,-32,0,2789,176,149,7142,-4,0,73,12,363837,0
363832,-40,-2064,360,-77,31,138,14726,-10,2,-372,-96,35706,-25,32,127,0,0,3886,-10,0,2789,176,149,7152,-4,0,73,12,363837,0
363842,-44,-2068,371,-80,33,143,14726,-3,-3,-368,-96,35694,-10,32,127,0,0,3886,16,0,2789,176,149,7162,-4,0,73,12,363837,0
363852,-47,-2056,367,-78,39,149,14727,6,4,-356,-96,35696,-27,32,127,0,0,3886,0,0,2789,176,149,7172,-4,0,73,12,363853,0
363862,-45,-2058,363,-76,40,155,14726,-4,1,-354,-96,35697,-5,32,127,0,0,3890,32,0,2789,176,149,7182,-4,0,73,12,363884,0
363873,-33,-2062,359,-72,43,164,14726,-7,0,-354,-48,35710,3,33,127,0,0,3889,32,0,2789,176,149,7193,-4,0,73,12,363884,0
363883,-44,-2060,355,-65,45,173,14729,16,4,-306,-112,35727,-3,32,127,0,0,3889,0,0,2789,176,149,7203,-4,0,73,12,363884,0
363893,-60,-2054,349,-53,46,184,14727,5,0,-293,-80,35732,-13,32,127,0,0,3891,21,0,2789,176,149,7213,-4,0,73,12,363899,0
363903,-49,-2052,355,-53,40,189,14728,3,0,-240,-88,35706,1,32,127,0,0,3891,0,0,2789,176,149,7223,-4,0,73,12,363899,0
363913,-32,-2056,359,-59,32,217,14729,1,2,-205,-24,35695,12,33,127,0,0,3891,10,0,2789,176,149,7233,-4,0,73,12,363899,0
363923,-33,-2053,361,-53,19,233,14731,-3,0,-201,-24,35697,6,32,127,0,0,3893,10,0,2789,176,149,7243,-4,0,73,12,363915,0
363933,-73,-2053,354,-57,21,241,14736,17,7,-83,-16,35714,-6,33,127,0,0,3900,43,0,2789,176,149,7253,-4,0,73,12,363915,0
363943,-71,-2054,355,-50,25,235,14743,25,16,82,40,35719,-8,32,127,0,0,3902,32,0,2789,176,149,7263,-4,0,73,12,363951,0
363953,-70,-2051,367,-48,21,242,14751,13,3,140,40,35712,-4,32,127,0,0,3904,0,0,2789,176,149,7273,-4,0,73,12,363966,0
363963,-67,-2049,368,-44,23,236,14752,6,-16,232,88,35711,-12,33,127,0,0,3908,43,0,2789,176,149,7283,-4,0,73,12,363966,0
363973,-66,-2061,370,-54,23,240,14767,37,17,289,80,35706,-40,32,127,0,0,3911,21,0,2789,176,149,7293,-4,0,73,12,363966,0
363983,-86,-2053,370,-51,29,228,14795,71,53,207,88,35695,-40,33,127,0,0,3915,21,0,2789,176,149,7303,-4,0,73,12,363966,0
363993,-54,-2063,374,-55,18,219,14822,25,16,141,40,35694,-22,33,127,0,0,3919,21,0,2789,176,149,7313,-4,0,73,12,363982,0
364003,-131,-2060,374,-59,21,204,14819,0,-71,314,88,35707,-16,33,127,0,0,3922,32,0,2789,176,149,7323,-4,0,73,12,363997,0
364013,-115,-2062,375,-57,24,187,14824,5,-25,390,104,35725,-18,33,127,0,0,3926,21,0,2789,176,149,7333,-4,0,73,12,363997,0
364023,-104,-2067,372,-62,32,175,14827,7,11,444,80,35727,-32,32,127,0,0,3924,-21,0,2789,176,149,7343,-4,0,73,12,363997,0
364033,-98,-2062,378,-65,29,158,14829,1,2,440,112,35708,-27,32,127,0,0,3926,0,0,2789,176,149,7353,-4,0,73,12,364013,0
364043,-107,-2068,384,-71,23,147,14831,0,-8,435,120,35692,-14,33,127,0,0,3926,0,0,2789,176,149,7363,-4,0,73,12,364029,0
364053,-105,-2063,382,-80,35,126,14833,14,1,471,144,35710,-30,32,127,0,0,3926,-10,0,2789,176,149,7373,-4,0,73,12,364044,0
364063,-89,-2057,384,-87,32,122,14834,-1,4,450,128,35713,-19,33,127,0,0,3928,0,0,2789,176,149,7383,-4,0,73,12,364044,0
364073,-119,-2055,380,-91,32,109,14836,12,-8,477,128,35711,-20,32,127,0,0,3928,0,0,2789,176,149,7393,-4,0,73,12,364044,0
364083,-87,-2049,376,-96,29,109,14837,4,4,456,88,35702,-15,32,127,0,0,3928,-21,0,2789,176,149,7403,-4,0,73,12,364091,0
364093,-85,-2048,370,-93,19,110,14838,0,-4,461,96,35708,-4,32,127,0,0,3928,-10,0,2789,176,149,7413,-4,0,73,12,364091,0
364103,-94,-2048,364,-91,33,114,14837,-4,0,434,104,35716,-21,33,127,0,0,3928,10,0,2789,176,149,7423,-4,0,73,12,364091,0
364113,-68,-2041,364,-94,31,108,14837,2,-2,432,56,35709,-20,32,127,0,0,3926,-10,0,2789,176,149,7433,-4,0,73,12,364091,0
364124,-80,-2046,362,-92,32,111,14839,8,10,443,96,35707,-14,32,127,0,0,3929,10,0,2789,176,149,7444,-4,0,73,12,364107,0
364134,-56,-2055,362,-87,38,119,14838,-1,-1,425,120,35719,-15,33,127,0,0,3925,16,0,2789,176,149,7454,-4,0,73,12,364122,0
364144,-51,-2053,359,-86,36,125,14838,-8,-1,412,120,35729,-22,32,127,0,0,3925,5,0,2789,176,149,7464,-4,0,73,12,364122,0
364154,-58,-2063,357,-82,41,132,14839,2,-5,451,96,35719,-1,33,127,0,0,3926,-49,0,2789,176,149,7474,-4,0,73,12,364138,0
364164,-54,-2064,364,-82,42,138,14840,3,-2,428,96,35704,4,32,127,0,0,3929,27,0,2789,176,149,7484,-4,0,73,12,364154,0
364174,-65,-2052,373,-79,41,146,14842,4,2,440,88,35705,-4,32,127,0,0,3929,21,0,2789,176,149,7494,-4,0,73,12,364169,0
364184,-77,-2064,365,-82,41,142,14843,9,2,461,112,35713,-9,33,127,0,0,3928,-16,0,2789,176,149,7504,-4,0,73,12,364169,0
364194,-89,-2060,371,-85,33,151,14843,-2,-1,444,112,35713,-4,32,127,0,0,3928,-5,0,2789,176,149,7514,-4,0,73,12,364169,0
364204,-74,-2060,375,-83,37,151,14843,-7,-6,412,136,35704,15,32,127,0,0,3924,-27,0,2789,176,149,7524,-4,0,73,12,364185,0
364214,-69,-2062,374,-82,32,155,14847,7,6,418,104,35711,-2,33,127,0,0,3935,38,0,2789,176,149,7534,-4,0,73,12,364216,0
364224,-88,-2062,381,-87,30,157,14855,25,12,414,112,35724,-1,32,127,0,0,3934,43,0,2789,176,149,7544,-4,0,73,12,364216,0
364234,-83,-2058,370,-88,33,157,14872,44,29,313,104,35725,1,33,127,0,0,3933,32,0,2789,176,149,7554,-4,0,73,12,364216,0
364244,-75,-2060,364,-91,30,153,14880,0,-7,312,88,35718,12,33,127,0,0,3929,-32,0,2789,176,149,7564,-4,0,73,12,364232,0
364254,-88,-2059,367,-89,36,146,14879,2,-40,339,112,35700,16,33,127,0,0,3935,21,0,2789,176,149,7574,-4,0,73,12,364232,0
364264,-70,-2056,364,-93,35,150,14882,0,-2,364,128,35703,-4,33,127,0,0,3934,21,0,2789,176,149,7584,-4,0,73,12,364247,0
364274,-64,-2054,374,-93,32,155,14883,0,-1,373,104,35706,1,32,127,0,0,3935,0,0,2789,176,149,7594,-4,0,73,12,364263,0
364284,-77,-2053,368,-92,38,158,14883,-4,-11,381,104,35705,15,32,127,0,0,3935,0,0,2789,176,149,7604,-4,0,73,12,364263,0
364294,-87,-2057,368,-93,34,164,14886,10,1,439,120,35696,22,32,127,0,0,3940,-10,0,2789,176,149,7614,-4,0,73,12,364279,0
364304,-67,-2063,364,-91,36,172,14891,14,6,461,136,35699,1,32,127,0,0,3939,0,0,2789,176,149,7624,-4,0,73,12,364279,0
364314,-71,-2056,361,-89,28,176,14893,-4,2,423,128,35712,-11,32,127,0,0,3939,0,0,2789,176,149,7634,-4,0,73,12,364310,0
364324,-88,-2050,368,-90,38,176,14895,14,-5,449,152,35720,4,33,127,0,0,3941,-5,0,2789,176,149,7644,-4,0,73,12,364325,0
364334,-87,-2049,366,-89,34,178,14898,9,3,465,144,35700,12,33,127,0,0,3948,65,0,2789,176,149,7654,-4,0,73,12,364325,0
364344,-107,-2055,362,-91,40,174,14909,38,17,514,168,35698,-4,33,127,0,0,3942,10,0,2789,176,149,7664,-4,0,73,12,364325,0
364354,-107,-2056,369,-85,40,162,14943,101,62,287,104,35704,-12,33,127,0,0,3946,-10,0,2789,176,149,7674,-4,0,73,12,364357,0
364364,-61,-2057,375,-94,31,166,14966,12,16,195,80,35714,-9,32,127,0,0,3948,27,0,2789,176,149,7684,-4,0,73,12,364357,0
364374,-123,-2055,367,-89,32,149,14966,18,-80,315,80,35705,6,32,127,0,0,3948,-16,0,2789,176,149,7694,-4,0,73,12,364357,0
364385,-111,-2051,368,-89,41,137,14964,1,-17,354,120,35703,-4,33,127,0,0,3948,-10,0,2789,176,149,7705,-4,0,73,12,364372,0
364395,-84,-2053,371,-91,31,122,14964,-2,-5,334,72,35717,-23,33,127,0,0,3950,-10,0,2789,176,149,7715,-4,0,73,12,364404,0
364405,-97,-2053,370,-96,36,125,14966,4,5,359,104,35730,-31,33,127,0,0,3950,0,0,2789,176,149,7725,-4,0,73,12,364404,0
364415,-97,-2056,371,-95,37,119,14966,0,-1,365,104,35719,-38,32,127,0,0,3948,-21,0,2789,176,149,7735,-4,0,73,12,364404,0
364425,-101,-2055,381,-90,41,109,14965,0,-4,319,80,35697,-32,32,127,0,0,3952,32,0,2789,176,149,7745,-4,0,73,12,364404,0
364435,-98,-2055,382,-98,36,116,14968,9,11,366,96,35693,-41,33,127,0,0,3950,-10,0,2789,176,149,7755,-4,0,73,12,364450,0
364445,-95,-2064,374,-105,41,112,14969,9,6,364,96,35696,-38,32,127,0,0,3950,-10,0,2789,176,149,7765,-4,0,73,12,364466,0
364455,-102,-2060,362,-105,32,108,14967,-5,-8,341,112,35696,-25,33,127,0,0,3948,-10,0,2789,176,149,7775,-4,0,73,12,364466,0
364465,-82,-2061,352,-95,40,103,14967,-6,-1,292,64,35685,-26,32,127,0,0,3948,0,0,2789,176,149,7785,-4,0,73,12,364466,0
364475,-71,-2057,354,-95,43,104,14967,0,3,290,72,35685,-27,32,127,0,0,3948,-21,0,2789,176,149,7795,-4,0,73,12,364466,0
364485,-92,-2057,361,-92,37,116,14967,4,4,287,80,35700,-35,32,127,0,0,3948,10,0,2789,176,149,7805,-4,0,73,12,364466,0
364495,-74,-2052,360,-94,45,105,14968,0,2,318,64,35711,-17,32,127,0,0,3948,-32,0,2789,176,149,7815,-4,0,73,12,364466,0
364505,-92,-2050,373,-97,39,114,14967,8,-1,289,80,35711,-2,32,127,0,0,3948,-10,0,2789,176,149,7825,-4,0,73,12,364513,0
364515,-83,-2054,375,-102,36,112,14967,0,5,295,80,35711,-19,32,127,0,0,3948,0,0,2789,176,149,7835,-4,0,73,12,364513,0
364525,-87,-2056,366,-103,40,114,14967,-1,-1,277,80,35710,-21,33,127,0,0,3946,-21,0,2789,176,149,7845,-4,0,73,12,364513,0
364535,-67,-2053,367,-105,39,110,14966,-3,-5,237,88,35712,-13,32,127,0,0,3946,-10,0,2789,176,149,7855,-4,0,73,12,364529,0
364545,-83,-2055,360,-98,40,112,14966,1,3,230,40,35705,6,32,127,0,0,3946,-10,0,2789,176,149,7865,-4,0,73,12,364529,0
364555,-90,-2051,359,-93,38,110,14965,2,1,231,48,35705,-4,32,127,0,0,3948,10,0,2789,176,149,7875,-4,0,73,12,364544,0
364565,-85,-2046,359,-99,46,107,14964,-7,-4,203,32,35712,-22,33,127,0,0,3948,32,0,2789,176,149,7885,-4,0,73,12,364544,0
364575,-107,-2052,357,-98,33,106,14967,16,3,233,64,35718,-22,33,127,0,0,3946,-10,0,2789,176,149,7895,-4,0,73,12,364560,0
364585,-92,-2052,362,-95,39,90,14963,-5,0,184,24,35714,-15,32,127,0,0,3944,0,0,2789,176,149,7905,-4,0,73,12,364591,0
364595,-89,-2063,360,-95,34,85,14962,-5,-10,130,0,35700,1,32,127,0,0,3941,-21,0,2789,176,149,7915,-4,0,73,12,364622,0
364605,-94,-2064,369,-95,41,82,14963,10,3,114,8,35700,-15,33,127,0,0,3941,-43,0,2789,176,149,7925,-4,0,73,12,364638,0
364615,-87,-2070,364,-95,42,77,14959,1,-5,109,16,35695,-13,32,127,0,0,3939,-54,0,2789,176,149,7935,-4,0,73,12,364638,0
364625,-93,-2061,366,-92,38,81,14957,-5,-8,45,0,35689,-3,33,127,0,0,3939,-21,0,2789,176,149,7945,-4,0,73,12,364638,0
364636,-79,-2062,364,-95,32,75,14958,7,3,3,-24,35683,1,32,127,0,0,3937,-38,0,2789,176,149,7956,-4,0,73,12,364638,0
364646,-86,-2054,360,-90,36,77,14955,0,3,-42,-16,35676,-13,32,127,0,0,3937,-10,0,2789,176,149,7966,-4,0,73,12,364638,0
364656,-88,-2065,365,-95,36,75,14956,4,4,-5,-16,35689,-30,33,127,0,0,3937,-5,0,2789,176,149,7976,-4,0,73,12,364638,0
364666,-67,-2059,365,-91,38,74,14949,-25,-8,-101,-56,35702,-18,32,127,0,0,3936,5,0,2789,176,149,7986,-4,0,73,12,364638,0
364676,-95,-2061,367,-90,43,73,14948,4,-5,-166,-72,35707,-2,33,127,0,0,3934,-5,0,2789,176,149,7996,-4,0,73,12,364685,0
364686,-95,-2053,355,-94,40,68,14945,3,12,-178,-48,35707,-12,33,127,0,0,3929,-27,0,2789,176,149,8006,-4,0,73,12,364700,0
364696,-73,-2060,358,-93,37,67,14942,-12,1,-283,-64,35710,-6,32,127,0,0,3930,21,0,2789,176,149,8016,-4,0,73,12,364700,0
364706,-82,-2047,361,-97,33,73,14939,-2,-3,-281,-80,35702,-17,32,127,0,0,3928,10,0,2789,176,149,8026,-4,0,73,12,364700,0
364716,-78,-2051,367,-94,34,64,14937,-10,7,-339,-104,35690,-9,32,127,0,0,3926,-16,0,2789,176,149,8036,-4,0,73,12,364700,0
364726,-80,-2053,368,-94,41,55,14928,-14,-20,-336,-112,35685,-10,32,127,0,0,3924,-10,0,2789,176,149,8046,-4,0,73,12,364700,0
364736,-77,-2055,368,-93,29,59,14921,-18,-8,-345,-120,35691,-17,32,127,0,0,3925,-5,0,2789,176,149,8056,-4,0,73,12,364732,0
364746,-86,-2050,368,-97,38,54,14911,-25,-13,-242,-96,35712,-17,32,127,0,0,3922,-38,0,2789,176,149,8066,-4,0,73,12,364732,0
364756,-68,-2062,369,-96,36,48,14880,-80,-48,-128,-40,35703,-3,32,127,0,0,3918,-32,0,2789,176,149,8076,-4,0,73,12,364747,0
364766,-104,-2057,361,-98,41,29,14865,-11,-1,-112,-48,35695,19,32,127,0,0,3914,-71,0,2789,176,149,8086,-4,0,73,12,364747,0
364776,-61,-2054,362,-99,28,21,14861,-19,55,-258,-64,35699,4,33,127,0,0,3912,-5,0,2789,176,149,8096,-4,0,73,12,364763,0
364786,-76,-2064,363,-98,41,20,14848,-39,-12,-275,-88,35714,2,32,127,0,0,3907,-49,0,2789,176,149,8106,-4,0,73,12,364763,0
364796,-74,-2051,359,-100,38,8,14810,-87,-69,-85,-32,35720,7,33,127,0,0,3905,-10,0,2789,176,149,8116,-4,0,73,12,364778,0
364806,-34,-2054,357,-96,42,9,14809,-5,30,-319,-128,35709,22,32,127,0,0,3903,-10,0,2789,176,149,8126,-4,0,73,12,364794,0
364816,-71,-2051,366,-91,45,-12,14807,5,63,-321,-144,35700,3,32,127,0,0,3897,-76,0,2789,176,149,8136,-4,0,73,12,364810,0
364826,-58,-2073,360,-96,42,-3,14801,-5,-8,-407,-176,35706,-27,33,127,0,0,3896,-71,0,2789,176,149,8146,-4,0,73,12,364810,0
364836,-40,-2058,358,-95,38,4,14793,-18,-5,-493,-160,35726,-36,32,127,0,0,3893,-43,0,2789,176,149,8156,-4,0,73,12,364841,0
364846,-59,-2054,364,-94,40,17,14783,-22,-6,-544,-192,35720,-16,32,127,0,0,3885,-54,0,2789,176,149,8166,-4,0,73,12,364841,0
364856,-32,-2067,363,-92,35,26,14751,-95,-51,-438,-160,35712,-30,33,127,0,0,3883,-27,0,2789,176,149,8176,-4,0,73,12,364841,0
364866,-69,-2055,351,-90,41,33,14712,-61,-57,-319,-128,35697,-10,32,127,0,0,3882,-32,0,2789,176,149,8186,-4,0,73,12,364841,0
364877,-45,-2057,355,-87,48,39,14669,-79,2,-128,-40,35706,-4,33,127,0,0,3882,-10,0,2789,176,149,8197,-4,0,73,12,364872,0
364887,-35,-2058,350,-83,37,65,14669,3,74,-276,-184,35715,4,33,127,0,0,3875,-32,0,2789,176,149,8207,-4,0,73,12,364872,0
364897,-55,-2055,345,-83,34,88,14661,0,56,-262,-48,35705,14,33,127,0,0,3873,-54,0,2789,176,149,8217,-4,0,73,12,364872,0
364907,-22,-2060,349,-75,34,101,14657,-19,-8,-370,-104,35701,-3,33,127,0,0,3873,0,0,2789,176,149,8227,-4,0,73,12,364903,0
364917,-38,-2057,357,-63,41,114,14651,-13,-4,-347,-64,35700,-3,32,127,0,0,3873,10,0,2789,176,149,8237,-4,0,73,12,364903,0
364927,-37,-2052,357,-66,48,130,14645,-14,1,-281,-72,35702,5,33,127,0,0,3873,10,0,2789,176,149,8247,-4,0,73,12,364903,0
364937,-65,-2057,359,-57,37,144,14637,-7,-1,-241,-40,35701,22,33,127,0,0,3871,-21,0,2789,176,149,8257,-4,0,73,12,364935,0
364947,-30,-2049,363,-61,47,147,14628,-20,1,-260,-88,35704,7,33,127,0,0,3873,21,0,2789,176,149,8267,-4,0,73,12,364935,0
364957,-66,-2054,353,-60,42,149,14627,28,15,-84,-32,35713,-3,32,127,0,0,3873,-43,0,2789,176,149,8277,-4,0,73,12,364935,0
364967,-74,-2052,359,-54,44,145,14624,1,23,-133,-64,35716,2,33,127,0,0,3873,-10,0,2789,176,149,8287,-4,0,73,12,365028,0
364977,-60,-2058,367,-49,43,151,14622,-2,-1,-136,24,35702,14,32,127,0,0,3875,43,0,2789,176,149,8297,-4,0,73,12,365028,0
364987,-40,-2050,360,-53,45,142,14626,3,11,-82,-80,35698,12,32,127,0,0,3875,-21,0,2789,176,149,8307,-4,0,73,12,365028,0
364997,-70,-2049,364,-48,42,159,14624,16,-2,-55,48,35703,15,33,127,0,0,3873,-32,0,2789,176,149,8317,-4,0,73,12,365028,0
365007,-44,-2050,362,-48,41,141,14621,-15,-1,-99,8,35701,9,32,127,0,0,3873,21,0,2789,176,149,8327,-4,0,73,12,365028,0
365017,-47,-2079,361,-45,42,145,14625,-11,7,-130,-32,35694,32,32,127,0,0,3878,32,0,2789,176,149,8337,-4,0,73,12,365044,0
365027,-48,-2052,369,-50,44,154,14627,10,3,-50,-64,35688,14,33,127,0,0,3878,43,0,2789,176,149,8347,-4,0,73,12,365044,0
365037,-60,-2058,381,-46,46,150,14626,-5,-3,-1,-16,35689,7,32,127,0,0,3875,-21,0,2789,176,149,8357,-4,0,73,12,365044,0
365047,-69,-2059,370,-46,40,150,14625,-1,-8,-74,-32,35704,4,33,127,0,0,3875,10,0,2789,176,149,8367,-4,0,73,12,365044,0
365057,-43,-2061,376,-45,32,146,14626,4,10,-20,-32,35706,4,32,127,0,0,3878,21,0,2789,176,149,8377,-4,0,73,12,365044,0
365067,-67,-2061,362,-48,32,145,14628,11,8,61,8,35712,15,32,127,0,0,3878,-21,0,2789,176,149,8387,-4,0,73,12,365044,0
365077,-69,-2053,364,-47,44,156,14626,-4,-6,20,24,35733,-19,33,127,0,0,3878,10,0,2789,176,149,8397,-4,0,73,12,365107,0
365087,-61,-2054,363,-42,41,150,14626,-6,0,31,8,35748,-11,32,127,0,0,3878,0,0,2789,176,149,8407,-4,0,73,12,365107,0
365097,-66,-2058,363,-37,38,145,14629,6,0,66,-8,35734,4,33,127,0,0,3878,-10,0,2789,176,149,8417,-4,0,73,12,365122,0
365107,-63,-2052,367,-37,29,139,14627,-9,-3,35,8,35704,12,32,127,0,0,3882,43,0,2789,176,149,8427,-4,0,73,12,365122,0
365117,-53,-2060,379,-39,39,141,14631,4,5,62,0,35692,11,32,127,0,0,3880,32,0,2789,176,149,8437,-4,0,73,12,365122,0
365127,-71,-2048,370,-38,38,139,14629,0,0,40,0,35702,-11,32,127,0,0,3882,65,0,2789,176,149,8447,-4,0,73,12,365122,0
365138,-26,-2057,371,-31,42,124,14631,-9,-3,37,24,35710,-1,33,127,0,0,3880,60,0,2789,176,149,8458,-4,0,73,12,365122,0
365148,-74,-2049,371,-28,44,132,14633,18,0,114,40,35711,7,32,127,0,0,3882,21,0,2789,176,149,8468,-4,0,73,12,365138,0
365158,-64,-2060,379,-31,44,122,14633,-1,0,92,16,35709,-1,32,127,0,0,3883,21,0,2789,176,149,8478,-4,0,73,12,365138,0
365168,-98,-2054,382,-34,39,130,14633,9,-2,96,16,35725,-4,32,127,0,0,3877,-21,0,2789,176,149,8488,-4,0,73,12,365153,0
365178,-79,-2059,377,-34,38,114,14632,-4,2,66,24,35734,-4,32,127,0,0,3883,10,0,2789,176,149,8498,-4,0,73,12,365169,0
365188,-103,-2058,382,-39,38,131,14634,4,2,94,40,35714,14,32,127,0,0,3882,49,0,2789,176,149,8508,-4,0,73,12,365169,0
365198,-29,-2060,386,-51,35,115,14632,-5,0,83,24,35696,10,32,127,0,0,3883,60,0,2789,176,149,8518,-4,0,73,12,365216,0
365208,-48,-2058,388,-52,36,121,14634,-4,-3,106,16,35694,15,32,127,0,0,3880,21,0,2789,176,149,8528,-4,0,73,12,365216,0
365218,-66,-2058,381,-52,37,108,14633,0,-4,55,16,35705,21,33,127,0,0,3880,32,0,2789,176,149,8538,-4,0,73,12,365216,0
365228,-68,-2064,385,-58,39,114,14632,-2,-1,72,0,35701,16,32,127,0,0,3878,0,0,2789,176,149,8548,-4,0,73,12,365216,0
365238,-93,-2058,369,-59,37,106,14632,4,-1,45,24,35687,23,32,127,0,0,3880,21,0,2789,176,149,8558,-4,0,73,12,365231,0
365248,-80,-2053,375,-58,27,111,14632,-12,2,95,24,35685,-9,32,127,0,0,3883,54,0,2789,176,149,8568,-4,0,73,12,365231,0
365258,-54,-2067,371,-57,29,105,14632,-3,-1,82,24,35698,-3,32,127,0,0,3880,16,0,2789,176,149,8578,-4,0,73,12,365263,0
365268,-81,-2058,381,-55,33,112,14631,-5,-4,18,0,35709,9,33,127,0,0,3878,10,0,2789,176,149,8588,-4,0,73,12,365263,0
365278,-57,-2058,391,-64,32,102,14629,-10,-4,-22,0,35700,9,32,127,0,0,3878,16,0,2789,176,149,8598,-4,0,73,12,365263,0
365288,-46,-2052,391,-70,37,108,14630,0,0,-2,0,35694,14,32,127,0,0,3878,0,0,2789,176,149,8608,-4,0,73,12,365263,0
365298,-45,-2064,379,-72,40,119,14630,-3,3,-1,0,35698,-10,33,127,0,0,3881,32,0,2789,176,149,8618,-4,0,73,12,365278,0
365308,-66,-2057,386,-69,40,121,14630,-3,-4,17,0,35711,2,32,127,0,0,3878,10,0,2789,176,149,8628,-4,0,73,12,365294,0
365318,-58,-2053,379,-67,42,132,14631,11,1,12,0,35700,2,32,127,0,0,3874,-43,0,2789,176,149,8638,-4,0,73,12,365388,0
365328,-44,-2045,371,-57,36,125,14628,-2,0,-21,8,35701,-3,33,127,0,0,3878,5,0,2789,176,149,8648,-4,0,73,12,365388,0
365338,-48,-2054,371,-63,39,134,14629,-2,-4,-1,0,35701,1,33,127,0,0,3878,0,0,2789,176,149,8658,-4,0,73,12,365388,0
365348,-53,-2051,373,-59,43,142,14629,-3,0,-20,-24,35708,4,32,127,0,0,3875,-32,0,2789,176,149,8668,-4,0,73,12,365388,0
365358,-58,-2055,371,-58,49,143,14631,15,2,51,0,35697,15,32,127,0,0,3878,-32,0,2789,176,149,8678,-4,0,73,12,365403,0
365368,-39,-2053,375,-54,45,142,14629,-12,-2,2,0,35685,21,33,127,0,0,3878,5,0,2789,176,149,8688,-4,0,73,12,365403,0
365378,-56,-2048,388,-61,45,157,14631,6,-5,5,0,35685,-7,32,127,0,0,3878,0,0,2789,176,149,8698,-4,0,73,12,365403,0
365388,-67,-2047,388,-57,43,155,14630,0,4,10,0,35693,-3,33,127,0,0,3878,0,0,2789,176,149,8708,-4,0,73,12,365403,0
365398,-78,-2053,380,-59,40,139,14630,1,-2,4,0,35691,-5,32,127,0,0,3881,32,0,2789,176,149,8718,-4,0,73,12,365403,0
365408,-93,-2056,380,-60,40,143,14631,0,5,23,0,35683,7,32,127,0,0,3881,43,0,2789,176,149,8728,-4,0,73,12,365403,0
365419,-49,-2063,379,-58,40,134,14631,1,1,30,-16,35679,-12,33,127,0,0,3878,-10,0,2789,176,149,8739,-4,0,73,12,365403,0
365429,-91,-2059,386,-60,36,135,14631,0,1,7,0,35706,-14,33,127,0,0,3878,21,0,2789,176,149,8749,-4,0,73,12,365403,0
365439,-37,-2051,381,-56,34,133,14630,-12,-4,0,0,35727,-2,33,127,0,0,3878,0,0,2789,176,149,8759,-4,0,73,12,365435,0
365449,-75,-2055,382,-59,36,125,14630,10,-4,20,32,35728,5,32,127,0,0,3878,0,0,2789,176,149,8769,-4,0,73,12,365435,0
365459,-64,-2060,379,-58,29,123,14629,-16,-2,14,0,35711,-2,32,127,0,0,3878,0,0,2789,176,149,8779,-4,0,73,12,365435,0
365469,-59,-2056,385,-54,32,125,14630,3,-4,-1,0,35704,-12,33,127,0,0,3880,21,0,2789,176,149,8789,-4,0,73,12,365481,0
365479,-86,-2056,372,-53,43,134,14632,7,10,32,0,35710,1,32,127,0,0,3878,10,0,2789,176,149,8799,-4,0,73,12,365481,0
365489,-43,-2064,381,-43,27,117,14631,2,0,23,40,35700,7,32,127,0,0,3878,0,0,2789,176,149,8809,-4,0,73,12,365481,0
365499,-48,-2060,375,-48,38,113,14629,-5,-3,6,0,35697,3,33,127,0,0,3880,21,0,2789,176,149,8819,-4,0,73,12,365481,0
365509,-48,-2062,378,-39,38,128,14631,0,1,27,0,35692,3,32,127,0,0,3880,43,0,2789,176,149,8829,-4,0,73,12,365481,0
365519,-41,-2063,379,-36,32,129,14633,2,4,59,-8,35714,-17,33,127,0,0,3878,-32,0,2789,176,149,8839,-4,0,73,12,365513,0
365529,-67,-2066,382,-34,33,116,14630,0,-6,54,32,35719,-6,33,127,0,0,3878,-10,0,2789,176,149,8849,-4,0,73,12,365528,0
365539,-41,-2066,382,-37,29,116,14631,-8,-3,40,0,35709,5,33,127,0,0,3880,0,0,2789,176,149,8859,-4,0,73,12,365528,0
365549,-42,-2057,386,-32,26,121,14630,2,-1,26,0,35698,0,32,127,0,0,3880,32,0,2789,176,149,8869,-4,0,73,12,365544,0
365559,-48,-2059,384,-29,24,123,14631,1,4,52,32,35693,-3,32,127,0,0,3878,0,0,2789,176,149,8879,-4,0,73,12,365544,0
365569,-100,-2061,382,-27,26,116,14631,6,-4,30,0,35703,1,32,127,0,0,3880,10,0,2789,176,149,8889,-4,0,73,12,365544,0
365579,-76,-2049,390,-30,24,121,14633,7,2,56,-8,35710,10,32,127,0,0,3878,-21,0,2789,176,149,8899,-4,0,73,12,365591,0
365589,-64,-2048,390,-31,25,104,14631,14,-1,14,0,35706,2,33,127,0,0,3878,0,0,2789,176,149,8909,-4,0,73,12,365591,0
365599,-71,-2042,392,-31,27,110,14628,-6,-4,-12,8,35705,-4,32,127,0,0,3880,43,0,2789,176,149,8919,-4,0,73,12,365591,0
365609,-46,-2041,389,-38,26,108,14631,0,4,27,-8,35697,13,33,127,0,0,3878,0,0,2789,176,149,8929,-4,0,73,12,365591,0
365620,-64,-2039,391,-39,27,101,14630,8,0,3,0,35681,13,32,127,0,0,3878,0,0,2789,176,149,8940,-4,0,73,12,365606,0
365630,-60,-2043,397,-38,30,109,14629,2,-2,4,0,35677,28,32,127,0,0,3878,0,0,2789,176,149,8950,-4,0,73,12,365606,0
365640,-57,-2043,394,-39,24,108,14631,3,2,13,0,35688,17,33,127,0,0,3878,0,0,2789,176,149,8960,-4,0,73,12,365638,0
365650,-89,-2045,408,-50,40,114,14632,0,5,43,0,35705,22,32,127,0,0,3878,-54,0,2789,176,149,8970,-4,0,73,12,365638,0
365660,-83,-2045,400,-54,32,112,14629,0,-4,-13,0,35696,27,32,127,0,0,3878,5,0,2789,176,149,8980,-4,0,73,12,365638,0
365670,-57,-2049,409,-65,36,109,14630,7,2,-1,0,35684,10,33,127,0,0,3878,0,0,2789,176,149,8990,-4,0,73,12,365653,0
365680,-65,-2055,408,-64,38,101,14629,-5,1,35,0,35691,13,32,127,0,0,3878,-5,0,2789,176,149,9000,-4,0,73,12,365685,0
365690,-69,-2056,404,-76,34,94,14628,-7,-10,-6,-24,35705,0,33,127,0,0,3879,0,0,2789,176,149,9010,-4,0,73,12,365685,0
365700,-72,-2051,397,-76,43,96,14630,15,1,-1,-24,35705,2,32,127,0,0,3879,-5,0,2789,176,149,9020,-4,0,73,12,365685,0
365710,-67,-2059,402,-81,49,95,14630,11,5,15,-24,35690,10,32,127,0,0,3872,-71,0,2789,176,149,9030,-4,0,73,12,365700,0
365720,-36,-2058,402,-83,43,94,14627,-3,-5,-33,8,35700,0,33,127,0,0,3871,-65,0,2789,176,149,9040,-4,0,73,12,365731,0
365730,-41,-2067,406,-89,48,87,14626,-7,-3,-86,-40,35716,13,32,127,0,0,3873,-21,0,2789,176,149,9050,-4,0,73,12,365794,0
365740,-50,-2052,406,-93,40,91,14625,1,-2,-128,-32,35712,7,33,127,0,0,3873,0,0,2789,176,149,9060,-4,0,73,12,365794,0
365750,-41,-2054,404,-98,45,96,14622,-13,-2,-201,-56,35688,16,33,127,0,0,3871,10,0,2789,176,149,9070,-4,0,73,12,365809,0
365760,-67,-2049,402,-103,45,90,14621,2,0,-173,-72,35680,-4,33,127,0,0,3872,-32,0,2789,176,149,9080,-4,0,73,12,365809,0
365770,-81,-2054,397,-109,41,96,14618,-7,0,-214,-48,35691,-17,33,127,0,0,3871,21,0,2789,176,149,9090,-4,0,73,12,365809,0
365780,-68,-2050,393,-105,46,91,14620,0,6,-223,-96,35693,-13,33,127,0,0,3867,-54,0,2789,176,149,9100,-4,0,73,12,365809,0
365790,-78,-2051,395,-113,55,77,14614,9,-5,-233,-64,35687,0,32,127,0,0,3869,-5,0,2789,176,149,9110,-4,0,73,12,365809,0
365800,-55,-2052,400,-112,43,80,14612,-13,3,-273,-88,35693,5,32,127,0,0,3867,10,0,2789,176,149,9120,-4,0,73,12,365809,0
365810,-60,-2050,394,-113,43,80,14612,3,0,-288,-80,35705,-3,33,127,0,0,3867,16,0,2789,176,149,9130,-4,0,73,12,365809,0
365820,-66,-2042,387,-112,43,80,14608,-14,-1,-361,-104,35719,-11,32,127,0,0,3861,10,0,2789,176,149,9140,-4,0,73,12,365809,0
365830,-61,-2056,384,-108,38,69,14605,-5,-7,-341,-112,35699,5,32,127,0,0,3862,-5,0,2789,176,149,9150,-4,0,73,12,365809,0
365840,-60,-2050,382,-103,45,72,14601,-16,-3,-401,-152,35700,9,33,127,0,0,3858,-32,0,2789,176,149,9160,-4,0,73,12,365841,0
365850,-67,-2056,374,-102,46,67,14597,-8,-4,-453,-120,35716,22,33,127,0,0,3857,-16,0,2789,176,149,9170,-4,0,73,12,365841,0
365860,-61,-2052,379,-96,50,65,14592,-14,3,-469,-160,35728,3,33,127,0,0,3852,-10,0,2789,176,149,9180,-4,0,73,12,365841,0
365871,-46,-2062,386,-92,49,56,14577,-45,-23,-471,-152,35718,-8,32,127,0,0,3851,10,0,2789,176,149,9191,-4,0,73,12,365856,0
365881,-37,-2059,384,-92,46,67,14546,-92,-64,-309,-88,35697,-8,32,127,0,0,3851,-10,0,2789,176,149,9201,-4,0,73,12,365872,0
365891,-75,-2053,380,-86,54,62,14523,-22,-15,-228,-56,35701,-29,33,127,0,0,3851,10,0,2789,176,149,9211,-4,0,73,12,365872,0
365901,-16,-2049,382,-78,40,80,14526,1,78,-268,-64,35720,-30,32,127,0,0,3849,-21,0,2789,176,149,9221,-4,0,73,12,365872,0
365911,-18,-2070,375,-81,44,79,14522,-3,20,-317,-120,35714,-29,32,127,0,0,3849,0,0,2789,176,149,9231,-4,0,73,12,365903,0
365921,-13,-2074,379,-79,31,82,14516,-23,-16,-383,-136,35711,-21,32,127,0,0,3845,32,0,2789,176,149,9241,-4,0,73,12,365903,0
365931,530,-2351,180,-152,76,-175,14504,-32,-22,-350,-104,35701,-35,33,127,0,0,3843,-21,0,2789,176,149,9251,-4,0,73,12,365919,0
365941,268,-1966,161,-246,113,-769,14482,-50,-31,-285,-184,35714,-48,32,127,0,0,3823,-274,0,2789,176,149,9261,-4,0,73,12,365950,0
365951,-67,-1991,365,-170,79,-359,14425,-168,-88,-655,-352,35706,-49,33,127,0,0,3799,-197,0,2789,176,149,9271,-4,0,73,12,365950,0
365961,4,-2012,467,-102,-35,22,14316,-240,-172,-388,-280,35699,-36,33,127,0,0,3794,-21,0,2789,176,149,9281,-4,0,73,12,365966,0
365971,181,-2148,303,-145,-9,-146,14237,-147,-16,-234,-112,35694,-24,33,127,0,0,3792,-21,0,2789,176,149,9291,-4,0,73,12,365966,0
365981,253,-2006,162,-219,90,-760,14193,-71,130,-246,-160,35694,-39,33,127,0,0,3770,-252,0,2789,176,149,9301,-4,0,73,12,365966,0
365991,81,-1951,357,-237,110,-765,14156,-122,74,-687,-408,35712,-43,32,127,0,0,3744,-296,0,2789,176,149,9311,-4,0,73,12,365966,0
366001,160,-2085,472,-228,2,-527,14050,-274,-140,-554,-480,35723,-28,32,127,0,0,3719,-208,0,2789,176,149,9321,-4,0,73,12,365997,0
366011,133,-2108,313,-244,-7,-572,13921,-259,-138,-393,-408,35722,-12,32,127,0,0,3700,-252,0,2789,176,149,9331,-4,0,73,12,365997,0
366021,181,-2064,173,-274,53,-872,13796,-281,-29,-348,-400,35718,-13,32,127,0,0,3676,-296,0,2789,176,149,9341,-4,0,73,12,365997,0
366031,178,-2002,249,-308,113,-1013,13671,-282,-24,-403,-488,35711,7,33,127,0,0,3647,-307,0,2789,176,149,9351,-4,0,73,12,366013,0
366041,257,-2111,436,-278,100,-838,13535,-310,-24,-456,-536,35707,-12,32,127,0,0,3616,-263,0,2789,176,149,9361,-4,0,73,12,366013,0
366051,484,-2083,398,-231,25,-609,13392,-323,-35,-399,-544,35700,-7,32,127,0,0,3599,-142,0,2789,176,149,9371,-4,0,73,12,366044,0
366061,637,-2078,249,-248,-45,-496,13253,-300,-5,-319,-360,35715,-64,33,127,0,0,3583,-131,0,2789,176,149,9381,-4,0,73,12,366044,0
366071,504,-2037,165,-249,-9,-505,13145,-212,70,-323,-320,35720,-65,33,127,0,0,3570,-164,0,2789,176,149,9391,-4,0,73,12,366044,0
366081,417,-2093,119,-171,54,-407,13061,-173,104,-323,-232,35724,-46,33,127,0,0,3555,-164,0,2789,176,149,9401,-4,0,73,12,366075,0
366091,429,-2129,189,-74,34,-278,12979,-167,50,-296,-208,35715,-3,33,127,0,0,3546,-87,0,2789,176,149,9411,-4,0,73,12,366106,0
366101,393,-2103,332,-43,28,-147,12917,-113,51,-281,-128,35705,10,33,127,0,0,3541,-54,0,2789,176,149,9421,-4,0,73,12,366106,0
366111,378,-2059,380,-72,23,-109,12877,-85,78,-239,-96,35714,-11,32,127,0,0,3537,-21,0,2789,176,149,9431,-4,0,73,12,366106,0
366121,351,-2056,348,-98,16,-71,12846,-86,55,-227,-64,35711,-25,32,127,0,0,3535,10,0,2789,176,149,9441,-4,0,73,12,366106,0
366132,163,-2065,355,-86,-9,-39,12837,7,67,-324,-96,35701,-22,32,127,0,0,3531,-5,0,2789,176,149,9452,-4,0,73,12,366106,0
366142,53,-2064,403,-77,-48,-54,12838,6,64,-349,-96,35706,-24,32,127,0,0,3531,0,0,2789,176,149,9462,-4,0,73,12,366153,0
366152,-44,-2040,417,-98,-54,-142,12835,-7,-3,-378,-112,35720,-24,32,127,0,0,3522,-60,0,2789,176,149,9472,-4,0,73,12,366169,0
366162,-122,-2032,449,-146,-7,-356,12830,-20,-11,-527,-216,35740,-19,32,127,0,0,3514,-153,0,2789,176,149,9482,-4,0,73,12,366169,0
366172,-146,-2101,441,-203,18,-454,12806,-74,-53,-624,-296,35723,-1,32,127,0,0,3498,-186,0,2789,176,149,9492,-4,0,73,12,366169,0
366182,13,-2081,472,-239,18,-578,12747,-137,-107,-548,-312,35696,11,33,127,0,0,3488,-109,0,2789,176,149,9502,-4,0,73,12,366169,0
366192,28,-2090,412,-256,10,-625,12668,-182,-96,-399,-336,35690,-10,32,127,0,0,3470,-192,0,2789,176,149,9512,-4,0,73,12,366169,0
366202,75,-2209,412,-267,1,-657,12581,-189,-50,-424,-312,35709,-32,32,127,0,0,3455,-131,0,2789,176,149,9522,-4,0,73,12,366200,0
366212,124,-2214,394,-241,-26,-694,12487,-205,-25,-362,-304,35727,-25,32,127,0,0,3437,-181,0,2789,176,149,9532,-4,0,73,12,366200,0
366222,31,-2269,350,-225,16,-603,12403,-166,8,-377,-272,35722,-6,32,127,0,0,3424,-142,0,2789,176,149,9542,-4,0,73,12,366200,0
366232,72,-2251,297,-283,105,-499,12337,-136,63,-390,-224,35710,-9,33,127,0,0,3425,-32,0,2789,176,149,9552,-4,0,73,12,366216,0
366242,233,-1971,262,-297,58,-515,12287,-94,62,-250,-80,35708,-12,32,127,0,0,3426,82,0,2789,176,149,9562,-4,0,73,12,366216,0
366252,305,-2029,201,-261,-14,-517,12274,23,111,-129,-56,35708,-6,33,127,0,0,3423,-21,0,2789,176,149,9572,-4,0,73,12,366263,0
366262,346,-2072,228,-230,-11,-427,12273,-19,96,-211,-80,35706,13,33,127,0,0,3424,0,0,2789,176,149,9582,-4,0,73,12,366263,0
366272,238,-2054,293,-218,-19,-376,12275,11,13,-162,-32,35694,8,33,127,0,0,3425,5,0,2789,176,149,9592,-4,0,73,12,366263,0
366282,223,-2099,367,-220,-6,-326,12277,14,14,-8,8,35700,-12,33,127,0,0,3429,5,0,2789,176,149,9602,-4,0,73,12,366263,0
366292,303,-2080,377,-228,-26,-286,12281,7,2,152,88,35705,-5,32,127,0,0,3438,76,0,2789,176,149,9612,-4,0,73,12,366278,0
366302,312,-2061,331,-221,-67,-231,12293,25,19,305,104,35708,-1,32,127,0,0,3446,65,0,2789,176,149,9622,-4,0,73,12,366278,0
366312,265,-2036,315,-206,-85,-213,12317,70,40,387,168,35703,-11,33,127,0,0,3457,82,0,2789,176,149,9632,-4,0,73,12,366309,0
366322,239,-2007,314,-184,-113,-189,12372,129,89,252,144,35709,-3,33,127,0,0,3466,93,0,2789,176,149,9642,-4,0,73,12,366309,0
366332,198,-2012,326,-181,-111,-178,12434,130,72,253,112,35712,-13,33,127,0,0,3478,104,0,2789,176,149,9652,-4,0,73,12,366309,0
366342,225,-2037,329,-175,-108,-166,12489,103,-11,240,136,35700,-11,32,127,0,0,3488,142,0,2789,176,149,9662,-4,0,73,12,366325,0
366352,218,-2029,325,-176,-86,-207,12531,102,-43,293,144,35688,-10,32,127,0,0,3493,93,0,2789,176,149,9672,-4,0,73,12,366387,0
366362,264,-2007,292,-178,-48,-244,12554,30,-56,416,184,35702,-28,33,127,0,0,3499,60,0,2789,176,149,9682,-4,0,73,12,366387,0
366372,228,-1972,299,-171,-30,-241,12578,72,-35,405,160,35710,-30,32,127,0,0,3504,21,0,2789,176,149,9692,-4,0,73,12,366387,0
366382,308,-2010,300,-161,-37,-186,12612,59,29,319,160,35704,-19,32,127,0,0,3511,76,0,2789,176,149,9702,-4,0,73,12,366387,0
366392,295,-1985,306,-151,-38,-183,12649,101,14,326,160,35688,-6,32,127,0,0,3517,16,0,2789,176,149,9712,-4,0,73,12,366403,0
366402,339,-1984,291,-149,-40,-179,12688,61,14,311,120,35684,-14,33,127,0,0,3525,82,0,2789,176,149,9722,-4,0,73,12,366403,0
366412,249,-1977,314,-148,-27,-191,12718,64,-18,304,112,35697,-23,32,127,0,0,3526,43,0,2789,176,149,9732,-4,0,73,12,366403,0
366423,279,-2020,320,-159,-9,-200,12729,5,-46,377,96,35703,-26,32,127,0,0,3531,21,0,2789,176,149,9743,-4,0,73,12,366403,0
366433,273,-2018,331,-148,-25,-212,12732,20,-56,448,120,35711,-29,32,127,0,0,3533,0,0,2789,176,149,9753,-4,0,73,12,366481,0
366443,256,-2030,335,-149,-29,-226,12739,25,10,449,128,35720,-42,33,127,0,0,3533,0,0,2789,176,149,9763,-4,0,73,12,366497,0
366453,252,-2044,343,-166,-35,-241,12759,54,34,317,96,35719,-60,32,127,0,0,3533,0,0,2789,176,149,9773,-4,0,73,12,366497,0
366463,252,-2044,335,-162,-27,-241,12788,50,43,39,48,35693,-50,32,127,0,0,3533,21,0,2789,176,149,9783,-4,0,73,12,366497,0
366473,231,-2052,336,-161,-31,-250,12786,-2,-53,123,40,35684,-23,33,127,0,0,3533,0,0,2789,176,149,9793,-4,0,73,12,366497,0
366483,239,-2074,313,-156,-16,-259,12787,7,-46,131,-8,35684,-16,32,127,0,0,3533,0,0,2789,176,149,9803,-4,0,73,12,366497,0
366493,242,-2073,310,-157,-18,-258,12788,18,6,151,-8,35698,-14,33,127,0,0,3533,0,0,2789,176,149,9813,-4,0,73,12,366497,0
366503,236,-2094,318,-153,-18,-273,12787,2,-3,146,32,35694,-21,32,127,0,0,3533,0,0,2789,176,149,9823,-4,0,73,12,366497,0
366513,288,-2082,295,-137,-17,-282,12785,-5,-5,100,48,35689,-26,32,127,0,0,3528,-10,0,2789,176,149,9833,-4,0,73,12,366497,0
366523,341,-2063,272,-150,-1,-285,12784,-19,-5,10,-32,35704,-7,33,127,0,0,3531,21,0,2789,176,149,9843,-4,0,73,12,366512,0
366533,275,-2067,255,-143,-4,-280,12786,3,3,89,40,35731,-30,33,127,0,0,3533,10,0,2789,176,149,9853,-4,0,73,12,366528,0
366543,278,-2074,282,-142,-6,-292,12787,3,2,160,16,35736,-28,33,127,0,0,3533,-10,0,2789,176,149,9863,-4,0,73,12,366544,0
366553,254,-2076,304,-149,-1,-294,12786,9,-10,168,48,35717,-36,32,127,0,0,3533,-10,0,2789,176,149,9873,-4,0,73,12,366544,0
366563,263,-2091,327,-149,10,-281,12787,-6,2,166,56,35688,-31,33,127,0,0,3535,21,0,2789,176,149,9883,-4,0,73,12,366544,0
366573,276,-2120,344,-148,-18,-269,12792,13,7,275,88,35690,-25,32,127,0,0,3541,43,0,2789,176,149,9893,-4,0,73,12,366559,0
366583,282,-2092,357,-145,-28,-269,12804,38,27,335,112,35701,-33,32,127,0,0,3546,32,0,2789,176,149,9903,-4,0,73,12,366559,0
366593,289,-2042,317,-146,-47,-300,12833,77,52,281,136,35697,-13,32,127,0,0,3550,54,0,2789,176,149,9913,-4,0,73,12,366591,0
366603,327,-2048,286,-158,-68,-286,12859,18,19,350,128,35696,-13,33,127,0,0,3559,65,0,2789,176,149,9923,-4,0,73,12,366591,0
366613,344,-2008,262,-136,-84,-330,12859,4,-70,520,184,35702,-26,33,127,0,0,3561,65,0,2789,176,149,9933,-4,0,73,12,366591,0
366624,367,-2020,252,-136,-112,-350,12873,46,5,598,208,35721,-44,32,127,0,0,3571,43,0,2789,176,149,9944,-4,0,73,12,366606,0
366634,315,-2043,309,-149,-117,-341,12913,99,78,432,184,35720,-29,32,127,0,0,3576,43,0,2789,176,149,9954,-4,0,73,12,366637,0
366644,331,-2065,307,-172,-108,-352,12947,75,29,447,160,35713,-23,33,127,0,0,3577,16,0,2789,176,149,9964,-4,0,73,12,366637,0
366654,289,-2028,266,-185,-51,-387,12988,75,-2,329,144,35703,-29,32,127,0,0,3587,76,0,2789,176,149,9974,-4,0,73,12,366637,0
366664,282,-2041,242,-195,-4,-425,13007,42,-32,409,128,35698,-33,33,127,0,0,3589,60,0,2789,176,149,9984,-4,0,73,12,366637,0
366674,342,-2005,219,-186,26,-429,13033,64,-23,308,96,35702,-31,33,127,0,0,3588,16,0,2789,176,149,9994,-4,0,73,12,366684,0
366684,422,-1992,202,-183,37,-417,13038,0,-27,387,136,35701,-1,33,127,0,0,3595,71,0,2789,176,149,10004,-4,0,73,12,366684,0
366694,466,-1966,212,-152,35,-359,13044,17,-35,474,168,35701,-16,33,127,0,0,3600,71,0,2789,176,149,10014,-4,0,73,12,366684,0
366704,507,-1978,225,-131,21,-354,13057,38,23,567,216,35700,-23,32,127,0,0,3603,43,0,2789,176,149,10024,-4,0,73,12,366684,0
366714,527,-1980,250,-113,-21,-293,13091,108,58,428,200,35709,-27,32,127,0,0,3607,43,0,2789,176,149,10034,-4,0,73,12,366700,0
366724,538,-2012,299,-122,-34,-264,13136,84,62,375,152,35712,-25,32,127,0,0,3618,49,0,2789,176,149,10044,-4,0,73,12,366716,0
366734,420,-1976,336,-123,-32,-272,13180,94,1,339,136,35712,-32,33,127,0,0,3622,54,0,2789,176,149,10054,-4,0,73,12,366716,0
366744,418,-2009,327,-117,-31,-303,13217,92,-14,280,112,35708,-47,33,127,0,0,3623,60,0,2789,176,149,10064,-4,0,73,12,366716,0
366754,473,-2004,298,-122,-17,-293,13243,3,-40,225,48,35708,-37,33,127,0,0,3623,-5,0,2789,176,149,10074,-4,0,73,12,366747,0
366764,432,-1972,263,-135,-2,-295,13241,4,-94,303,56,35702,-23,32,127,0,0,3626,-10,0,2789,176,149,10084,-4,0,73,12,366747,0
366774,423,-1971,217,-138,30,-309,13240,-6,-35,291,80,35698,-15,32,127,0,0,3625,43,0,2789,176,149,10094,-4,0,73,12,366747,0
366784,392,-1944,210,-135,45,-325,13243,-1,10,339,72,35699,-10,33,127,0,0,3625,-5,0,2789,176,149,10104,-4,0,73,12,366778,0
366794,356,-1915,196,-144,74,-356,13242,0,-1,297,56,35709,-21,33,127,0,0,3626,0,0,2789,176,149,10114,-4,0,73,12,366778,0
366804,360,-1932,171,-159,115,-376,13242,0,-2,305,56,35706,-16,33,127,0,0,3623,-21,0,2789,176,149,10124,-4,0,73,12,366794,0
366814,447,-1906,225,-192,175,-470,13236,-20,-11,134,16,35685,-19,33,127,0,0,3618,-32,0,2789,176,149,10134,-4,0,73,12,366809,0
366824,424,-1866,292,-213,210,-528,13231,-8,-11,-26,-72,35678,-10,32,127,0,0,3603,-170,0,2789,176,149,10144,-4,0,73,12,366825,0
366834,528,-1929,333,-278,232,-557,13210,-49,-31,-328,-144,35688,-15,33,127,0,0,3595,-115,0,2789,176,149,10154,-4,0,73,12,366840,0
366844,532,-1966,326,-282,221,-550,13181,-76,-50,-478,-232,35698,-19,32,127,0,0,3582,-98,0,2789,176,149,10164,-4,0,73,12,366840,0
366854,469,-1977,314,-313,214,-610,13112,-161,-97,-359,-256,35696,-11,32,127,0,0,3563,-214,0,2789,176,149,10174,-4,0,73,12,366840,0
366864,438,-2009,359,-321,207,-650,13024,-206,-106,-318,-264,35695,-28,33,127,0,0,3549,-192,0,2789,176,149,10184,-4,0,73,12,366856,0
366875,433,-2053,419,-347,198,-678,12923,-183,-32,-271,-224,35709,-36,32,127,0,0,3528,-186,0,2789,176,149,10195,-4,0,73,12,366856,0
366885,513,-2086,370,-394,217,-664,12834,-199,5,-290,-208,35724,-35,33,127,0,0,3513,-197,0,2789,176,149,10205,-4,0,73,12,366903,0
366895,641,-2132,328,-442,207,-681,12763,-143,37,-412,-256,35719,-23,32,127,0,0,3498,-131,0,2789,176,149,10215,-4,0,73,12,366903,0
366905,531,-1978,375,-443,219,-731,12699,-167,45,-406,-296,35711,-17,32,127,0,0,3480,-186,0,2789,176,149,10225,-4,0,73,12,366903,0
366915,557,-2063,356,-477,130,-634,12615,-175,-41,-371,-288,35702,-34,33,127,0,0,3467,-131,0,2789,176,149,10235,-4,0,73,12,366919,0
366925,543,-2150,404,-457,104,-624,12535,-174,-17,-331,-192,35703,-28,32,127,0,0,3456,-109,0,2789,176,149,10245,-4,0,73,12,366919,0
366935,598,-2095,333,-519,107,-630,12462,-140,27,-275,-168,35703,-8,32,127,0,0,3449,-54,0,2789,176,149,10255,-4,0,73,12,366919,0
366945,589,-2036,354,-575,109,-657,12424,-57,92,-354,-176,35713,-9,33,127,0,0,3438,-131,0,2789,176,149,10265,-4,0,73,12,366919,0
366955,734,-2026,248,-592,78,-470,12387,-86,64,-381,-120,35713,-13,32,127,0,0,3436,-21,0,2789,176,149,10275,-4,0,73,12,366950,0
366965,764,-2052,205,-530,40,-394,12373,-17,33,-385,-104,35723,-28,33,127,0,0,3438,10,0,2789,176,149,10285,-4,0,73,12,366950,0
366975,720,-1985,100,-542,55,-378,12374,6,72,-341,-96,35702,-14,32,127,0,0,3440,21,0,2789,176,149,10295,-4,0,73,12,366950,0
366985,636,-1964,185,-555,53,-314,12373,-5,21,-312,-80,35694,-8,32,127,0,0,3443,43,0,2789,176,149,10305,-4,0,73,12,367013,0
366995,648,-2032,251,-595,73,-253,12379,32,7,-177,-48,35693,-18,32,127,0,0,3451,87,0,2789,176,149,10315,-4,0,73,12,367013,0
367005,565,-2118,259,-594,33,-234,12396,47,35,-3,16,35699,-33,33,127,0,0,3460,109,0,2789,176,149,10325,-4,0,73,12,367013,0
367015,546,-2153,211,-612,59,-252,12417,43,24,230,128,35693,-34,32,127,0,0,3476,175,0,2789,176,149,10335,-4,0,73,12,367013,0
367025,431,-2045,189,-590,107,-283,12456,121,40,392,216,35692,-26,32,127,0,0,3484,109,0,2789,176,149,10345,-4,0,73,12,367013,0
367035,530,-2049,116,-611,111,-262,12524,149,98,324,200,35694,-12,33,127,0,0,3502,164,0,2789,176,149,10355,-4,0,73,12,367013,0
367045,453,-2061,143,-606,147,-311,12587,127,36,359,240,35703,-6,32,127,0,0,3517,197,0,2789,176,149,10365,-4,0,73,12,367029,0
367055,443,-2059,135,-614,190,-370,12659,183,5,391,280,35713,19,33,127,0,0,3533,120,0,2789,176,149,10375,-4,0,73,12,367060,0
367065,476,-1999,198,-607,270,-409,12741,170,41,337,208,35710,-3,32,127,0,0,3546,131,0,2789,176,149,10385,-4,0,73,12,367060,0
367075,564,-1990,187,-629,265,-425,12820,198,12,313,256,35710,-8,32,127,0,0,3561,142,0,2789,176,149,10395,-4,0,73,12,367075,0
367085,628,-1966,101,-635,227,-444,12891,122,-6,339,216,35720,-25,33,127,0,0,3577,186,0,2789,176,149,10405,-4,0,73,12,367075,0
367095,482,-1937,43,-659,241,-495,12947,118,-65,518,296,35727,-25,32,127,0,0,3594,153,0,2789,176,149,10415,-4,0,73,12,367075,0
367105,417,-1977,92,-678,290,-625,13016,169,11,447,280,35718,-18,32,127,0,0,3607,142,0,2789,176,149,10425,-4,0,73,12,367091,0
367115,404,-1972,165,-690,340,-711,13093,160,42,378,248,35707,-16,33,127,0,0,3618,142,0,2789,176,149,10435,-4,0,73,12,367122,0
367125,455,-1968,244,-757,318,-783,13168,168,-7,365,264,35702,-10,32,127,0,0,3632,142,0,2789,176,149,10445,-4,0,73,12,367122,0
367136,604,-1851,236,-803,351,-881,13249,178,-1,324,208,35707,-25,33,127,0,0,3641,153,0,2789,176,149,10456,-4,0,73,12,367122,0
367146,983,-1821,213,-1044,342,-740,13308,103,-25,337,184,35723,-31,32,127,0,0,3650,115,0,2789,176,149,10466,-4,0,73,12,367138,0
367156,782,-2018,320,-1068,46,-622,13331,62,-106,602,272,35723,-21,32,127,0,0,3670,208,0,2789,176,149,10476,-4,0,73,12,367138,0
367166,387,-2174,330,-842,0,-796,13395,163,31,508,360,35730,-22,33,127,0,0,3687,225,0,2789,176,149,10486,-4,0,-18,0,367232,0
367176,328,-2159,382,-712,105,-1066,13485,193,125,440,272,35734,-33,33,127,0,0,3689,32,0,2789,176,149,10496,-4,0,-17,0,367232,0
367186,488,-1976,501,-773,166,-1252,13560,163,1,285,120,35720,-41,32,127,0,0,3692,27,0,2789,176,149,10506,-4,0,-17,0,367232,0
367196,768,-1990,465,-875,128,-1255,13601,60,-91,143,64,35710,-32,32,127,0,0,3688,16,0,2789,176,149,10516,-4,0,-17,0,367232,0
367206,856,-2057,210,-962,7,-1225,13599,-22,-151,222,72,35692,-22,33,127,0,0,3691,16,0,2789,176,149,10526,-4,0,-17,0,367232,0
367216,710,-2026,54,-925,-36,-1136,13602,-8,-64,227,64,35701,-33,32,127,0,0,3697,65,0,2789,176,149,10536,-4,0,-17,0,367247,0
367226,741,-2041,38,-890,-41,-1087,13610,36,14,441,168,35706,-28,33,127,0,0,3708,93,0,2789,176,149,10546,-4,0,-17,0,367247,0
367236,790,-1972,38,-871,-5,-1076,13632,50,43,684,312,35701,-30,32,127,0,0,3723,164,0,2789,176,149,10556,-4,0,-17,0,367247,0
367246,844,-1874,-78,-970,16,-1071,13691,167,98,571,352,35694,-31,32,127,0,0,3735,159,0,2789,176,149,10566,-4,0,-17,0,367247,0
367256,850,-1960,-120,-1003,-32,-992,13772,175,124,493,384,35699,-37,33,127,0,0,3759,219,0,2789,176,149,10576,-4,0,-17,0,367247,0
367266,683,-2031,-153,-898,-21,-963,13869,218,57,515,424,35724,-26,33,127,0,0,3784,208,0,2789,176,149,10586,-4,0,-17,0,367247,0
367276,672,-2022,-135,-819,61,-1011,13978,252,48,509,464,35737,-6,32,127,0,0,3812,274,0,2789,176,149,10596,-4,0,-16,0,367263,0
367286,748,-1975,-105,-767,186,-1054,14108,278,62,458,504,35737,10,32,127,0,0,3830,302,0,2789,176,149,10606,-4,0,-16,0,367263,0
367296,875,-1933,-71,-777,265,-1065,14241,302,37,436,472,35719,3,33,127,0,0,3859,269,0,2789,176,149,10616,-4,0,-16,0,367294,0
367306,1007,-1890,-63,-809,321,-960,14372,302,4,446,496,35713,-2,33,127,0,0,3885,285,0,2789,176,149,10626,-4,0,-16,0,367294,0
367316,1074,-1879,-36,-793,341,-874,14506,294,2,493,528,35702,-10,32,127,0,0,3917,329,0,2789,176,149,10636,-4,0,-16,0,367294,0
367326,1084,-1760,-33,-695,303,-830,14652,342,23,506,568,35691,-2,32,127,0,0,3948,285,0,2789,176,149,10646,-4,0,-16,0,367310,0
367336,1141,-1680,-43,-614,230,-796,14806,345,42,442,584,35694,3,33,127,0,0,3979,368,0,2789,176,149,10656,-4,0,-16,0,367310,0
367346,1183,-1638,-68,-512,83,-778,14963,341,18,440,568,35708,4,33,127,0,0,4004,296,0,2789,176,149,10666,-4,0,-16,0,367341,0
367356,1115,-1620,-91,-467,31,-707,15110,315,-18,465,560,35717,-6,33,127,0,0,4033,291,0,2789,176,149,10676,-4,0,-16,0,367341,0
367366,1008,-1603,-157,-471,53,-638,15258,315,-15,451,512,35706,-18,33,127,0,0,4060,280,0,2789,176,149,10686,-4,0,-16,0,367341,0
367377,906,-1688,-189,-519,95,-661,15407,299,-24,491,536,35707,-36,33,127,0,0,4086,230,0,2789,176,149,10697,-4,0,-15,0,367372,0
367387,857,-1810,-206,-413,126,-709,15542,284,-21,470,536,35709,-37,33,127,0,0,4111,241,0,2789,176,149,10707,-4,0,-15,0,367388,0
367397,846,-1776,-175,-265,136,-795,15683,302,13,392,448,35720,-20,33,127,0,0,4124,186,0,2789,176,149,10717,-4,0,-15,0,367388,0
367407,974,-1718,-68,-209,92,-844,15799,237,-37,446,408,35702,13,32,127,0,0,4144,175,0,2789,176,149,10727,-4,0,-15,0,367388,0
367417,1062,-1751,45,-175,-20,-846,15904,222,-76,438,336,35684,8,32,127,0,0,4163,142,0,2789,176,149,10737,-4,0,-15,0,367403,0
367427,1039,-1778,75,-184,-67,-840,15998,199,-41,459,328,35686,-2,33,127,0,0,4179,164,0,2789,176,149,10747,-4,0,-15,0,367403,0
367437,988,-1778,62,-171,-80,-866,16091,191,-26,464,336,35699,-16,32,127,0,0,4194,142,0,2789,176,149,10757,-4,0,-15,0,367419,0
367447,1009,-1736,0,-137,-115,-913,16169,177,-40,455,280,35698,-12,32,127,0,0,4207,142,0,2789,176,149,10767,-4,0,-15,0,367419,0
367457,1095,-1722,8,-86,-182,-914,16247,170,-17,417,264,35705,-12,33,127,0,0,4220,131,0,2789,176,149,10777,-4,0,-15,0,367450,0
367467,1093,-1768,51,-80,-267,-926,16307,131,-33,451,232,35705,-25,33,127,0,0,4229,87,0,2789,176,149,10787,-4,0,-15,0,367450,0
367477,1030,-1817,131,-61,-365,-914,16372,169,-17,420,216,35713,-21,33,127,0,0,4242,120,0,2789,176,149,10797,-4,0,-15,0,367466,0
367487,998,-1861,143,-82,-439,-963,16440,137,25,429,208,35707,-14,33,127,0,0,4251,98,0,2789,176,149,10807,-4,0,-15,0,367466,0
367497,802,-1910,87,-156,-451,-1050,16495,121,-30,451,216,35691,15,33,127,0,0,4262,87,0,2789,176,149,10817,-4,0,-16,0,367482,0
367507,773,-2002,67,-198,-430,-1161,16543,114,-35,439,240,35704,-16,33,127,0,0,4273,120,0,2789,176,149,10827,-4,0,-16,0,367497,0
367517,665,-2062,102,-257,-415,-1332,16583,80,-23,501,192,35709,-33,32,127,0,0,4280,98,0,2789,176,149,10837,-4,0,-16,0,367497,0
367527,606,-2102,87,-295,-451,-1479,16628,105,-3,471,224,35718,-34,33,127,0,0,4289,87,0,2789,176,149,10847,-4,0,-16,0,367513,0
367537,513,-2103,128,-310,-473,-1705,16671,107,10,515,296,35707,-18,32,127,0,0,4295,76,0,2789,176,149,10857,-4,0,-16,0,367513,0
367547,118,-2081,212,-275,-800,-1628,16716,82,-4,464,176,35699,-13,32,127,0,0,4306,109,0,2789,176,149,10867,-4,0,-15,0,367544,0
367557,732,-2436,45,-418,-660,-1965,16769,137,13,645,536,35713,-47,33,127,0,0,4352,494,0,2789,176,149,10877,-4,0,-15,0,367560,0
367567,330,-2822,242,-597,-714,-2508,16888,274,155,579,472,35710,-33,33,127,0,0,4359,43,0,2789,176,149,10887,-4,0,-15,0,367575,0
367577,-306,-2924,481,-777,-732,-1830,17005,249,111,397,400,35695,-26,33,127,0,0,4392,417,0,2789,176,149,10897,-4,0,-15,0,367575,0
367587,336,-3211,273,-1009,-783,-2275,17122,301,-6,723,920,35683,-4,33,127,0,0,4460,648,0,2789,176,149,10907,-4,0,-15,0,367575,0
367597,-265,-3582,139,-1132,-620,-3189,17315,453,170,604,1064,35679,12,33,127,0,0,4506,428,0,2789,176,149,10917,-4,0,-14,0,367575,0
367607,-607,-3387,-35,-1053,-652,-3334,17527,475,173,580,1096,35684,7,32,127,0,0,4559,593,0,2789,176,149,10927,-4,0,-14,0,367591,0
367618,-416,-3221,-179,-1198,-177,-3653,17786,551,70,667,1408,35687,6,32,127,0,0,4627,664,0,2789,176,149,10938,-4,0,-13,0,367653,0
367628,-293,-3468,-90,-1282,131,-4020,18064,629,134,601,1544,35691,12,33,127,0,0,4697,664,0,2789,176,149,10948,-4,0,-13,0,367653,0
367638,-268,-3604,30,-1436,643,-4451,18364,684,123,648,1608,35691,4,32,127,0,0,4755,587,0,2789,176,149,10958,-4,0,-12,0,367669,0
367648,-204,-3467,30,-1543,966,-4576,18676,691,67,571,1648,35694,2,33,127,0,0,4824,642,0,2789,176,149,10968,-4,0,-11,0,367669,0
367658,-194,-3153,54,-1618,1236,-4630,19000,716,42,631,1792,35682,11,32,127,0,0,4905,834,0,2789,176,149,10978,-4,0,-10,0,367669,0
367668,-163,-3032,62,-1586,1325,-4495,19345,782,67,687,2016,35673,23,32,127,0,0,4991,983,0,2789,176,149,10988,-4,0,-9,0,367669,0
367678,-151,-2469,149,-1500,1291,-4077,19724,853,112,800,2312,35670,28,33,127,0,0,5093,1087,0,2789,176,149,10998,-4,0,-8,0,367669,0
367688,-203,-2160,241,-1521,1248,-3714,20153,981,161,848,2688,35673,21,32,127,0,0,5216,1230,0,2789,176,149,11008,-4,0,-6,0,367669,0
367698,-61,-1439,382,-1420,1370,-3083,20646,1142,226,1007,3240,35673,46,33,127,0,0,5374,1571,0,2789,176,149,11018,-4,0,-5,0,367669,0
367708,-238,-1138,394,-1339,1542,-2690,21244,1394,338,1061,3680,35664,58,32,127,0,0,5555,1834,0,2789,176,149,11028,-4,0,-3,0,367700,0
367718,1172,-1391,-15,-1136,2724,-2928,21873,1292,239,-21,1736,35663,56,32,127,0,0,5729,1609,0,2789,176,149,11038,-4,0,-1,0,367700,0
367728,1029,-1322,-111,-846,3584,-3668,22264,554,-497,-2188,-1120,35677,11,33,127,0,0,5744,54,0,2789,176,149,11048,-4,0,0,0,367716,0
367738,1272,-1702,-8,-346,3979,-3808,21964,-918,-1884,-1682,-3616,35701,5,32,127,0,0,5666,-939,0,2789,176,149,11058,-4,0,1,0,367716,0
367748,1132,-1640,243,-97,3759,-3495,21196,-2042,-2187,-2441,-6472,35674,73,32,127,0,0,5510,-1527,0,2789,176,149,11068,-4,0,3,0,367732,0
367758,1360,-1595,412,64,3436,-3022,20002,-2796,-1701,-637,-3992,35637,187,33,127,0,0,5326,-1955,0,2789,176,149,11078,-4,0,5,0,367732,0
367768,1046,-1420,450,211,3151,-2949,19354,-441,485,5330,2088,35644,131,32,127,0,0,5115,-2131,0,2789,176,149,11088,-4,0,6,0,367747,0
367778,1662,-1627,326,285,2632,-1596,19771,1057,3423,742,1368,35670,100,33,127,0,0,4926,-1840,0,2789,176,149,11098,-4,0,8,0,367778,0
367788,1771,-1704,370,323,2572,-834,20038,194,1358,-2138,-1160,35704,-7,33,127,0,0,4754,-1757,0,2789,176,149,11108,-4,0,10,0,367778,0
367798,1509,-1531,406,426,1897,130,19760,-779,-1540,-1140,-2480,35690,40,33,127,0,0,4579,-1735,0,2789,176,149,11118,-4,0,12,0,367778,0
367808,1500,-1366,396,493,1132,708,19255,-1233,-1402,-1021,-3400,35680,22,33,127,0,0,4394,-1801,0,2789,176,149,11128,-4,0,13,0,367794,0
367818,1537,-1200,377,542,141,1534,18584,-1570,-721,-853,-4056,35689,36,33,127,0,0,4212,-1807,0,2789,176,149,11138,-4,0,16,0,367810,0
367828,1611,-1175,346,534,-354,2187,17802,-1770,-511,-635,-4288,35694,51,32,127,0,0,4038,-1708,0,2789,176,149,11148,-4,0,17,0,367825,0
367838,1792,-1163,312,556,-844,3144,16985,-1808,-258,-512,-4408,35683,56,32,127,0,0,3866,-1713,0,2789,176,149,11158,-4,0,19,0,367825,0
367848,1812,-1114,330,604,-1068,3721,16141,-1881,-110,-538,-4552,35671,61,33,127,0,0,3691,-1763,0,2789,176,149,11168,-4,0,21,53,367825,0
367858,1598,-1056,367,698,-1490,4582,15253,-1990,-142,-562,-4752,35674,58,33,127,0,0,3513,-1790,0,2789,176,149,11178,-4,0,23,46,367841,0
367868,1417,-1027,370,789,-1847,5209,14333,-2034,-141,-504,-4736,35686,68,33,127,0,0,3343,-1691,0,2789,176,149,11188,-4,0,25,42,367856,0
367879,1235,-1065,356,877,-2401,6242,13345,-1928,12,-315,-4472,35688,66,32,127,0,0,3186,-1307,0,2789,176,149,11199,-4,0,27,37,367872,0
367889,1216,-1176,301,1035,-2706,7172,12533,-1722,225,-218,-3928,35683,54,32,127,0,0,3084,-966,0,2789,176,149,11209,-4,0,29,32,367888,0
367899,1205,-1218,232,1199,-2743,7624,11817,-1500,355,-135,-3248,35693,10,33,127,0,0,3005,-802,0,2789,176,149,11219,-4,0,31,29,367888,0
367909,1069,-1201,83,1426,-2650,8155,11200,-1295,376,-153,-2728,35692,-10,32,127,0,0,2935,-725,0,2789,176,149,11229,-4,0,33,25,367888,0
367919,932,-1226,64,1604,-2581,8517,10674,-1098,356,-191,-2272,35692,-13,32,127,0,0,2871,-648,0,2789,176,149,11239,-4,0,35,23,367903,0
367929,795,-1389,45,1907,-2457,9060,10227,-933,326,-272,-1920,35690,-12,33,127,0,0,2823,-472,0,2789,176,149,11249,-4,0,37,20,367919,0
367939,696,-1449,24,2119,-2307,9357,9850,-775,286,-245,-1456,35699,1,32,127,0,0,2792,-318,0,2789,176,149,11259,-4,0,39,17,367919,0
367949,637,-1488,-24,2397,-1892,9680,9548,-613,275,-238,-1032,35703,-16,33,127,0,0,2775,-208,0,2789,176,149,11269,-4,0,41,15,367935,0
367959,539,-1540,-57,2564,-1532,9823,9310,-478,263,-231,-664,35698,-10,33,127,0,0,2764,-142,0,2789,176,149,11279,-4,0,43,13,367935,0
367969,565,-1696,-118,2737,-937,9981,9135,-350,247,-261,-352,35690,-2,33,127,0,0,2764,0,0,2789,176,149,11289,-4,0,46,10,367950,0
367979,380,-1868,-33,2858,-489,10035,9022,-209,240,-165,-112,35703,-6,33,127,0,0,2770,76,0,2789,176,149,11299,-4,0,47,9,367981,0
367989,450,-2153,34,2902,149,10158,8998,29,297,230,136,35707,-26,33,127,0,0,2792,241,0,2789,176,149,11309,-4,0,50,7,367981,0
367999,551,-2279,76,2921,572,10240,9064,197,355,407,376,35709,-40,33,127,0,0,2834,428,0,2789,176,149,11319,-4,0,52,6,367997,0
368009,677,-2372,93,2914,1125,10212,9185,301,233,463,600,35697,-43,33,127,0,0,2882,494,0,2789,176,149,11329,-4,0,55,4,367997,0
368019,784,-2405,119,2867,1462,10126,9348,371,186,443,712,35693,-24,33,127,0,0,2924,395,0,2789,176,149,11339,-4,0,56,3,367997,0
368029,816,-2490,149,2729,1831,10080,9530,393,136,383,648,35699,-16,32,127,0,0,2957,318,0,2789,176,149,11349,-4,0,59,2,368028,0
368039,844,-2533,141,2564,1972,10124,9708,388,23,350,592,35715,12,33,127,0,0,2983,296,0,2789,176,149,11359,-4,0,61,2,368028,0
368049,822,-2590,190,2259,2000,10093,9874,350,-26,332,496,35707,12,32,127,0,0,3010,252,0,2789,176,149,11369,-4,0,64,1,368028,0
368059,785,-2657,242,2046,1918,9998,10022,307,-56,335,464,35700,0,32,127,0,0,3034,252,0,2789,176,149,11379,-4,0,65,1,368060,0
368069,943,-2739,206,1665,1894,9751,10160,318,-54,338,384,35707,-32,33,127,0,0,3054,153,0,2789,176,149,11389,-4,0,68,1,368060,0
368079,1021,-2775,163,1376,1909,9587,10288,257,-30,270,256,35719,-31,32,127,0,0,3060,54,0,2789,176,149,11399,-4,0,69,0,368060,0
368089,961,-2711,56,1150,1710,9144,10375,154,-97,158,80,35712,-15,32,127,0,0,3067,76,0,2789,176,149,11409,-4,0,72,1,368060,0
368099,961,-2561,-69,1202,1479,8617,10415,94,-171,207,88,35692,-13,33,127,0,0,3078,109,0,2789,176,149,11419,-4,0,73,1,368091,0
368109,948,-2367,-244,1427,1142,7384,10445,75,-97,369,168,35698,-32,32,127,0,0,3091,131,0,2789,176,149,11429,-4,0,75,1,368091,0
368119,883,-2182,-259,1512,973,6265,10501,141,32,269,144,35706,-45,33,127,0,0,3095,65,0,2789,176,149,11439,-4,0,77,1,368091,0
368130,941,-2189,-135,1325,938,4413,10561,100,38,-42,16,35710,-37,33,127,0,0,3095,27,0,2789,176,149,11450,-4,0,78,1,368122,0
368140,980,-2258,29,987,986,3092,10557,-28,-137,59,24,35705,-18,33,127,0,0,3092,0,0,2789,176,149,11460,-4,0,79,1,368138,0
368150,1262,-2411,288,475,1111,1038,10557,-4,-97,24,0,35703,-31,33,127,0,0,3093,-5,0,2789,176,149,11470,-4,0,80,1,368138,0
368160,1445,-2257,313,108,1113,-290,10554,-7,6,-17,-16,35701,-39,32,127,0,0,3091,-16,0,2789,176,149,11480,-4,0,81,1,368153,0
368170,1629,-1885,312,-288,1153,-2152,10552,-25,-10,-202,-120,35715,-40,33,127,0,0,3070,-214,0,2789,176,149,11490,-4,0,82,1,368153,0
368180,1503,-1662,162,-453,1165,-3261,10523,-86,-59,-606,-376,35719,-28,32,127,0,0,3041,-368,0,2789,176,149,11500,-4,0,82,0,368169,0
368190,-607,-6711,-1185,-970,519,-4005,10430,-263,-179,-559,-512,35717,-20,33,127,0,0,3031,27,0,2789,176,149,11510,-4,0,82,0,368169,0
368200,-872,-7441,1718,-1503,1876,-2490,10349,42,-79,1739,2016,35699,-20,33,127,0,0,3298,2790,0,4029,343,150,8,1,1,82,0,368185,0
368210,-985,-1864,651,1472,-232,-4527,10824,1413,1247,1986,4224,35695,18,33,127,0,0,3449,1290,0,4029,343,150,18,1,1,82,0,368185,0
368220,-2255,-171,537,625,-1406,-3608,11613,1822,1690,1135,5096,35674,70,33,127,0,0,3600,1571,0,4029,343,150,28,1,1,82,0,368200,0
368230,-561,-608,-1233,-1159,-817,-3032,12560,2228,812,1416,6456,35666,131,33,127,0,0,3812,2142,0,4029,343,150,38,1,1,82,0,368231,0
368240,-352,-2544,-1358,-1237,-236,-3550,13749,2769,792,1137,7184,35645,179,32,127,0,0,4006,1895,0,4029,343,150,48,1,1,82,0,368231,0
368250,-433,-3206,-1072,-124,-80,-5051,15127,3092,822,625,7120,35644,181,32,127,0,0,4128,1192,0,4029,343,150,58,1,1,82,0,368231,0
368260,-440,-3046,133,199,-401,-5594,16471,2857,233,231,6288,35641,156,32,127,0,0,4189,560,0,4029,343,150,68,1,1,82,0,368231,0
368270,590,-2921,878,-56,-1133,-5994,17664,2534,-418,85,5248,35665,106,33,127,0,0,4200,109,0,4029,343,150,78,1,1,82,0,368341,0
368280,1296,-2362,616,-306,-969,-6301,18699,2158,-594,-115,3424,35689,47,32,127,0,0,4159,-417,0,4029,343,150,88,1,1,82,0,368356,0
368290,989,-1719,301,-590,-696,-6618,19475,1468,-826,-760,1032,35707,-7,33,127,0,0,4073,-873,0,4029,343,150,98,1,1,82,0,368356,0
368300,1283,-2295,142,-510,-594,-6665,19808,337,-1412,-1957,-728,35702,-42,32,127,0,0,3950,-1219,520,4029,343,150,108,1,1,82,0,368356,0
368310,3154,-1114,439,-183,-601,-5209,19620,-585,-1879,429,-616,35697,-43,32,127,0,0,3847,-862,720,4029,343,150,118,1,1,82,0,368356,0
368320,3009,-1896,1415,-224,-1643,-5222,19075,-1507,-1620,399,-2920,35699,-52,33,127,0,0,3765,-900,920,4029,343,150,128,1,1,82,0,368372,0
368330,-211,-1635,339,-700,-873,-5791,18078,-2428,-1588,417,-4728,35701,-35,32,127,0,0,3595,-1730,1120,4029,343,150,138,1,1,82,0,368372,0
368340,-1414,-1769,48,-495,366,-6557,16888,-2629,-1165,497,-4648,35708,-38,33,127,0,0,3379,-2153,1320,4029,343,150,148,1,1,82,0,368372,0
368350,296,-2103,269,-267,1781,-6300,15754,-2432,-161,709,-3832,35706,-55,32,127,0,0,3155,-2274,1500,4029,343,150,158,1,1,82,0,368372,0
368360,1138,-1485,684,-151,371,-5671,14743,-2116,378,821,-2864,35720,-70,32,127,0,0,2964,-1840,1500,4029,343,150,168,1,1,82,0,368372,0
368370,1962,-1756,536,-350,0,-4384,13936,-1600,656,884,-1584,35730,-99,33,127,0,0,2819,-1389,1500,4029,343,150,178,1,1,82,0,368372,0
368381,1883,-1741,374,-320,-453,-3239,13342,-1002,923,1004,-288,35735,-119,32,127,0,0,2711,-944,1560,4029,343,150,189,1,1,82,0,368372,0
368391,1352,-2017,296,-217,-761,-2402,13055,-482,935,1513,24,35713,-102,32,127,0,0,2656,-483,1790,4029,343,150,199,1,1,82,0,368372,0
368401,904,-1814,622,20,-1853,-1688,12908,-313,699,1223,32,35715,-75,33,127,0,0,2643,-87,1970,4029,343,150,209,1,1,82,0,368388,0
368411,338,-2333,103,-98,-844,-1623,12719,-457,122,1155,-40,35728,-34,33,127,0,0,2614,-329,2020,4029,343,150,219,1,1,82,0,368403,0
368421,488,-2078,21,-147,79,-2080,12462,-623,-234,1112,-160,35737,-25,33,127,0,0,2566,-516,2060,4029,343,150,229,1,1,82,0,368403,0
368431,598,-1896,152,-75,149,-2165,12117,-786,-302,1134,-264,35721,-25,32,127,0,0,2500,-659,2080,4029,343,150,239,1,1,82,0,368419,0
368441,653,-2091,219,-18,87,-1946,11766,-730,-155,1333,-112,35707,-38,32,127,0,0,2434,-648,2080,4029,343,150,249,1,1,82,0,368419,0
368451,907,-2243,403,-6,66,-1679,11514,-458,219,1523,56,35701,-43,32,127,0,0,2386,-461,2080,4029,343,150,259,1,1,82,0,368434,0
368461,1478,-1919,659,-54,-244,-1150,11386,-228,447,1375,128,35719,-44,33,127,0,0,2359,-252,2090,4029,343,150,269,1,1,82,0,368434,0
368471,1142,-1904,710,-175,-419,-944,11298,-171,294,1280,192,35713,-54,32,127,0,0,2348,-87,2100,4029,343,150,279,1,1,82,0,368481,0
368481,815,-2161,720,-218,-386,-722,11260,-67,155,1303,256,35707,-43,32,127,0,0,2340,-43,2130,4029,343,150,289,1,1,82,0,368481,0
368491,823,-2460,865,-228,-412,-679,11259,25,165,1288,360,35697,-48,33,127,0,0,2342,32,2150,4029,343,150,299,1,1,82,0,368481,0
368501,488,-2268,792,-220,-498,-727,11269,18,93,1345,360,35702,-28,33,127,0,0,2344,54,2180,4029,343,150,309,1,1,82,0,368481,0
368511,382,-2226,460,-333,-492,-792,11289,68,31,1324,472,35700,-15,33,127,0,0,2346,21,2200,4029,343,150,319,1,1,82,0,368497,0
368521,662,-2355,320,-409,-407,-794,11361,199,134,1252,824,35696,3,32,127,0,0,2359,142,2230,4029,343,150,329,1,1,82,0,368513,0
368531,712,-2268,330,-446,-391,-755,11488,319,211,1271,1232,35697,-5,33,127,0,0,2381,230,2280,4029,343,150,339,1,1,82,0,368513,0
368541,726,-2272,442,-477,-669,-599,11685,475,240,1360,1640,35696,-2,33,127,0,0,2414,340,2340,4029,343,150,349,1,1,82,0,368528,0
368551,876,-2320,501,-475,-925,-489,11953,629,270,1467,2096,35693,11,32,127,0,0,2467,516,2420,4029,343,150,359,1,1,82,0,368544,0
368561,652,-2198,506,-503,-1116,-361,12283,757,251,1533,2352,35684,51,32,127,0,0,2531,637,2540,4029,343,150,369,1,1,82,0,368544,0
368571,527,-2179,470,-505,-1182,-380,12654,843,195,1628,2576,35670,68,32,127,0,0,2603,725,2680,4029,343,150,379,1,1,82,0,368544,0
368581,566,-2200,472,-544,-1176,-497,13062,901,142,1702,2760,35666,95,32,127,0,0,2678,769,2850,4029,343,150,389,1,1,82,0,368559,0
368591,656,-2076,525,-591,-1170,-562,13481,924,77,1776,2760,35656,92,33,127,0,0,2759,791,3050,4029,343,150,399,1,1,82,0,368575,0
368601,725,-1975,459,-734,-1204,-690,13903,929,25,1911,2736,35659,111,32,127,0,0,2836,780,3300,4029,343,150,409,1,1,82,0,368591,0
368611,800,-1994,318,-772,-1267,-731,14338,971,29,2069,2880,35654,132,32,127,0,0,2911,769,3570,4029,343,150,419,1,1,82,0,368606,0
368621,611,-1933,263,-790,-1294,-705,14801,1045,83,2209,3192,35648,132,33,127,0,0,2994,823,3880,4029,343,150,429,1,1,82,0,368606,0
368632,512,-1928,241,-789,-1323,-677,15359,1148,146,2409,3424,35642,151,32,127,0,0,3094,961,4260,4029,343,150,440,1,1,82,0,368606,0
368642,459,-1969,245,-803,-1328,-728,15907,1226,154,2625,3688,35642,170,32,127,0,0,3197,1016,4660,4029,343,150,450,1,1,82,0,368700,0
368652,442,-1962,299,-859,-1343,-773,16487,1299,132,2884,4064,35637,196,33,127,0,0,3299,1060,5140,4029,343,150,460,1,1,82,0,368700,0
368662,353,-2027,307,-943,-1355,-842,17099,1369,125,3164,4256,35623,239,33,127,0,0,3415,1170,5670,4029,343,150,470,1,1,82,0,368700,0
368672,329,-2057,272,-981,-1383,-928,17731,1387,96,2709,2904,35600,286,32,127,0,0,3532,1197,810,4029,343,150,480,1,1,82,0,368700,0
368682,755,-1228,111,-1082,-866,-2366,17988,147,-754,256,-456,35593,287,33,127,0,0,3581,368,0,4029,343,150,490,1,1,82,0,368700,0
368692,-235,-767,-15,-1103,-304,-3575,17699,-836,-1882,18,-1560,35612,195,32,127,0,0,3535,-549,0,4029,343,150,500,1,1,82,0,368716,0
368702,-59,-1416,-140,-1450,-329,-4369,17216,-1202,-1308,-1217,-4088,35644,81,32,127,0,0,3453,-774,0,4029,343,150,510,1,1,82,0,368716,0
368712,-1025,-2621,170,-1459,-615,-3790,16352,-2229,-1110,-2125,-6536,35674,35,33,127,0,0,3431,-115,0,4029,343,150,520,1,1,82,0,368716,0
368722,51,-3575,347,-1359,-695,-3735,15088,-2924,-1550,-714,-5752,35650,125,32,127,0,0,3453,230,0,4029,343,150,530,1,1,82,0,368716,0
368732,-448,-2880,522,-1190,-861,-3860,13910,-2368,-467,787,-3016,35632,177,32,127,0,0,3490,433,0,4029,343,150,540,1,1,82,0,368716,0
368742,-864,-1748,537,-1495,-1029,-4047,13170,-1319,1172,1034,-952,35654,96,33,127,0,0,3535,433,0,4029,343,150,550,1,1,82,0,368716,0
368752,-644,-2023,519,-1800,-1400,-4192,12830,-478,1628,1726,576,35713,-34,33,127,0,0,3629,1076,0,4029,343,150,560,1,1,82,0,368747,0
368762,-76,-2755,385,-1956,-1500,-5724,12983,462,1680,734,1160,35748,-105,33,127,0,0,3680,444,0,4029,343,150,570,1,1,82,0,368747,0
368772,-1072,-3328,445,-1852,-1837,-5607,13213,501,990,378,1072,35729,-61,32,127,0,0,3728,549,0,4029,343,150,580,1,1,82,0,368747,0
368782,100,-4403,611,-1890,-1900,-5968,13460,565,123,577,1528,35694,-10,32,127,0,0,3816,889,0,4029,343,150,590,1,1,82,0,368763,0
368792,-89,-4675,931,-2012,-1489,-6755,13767,713,156,582,1632,35685,-1,33,127,0,0,3879,549,0,4029,343,150,600,1,1,82,0,368778,0
368802,-474,-4153,1196,-2088,-1516,-7214,14095,729,155,439,1624,35689,0,32,127,0,0,3950,714,0,4029,343,150,610,1,1,82,0,368778,0
368812,-399,-3763,1022,-2190,-1654,-7368,14437,769,58,515,1760,35702,7,33,127,0,0,4030,834,0,4029,343,150,620,1,1,82,0,368809,0
368822,-574,-3703,837,-2314,-1687,-7209,14801,825,73,591,1952,35698,-17,32,127,0,0,4120,928,0,4029,343,150,630,1,1,82,0,368809,0
368832,-582,-3734,805,-2285,-1868,-6906,15200,905,115,654,2280,35698,4,32,127,0,0,4240,1246,0,4029,343,150,640,1,1,82,0,368809,0
368842,-473,-3137,862,-2223,-1805,-6334,15662,1077,192,890,2864,35687,-6,32,127,0,0,4396,1593,0,4029,343,150,650,1,1,82,0,368841,0
368852,-656,-2343,797,-2167,-1660,-5644,16227,1314,333,995,3384,35679,45,33,127,0,0,4546,1499,0,4029,343,150,660,1,1,82,0,368841,0
