state_time,accelx,accely,accelz,gyrox,gyroy,gyroz,mot_ang,mot_vel,mot_acc,mot_cur,mot_volt,batt_volt,batt_curr,temperature,status_mn,status_ex,status_re,ank_ang,ank_vel,ank_torque,peak_ank_torque,step_energy,step_count,step_time,gait_state,movement,speed,incline,sys_time,eventFlags
580784,53,-2021,371,-32,-4,-42,15119,0,-2,-299,-80,35665,-27,34,127,0,0,3961,-16,0,2965,122,234,4312,-4,0,-13,0,580815,0
580794,40,-2014,374,-34,-16,-35,15120,-2,-2,-313,-80,35665,-28,34,127,0,0,3961,0,0,2965,122,234,4322,-4,0,-13,0,580815,0
580804,45,-2019,367,-36,-9,-44,15120,4,-4,-316,-80,35668,-27,34,127,0,0,3964,32,0,2965,122,234,4332,-4,0,-13,0,580815,0
580814,40,-2016,364,-34,-12,-46,15123,15,10,-249,-88,35687,-32,34,127,0,0,3961,-32,0,2965,122,234,4342,-4,0,-13,0,580815,0
580824,31,-2019,358,-33,-13,-47,15119,0,-3,-279,-80,35687,-33,34,127,0,0,3961,-16,0,2965,122,234,4352,-4,0,-13,0,580815,0
580834,40,-2026,375,-32,-12,-48,15119,-3,-4,-310,-80,35690,-40,34,127,0,0,3961,0,0,2965,122,234,4362,-4,0,-13,0,580846,0
580844,47,-2023,372,-35,-16,-52,15120,6,7,-295,-64,35682,-14,34,127,0,0,3957,-43,0,2965,122,234,4372,-4,0,-13,0,580862,0
580854,34,-2022,376,-37,-15,-58,15119,0,-1,-326,-80,35682,-12,34,127,0,0,3961,-10,0,2965,122,234,4382,-4,0,-13,0,580862,0
580864,47,-2025,368,-35,-13,-56,15120,2,-5,-319,-80,35678,-19,34,127,0,0,3961,0,0,2965,122,234,4392,-4,0,-13,0,580862,0
580874,50,-2020,370,-38,-13,-62,15119,1,5,-316,-80,35671,-38,34,127,0,0,3961,0,0,2965,122,234,4402,-4,0,-13,0,580877,0
580884,51,-2017,368,-39,-16,-62,15119,8,-1,-318,-104,35675,-43,34,127,0,0,3959,-38,0,2965,122,234,4412,-4,0,-13,0,580877,0
580894,44,-2023,369,-38,0,-70,15115,-13,-16,-381,-72,35676,-38,34,127,0,0,3961,71,0,2965,122,234,4422,-4,0,-13,0,580877,0
580904,31,-2013,370,-41,-11,-72,15116,6,2,-343,-96,35674,-37,34,127,0,0,3959,10,0,2965,122,234,4432,-4,0,-13,0,580877,0
580914,47,-2025,366,-32,-4,-73,15114,3,3,-366,-96,35676,-29,34,127,0,0,3959,0,0,2965,122,234,4442,-4,0,-13,0,580924,0
580924,52,-2017,365,-33,-9,-70,15113,-13,-8,-381,-120,35682,-15,34,127,0,0,3960,38,0,2965,122,234,4452,-4,0,-13,0,580924,0
580934,53,-2017,367,-34,-10,-67,15111,-8,1,-395,-112,35690,-2,34,127,0,0,3960,43,0,2965,122,234,4462,-4,0,-13,0,580924,0
580944,37,-2023,370,-28,-5,-71,15111,-2,-1,-379,-112,35693,-5,34,127,0,0,3957,10,0,2965,122,234,4472,-4,0,-13,0,580924,0
580954,73,-2023,373,-34,-7,-68,15109,-2,-3,-399,-136,35685,-19,34,127,0,0,3958,10,0,2965,122,234,4482,-4,0,-13,0,580940,0
580964,48,-2022,373,-31,-2,-66,15103,-17,-14,-392,-96,35683,-32,34,127,0,0,3953,5,0,2965,122,234,4492,-4,0,-13,0,580940,0
580974,48,-2017,377,-35,-5,-69,15095,-20,-8,-358,-80,35685,-47,34,127,0,0,3947,-65,0,2965,122,234,4502,-4,0,-13,0,580971,0
580984,70,-2019,373,-42,-11,-72,15080,-47,-23,-312,-72,35702,-55,34,127,0,0,3955,-27,0,2965,122,234,4512,-4,0,-13,0,580971,0
580994,60,-2018,368,-35,-10,-73,15063,-42,-25,-235,-40,35704,-63,34,127,0,0,3948,10,0,2965,122,234,4522,-4,0,-13,0,580971,0
581004,50,-2018,367,-35,-7,-80,15061,4,26,-277,-80,35694,-52,34,127,0,0,3950,-32,0,2965,122,234,4532,-4,0,-13,0,580987,0
581014,54,-2021,368,-41,-8,-75,15059,-7,29,-307,-80,35679,-40,34,127,0,0,3947,-32,0,2965,122,234,4542,-4,0,-13,0,581002,0
581024,57,-2022,370,-42,-12,-77,15057,-4,-2,-313,-96,35686,-24,34,127,0,0,3951,-16,0,2965,122,234,4552,-4,0,-13,0,581002,0
581034,63,-2016,375,-39,-11,-79,15053,-19,1,-369,-88,35683,-24,34,127,0,0,3945,10,0,2965,122,234,4562,-4,0,-13,0,581002,0
581044,56,-2020,387,-45,-8,-80,15050,4,-4,-308,-64,35691,-28,34,127,0,0,3947,-38,0,2965,122,234,4572,-4,0,-13,0,581033,0
581054,75,-2022,388,-53,-14,-76,15048,-19,11,-370,-104,35690,-51,34,127,0,0,3946,10,0,2965,122,234,4582,-4,0,-13,0,581033,0
581064,46,-2020,376,-55,-16,-80,15041,-9,-8,-353,-88,35695,-50,34,127,0,0,3946,0,0,2965,122,234,4592,-4,0,-13,0,581033,0
581074,48,-2024,372,-61,-8,-88,15039,-1,0,-327,-88,35692,-48,34,127,0,0,3946,0,0,2965,122,234,4602,-4,0,-13,0,581112,0
581084,51,-2019,375,-58,-10,-92,15033,-15,10,-355,-96,35684,-42,34,127,0,0,3947,16,0,2965,122,234,4612,-4,0,-13,0,581112,0
581094,50,-2020,372,-62,-22,-96,15016,-38,-26,-211,-88,35683,-44,34,127,0,0,3938,-76,0,2965,122,234,4622,-4,0,-13,0,581112,0
581104,64,-2021,368,-62,-12,-105,14992,-44,-33,-208,-40,35678,-30,34,127,0,0,3938,-38,0,2965,122,234,4632,-4,0,-13,0,581112,0
581114,59,-2023,363,-55,-6,-98,14996,5,42,-272,-72,35682,-44,34,127,0,0,3939,-27,0,2965,122,234,4642,-4,0,-13,0,581127,0
581124,72,-2021,375,-55,-13,-114,14993,12,36,-257,-88,35681,-45,34,127,0,0,3934,-71,0,2965,122,234,4652,-4,0,-13,0,581127,0
581134,75,-2025,376,-54,-15,-102,14984,-29,-16,-384,-72,35682,-54,34,127,0,0,3934,5,0,2965,122,234,4662,-4,0,-13,0,581127,0
581144,43,-2013,376,-58,-12,-100,14987,5,1,-372,-120,35682,-58,34,127,0,0,3933,-54,0,2965,122,234,4672,-4,0,-13,0,581127,0
581154,67,-2025,380,-62,-15,-110,14983,-2,1,-425,-136,35686,-56,34,127,0,0,3927,-82,0,2965,122,234,4682,-4,0,-13,0,581127,0
581164,79,-2020,376,-64,-13,-108,14973,-14,-19,-432,-120,35689,-45,34,127,0,0,3930,-43,0,2965,122,234,4692,-4,0,-13,0,581174,0
581174,67,-2020,361,-61,-19,-101,14969,-15,1,-485,-136,35706,-41,34,127,0,0,3928,-10,0,2965,122,234,4702,-4,0,-13,0,581174,0
581184,56,-2016,360,-59,-19,-102,14953,-38,-10,-385,-128,35699,-37,34,127,0,0,3923,-71,0,2965,122,234,4712,-4,0,-13,0,581174,0
581194,52,-2019,360,-57,-13,-115,14934,-31,-32,-302,-112,35701,-52,34,127,0,0,3927,-49,0,2965,122,234,4722,-4,0,-13,0,581174,0
581204,62,-2028,373,-55,-13,-109,14932,-14,30,-402,-104,35685,-54,34,127,0,0,3924,27,0,2965,122,234,4732,-4,0,-13,0,581174,0
581214,53,-2020,361,-53,-17,-105,14932,11,26,-404,-128,35686,-54,34,127,0,0,3922,-54,0,2965,122,234,4742,-4,0,-13,0,581190,0
581224,58,-2019,364,-50,-12,-107,14925,-11,-10,-441,-136,35693,-54,34,127,0,0,3919,-5,0,2965,122,234,4752,-4,0,-13,0,581237,0
581234,73,-2015,362,-48,-19,-113,14921,-17,-8,-477,-128,35697,-45,34,127,0,0,3916,-5,0,2965,122,234,4762,-4,0,-13,0,581237,0
581244,62,-2023,359,-50,-11,-107,14919,-16,1,-523,-176,35698,-34,34,127,0,0,3915,-21,0,2965,122,234,4772,-4,0,-13,0,581237,0
581254,72,-2021,368,-45,-9,-109,14909,-29,-10,-506,-152,35694,-37,34,127,0,0,3912,-54,0,2965,122,234,4782,-4,0,-13,0,581237,0
581264,86,-2020,367,-47,-17,-107,14891,-54,-25,-463,-144,35694,-44,34,127,0,0,3913,-43,0,2965,122,234,4792,-4,0,-13,0,581237,0
581274,73,-2026,367,-50,-13,-110,14853,-90,-57,-310,-96,35691,-57,34,127,0,0,3911,10,0,2965,122,234,4802,-4,0,-13,0,581252,0
581284,47,-2019,360,-50,-7,-110,14841,-1,3,-226,-64,35706,-67,34,127,0,0,3911,-16,0,2965,122,234,4812,-4,0,-13,0,581283,0
581294,106,-2017,365,-51,-20,-102,14841,-10,90,-342,-88,35702,-93,34,127,0,0,3908,10,0,2965,122,234,4822,-4,0,-13,0,581283,0
581304,58,-2019,360,-42,-18,-94,14834,-16,8,-329,-128,35705,-106,34,127,0,0,3907,-38,0,2965,122,234,4832,-4,0,-13,0,581283,0
581314,71,-2015,365,-46,-24,-99,14818,-51,-31,-326,-112,35687,-121,34,127,0,0,3905,5,0,2965,122,234,4842,-4,0,-13,0,581283,0
581324,59,-2020,372,-46,-7,-110,14797,-24,-25,-240,-48,35684,-111,34,127,0,0,3901,0,0,2965,122,234,4852,-4,0,-13,0,581315,0
581334,98,-2018,374,-45,-15,-104,14799,-7,44,-335,-96,35692,-123,34,127,0,0,3903,21,0,2965,122,234,4862,-4,0,-13,0,581315,0
581344,47,-2021,368,-46,-19,-108,14797,-5,26,-372,-120,35693,-110,34,127,0,0,3897,5,0,2965,122,234,4872,-4,0,-13,0,581315,0
581354,62,-2023,367,-46,-18,-116,14792,-14,-10,-448,-112,35695,-117,34,127,0,0,3897,43,0,2965,122,234,4882,-4,0,-13,0,581330,0
581364,47,-2020,366,-45,-10,-119,14791,-8,6,-475,-104,35694,-99,34,127,0,0,3891,5,0,2965,122,234,4892,-4,0,-13,0,581346,0
581374,51,-2019,377,-50,-10,-131,14788,-16,-3,-523,-168,35699,-122,34,127,0,0,3894,0,0,2965,122,234,4902,-4,0,-13,0,581362,0
581384,65,-2023,382,-51,-14,-138,14778,-23,-22,-548,-200,35702,-120,34,127,0,0,3890,16,0,2965,122,234,4912,-4,0,-13,0,581362,0
581394,66,-2021,380,-56,-6,-140,14757,-51,-33,-514,-184,35693,-130,34,127,0,0,3881,-82,0,2965,122,234,4922,-4,0,-13,0,581393,0
581404,77,-2023,365,-63,-11,-158,14716,-81,-59,-375,-144,35694,-94,34,127,0,0,3880,-65,0,2965,122,234,4932,-4,0,-13,0,581393,0
581414,97,-2017,367,-60,-10,-159,14689,-66,-6,-384,-144,35691,-76,34,127,0,0,3879,0,0,2965,122,234,4942,-4,0,-13,0,581393,0
581424,75,-2019,361,-63,-10,-161,14656,-65,10,-251,-72,35688,-71,34,127,0,0,3872,-21,0,2965,122,234,4952,-4,0,-13,0,581393,0
581434,100,-2021,368,-63,-10,-156,14655,6,52,-336,-112,35679,-65,34,127,0,0,3868,-71,0,2965,122,234,4962,-4,0,-13,0,581424,0
581444,105,-2019,378,-66,-14,-154,14650,-20,58,-442,-152,35690,-66,34,127,0,0,3870,-5,0,2965,122,234,4972,-4,0,-13,0,581440,0
581454,84,-2023,365,-69,-13,-146,14633,-44,-35,-387,-136,35688,-62,34,127,0,0,3861,-54,0,2965,122,234,4982,-4,0,-13,0,581440,0
581464,108,-2020,362,-63,-9,-150,14602,-59,-52,-280,-80,35684,-60,34,127,0,0,3861,-43,0,2965,122,234,4992,-4,0,-13,0,581440,0
581474,130,-2021,353,-60,-9,-138,14600,1,27,-419,-144,35680,-62,34,127,0,0,3855,-43,0,2965,122,234,5002,-4,0,-13,0,581455,0
581484,130,-2015,351,-55,-8,-135,14594,-12,55,-489,-184,35689,-67,34,127,0,0,3857,-49,0,2965,122,234,5012,-4,0,-13,0,581471,0
581494,115,-2021,347,-53,-8,-115,14587,-12,-13,-511,-168,35690,-72,34,127,0,0,3854,-5,0,2965,122,234,5022,-4,0,-13,0,581471,0
581504,117,-2014,357,-48,-11,-103,14577,-23,-4,-530,-152,35679,-71,34,127,0,0,3850,-10,0,2965,122,234,5032,-4,0,-13,0,581486,0
581514,116,-2029,359,-52,-13,-86,14562,-39,-14,-471,-144,35677,-56,34,127,0,0,3851,16,0,2965,122,234,5042,-4,0,-13,0,581502,0
581524,118,-2022,356,-44,-5,-79,14537,-47,-34,-360,-88,35680,-68,34,127,0,0,3845,-27,0,2965,122,234,5052,-4,0,-13,0,581502,0
581534,126,-2017,351,-39,-8,-55,14532,0,31,-448,-80,35681,-68,34,127,0,0,3845,21,0,2965,122,234,5062,-4,0,-13,0,581533,0
581544,146,-2025,354,-34,-7,-38,14532,-6,49,-445,-128,35689,-82,34,127,0,0,3850,5,0,2965,122,234,5072,-4,0,-13,0,581533,0
581554,131,-2019,349,-25,-8,-16,14532,-1,2,-421,-120,35685,-75,34,127,0,0,3850,38,0,2965,122,234,5082,-4,0,-13,0,581533,0
581564,123,-2021,348,-20,-2,-11,14533,7,-1,-383,-128,35685,-72,34,127,0,0,3847,-38,0,2965,122,234,5092,-4,0,-13,0,581533,0
581574,90,-2021,356,-18,-1,6,14531,3,-2,-396,-96,35679,-39,34,127,0,0,3852,32,0,2965,122,234,5102,-4,0,-13,0,581549,0
581584,109,-2017,351,-18,0,10,14534,-8,5,-376,-56,35684,-31,34,127,0,0,3850,54,0,2965,122,234,5112,-4,0,-13,0,581627,0
581594,113,-2021,360,-13,6,32,14535,3,0,-337,-64,35679,-26,34,127,0,0,3850,5,0,2965,122,234,5122,-4,0,-13,0,581627,0
581604,96,-2015,365,-12,-8,50,14534,-7,-2,-320,-56,35674,-37,34,127,0,0,3854,38,0,2965,122,234,5132,-4,0,-13,0,581643,0
581614,107,-2017,366,-11,-15,63,14537,3,-3,-266,-40,35667,-76,34,127,0,0,3852,5,0,2965,122,234,5142,-4,0,-13,0,581643,0
581624,100,-2019,363,-6,-12,65,14541,18,7,-150,-24,35668,-70,34,127,0,0,3858,-21,0,2965,122,234,5152,-4,0,-13,0,581643,0
581634,97,-2032,363,-7,-8,71,14546,18,10,-18,32,35668,-74,34,127,0,0,3864,27,0,2965,122,234,5162,-4,0,-13,0,581643,0
581644,86,-2014,366,-3,-10,83,14555,25,12,70,40,35671,-70,34,127,0,0,3867,32,0,2965,122,234,5172,-4,0,-13,0,581643,0
581654,69,-2023,366,-7,-12,78,14563,21,5,142,72,35668,-67,34,127,0,0,3871,43,0,2965,122,234,5182,-4,0,-13,0,581643,0
581664,69,-2023,372,-4,-9,84,14581,55,16,138,56,35666,-64,34,127,0,0,3873,38,0,2965,122,234,5192,-4,0,-13,0,581643,0
581674,71,-2021,378,-2,-9,85,14611,56,43,42,24,35665,-76,34,127,0,0,3875,-10,0,2965,122,234,5202,-4,0,-13,0,581643,0
581684,87,-2017,378,-9,-15,56,14611,-1,-52,232,72,35676,-72,34,127,0,0,3880,-27,0,2965,122,234,5212,-4,0,-13,0,581658,0
581694,99,-2023,375,-9,-9,50,14620,8,-39,256,96,35694,-72,34,127,0,0,3884,49,0,2965,122,234,5222,-4,0,-13,0,581736,0
581704,22,-2018,381,-7,-8,39,14630,28,21,344,104,35702,-44,34,127,0,0,3886,16,0,2965,122,234,5232,-4,0,-13,0,581752,0
581714,37,-2018,372,-16,-11,11,14649,57,26,303,88,35693,-47,34,127,0,0,3892,43,0,2965,122,234,5242,-4,0,-13,0,581752,0
581724,38,-2020,376,-20,-13,2,14676,44,35,189,56,35678,-48,34,127,0,0,3891,10,0,2965,122,234,5252,-4,0,-13,0,581752,0
581734,16,-2025,385,-26,-8,-37,14673,-7,-55,257,64,35670,-56,34,127,0,0,3894,16,0,2965,122,234,5262,-4,0,-13,0,581752,0
581744,4,-2017,392,-31,-5,-57,14675,0,-41,250,80,35672,-61,34,127,0,0,3890,-10,0,2965,122,234,5272,-4,0,-13,0,581768,0
581754,65,-2020,395,-45,-13,-82,14675,-2,4,230,80,35671,-64,34,127,0,0,3890,-10,0,2965,122,234,5282,-4,0,-13,0,581768,0
581764,62,-2025,393,-53,-14,-87,14673,-9,-10,226,88,35669,-67,34,127,0,0,3886,-54,0,2965,122,234,5292,-4,0,-13,0,581768,0
581774,64,-2015,368,-57,-12,-104,14673,-2,-2,202,64,35670,-69,34,127,0,0,3891,-16,0,2965,122,234,5302,-4,0,-13,0,581768,0
581784,72,-2024,376,-61,-20,-105,14672,-19,-2,175,64,35670,-67,34,127,0,0,3888,10,0,2965,122,234,5312,-4,0,-13,0,581768,0
581794,67,-2022,371,-61,-10,-137,14674,7,2,163,56,35678,-60,34,127,0,0,3884,-54,0,2965,122,234,5322,-4,0,-13,0,581768,0
581804,37,-2015,368,-60,1,-158,14670,-9,-2,61,0,35680,-56,34,127,0,0,3881,-76,0,2965,122,234,5332,-4,0,-13,0,581846,0
581814,75,-2020,363,-56,14,-182,14663,-3,-15,-18,-16,35684,-33,34,127,0,0,3882,-21,0,2965,122,234,5342,-4,0,-13,0,581846,0
581824,98,-2025,370,-64,-2,-167,14662,-12,5,-115,-56,35676,-23,34,127,0,0,3878,-27,0,2965,122,234,5352,-4,0,-13,0,581846,0
581834,83,-2016,365,-58,-8,-162,14651,-26,-12,-228,-80,35676,-40,34,127,0,0,3873,-27,0,2965,122,234,5362,-4,0,-13,0,581846,0
581844,96,-2021,372,-60,-7,-167,14637,-24,-17,-229,-80,35680,-56,34,127,0,0,3868,-54,0,2965,122,234,5372,-4,0,-13,0,581846,0
581854,107,-2025,382,-63,-4,-162,14613,-55,-23,-184,-80,35692,-53,34,127,0,0,3867,-76,0,2965,122,234,5382,-4,0,-13,0,581861,0
581864,76,-2018,377,-62,0,-162,14600,-8,3,-249,-96,35695,-60,34,127,0,0,3862,-38,0,2965,122,234,5392,-4,0,-13,0,581861,0
581874,108,-2015,370,-69,-12,-152,14599,-11,53,-353,-120,35685,-66,34,127,0,0,3860,-27,0,2965,122,234,5402,-4,0,-13,0,581861,0
581884,100,-2017,367,-78,-13,-143,14594,-20,3,-439,-152,35669,-57,34,127,0,0,3856,-27,0,2965,122,234,5412,-4,0,-13,0,581861,0
581894,81,-2018,356,-69,-9,-144,14584,-19,-23,-487,-160,35673,-51,34,127,0,0,3854,-16,0,2965,122,234,5422,-4,0,-13,0,581861,0
581904,96,-2016,364,-66,-6,-143,14569,-38,-13,-444,-152,35688,-46,34,127,0,0,3851,-21,0,2965,122,234,5432,-4,0,-13,0,581893,0
581914,111,-2018,369,-72,-11,-139,14546,-59,-24,-371,-152,35696,-42,34,127,0,0,3847,-43,0,2965,122,234,5442,-4,0,-13,0,581908,0
581924,96,-2014,367,-76,-9,-139,14525,-20,-13,-390,-136,35697,-51,34,127,0,0,3845,-21,0,2965,122,234,5452,-4,0,-13,0,581908,0
581934,118,-2019,371,-78,-10,-122,14522,-12,46,-505,-152,35681,-52,34,127,0,0,3843,10,0,2965,122,234,5462,-4,0,-13,0,581908,0
581944,102,-2020,369,-79,-15,-114,14511,-41,18,-519,-128,35681,-64,34,127,0,0,3839,27,0,2965,122,234,5472,-4,0,-13,0,581971,0
581954,105,-2023,373,-88,-18,-108,14486,-69,-38,-413,-152,35689,-64,34,127,0,0,3839,-10,0,2965,122,234,5482,-4,0,-13,0,581987,0
581964,84,-2020,369,-80,-5,-122,14463,-12,-26,-273,-104,35689,-59,34,127,0,0,3836,-76,0,2965,122,234,5492,-4,0,-13,0,581987,0
581974,135,-2021,371,-84,-8,-101,14466,3,55,-411,-112,35685,-49,34,127,0,0,3836,0,0,2965,122,234,5502,-4,0,-13,0,581991,0
581984,114,-2023,365,-87,-12,-89,14461,-17,35,-463,-144,35683,-35,34,127,0,0,3832,-16,0,2965,122,234,5512,-4,0,-13,0,581991,0
581994,112,-2020,356,-77,-10,-75,14456,-9,-18,-475,-136,35687,-24,34,127,0,0,3832,-27,0,2965,122,234,5522,-4,0,-13,0,581991,0
582004,107,-2020,357,-73,-16,-68,14443,-29,-13,-431,-88,35692,-18,34,127,0,0,3830,5,0,2965,122,234,5532,-4,0,-13,0,581991,0
582014,123,-2014,355,-71,-11,-55,14427,-46,-21,-327,-104,35690,-19,34,127,0,0,3833,10,0,2965,122,234,5542,-4,0,-13,0,581991,0
582024,104,-2022,355,-69,-3,-57,14414,2,-8,-185,-72,35689,-16,34,127,0,0,3833,-5,0,2965,122,234,5552,-4,0,-13,0,582006,0
582034,112,-2010,356,-58,-17,-30,14415,-13,45,-232,-56,35704,16,34,127,0,0,3828,-16,0,2965,122,234,5562,-4,0,-13,0,582022,0
582044,133,-2014,351,-58,-6,-28,14415,0,15,-261,-80,35711,28,34,127,0,0,3833,0,0,2965,122,234,5572,-4,0,-13,0,582022,0
582054,85,-2020,353,-55,-10,-24,14417,7,1,-204,-56,35711,41,34,127,0,0,3832,0,0,2965,122,234,5582,-4,0,-13,0,582037,0
582064,89,-2023,350,-53,-10,-28,14417,6,1,-190,-56,35692,18,34,127,0,0,3832,0,0,2965,122,234,5592,-4,0,-13,0,582037,0
582074,97,-2024,353,-50,-3,-27,14417,0,2,-196,-80,35690,21,34,127,0,0,3833,-5,0,2965,122,234,5602,-4,0,-13,0,582053,0
582084,86,-2017,356,-49,-9,-29,14416,4,4,-202,-56,35700,23,34,127,0,0,3832,0,0,2965,122,234,5612,-4,0,-13,0,582053,0
582094,91,-2024,357,-41,-7,-21,14416,0,3,-192,-56,35699,23,34,127,0,0,3832,0,0,2965,122,234,5622,-4,0,-13,0,582100,0
582104,96,-2026,367,-40,-8,-26,14417,7,-1,-196,-56,35695,16,34,127,0,0,3832,-27,0,2965,122,234,5632,-4,0,-13,0,582100,0
582114,100,-2017,358,-34,-8,-28,14416,0,-3,-189,-56,35692,-5,34,127,0,0,3832,-16,0,2965,122,234,5642,-4,0,-13,0,582100,0
582124,86,-2019,367,-40,-9,-25,14415,-3,1,-222,-56,35694,-2,34,127,0,0,3832,16,0,2965,122,234,5652,-4,0,-13,0,582100,0
582134,97,-2019,373,-40,-10,-27,14414,-1,4,-251,-72,35692,5,34,127,0,0,3833,-10,0,2965,122,234,5662,-4,0,-13,0,582116,0
582144,70,-2019,362,-35,-9,-30,14415,12,-3,-231,-56,35682,10,34,127,0,0,3832,16,0,2965,122,234,5672,-4,0,-13,0,582116,0
582154,97,-2016,366,-44,-9,-36,14415,-6,7,-190,-56,35691,17,34,127,0,0,3832,0,0,2965,122,234,5682,-4,0,-13,0,582147,0
582164,86,-2020,363,-40,-3,-39,14416,1,5,-187,-56,35705,12,34,127,0,0,3835,5,0,2965,122,234,5692,-4,0,-13,0,582162,0
582174,100,-2021,362,-41,-9,-40,14415,1,0,-192,-56,35705,22,34,127,0,0,3832,10,0,2965,122,234,5702,-4,0,-13,0,582162,0
582184,99,-2024,357,-37,-9,-50,14415,0,4,-198,-56,35701,14,34,127,0,0,3832,-27,0,2965,122,234,5712,-4,0,-13,0,582162,0
582194,97,-2021,363,-42,-13,-44,14416,5,-1,-194,-56,35693,9,34,127,0,0,3832,0,0,2965,122,234,5722,-4,0,-13,0,582162,0
582204,96,-2018,367,-41,-13,-47,14415,-2,0,-178,-56,35700,5,34,127,0,0,3832,-21,0,2965,122,234,5732,-4,0,-13,0,582194,0
582214,75,-2018,370,-38,-11,-46,14414,1,6,-196,-32,35717,8,34,127,0,0,3830,5,0,2965,122,234,5742,-4,0,-13,0,582194,0
582224,97,-2016,374,-43,-10,-50,14416,-6,-4,-197,-56,35716,7,34,127,0,0,3832,0,0,2965,122,234,5752,-4,0,-13,0,582194,0
582234,84,-2017,363,-44,-13,-58,14416,4,1,-192,-56,35714,11,34,127,0,0,3832,-21,0,2965,122,234,5762,-4,0,-13,0,582225,0
582244,86,-2021,371,-54,-10,-57,14415,5,-3,-172,-56,35705,8,34,127,0,0,3832,-16,0,2965,122,234,5772,-4,0,-13,0,582225,0
582254,86,-2013,376,-50,-14,-45,14415,5,2,-183,-32,35705,19,34,127,0,0,3830,-27,0,2965,122,234,5782,-4,0,-13,0,582225,0
582264,117,-2020,367,-53,-16,-55,14416,-3,-1,-192,-32,35696,22,34,127,0,0,3830,-10,0,2965,122,234,5792,-4,0,-13,0,582241,0
582274,95,-2020,358,-52,-10,-49,14415,0,-1,-202,-56,35681,27,34,127,0,0,3832,0,0,2965,122,234,5802,-4,0,-13,0,582272,0
582284,105,-2017,360,-60,-15,-49,14413,-9,-4,-196,-32,35679,18,34,127,0,0,3834,38,0,2965,122,234,5812,-4,0,-13,0,582272,0
582294,113,-2021,366,-58,-7,-48,14417,2,-4,-152,-56,35679,20,34,127,0,0,3832,-54,0,2965,122,234,5822,-4,0,-13,0,582272,0
582304,86,-2019,366,-58,-10,-42,14415,3,-5,-189,-56,35680,16,34,127,0,0,3832,0,0,2965,122,234,5832,-4,0,-13,0,582287,0
582314,106,-2018,363,-52,-6,-40,14415,0,-1,-188,-32,35686,10,34,127,0,0,3830,-38,0,2965,122,234,5842,-4,0,-13,0,582287,0
582324,107,-2022,365,-59,-11,-35,14415,5,3,-199,-56,35690,11,34,127,0,0,3832,0,0,2965,122,234,5852,-4,0,-13,0,582319,0
582334,91,-2019,375,-62,-13,-33,14415,2,2,-194,-56,35699,3,34,127,0,0,3832,-27,0,2965,122,234,5862,-4,0,-13,0,582319,0
582344,95,-2023,376,-59,-11,-33,14415,-2,-2,-182,-56,35696,4,34,127,0,0,3835,16,0,2965,122,234,5872,-4,0,-13,0,582334,0
582354,93,-2020,359,-64,-12,-38,14414,-11,2,-190,-56,35691,2,34,127,0,0,3832,10,0,2965,122,234,5882,-4,0,-13,0,582366,0
582364,102,-2020,354,-68,-8,-40,14416,0,-3,-195,-56,35687,1,34,127,0,0,3832,-27,0,2965,122,234,5892,-4,0,-13,0,582366,0
582374,98,-2023,362,-62,-8,-44,14415,5,4,-194,-56,35691,6,34,127,0,0,3832,0,0,2965,122,234,5902,-4,0,-13,0,582366,0
582384,95,-2021,356,-61,-11,-46,14416,9,-2,-194,-56,35693,14,34,127,0,0,3832,0,0,2965,122,234,5912,-4,0,-13,0,582366,0
582394,94,-2019,358,-65,-11,-46,14414,-3,-1,-194,-56,35689,20,34,127,0,0,3832,0,0,2965,122,234,5922,-4,0,-13,0,582381,0
582404,99,-2023,355,-63,-7,-47,14417,16,8,-151,-56,35683,12,34,127,0,0,3832,-76,0,2965,122,234,5932,-4,0,-13,0,582381,0
582414,94,-2015,361,-62,-7,-44,14417,11,0,-145,-32,35694,10,34,127,0,0,3830,-54,0,2965,122,234,5942,-4,0,-13,0,582412,0
582424,95,-2021,365,-61,-18,-41,14415,0,-4,-181,-56,35700,3,34,127,0,0,3832,-16,0,2965,122,234,5952,-4,0,-13,0,582412,0
582434,85,-2019,361,-64,-10,-44,14416,7,2,-191,-8,35700,4,34,127,0,0,3829,-16,0,2965,122,234,5962,-4,0,-13,0,582412,0
582444,100,-2017,369,-65,-15,-39,14414,-5,-1,-174,-32,35689,2,34,127,0,0,3830,-5,0,2965,122,234,5972,-4,0,-13,0,582412,0
582454,72,-2021,362,-61,-13,-39,14416,-13,-12,-192,-56,35682,-1,34,127,0,0,3832,-32,0,2965,122,234,5982,-4,0,-13,0,582459,0
582464,76,-2022,354,-63,-24,-43,14417,3,-6,-161,-32,35689,-6,34,127,0,0,3837,43,0,2965,122,234,5992,-4,0,-13,0,582459,0
582474,112,-2013,361,-59,-17,-43,14417,0,2,-85,-8,35688,3,34,127,0,0,3829,-10,0,2965,122,234,6002,-4,0,-13,0,582459,0
582484,131,-2017,360,-56,-13,-45,14415,-13,-8,-160,-32,35685,5,34,127,0,0,3830,-21,0,2965,122,234,6012,-4,0,-13,0,582459,0
582494,59,-2023,356,-58,-16,-43,14418,6,3,-101,-32,35678,9,34,127,0,0,3830,-93,0,2965,122,234,6022,-4,0,-13,0,582475,0
582504,91,-2018,348,-51,-11,-48,14416,5,-3,-141,-8,35683,-7,34,127,0,0,3836,0,0,2965,122,234,6032,-4,0,-13,0,582491,0
582514,130,-2020,354,-52,-6,-45,14420,3,4,-62,-64,35691,-15,34,127,0,0,3838,-10,0,2965,122,234,6042,-4,0,-13,0,582506,0
582524,76,-2024,361,-51,-8,-44,14417,10,4,-72,-40,35690,-3,34,127,0,0,3830,-60,0,2965,122,234,6052,-4,0,-13,0,582506,0
582534,104,-2023,361,-54,-13,-34,14416,5,-11,-187,-32,35686,-6,34,127,0,0,3830,-38,0,2965,122,234,6062,-4,0,-13,0,582506,0
582544,112,-2016,347,-49,-9,-38,14417,6,6,-169,-32,35691,3,34,127,0,0,3837,10,0,2965,122,234,6072,-4,0,-13,0,582522,0
582554,119,-2018,355,-54,-15,-27,14416,-1,6,-149,-56,35697,5,34,127,0,0,3832,-27,0,2965,122,234,6082,-4,0,-13,0,582553,0
582564,104,-2022,357,-50,-5,-36,14416,1,-3,-169,-56,35700,25,34,127,0,0,3835,21,0,2965,122,234,6092,-4,0,-13,0,582553,0
582574,77,-2022,362,-52,-5,-26,14416,0,2,-139,-56,35687,34,34,127,0,0,3835,-32,0,2965,122,234,6102,-4,0,-13,0,582553,0
582584,83,-2020,360,-51,-6,-21,14416,2,-3,-126,-8,35685,23,34,127,0,0,3829,-21,0,2965,122,234,6112,-4,0,-13,0,582553,0
582594,107,-2023,370,-47,-9,-19,14414,-32,-3,-153,-8,35685,1,34,127,0,0,3833,-10,0,2965,122,234,6122,-4,0,-13,0,582584,0
582604,121,-2024,357,-51,-11,-3,14419,18,0,-97,-16,35692,12,34,127,0,0,3836,-10,0,2965,122,234,6132,-4,0,-13,0,582584,0
582614,98,-2022,356,-52,-13,-3,14418,-1,6,-42,-16,35685,12,34,127,0,0,3829,-65,0,2965,122,234,6142,-4,0,-13,0,582584,0
582624,121,-2014,359,-59,-14,-10,14418,8,-7,-27,32,35680,14,34,127,0,0,3837,-49,0,2965,122,234,6152,-4,0,-13,0,582631,0
582634,101,-2025,351,-52,-8,-2,14421,-5,8,57,0,35682,7,34,127,0,0,3845,43,0,2965,122,234,6162,-4,0,-13,0,582631,0
582644,73,-2020,353,-53,-14,-2,14423,1,-3,109,48,35691,0,34,127,0,0,3843,71,0,2965,122,234,6172,-4,0,-13,0,582631,0
582654,92,-2021,361,-59,-10,-7,14429,13,6,131,32,35689,-1,34,127,0,0,3843,5,0,2965,122,234,6182,-4,0,-13,0,582631,0
582664,74,-2024,360,-55,-10,-14,14428,6,-2,160,40,35681,-7,34,127,0,0,3846,32,0,2965,122,234,6192,-4,0,-13,0,582631,0
582674,79,-2023,369,-53,-8,-18,14429,6,-7,160,56,35686,-7,34,127,0,0,3841,16,0,2965,122,234,6202,-4,0,-13,0,582725,0
582684,84,-2020,363,-60,-7,-19,14430,3,3,161,56,35700,19,34,127,0,0,3848,54,0,2965,122,234,6212,-4,0,-13,0,582725,0
582694,101,-2022,361,-64,-9,-26,14431,-1,2,181,56,35698,39,34,127,0,0,3845,43,0,2965,122,234,6222,-4,0,-13,0,582725,0
582704,81,-2020,363,-62,-8,-30,14433,7,-2,207,24,35683,29,34,127,0,0,3846,5,0,2965,122,234,6232,-4,0,-13,0,582725,0
582714,75,-2019,354,-71,-18,-37,14431,0,-8,181,32,35672,5,34,127,0,0,3846,5,0,2965,122,234,6242,-4,0,-13,0,582725,0
582724,92,-2025,356,-69,-8,-44,14434,3,4,213,48,35673,-11,34,127,0,0,3848,27,0,2965,122,234,6252,-4,0,-13,0,582740,0
582734,92,-2018,358,-67,-9,-41,14439,17,11,211,40,35678,-2,34,127,0,0,3848,21,0,2965,122,234,6262,-4,0,-13,0,582740,0
582744,74,-2028,356,-67,-10,-50,14446,17,16,174,0,35683,3,34,127,0,0,3849,-10,0,2965,122,234,6272,-4,0,-13,0,582740,0
582754,109,-2022,357,-72,-11,-52,14451,-8,-3,52,40,35682,1,34,127,0,0,3847,71,0,2965,122,234,6282,-4,0,-13,0,582740,0
582764,113,-2025,358,-76,-12,-57,14458,11,-2,33,0,35681,-8,34,127,0,0,3848,10,0,2965,122,234,6292,-4,0,-13,0,582740,0
582774,76,-2020,362,-75,-14,-47,14461,4,-3,-10,-8,35684,-18,34,127,0,0,3845,0,0,2965,122,234,6302,-4,0,-13,0,582740,0
582784,88,-2019,355,-79,-15,-49,14461,15,-13,-18,-8,35694,-13,34,127,0,0,3848,32,0,2965,122,234,6312,-4,0,-13,0,582787,0
582794,104,-2020,339,-72,-20,-59,14460,-4,7,-17,16,35698,-16,34,127,0,0,3840,0,0,2965,122,234,6322,-4,0,-13,0,582787,0
582804,107,-2019,338,-70,-13,-60,14459,1,-2,-55,-24,35695,-11,34,127,0,0,3846,-10,0,2965,122,234,6332,-4,0,-13,0,582787,0
582814,100,-2017,359,-71,-6,-58,14460,5,5,-5,-8,35678,-6,34,127,0,0,3845,0,0,2965,122,234,6342,-4,0,-13,0,582787,0
582824,107,-2023,363,-72,-7,-53,14458,-16,-6,-40,0,35680,-4,34,127,0,0,3848,71,0,2965,122,234,6352,-4,0,-13,0,582803,0
582834,127,-2021,357,-75,-11,-56,14460,-6,-1,-46,-8,35677,-6,34,127,0,0,3845,38,0,2965,122,234,6362,-4,0,-13,0,582834,0
582844,108,-2029,350,-74,-9,-48,14461,12,3,-4,-32,35687,-5,34,127,0,0,3846,-21,0,2965,122,234,6372,-4,0,-13,0,582834,0
582854,68,-2021,361,-73,-10,-35,14460,-5,-3,-39,-8,35692,-7,34,127,0,0,3845,16,0,2965,122,234,6382,-4,0,-13,0,582834,0
582864,95,-2014,353,-76,-4,-35,14460,-1,-2,-45,-24,35691,-6,34,127,0,0,3849,54,0,2965,122,234,6392,-4,0,-13,0,582834,0
582874,71,-2015,357,-81,-14,-32,14460,1,7,0,-24,35682,-10,34,127,0,0,3846,5,0,2965,122,234,6402,-4,0,-13,0,582881,0
582884,77,-2024,339,-77,-17,-37,14458,-3,-3,-10,-24,35690,-4,34,127,0,0,3846,5,0,2965,122,234,6412,-4,0,-13,0,582881,0
582894,56,-2028,345,-68,-10,-30,14460,-3,-1,-63,-8,35688,0,34,127,0,0,3841,-10,0,2965,122,234,6422,-4,0,-13,0,582881,0
582904,89,-2014,343,-66,-7,-37,14459,1,5,-67,0,35685,4,34,127,0,0,3841,-16,0,2965,122,234,6432,-4,0,-13,0,582881,0
582914,77,-2023,349,-66,-8,-44,14458,-11,0,-77,0,35673,-1,34,127,0,0,3845,21,0,2965,122,234,6442,-4,0,-13,0,582881,0
582924,63,-2014,352,-70,-14,-43,14460,3,2,-31,-8,35680,-5,34,127,0,0,3841,-32,0,2965,122,234,6452,-4,0,-13,0,582912,0
582934,83,-2025,352,-71,-10,-47,14458,-3,-3,-93,-24,35690,-8,34,127,0,0,3846,32,0,2965,122,234,6462,-4,0,-13,0,582912,0
582944,64,-2027,354,-81,-6,-46,14458,-2,-1,-72,-24,35691,-12,34,127,0,0,3846,38,0,2965,122,234,6472,-4,0,-13,0,582912,0
582954,67,-2023,352,-78,-11,-49,14459,4,13,-37,0,35691,-14,34,127,0,0,3845,5,0,2965,122,234,6482,-4,0,-13,0,582944,0
582964,57,-2018,338,-74,-17,-47,14457,-10,-7,-62,-24,35680,0,34,127,0,0,3849,71,0,2965,122,234,6492,-4,0,-13,0,582944,0
582974,79,-2020,344,-78,-12,-55,14461,9,6,-8,-8,35684,4,34,127,0,0,3845,10,0,2965,122,234,6502,-4,0,-13,0,582959,0
582984,87,-2031,360,-79,-11,-60,14460,4,3,-21,-24,35672,8,34,127,0,0,3846,-5,0,2965,122,234,6512,-4,0,-13,0,582959,0
582994,106,-2025,370,-88,0,-55,14460,3,-10,-16,-24,35681,15,34,127,0,0,3843,-27,0,2965,122,234,6522,-4,0,-13,0,582975,0
583004,118,-2024,377,-96,-5,-56,14458,-10,-2,-91,0,35672,24,34,127,0,0,3841,-21,0,2965,122,234,6532,-4,0,-13,0,582975,0
583014,112,-2024,381,-100,-1,-45,14460,3,11,-54,-24,35674,29,34,127,0,0,3843,-49,0,2965,122,234,6542,-4,0,-13,0,583006,0
583024,90,-2029,362,-116,-8,-43,14457,-10,0,-71,-48,35674,8,34,127,0,0,3844,-10,0,2965,122,234,6552,-4,0,-13,0,583006,0
583034,80,-2019,349,-121,-15,-33,14459,6,-4,-101,-24,35688,-7,34,127,0,0,3843,0,0,2965,122,234,6562,-4,0,-13,0,583006,0
583044,100,-2021,344,-119,-11,-37,14459,9,10,-57,0,35688,1,34,127,0,0,3845,16,0,2965,122,234,6572,-4,0,-13,0,583022,0
583054,95,-2023,341,-123,-14,-31,14460,-1,2,-68,-24,35693,-2,34,127,0,0,3846,16,0,2965,122,234,6582,-4,0,-13,0,583100,0
583064,76,-2025,343,-120,-11,-28,14458,5,-11,-71,0,35697,-1,34,127,0,0,3845,43,0,2965,122,234,6592,-4,0,-13,0,583100,0
583074,111,-2026,340,-123,-13,-32,14458,-24,3,-80,-24,35697,-5,34,127,0,0,3846,38,0,2965,122,234,6602,-4,0,-13,0,583100,0
583084,98,-2026,336,-117,0,-33,14460,9,2,-56,-8,35689,-7,34,127,0,0,3841,-5,0,2965,122,234,6612,-4,0,-13,0,583100,0
583094,90,-2024,332,-114,-4,-30,14458,-5,4,-84,-24,35683,-5,34,127,0,0,3846,27,0,2965,122,234,6622,-4,0,-13,0,583100,0
583104,96,-2024,331,-114,-8,-24,14462,10,-3,-31,16,35684,-17,34,127,0,0,3844,5,0,2965,122,234,6632,-4,0,-13,0,583115,0
583114,105,-2023,338,-115,-3,-25,14460,-6,6,-5,-8,35681,-10,34,127,0,0,3845,-5,0,2965,122,234,6642,-4,0,-13,0,583115,0
583124,111,-2029,342,-116,-5,-29,14461,-2,-10,-27,16,35692,-16,34,127,0,0,3840,-27,0,2965,122,234,6652,-4,0,-13,0,583115,0
583134,104,-2024,345,-117,-7,-32,14458,-13,-6,-76,0,35694,-8,34,127,0,0,3841,-16,0,2965,122,234,6662,-4,0,-13,0,583115,0
583144,122,-2025,339,-123,-11,-35,14461,6,4,-23,-8,35702,-13,34,127,0,0,3845,-43,0,2965,122,234,6672,-4,0,-13,0,583115,0
583154,82,-2030,340,-124,-4,-23,14460,-15,3,-62,-24,35708,-4,34,127,0,0,3846,10,0,2965,122,234,6682,-4,0,-13,0,583131,0
583164,76,-2025,337,-128,-10,-22,14462,8,-7,-31,-8,35717,12,34,127,0,0,3851,65,0,2965,122,234,6692,-4,0,-13,0,583162,0
583174,70,-2021,330,-130,-16,-16,14466,11,17,67,-16,35710,18,34,127,0,0,3848,-21,0,2965,122,234,6702,-4,0,-13,0,583162,0
583184,87,-2024,334,-126,-15,-18,14464,-5,-7,0,-16,35700,18,34,127,0,0,3851,43,0,2965,122,234,6712,-4,0,-13,0,583162,0
583194,79,-2027,329,-131,-24,-15,14466,2,1,45,56,35683,4,34,127,0,0,3851,82,0,2965,122,234,6722,-4,0,-13,0,583162,0
583204,75,-2037,327,-132,-17,-17,14470,-10,10,89,24,35692,16,34,127,0,0,3849,5,0,2965,122,234,6732,-4,0,-13,0,583193,0
583214,85,-2023,325,-132,-13,-31,14469,-7,-10,58,48,35689,21,34,127,0,0,3851,76,0,2965,122,234,6742,-4,0,-13,0,583193,0
583224,97,-2026,329,-133,-14,-22,14473,-8,-3,81,40,35693,16,34,127,0,0,3851,43,0,2965,122,234,6752,-4,0,-13,0,583193,0
583234,91,-2027,340,-141,-15,-30,14476,11,6,149,32,35691,12,34,127,0,0,3848,-32,0,2965,122,234,6762,-4,0,-13,0,583225,0
583244,90,-2020,345,-148,-17,-36,14476,7,-10,135,32,35700,-2,34,127,0,0,3851,-16,0,2965,122,234,6772,-4,0,-13,0,583225,0
583254,79,-2029,347,-161,-13,-29,14476,-1,2,153,56,35696,-11,34,127,0,0,3854,5,0,2965,122,234,6782,-4,0,-13,0,583240,0
583264,92,-2024,346,-165,-16,-26,14478,0,5,156,32,35699,-11,34,127,0,0,3855,27,0,2965,122,234,6792,-4,0,-13,0,583240,0
583274,80,-2026,349,-175,-16,-19,14478,1,-7,173,48,35697,-28,34,127,0,0,3854,16,0,2965,122,234,6802,-4,0,-13,0,583240,0
583284,89,-2017,352,-190,-19,-23,14480,1,1,186,48,35703,-19,34,127,0,0,3854,0,0,2965,122,234,6812,-4,0,-13,0,583272,0
583294,82,-2027,346,-204,-27,-31,14479,-5,2,175,48,35698,-7,34,127,0,0,3854,0,0,2965,122,234,6822,-4,0,-13,0,583272,0
583304,70,-2025,349,-214,-23,-33,14480,1,4,188,48,35690,-1,34,127,0,0,3854,0,0,2965,122,234,6832,-4,0,-13,0,583287,0
583314,48,-2028,339,-227,-33,-52,14480,2,1,183,48,35687,-11,34,127,0,0,3854,0,0,2965,122,234,6842,-4,0,-13,0,583287,0
583324,44,-2020,324,-242,-35,-61,14479,-5,-3,195,72,35695,-35,34,127,0,0,3856,32,0,2965,122,234,6852,-4,0,-13,0,583303,0
583334,64,-2025,343,-256,-41,-93,14482,-13,1,197,48,35704,0,34,127,0,0,3854,-5,0,2965,122,234,6862,-4,0,-13,0,583318,0
583344,24,-2032,349,-268,-57,-111,14482,0,-11,170,48,35705,-2,34,127,0,0,3854,0,0,2965,122,234,6872,-4,0,-13,0,583318,0
583354,10,-2027,351,-298,-66,-199,14482,-7,-5,164,24,35703,9,34,127,0,0,3845,-104,0,2965,122,234,6882,-4,0,-13,0,583334,0
583364,-48,-2023,358,-320,-77,-243,14473,-31,-15,-41,-32,35708,-23,34,127,0,0,3845,-38,0,2965,122,234,6892,-4,0,-13,0,583350,0
583374,-56,-2027,368,-362,-58,-361,14467,-20,-12,-260,-112,35710,-24,34,127,0,0,3833,-82,0,2965,122,234,6902,-4,0,-13,0,583350,0
583384,-120,-2028,372,-387,-59,-465,14440,-69,-31,-439,-160,35708,-17,34,127,0,0,3817,-131,0,2965,122,234,6912,-4,0,-13,0,583381,0
583394,-147,-2033,377,-435,-71,-638,14385,-120,-97,-422,-216,35703,-8,34,127,0,0,3805,-170,0,2965,122,234,6922,-4,0,-13,0,583381,0
583404,-176,-2024,385,-473,-81,-743,14335,-133,-45,-551,-328,35702,5,34,127,0,0,3785,-170,0,2965,122,234,6932,-4,0,-13,0,583381,0
583414,-226,-2022,403,-531,-91,-967,14257,-209,-45,-607,-440,35696,4,34,127,0,0,3758,-269,0,2965,122,234,6942,-4,0,-13,0,583381,0
583424,-291,-2025,400,-578,-86,-1178,14141,-262,-123,-578,-592,35686,13,34,127,0,0,3726,-318,0,2965,122,234,6952,-4,0,-13,0,583412,0
583434,-342,-2030,399,-637,-90,-1497,14006,-315,-106,-582,-720,35674,-2,34,127,0,0,3682,-422,0,2965,122,234,6962,-4,0,-13,0,583443,0
583444,-425,-2008,371,-680,-103,-1729,13851,-361,-86,-617,-904,35677,-30,34,127,0,0,3629,-521,0,2965,122,234,6972,-4,0,-13,0,583443,0
583454,-493,-2006,370,-742,-103,-2159,13664,-432,-100,-683,-1152,35669,-52,34,127,0,0,3572,-587,0,2965,122,234,6982,-4,0,-13,0,583443,0
583464,-557,-2005,369,-782,-108,-2482,13437,-531,-133,-691,-1400,35680,-54,34,127,0,0,3501,-730,0,2965,122,234,6992,-4,0,-13,0,583443,0
583474,-587,-1958,334,-835,-120,-2997,13165,-620,-164,-642,-1664,35678,-44,34,127,0,0,3415,-884,0,2965,122,234,7002,-4,0,-13,0,583443,0
583484,-601,-2007,289,-856,-106,-3334,12845,-750,-180,-741,-2008,35689,-41,34,127,0,0,3324,-977,0,2965,122,234,7012,-4,0,-13,0,583459,0
583494,-501,-1837,244,-918,-40,-3782,12463,-887,-211,-773,-2320,35696,-30,34,127,0,0,3216,-1005,0,2965,122,234,7022,-4,0,-13,0,583506,0
583504,-325,-1924,170,-957,-22,-4134,12022,-1015,-238,-790,-2632,35695,-22,34,127,0,0,3097,-1192,0,2965,122,234,7032,-4,0,-13,0,583506,0
583514,92,-2439,11,-1076,-382,-4281,11518,-1135,-227,-719,-2808,35684,7,34,127,0,0,2982,-1098,0,2965,122,234,7042,-4,0,-13,0,583506,0
583524,152,-3363,440,-927,-1099,-4127,10985,-1170,-183,-521,-2632,35673,8,34,127,0,0,2900,-752,0,2965,122,234,7052,-4,0,-13,0,583522,0
583534,-321,-4230,608,-506,-944,-3418,10482,-1061,-7,-317,-2096,35669,10,34,127,0,0,2863,-241,0,2965,122,234,7062,-4,0,-13,0,583522,0
583544,-306,-3392,836,-615,-1069,-3342,10071,-818,241,-140,-1192,35673,8,34,127,0,0,2882,164,0,2965,122,234,7072,-4,0,-13,0,583522,0
583554,130,-2676,710,-989,-994,-3544,9802,-496,443,-90,-328,35679,-15,34,127,0,0,2913,280,0,2965,122,234,7082,-4,0,-13,0,583537,0
583564,-49,-3247,655,-983,-1242,-3299,9683,-177,548,435,288,35690,-35,34,127,0,0,2958,466,0,2965,122,234,7092,-4,0,-13,0,583537,0
583574,-4,-3426,525,-571,-1932,-3144,9777,310,741,551,760,35693,-31,34,127,0,0,3039,851,0,2965,122,234,7102,-4,0,-13,0,583553,0
583584,185,-2991,324,-377,-1990,-3138,9970,491,618,606,1352,35691,-17,34,127,0,0,3140,1021,0,2965,122,234,7112,-4,0,-13,0,583584,0
583594,218,-2474,325,-276,-1930,-2863,10257,679,348,617,1824,35681,5,34,127,0,0,3256,1148,0,2965,122,234,7122,-4,0,15,0,583584,0
583604,717,-2141,399,-283,-2050,-2679,10637,918,357,730,2408,35673,-8,34,127,0,0,3380,1301,0,2965,122,234,7132,-4,0,17,0,583584,0
583614,939,-1688,268,-244,-2265,-2208,11109,1090,366,681,2768,35668,2,34,127,0,0,3511,1318,0,2965,122,234,7142,-4,0,20,0,583584,0
583624,1112,-1375,65,-154,-2297,-1753,11643,1209,289,646,3000,35666,-16,34,127,0,0,3632,1246,0,2965,122,234,7152,-4,0,23,0,583615,0
583634,936,-957,-166,-90,-1411,-1353,12214,1268,178,516,2848,35668,15,34,127,0,0,3704,587,0,2965,122,234,7162,-4,0,26,0,583615,0
583644,846,-1099,-256,160,-1047,-930,12753,1138,-9,192,2168,35670,5,34,127,0,0,3732,153,0,2965,122,234,7172,-4,0,28,0,583646,0
583654,462,-1182,80,440,-723,-461,13199,905,-265,42,1184,35669,3,34,127,0,0,3716,-214,0,2965,122,234,7182,-4,0,32,0,583646,0
583664,224,-1157,345,579,-711,34,13520,613,-433,-89,232,35668,-40,34,127,0,0,3688,-247,0,2965,122,234,7192,-4,0,34,0,583646,0
583674,311,-1145,365,599,-848,953,13660,113,-606,-847,-192,35673,-52,34,127,0,0,3674,-16,0,2965,122,234,7202,-4,0,37,0,583662,0
583684,256,-1080,215,653,-924,1330,13588,-176,-772,-224,-88,35671,-41,34,127,0,0,3673,10,0,2965,122,234,7212,-4,0,40,0,583662,0
583694,339,-1026,-15,800,-1026,1882,13552,-26,-257,-69,-16,35682,-21,34,127,0,0,3670,-32,0,2965,122,234,7222,-4,0,44,0,583662,0
583704,375,-1062,-89,904,-978,2265,13559,23,172,-191,-56,35690,-14,34,127,0,0,3674,0,0,2965,122,234,7232,-4,0,47,0,583693,0
583714,270,-1111,-12,1051,-838,2734,13559,-2,51,-104,-8,35695,-13,34,127,0,0,3672,0,0,2965,122,234,7242,-4,0,51,0,583693,0
583724,193,-1156,48,1128,-735,3011,13562,-14,-13,-163,-16,35687,-26,34,127,0,0,3682,98,0,2965,122,234,7252,-4,0,53,0,583693,0
583734,321,-1294,121,1172,-517,3460,13575,40,21,82,96,35682,-36,34,127,0,0,3692,159,0,2965,122,234,7262,-4,0,57,0,583740,0
583744,350,-1333,137,1222,-389,3741,13614,82,70,335,232,35684,-34,34,127,0,0,3718,274,0,2965,122,234,7272,-4,0,60,0,583740,0
583754,356,-1349,118,1340,-205,4056,13690,175,114,491,408,35682,-27,34,127,0,0,3749,307,0,2965,122,234,7282,-4,0,65,0,583740,0
583764,368,-1334,118,1418,-94,4197,13800,270,135,543,640,35677,-12,34,127,0,0,3791,411,0,2965,122,234,7292,-4,0,67,0,583740,0
583774,396,-1335,64,1510,47,4381,13948,353,138,516,832,35667,-23,34,127,0,0,3847,494,0,2965,122,234,7302,-4,0,72,0,583756,0
583784,396,-1341,1,1556,166,4485,14138,438,154,570,1128,35673,-36,34,127,0,0,3914,675,0,2965,122,234,7312,-4,0,74,0,583803,0
583794,403,-1397,-61,1549,332,4601,14372,551,160,638,1456,35681,-38,34,127,0,0,3992,796,0,2965,122,234,7322,-4,0,78,0,583803,0
583804,391,-1458,-71,1546,459,4655,14668,691,211,633,1808,35684,-22,34,127,0,0,4091,1016,0,2965,122,234,7332,-4,0,81,0,583803,0
583814,393,-1591,8,1454,700,4661,15026,838,239,742,2208,35682,-24,34,127,0,0,4201,1120,0,2965,122,234,7342,-4,0,85,0,583818,0
583824,415,-1710,78,1374,892,4634,15454,989,257,785,2608,35672,-10,34,127,0,0,4322,1197,0,2965,122,234,7352,-4,0,87,0,583818,0
583834,403,-1882,115,1208,1189,4545,15958,1139,273,766,2888,35666,-14,34,127,0,0,4454,1235,0,2965,122,234,7362,-4,0,90,5,583818,0
583844,344,-2009,93,1083,1332,4464,16514,1263,234,840,3200,35662,22,34,127,0,0,4584,1252,0,2965,122,234,7372,-4,0,93,3,583818,0
583854,316,-2089,126,925,1497,4278,17114,1336,186,718,3344,35661,55,34,127,0,0,4713,1268,0,2965,122,234,7382,-4,0,96,0,583850,0
583864,345,-2100,162,861,1587,4112,17732,1359,-29,693,3448,35673,57,34,127,0,0,4831,1219,0,2965,122,234,7392,-4,0,98,0,583850,0
583874,407,-2036,100,796,1784,3864,18364,1384,-18,620,3376,35678,60,34,127,0,0,4947,1142,0,2965,122,234,7402,-4,0,101,-2,583865,0
583884,412,-1971,74,700,1927,3715,18994,1389,153,556,3256,35671,37,34,127,0,0,5048,994,0,2965,122,234,7412,-4,0,102,-3,583865,0
583894,513,-1860,73,551,2154,3485,19602,1314,-39,496,3080,35659,24,34,127,0,0,5140,950,0,2965,122,234,7422,-4,0,105,-5,583865,0
583904,552,-1834,83,453,2202,3310,20166,1208,-126,521,2808,35667,1,34,127,0,0,5225,774,0,2965,122,234,7432,-4,0,106,-6,583896,0
583914,597,-1800,97,372,2069,2990,20681,1105,-184,488,2584,35679,-19,34,127,0,0,5295,703,0,2965,122,234,7442,-4,0,108,-7,583896,0
583924,613,-1748,77,339,1824,2768,21149,996,-180,406,2272,35677,-22,34,127,0,0,5351,593,0,2965,122,234,7452,-4,0,109,-8,583896,0
583934,651,-1662,1,267,1347,2488,21562,874,-193,469,2072,35672,-14,34,127,0,0,5410,609,0,2965,122,234,7462,-4,0,110,-9,583928,0
583944,665,-1624,-10,219,983,2299,21935,806,-188,530,1904,35665,11,34,127,0,0,5472,609,0,2965,122,234,7472,-4,0,110,-10,583928,0
583954,595,-1635,1,117,509,2032,22285,750,-107,338,504,35668,-9,34,127,0,0,5526,582,0,2965,122,234,7482,-4,0,111,-12,583928,0
583964,511,-1705,67,87,202,2074,22372,-261,-505,-1879,-1352,35668,-13,34,127,0,0,5590,703,0,2965,122,234,7492,-4,0,111,-13,583943,0
583974,377,-1745,29,101,-86,1635,22090,-715,-1311,-912,-2304,35677,-41,34,127,0,0,5646,582,0,2965,122,234,7502,-4,0,110,-14,583975,0
583984,575,-1830,32,61,-273,1528,21644,-1086,-999,-1055,-3304,35669,7,34,127,0,0,5694,499,0,2965,122,234,7512,-4,0,110,-15,583975,0
583994,496,-1898,55,67,-476,1311,21024,-1482,-647,-1128,-4312,35663,24,34,127,0,0,5735,417,0,2965,122,234,7522,-4,0,109,-17,583975,0
584004,439,-1918,80,40,-676,1154,20207,-1935,-706,-1177,-5368,35656,67,34,127,0,0,5775,329,0,2965,122,234,7532,-4,0,109,-17,583975,0
584014,333,-1930,137,-9,-1007,780,19177,-2398,-789,-1103,-6064,35652,72,34,127,0,0,5799,247,0,2965,122,234,7542,-4,0,108,-20,584006,0
584024,274,-1945,159,-111,-1196,481,18039,-2513,-630,-582,-6208,35642,121,34,127,0,0,5806,5,0,2965,122,234,7552,-4,0,106,-22,584006,0
584034,225,-1964,249,-231,-1398,249,16871,-2620,-243,-711,-6544,35638,117,34,127,0,0,5806,-38,0,2965,122,234,7562,-4,0,105,-23,584006,0
584044,166,-1942,227,-312,-1491,141,15631,-2766,-210,-630,-6648,35638,117,34,127,0,0,5809,-10,0,2965,122,234,7572,-4,0,105,-23,584021,0
584054,-94,-1736,260,-367,-1675,23,14385,-2719,-162,-647,-6744,35650,85,34,127,0,0,5815,82,0,2965,122,234,7582,-4,0,105,-23,584037,0
584064,30,-1698,284,-365,-1780,-2,13167,-2657,59,-538,-6544,35643,92,34,127,0,0,5844,285,0,2965,122,234,7592,-4,0,105,-23,584053,0
584074,-160,-1616,226,-312,-2024,-52,11973,-2617,93,-411,-6208,35650,82,34,127,0,0,5886,488,0,2965,122,234,7602,-4,0,105,-23,584053,0
584084,-101,-1687,237,-206,-2182,-74,10808,-2511,92,-301,-5656,35655,65,34,127,0,0,5945,653,0,2965,122,234,7612,-4,0,105,-23,584053,0
584094,2,-1772,203,-135,-2403,-154,9744,-2268,249,-312,-5176,35665,44,34,127,0,0,6018,697,0,2965,122,234,7622,-4,0,105,-23,584084,0
584104,64,-1842,354,-76,-2552,-232,8782,-2062,396,-372,-4752,35670,19,34,127,0,0,6102,785,0,2965,122,234,7632,-4,0,105,-23,584084,0
584114,47,-2046,409,-65,-2753,-396,7883,-1938,315,-481,-4536,35666,14,34,127,0,0,6176,725,0,2965,122,234,7642,-4,0,105,-23,584084,0
584124,186,-1781,426,-237,-2589,-527,7016,-1899,188,-619,-4552,35667,7,34,127,0,0,6240,609,0,1299,261,235,8,1,4,105,-23,584115,0
584134,-22,-2104,557,-398,-2622,-449,6156,-1904,75,-741,-4768,35669,13,34,127,0,0,6287,516,0,1299,261,235,18,1,4,105,-23,584115,0
584144,-329,-2375,444,-424,-2800,-572,5274,-1963,-35,-912,-5144,35670,35,34,127,0,0,6336,461,0,1299,261,235,28,1,4,105,-23,584115,0
584154,-472,-2610,504,-286,-3221,-793,4341,-2072,-142,-597,-4088,35661,67,34,127,0,0,6384,439,0,1299,261,235,38,1,4,105,-23,584209,0
584164,-461,-2624,522,-242,-3305,-847,3511,-1690,81,339,-1936,35667,54,34,127,0,0,6431,433,0,1299,261,235,48,1,4,105,-23,584209,0
584174,-414,-2548,576,-294,-3055,-899,2963,-989,740,629,-304,35683,-5,34,127,0,0,6481,483,0,1299,261,235,58,1,4,105,-23,584209,0
584184,-534,-2358,609,-359,-2873,-1110,2802,24,1276,1500,432,35702,-70,34,127,0,0,6521,395,0,1299,261,235,68,1,4,105,-23,584209,0
584194,-557,-2171,640,-383,-2784,-1053,2933,315,1370,470,592,35701,-75,34,127,0,0,6567,499,0,1299,261,235,78,1,4,105,-23,584209,0
584204,1304,-4227,1573,188,2697,-1428,3104,401,606,362,16,35696,-67,34,127,0,0,6459,-1450,0,1299,261,235,88,1,4,105,-23,584224,0
584214,-728,-4034,2436,1025,76,-4521,3036,-559,-338,-2461,-2672,35695,-58,34,127,0,0,6185,-2724,0,1299,261,235,98,1,4,105,-23,584224,0
584224,-978,-1670,2774,1022,827,-4039,2452,-1606,-1513,-2329,-4896,35682,-40,34,127,0,0,5894,-2856,0,1299,261,235,108,1,4,105,-23,584224,0
584234,159,-2739,956,-157,2551,-3839,1598,-1798,-1557,-80,-3184,35658,32,34,127,0,0,5643,-2515,0,1299,261,235,118,1,4,105,-23,584224,0
584244,-1027,-2573,788,-199,1960,-4356,918,-1367,-137,161,-1824,35656,53,34,127,0,0,5337,-3065,0,1299,261,235,128,1,4,105,-23,584224,0
584254,202,-1572,376,620,415,-4828,537,-379,851,2789,2128,35677,24,34,127,0,0,5037,-3070,0,1299,261,235,138,1,4,105,-23,584240,0
584264,415,-1303,-366,467,-878,-4345,999,1292,2216,1869,4352,35705,-11,34,127,0,0,4753,-2801,0,1299,261,235,148,1,4,105,-23,584256,0
584274,106,-2518,50,-26,-842,-3963,1860,2139,2384,1801,6168,35692,56,34,127,0,0,4465,-2894,0,1299,261,235,158,1,4,105,-23,584256,0
584284,-1157,-2335,-337,-91,-823,-3899,3061,2864,1398,1771,8152,35651,147,34,127,0,0,4168,-2850,0,1299,261,235,168,1,4,105,-23,584256,0
584294,-1611,-2548,-494,-369,1246,-4624,4596,3561,1286,1896,10152,35608,237,34,127,0,0,3883,-2922,0,1299,261,235,178,1,4,105,-23,584287,0
584304,-2053,-9413,1694,327,831,-4971,6424,4250,1192,2174,12136,35575,340,34,127,0,0,3603,-2823,0,1299,261,235,188,1,4,105,-23,584287,0
584314,2283,-660,-116,1530,-401,-3046,8607,4915,1284,892,9168,35538,481,34,127,0,0,3536,-527,0,1299,261,235,198,1,4,105,-23,584287,0
584324,-550,-2412,1712,1,-424,-3706,10382,3290,-13,-2899,3936,35563,336,34,127,0,0,3377,-1647,0,1299,261,235,208,1,4,105,-23,584303,0
584334,120,-1882,677,-1150,-555,-3096,11283,1536,-2582,-1771,984,35649,45,34,127,0,0,3287,-884,0,1299,261,235,218,1,4,105,-23,584334,0
584344,-581,-1983,-144,-971,-600,-3209,11584,147,-2801,-2347,-848,35731,-190,34,127,0,0,3187,-994,0,1299,261,235,228,1,4,105,-23,584334,0
584354,-735,-2101,-550,-569,380,-4088,11375,-534,-2157,-728,-1648,35760,-242,34,127,0,0,3058,-1439,0,1299,261,235,238,1,4,105,-23,584334,0
584364,-159,-1611,404,-478,774,-4253,11030,-867,-1203,-958,-2384,35706,-63,34,127,0,0,2913,-1351,0,1299,261,235,248,1,4,105,-23,584334,0
584374,1453,-1817,989,-606,256,-3926,10558,-1086,-511,-708,-2688,35673,-12,34,127,0,0,2789,-1230,0,1299,261,235,258,1,4,105,-23,584349,0
584384,2037,-1595,959,-684,87,-3308,10041,-1155,-332,-591,-2728,35677,15,34,127,0,0,2681,-1021,0,1299,261,235,268,1,4,105,-23,584381,0
584394,2287,-1760,408,-841,-178,-2166,9519,-1136,-97,-407,-2536,35681,7,34,127,0,0,2592,-878,0,1299,261,235,278,1,4,105,-23,584381,0
584404,2092,-1790,308,-900,-287,-1450,9024,-1056,43,-274,-2136,35690,-3,34,127,0,0,2538,-560,0,1299,261,235,288,1,4,105,-23,584381,0
584414,1129,-1988,337,-782,-455,-753,8591,-905,179,-212,-1712,35689,-10,34,127,0,0,2500,-362,0,1299,261,235,298,1,4,105,-23,584396,0
584424,436,-1969,121,-732,-469,-614,8235,-730,258,-206,-1248,35696,-26,34,127,0,0,2468,-241,0,1299,261,235,308,1,4,105,-23,584412,0
584434,-180,-2057,-92,-601,-220,-932,7954,-559,289,-257,-984,35702,-35,34,127,0,0,2432,-357,0,1299,261,235,318,1,4,105,-23,584412,0
584444,-154,-2019,-170,-376,30,-1229,7726,-473,255,-361,-864,35706,-30,34,127,0,0,2391,-395,0,1299,261,235,328,1,4,105,-23,584459,0
584454,206,-2004,119,-204,116,-1497,7522,-457,149,-445,-880,35707,-42,34,127,0,0,2345,-433,0,1299,261,235,338,1,4,105,-23,584459,0
584464,408,-2008,403,-180,16,-1529,7321,-452,51,-440,-920,35699,-49,34,127,0,0,2298,-461,0,1299,261,235,348,1,4,105,-23,584459,0
584474,502,-1941,557,-244,-93,-1571,7120,-449,-5,-497,-944,35687,-52,34,127,0,0,2253,-433,0,1299,261,235,358,1,4,105,-23,584459,0
584484,497,-1905,538,-301,-99,-1630,6906,-473,-18,-445,-976,35675,-38,34,127,0,0,2199,-488,0,1299,261,235,368,1,4,105,-23,584474,0
584494,577,-1896,482,-376,-120,-1707,6690,-479,-22,-450,-1040,35676,-36,34,127,0,0,2144,-521,0,1299,261,235,378,1,4,105,-23,584474,0
584504,563,-1916,462,-426,-171,-1728,6467,-493,-29,-457,-1104,35691,-38,34,127,0,0,2089,-549,0,1299,261,235,388,1,4,105,-23,584474,0
584514,393,-1871,453,-486,-222,-1834,6234,-522,-40,-457,-1120,35695,-37,34,127,0,0,2033,-521,0,1299,261,235,398,1,4,105,-23,584568,0
584524,300,-1895,440,-523,-203,-1964,6000,-513,-15,-457,-1200,35702,-38,34,127,0,0,1977,-609,0,1299,261,235,408,1,4,105,-23,584568,0
584534,295,-1889,517,-587,-201,-2230,5762,-530,-3,-526,-1264,35691,-32,34,127,0,0,1913,-593,0,1299,261,235,418,1,4,105,-23,584568,0
584544,389,-1854,543,-661,-192,-2392,5516,-552,-25,-599,-1392,35683,-38,34,127,0,0,1841,-763,0,1299,261,235,428,1,4,105,-23,584568,0
584554,632,-1785,416,-765,-225,-2574,5247,-613,-56,-667,-1560,35674,-40,34,127,0,0,1773,-730,0,1299,261,235,438,1,4,105,-23,584568,0
584564,759,-1764,350,-810,-283,-2599,4979,-673,-99,-593,-1736,35672,-42,34,127,0,0,1698,-741,0,1299,261,235,448,1,4,105,-23,584587,0
584574,807,-1730,221,-851,-385,-2582,4655,-732,-113,-627,-1832,35668,-37,34,127,0,0,1625,-703,0,1299,261,235,458,1,4,105,-23,584587,0
584584,758,-1800,345,-876,-435,-2601,4308,-777,-95,-544,-1920,35667,-37,34,127,0,0,1544,-791,0,1299,261,235,468,1,4,105,-23,584587,0
584594,613,-1842,532,-970,-483,-2725,3949,-808,-65,-633,-2008,35667,-19,34,127,0,0,1471,-796,0,1299,261,235,478,1,4,105,-23,584587,0
584604,579,-1836,558,-1018,-538,-2855,3559,-869,-87,-524,-2048,35666,-29,34,127,0,0,1394,-774,0,1299,261,235,488,1,4,105,-23,584589,0
584614,565,-1837,473,-1055,-631,-3056,3160,-890,-71,-577,-2192,35674,-15,34,127,0,0,1304,-851,0,1299,261,235,498,1,4,105,-23,584589,0
584624,698,-1657,341,-1098,-631,-3214,2737,-944,-68,-594,-2320,35685,-21,34,127,0,0,1220,-900,0,1299,261,235,508,1,4,105,-23,584620,0
584634,876,-1702,93,-1198,-670,-3374,2293,-1005,-92,-674,-2576,35693,-6,34,127,0,0,1126,-977,0,1299,261,235,518,1,4,105,-23,584620,0
584644,829,-1768,131,-1138,-788,-3384,1804,-1097,-133,-718,-2840,35689,0,34,127,0,0,1029,-950,0,1299,261,235,528,1,4,105,-23,584636,0
584654,900,-1641,-8,-1000,-631,-3563,1272,-1189,-167,-594,-2536,35672,10,34,127,0,0,929,-1005,0,1299,261,235,538,1,4,105,-23,584636,0
584664,949,-1724,-56,-926,-571,-3625,781,-1008,12,-87,-1552,35662,-3,34,127,0,0,821,-1087,0,1299,261,235,548,1,4,105,-23,584636,0
584674,1189,-1743,181,-876,-595,-3592,407,-729,335,-2,-808,35673,-13,34,127,0,0,726,-950,0,1299,261,235,558,1,4,105,-23,584667,0
584684,1227,-1945,510,-889,-725,-3555,161,-465,481,-96,-344,35691,-16,34,127,0,0,636,-950,0,1299,261,235,568,1,4,105,-23,584683,0
584694,1025,-2021,1195,-1107,-989,-3501,20,-240,445,-97,-112,35697,-28,34,127,0,0,551,-774,0,1299,261,235,578,1,4,105,-23,584683,0
584704,997,-1939,938,-1122,-1221,-3622,-33,-74,364,-436,-304,35685,-49,34,127,0,0,477,-802,0,1299,261,235,588,1,4,105,-23,584683,0
584714,1057,-1066,92,-1127,-1185,-3765,-98,-168,119,-719,-480,35673,-85,34,127,0,0,397,-747,0,1299,261,235,598,1,4,105,-23,584683,0
584724,1485,-646,-317,-1173,-1005,-3809,-218,-295,-149,-611,-712,35680,-101,34,127,0,0,308,-922,0,1299,261,235,608,1,4,105,-23,584698,0
584734,1950,-745,-824,-1273,-712,-3464,-378,-381,-174,-654,-976,35684,-87,34,127,0,0,214,-977,0,1299,261,235,618,1,4,105,-23,584714,0
584744,2199,-1032,-628,-1272,-788,-2995,-576,-459,-146,-664,-1128,35682,-50,34,127,0,0,128,-829,0,1299,261,235,628,1,4,105,-23,584745,0
584754,1775,-1925,-221,-1366,-1120,-2508,-809,-526,-136,-505,-1080,35679,-25,34,127,0,0,50,-747,0,1299,261,235,638,1,4,105,-23,584745,0
584764,1962,-3348,311,-1502,-1727,-1961,-1052,-542,-84,-241,-536,35668,-32,34,127,0,0,10,-307,0,1299,261,235,648,1,4,105,-23,584745,0
584774,610,-3623,636,-1106,-1927,-2351,-1255,-386,64,299,192,35668,-52,34,127,0,0,-8,-203,0,1299,261,235,658,1,4,105,-23,584745,0
584784,-223,-3923,1120,-1392,-2260,-2721,-1221,227,579,815,624,35666,-46,34,127,0,0,-5,60,0,1299,261,235,668,1,4,105,-23,584761,0
584794,-201,-3757,1019,-1457,-2418,-3891,-1093,292,633,830,896,35684,-21,34,127,0,0,8,126,0,1299,261,235,678,1,4,105,-23,584777,0
584804,-4,-2892,20,-1372,-1996,-4539,-935,398,177,1188,1280,35689,-4,34,127,0,0,30,181,0,1299,261,235,688,1,4,105,-23,584792,0
584814,1232,-1375,-828,-1172,-1459,-4855,-724,503,174,1429,1456,35688,-15,34,127,0,0,43,197,0,1299,261,235,698,1,4,105,-23,584792,0
584824,2198,-1175,-884,-1067,-1469,-4665,-530,362,50,1278,1072,35673,-20,34,127,0,0,63,197,0,1299,261,235,708,1,4,105,-23,584792,0
584834,1913,-943,-744,-1006,-1467,-4372,-404,236,-198,1338,816,35676,9,34,127,0,0,75,153,0,1299,261,235,718,1,4,105,-23,584823,0
584844,1229,-1448,-455,-962,-1339,-4401,-311,183,-187,1322,632,35668,36,34,127,0,0,87,104,0,1299,261,235,728,1,4,105,-23,584823,0
584854,1087,-2257,-14,-1295,-1268,-4755,-237,170,-89,1181,480,35676,49,34,127,0,0,101,120,0,1299,261,235,738,1,4,105,-23,584839,0
584864,1316,-3407,138,-1454,-1058,-5085,-168,138,-47,745,344,35668,33,34,127,0,0,107,49,0,1299,261,235,748,1,4,105,-23,584839,0
584874,617,-4653,665,-1571,-990,-5572,-97,176,-14,453,200,35680,-11,34,127,0,0,135,269,0,1299,261,235,758,1,4,105,-23,584964,0
584884,1493,-4682,1021,-1722,-1440,-5215,-17,179,33,374,624,35675,-17,34,127,0,0,241,1175,0,1299,261,235,768,1,4,105,-23,584964,0
584894,2166,-3148,1095,-1837,-1431,-5324,136,396,139,753,1136,35678,-40,34,127,0,0,364,1208,0,1299,261,235,778,1,4,105,-23,584964,0
584904,1820,-3009,834,-1879,-1603,-4889,371,562,302,648,1320,35670,-42,34,127,0,0,503,1389,0,1299,261,235,788,1,4,105,-23,584964,0
584914,1856,-2414,530,-1815,-2067,-4000,643,614,232,577,1584,35672,-64,34,127,0,0,695,1977,0,1299,261,235,798,1,4,105,-23,584964,0
584924,1582,-1954,511,-1547,-2022,-3588,948,687,129,594,1704,35672,-52,34,127,0,0,920,2296,0,1299,261,235,808,1,4,105,-23,584980,0
584934,1296,-1129,380,-1339,-1971,-2801,1277,728,113,499,1616,35673,-52,34,127,0,0,1159,2477,0,1299,261,235,818,1,4,105,-23,584980,0
584944,1368,-700,310,-1289,-2045,-2115,1591,674,24,370,1400,35676,-53,34,127,0,0,1429,2636,0,1299,261,235,828,1,4,105,-23,584980,0
584954,1530,-440,119,-1151,-1974,-1077,1932,881,-1,1429,3456,35681,-56,34,127,0,0,1716,2933,0,1299,261,235,838,1,4,105,-23,584980,0
584964,1435,-337,-51,-1014,-1870,-302,2606,1716,694,1786,5096,35671,-3,34,127,0,0,2029,3158,0,1299,261,235,848,1,4,105,-23,584980,0
584974,1563,-36,-185,-649,-1587,1067,3570,2270,1234,1500,6344,35649,64,34,127,0,0,2382,3570,0,1299,261,235,858,1,4,105,-23,584980,0
584984,969,1292,-260,-214,-1056,1909,4719,2600,912,1185,6872,35621,150,34,127,0,0,2670,2889,0,1299,261,235,868,1,4,105,-23,584980,0
584994,-126,3272,-1124,-98,604,3815,5932,2693,473,835,6736,35609,184,34,127,0,0,2888,2114,0,1299,261,235,878,1,4,105,-23,584980,0
585004,864,2850,-1275,-658,1839,3202,7159,2682,151,316,5416,35616,168,34,127,0,0,2947,280,0,1299,261,235,888,0,4,105,-23,584984,0
585014,-85,781,-643,303,1720,4152,8244,2225,-223,-386,3000,35649,98,34,127,0,0,2904,-488,0,1299,261,235,898,0,4,105,-23,585004,0
585024,-337,118,-5,1011,1341,5224,8985,1343,-939,-900,1008,35694,1,34,127,0,0,2861,-368,0,1299,261,235,908,0,4,105,-23,585004,0
585034,113,15,673,1662,1085,6552,9373,681,-1361,-410,144,35715,-70,34,127,0,0,2866,60,0,1299,261,235,918,0,4,105,-23,585004,0
585044,-178,28,348,1864,700,7515,9505,129,-1150,-385,112,35717,-105,34,127,0,0,2906,538,0,1299,261,235,928,0,4,105,-23,585019,0
585054,273,-31,-22,2370,557,8492,9552,161,-670,711,656,35699,-89,34,127,0,0,2976,758,0,1299,261,235,938,0,4,105,-23,585019,0
585064,522,-87,-148,2754,277,9142,9698,397,47,892,1384,35691,-72,34,127,0,0,3104,1312,0,1299,261,235,948,0,4,105,-23,585050,0
585074,646,-132,59,3225,-493,9866,9985,734,457,1158,2344,35691,-27,34,127,0,0,3264,1653,0,1299,261,235,958,0,4,105,-23,585050,0
585084,752,-138,126,3518,-1200,10180,10454,1166,619,1243,3416,35683,-5,34,127,0,0,3465,1988,0,1299,261,235,968,0,4,105,-23,585050,0
585094,970,-194,47,3954,-2308,10329,11119,1564,731,1133,4232,35672,66,34,127,0,0,3682,2158,0,1299,261,235,978,0,4,105,-23,585082,0
585104,1132,-171,-166,4259,-2948,10365,11935,1886,667,1092,4952,35664,76,34,127,0,0,3899,2164,0,1299,261,235,988,0,4,105,-23,585082,0
585114,1274,-78,-409,4621,-3405,10289,12852,2063,483,910,5352,35652,90,34,127,0,0,4112,2098,0,1299,261,235,998,0,4,105,-23,585097,0
585124,1149,-57,-518,4789,-3334,10115,13815,2132,285,662,5408,35654,93,34,127,0,0,4295,1823,0,1299,261,235,1008,0,4,105,-23,585097,0
585134,786,-206,-557,5043,-2902,9740,14804,2191,129,509,5264,35650,86,34,127,0,0,4468,1658,0,1299,261,235,1018,0,4,105,-23,585113,0
585144,612,-386,-623,5135,-2459,9482,15789,2146,45,377,4856,35657,74,34,127,0,0,4617,1488,0,1299,261,235,1028,0,4,105,-23,585144,0
585154,504,-601,-717,5159,-1583,9122,16707,1962,-131,391,4512,35669,57,34,127,0,0,4746,1312,0,1299,261,235,1038,0,4,105,-23,585144,0
585164,539,-799,-721,5101,-810,8849,17544,1796,-288,468,4296,35680,28,34,127,0,0,4882,1373,0,1299,261,235,1048,0,4,105,-23,585144,0
585174,544,-1121,-704,4916,750,8314,18339,1711,-252,473,4104,35684,26,34,127,0,0,5014,1312,0,1299,261,235,1058,0,4,105,-23,585160,0
585184,618,-1376,-680,4699,1922,7885,19102,1655,-135,421,3920,35672,8,34,127,0,0,5138,1246,0,1299,261,235,1068,0,4,105,-23,585160,0
585194,876,-1732,-671,4380,3516,7284,19829,1570,-126,492,3736,35673,6,34,127,0,0,5255,1131,0,1299,261,235,1078,0,4,105,-23,585175,0
585204,1039,-1849,-660,4115,4331,6941,20512,1475,-157,574,3568,35683,0,34,127,0,0,5373,1115,0,1299,261,235,1088,0,4,105,-23,585191,0
585214,1280,-2167,-512,3569,4995,6491,21158,1401,-154,599,3624,35684,2,34,127,0,0,5500,1307,0,1299,261,235,1098,0,4,105,-23,585191,0
585224,1497,-2507,-215,3102,5114,6248,21744,1178,-168,-49,1248,35677,9,34,127,0,0,5643,1439,0,1299,261,235,1108,0,4,105,-23,585285,0
585234,1467,-2885,185,2482,4893,5877,22083,473,-569,-1363,-552,35680,-20,34,127,0,0,5793,1516,0,1299,261,235,1118,0,4,105,-23,585300,0
585244,1664,-3253,149,2168,4663,5411,21938,-429,-1426,-644,-1224,35691,-34,34,127,0,0,5944,1472,0,1299,261,235,1128,0,4,105,-23,585300,0
585254,1533,-3138,106,1700,4106,4726,21680,-633,-1129,-759,-1832,35699,-54,34,127,0,0,6094,1472,0,1299,261,235,1138,0,4,105,-23,585300,0
585264,1713,-3359,101,1416,3749,4406,21322,-830,-383,-678,-2264,35686,-40,34,127,0,0,6236,1395,0,1299,261,235,1148,0,4,105,-23,585300,0
585274,1216,-3491,225,1237,2779,3732,20891,-978,-325,-663,-2624,35677,-28,34,127,0,0,6366,1274,0,1299,261,235,1158,0,4,105,-23,585300,0
585284,938,-3486,329,1247,1904,3026,20395,-1133,-263,-729,-3000,35675,-24,34,127,0,0,6486,1115,0,1299,261,235,1168,0,4,105,-23,585300,0
585294,733,-3407,394,1230,842,1941,19816,-1344,-277,-740,-3536,35669,-12,34,127,0,0,6574,856,0,1299,261,235,1178,0,4,105,-23,585300,0
585304,511,-3237,378,1102,585,1345,19139,-1543,-354,-734,-3944,35663,7,34,127,0,0,6654,785,0,1299,261,235,1188,0,4,105,-23,585300,0
585314,246,-2892,244,678,527,413,18394,-1666,-321,-682,-4176,35660,34,34,127,0,0,6740,834,0,1299,261,235,1198,0,4,105,-23,585300,0
585324,99,-2736,193,300,464,-254,17613,-1736,-203,-588,-4232,35659,28,34,127,0,0,6838,972,0,1299,261,235,1208,0,4,105,-23,585300,0
585334,-14,-2915,353,-238,153,-1524,16817,-1767,-98,-516,-4256,35660,30,34,127,0,0,6923,856,0,1299,261,235,1218,0,4,105,-23,585316,0
585344,-35,-3833,502,-401,10,-2468,15999,-1837,-69,-688,-4664,35668,18,34,127,0,0,6930,-87,0,3271,1540,236,0,1,4,146,-55,585347,0
585354,-994,-7236,291,-250,3358,-6759,15011,-2506,-328,-2961,-8944,35681,38,34,127,0,0,6467,-4960,0,3271,1540,236,10,1,4,146,-55,585347,0
585364,-962,-2339,4366,126,4085,-7747,13256,-4376,-1804,-3748,-13008,35622,265,34,127,0,0,5908,-5696,0,3271,1540,236,20,1,4,146,-55,585347,0
585374,-727,-2771,1242,-377,4328,-6298,10763,-5902,-2944,-2333,-15152,35510,602,34,127,0,0,5453,-4515,0,3271,1540,236,30,1,4,146,-55,585347,0
585384,-1178,-3464,310,-1248,3127,-6724,8117,-5271,-1850,2839,-5104,35412,849,34,127,0,0,5004,-4372,0,3271,1540,236,40,1,4,146,-55,585363,0
585394,-1304,-1618,-181,-459,222,-6407,7165,-542,2907,8391,5704,35548,339,34,127,0,0,4562,-4235,0,3271,1540,236,50,1,4,146,-55,585378,0
585404,614,-3210,-1311,-615,-144,-5902,8396,3673,7674,6044,10544,35601,248,34,127,0,0,4184,-3828,0,3271,1540,236,60,1,4,146,-55,585378,0
585414,-1546,-2725,912,-78,-1161,-5756,10411,4741,5752,1952,9344,35592,266,34,127,0,0,3810,-3707,0,3271,1540,236,70,1,4,146,-55,585425,0
585424,-1198,-2781,501,-478,-348,-5721,12129,2929,976,-4226,2128,35518,542,34,127,0,0,3489,-3246,0,3271,1540,236,80,1,4,146,-55,585425,0
585434,-1228,-1407,-255,-961,1311,-6730,12528,-87,-3221,-4817,-2672,35573,283,34,127,0,0,3116,-3707,0,3271,1540,236,90,1,4,146,-55,585425,0
585444,-1441,-8041,1106,-145,1239,-8033,11926,-1730,-4556,-2476,-5512,35680,-73,34,127,0,0,2718,-3883,0,3271,1540,236,100,1,4,146,-55,585425,0
585454,642,1788,-651,950,55,-5621,10869,-2412,-2794,-851,-5376,35698,-123,34,127,0,0,2570,-1417,0,3271,1540,236,110,1,4,146,-55,585441,0
585464,-638,-2681,1211,-1749,-709,-6231,9847,-2180,-782,-271,-5136,35631,93,34,127,0,0,2368,-2065,0,3271,1540,236,120,1,4,146,-55,585441,0
585474,-761,-1280,1229,-1331,-523,-6066,8891,-2039,225,-277,-4616,35639,115,34,127,0,0,2209,-1669,0,3271,1540,236,130,1,4,146,-55,585457,0
585484,85,-1084,-423,-1678,379,-6265,8012,-1906,277,-408,-4496,35665,36,34,127,0,0,2030,-1823,0,3271,1540,236,140,1,4,146,-55,585457,0
585494,2168,-1068,-592,-1050,31,-6024,7155,-1893,191,-579,-4480,35680,12,34,127,0,0,1851,-1812,0,3271,1540,236,150,1,4,146,-55,585488,0
585504,3166,-1161,-220,-997,34,-5120,6307,-1855,52,-512,-4432,35678,23,34,127,0,0,1691,-1549,0,3271,1540,236,160,1,4,146,-55,585488,0
585514,3562,-1426,419,-974,-497,-3299,5493,-1754,77,-360,-4056,35672,15,34,127,0,0,1578,-1104,0,3271,1540,236,170,1,4,146,-55,585488,0
585524,3239,-1349,711,-1081,-876,-2234,4752,-1581,209,-245,-3528,35668,14,34,127,0,0,1496,-747,0,3271,1540,236,180,1,4,146,-55,585503,0
585534,1952,-1623,495,-1448,-1068,-1213,4096,-1376,308,-149,-2848,35671,-4,34,127,0,0,1441,-527,0,3271,1540,236,190,1,4,146,-55,585535,0
585544,1147,-1867,154,-1553,-1048,-989,3543,-1148,360,-115,-2208,35688,-27,34,127,0,0,1395,-411,0,3271,1540,236,200,1,4,146,-55,585535,0
585554,396,-2074,-590,-1281,-547,-1152,3090,-922,389,-186,-1800,35694,-38,34,127,0,0,1345,-433,0,3271,1540,236,210,1,4,146,-55,585535,0
585564,463,-2144,-377,-921,-204,-1318,2752,-788,350,-302,-1608,35691,-48,34,127,0,0,1297,-444,0,3271,1540,236,220,1,4,146,-55,585566,0
585574,793,-1959,178,-722,-242,-1373,2425,-698,246,-398,-1440,35687,-51,34,127,0,0,1259,-411,0,3271,1540,236,230,1,4,146,-55,585566,0
585584,1048,-1744,449,-792,-392,-1360,2126,-644,143,-384,-1304,35682,-55,34,127,0,0,1219,-379,0,3271,1540,236,240,1,4,146,-55,585566,0
585594,914,-1846,88,-771,-457,-1305,1857,-581,104,-425,-1256,35680,-51,34,127,0,0,1181,-384,0,3271,1540,236,250,1,4,146,-55,585566,0
585604,916,-1728,-130,-632,-343,-1366,1603,-552,84,-476,-1224,35673,-46,34,127,0,0,1143,-373,0,3271,1540,236,260,1,4,146,-55,585582,0
585614,936,-1657,-225,-477,-213,-1398,1353,-557,34,-484,-1232,35674,-53,34,127,0,0,1097,-401,0,3271,1540,236,270,1,4,146,-55,585675,0
585624,1000,-1557,-239,-446,-219,-1388,1102,-555,-2,-520,-1296,35683,-60,34,127,0,0,1056,-406,0,3271,1540,236,280,1,4,146,-55,585675,0
585634,971,-1825,-71,-392,-248,-1405,844,-589,-20,-517,-1312,35686,-52,34,127,0,0,1018,-395,0,3271,1540,236,290,1,4,146,-55,585675,0
585644,821,-2021,58,-282,-251,-1442,574,-591,-40,-436,-1136,35682,-44,34,127,0,0,971,-472,0,3271,1540,236,300,1,4,146,-55,585675,0
585654,558,-2035,321,-163,-305,-1629,331,-493,41,-268,-656,35680,-38,34,127,0,0,929,-422,0,3271,1540,236,310,1,4,146,-55,585691,0
585664,400,-2002,446,-92,-337,-1875,155,-355,191,-263,-304,35676,-46,34,127,0,0,887,-422,0,3271,1540,236,320,1,4,146,-55,585691,0
585674,602,-1787,163,-35,-173,-2388,49,-187,257,-202,-96,35678,-47,34,127,0,0,833,-527,0,3271,1540,236,330,1,4,146,-55,585691,0
585684,754,-1801,-93,40,-184,-2549,8,-55,260,-201,-144,35687,-57,34,127,0,0,764,-703,0,3271,1540,236,340,1,4,146,-55,585691,0
585694,964,-1818,58,123,-219,-2675,-6,-34,164,-570,-208,35684,-88,34,127,0,0,707,-593,0,3271,1540,236,350,1,4,146,-55,585691,0
585704,836,-1759,366,84,-307,-2733,-32,-65,13,-697,-264,35682,-107,34,127,0,0,644,-609,0,3271,1540,236,360,1,4,146,-55,585691,0
585714,860,-1585,669,-142,-402,-2942,-87,-120,-80,-553,-280,35672,-102,34,127,0,0,589,-626,0,3271,1540,236,370,1,4,146,-55,585691,0
585724,1129,-1635,470,-332,-468,-3027,-153,-154,-72,-456,-296,35680,-84,34,127,0,0,525,-642,0,3271,1540,236,380,1,4,146,-55,585691,0
585734,1068,-1625,365,-577,-701,-2953,-228,-150,-31,-465,-320,35699,-54,34,127,0,0,468,-604,0,3271,1540,236,390,1,4,146,-55,585738,0
585744,1118,-1330,446,-786,-771,-3024,-297,-140,6,-491,-264,35700,-36,34,127,0,0,403,-598,0,3271,1540,236,400,1,4,146,-55,585738,0
585754,1090,-1643,540,-1014,-929,-3126,-374,-164,1,-480,-368,35688,-25,34,127,0,0,341,-681,0,3271,1540,236,410,1,4,146,-55,585738,0
585764,1262,-1751,454,-1028,-994,-3206,-453,-176,-14,-613,-424,35669,-6,34,127,0,0,273,-664,0,3271,1540,236,420,1,4,146,-55,585738,0
585774,1234,-2013,220,-1061,-1155,-3287,-556,-254,-51,-614,-488,35665,-13,34,127,0,0,214,-637,0,3271,1540,236,430,1,4,146,-55,585753,0
585784,1145,-2267,432,-1145,-1323,-3301,-678,-273,-86,-474,-408,35676,-13,34,127,0,0,159,-499,0,3271,1540,236,440,1,4,146,-55,585769,0
585794,1023,-2558,427,-1302,-1522,-3408,-793,-249,-20,-367,-240,35685,-35,34,127,0,0,118,-401,0,3271,1540,236,450,1,4,146,-55,585785,0
585804,778,-2456,416,-1426,-1561,-3503,-865,-116,102,-206,8,35689,-65,34,127,0,0,94,-241,0,3271,1540,236,460,1,4,146,-55,585785,0
585814,872,-1816,154,-1407,-1350,-3930,-828,127,310,141,120,35679,-81,34,127,0,0,73,-225,0,3271,1540,236,470,1,4,146,-55,585785,0
585824,925,-1733,-82,-1413,-1275,-4087,-750,163,276,256,184,35682,-74,34,127,0,0,51,-252,0,3271,1540,236,480,1,4,146,-55,585800,0
585834,1858,-1661,-109,-1493,-1394,-3777,-702,103,-11,738,504,35695,-69,34,127,0,0,54,32,0,3271,1540,236,490,1,4,146,-55,585816,0
585844,1686,-1836,-82,-1622,-1732,-3608,-607,250,41,1085,896,35694,-60,34,127,0,0,54,71,0,3271,1540,236,500,1,4,146,-55,585831,0
585854,1036,-2172,393,-1704,-2032,-3687,-464,347,187,1203,936,35687,-66,34,127,0,0,78,225,0,3271,1540,236,510,1,4,146,-55,585847,0
585864,1033,-2184,96,-1680,-1857,-4062,-316,287,88,816,640,35675,-19,34,127,0,0,90,148,0,3271,1540,236,520,1,4,146,-55,585847,0
585874,1111,-2953,-158,-1473,-1785,-4681,-218,202,-116,830,448,35675,-6,34,127,0,0,106,137,0,3271,1540,236,530,1,4,146,-55,585847,0
585884,888,-3568,-106,-1358,-1461,-5105,-138,154,-102,585,288,35678,-6,34,127,0,0,119,164,0,3271,1540,236,540,1,4,146,-55,585878,0
585894,496,-4332,167,-1207,-1357,-5654,-61,171,-56,315,152,35680,-36,34,127,0,0,146,285,0,3271,1540,236,550,1,4,146,-55,585878,0
585904,1700,-4404,407,-1371,-1665,-5633,7,156,-18,328,384,35685,-54,34,127,0,0,234,834,0,3271,1540,236,560,1,4,146,-55,585878,0
585914,1815,-4311,594,-1526,-1777,-5454,116,292,58,735,888,35685,-74,34,127,0,0,352,1208,0,3271,1540,236,570,1,4,146,-55,585894,0
585924,1503,-4125,664,-1699,-1986,-4879,316,501,251,810,1448,35693,-80,34,127,0,0,516,1730,0,3271,1540,236,580,1,4,146,-55,585925,0
585934,1113,-3150,708,-1578,-1899,-4344,609,701,360,785,1864,35695,-55,34,127,0,0,727,2197,0,3271,1540,236,590,1,4,146,-55,585925,0
585944,778,-2403,456,-1334,-1721,-4101,962,789,296,578,1896,35690,-27,34,127,0,0,968,2548,0,3271,1540,236,600,1,4,146,-55,585925,0
585954,919,-1425,279,-985,-1561,-3566,1327,792,133,400,1624,35679,-21,34,127,0,0,1240,2658,0,3271,1540,236,610,1,4,146,-55,585925,0
585964,1046,-961,318,-845,-1667,-2814,1653,681,-57,311,1928,35669,-23,34,127,0,0,1521,2878,0,3271,1540,236,620,1,4,146,-55,585956,0
585974,1479,14,297,-686,-1523,-1430,2090,1241,104,2099,4336,35682,-29,34,127,0,0,1845,3240,0,3271,1540,236,630,1,4,146,-55,585956,0
585984,1478,697,1,-711,-1128,-350,2921,2044,1009,1765,5832,35666,53,34,127,0,0,2179,3372,0,3271,1540,236,640,1,4,146,-55,585956,0
585994,307,2951,-330,-683,850,1917,4002,2486,1243,1355,6544,35646,119,34,127,0,0,2475,2785,0,3271,1540,236,650,1,4,146,-55,586035,0
586004,568,3539,-817,-682,1960,3311,5165,2557,636,772,6432,35626,180,34,127,0,0,2689,2048,0,3271,1540,236,660,1,4,146,-55,586035,0
586014,37,2672,-622,-1040,2381,3328,6310,2475,118,240,5040,35631,147,34,127,0,0,2733,258,0,3271,1540,236,670,0,4,146,-55,586035,0
586024,344,1234,-98,-634,1956,4159,7310,2049,-301,-291,2856,35646,78,34,127,0,0,2697,-357,0,3271,1540,236,680,0,4,146,-55,586035,0
586034,82,-30,668,140,1242,5831,8018,1335,-838,-649,1072,35662,-15,34,127,0,0,2670,-181,0,3271,1540,236,690,0,4,146,-55,586050,0
586044,205,-15,1106,524,971,6589,8418,722,-1163,-316,272,35682,-73,34,127,0,0,2677,71,0,3271,1540,236,700,0,4,146,-55,586050,0
586054,516,281,759,842,-20,7743,8605,302,-996,-115,208,35691,-95,34,127,0,0,2723,477,0,3271,1540,236,710,0,4,146,-55,586050,0
586064,616,348,143,1294,-398,8310,8697,203,-602,468,512,35689,-92,34,127,0,0,2779,615,0,3271,1540,236,720,0,4,146,-55,586050,0
586074,880,386,-294,1864,-1096,9469,8825,315,-99,720,992,35687,-62,34,127,0,0,2872,950,0,3271,1540,236,730,0,4,146,-55,586050,0
586084,908,362,-99,2177,-1632,10146,9037,537,235,937,1792,35685,-41,34,127,0,0,3010,1510,0,3271,1540,236,740,0,4,146,-55,586066,0
586094,1077,416,71,2790,-2640,10633,9396,905,439,1131,2776,35695,-2,34,127,0,0,3192,1906,0,3271,1540,236,750,0,4,146,-55,586097,0
586104,1160,324,4,3218,-3142,10510,9928,1277,619,1089,3528,35692,23,34,127,0,0,3351,1576,0,3271,1540,236,760,0,4,146,-55,586097,0
586114,1206,168,-304,3800,-3606,10172,10596,1521,598,627,3480,35679,28,34,127,0,0,3477,1115,0,3271,1540,236,770,0,4,146,-55,586097,0
586124,1186,26,-469,4201,-3601,9995,11265,1447,252,341,3120,35667,32,34,127,0,0,3560,851,0,3271,1540,236,780,0,4,146,-55,586097,0
586134,797,-316,-542,4540,-3224,9823,11866,1270,-126,201,2576,35673,20,34,127,0,0,3627,670,0,3271,1540,236,790,0,4,146,-55,586128,0
586144,564,-610,-387,4685,-2893,9750,12374,1070,-302,296,2456,35693,-18,34,127,0,0,3714,961,0,3271,1540,236,800,0,4,146,-55,586128,0
586154,337,-1009,-398,4905,-2307,9620,12845,1043,-263,647,2808,35695,-35,34,127,0,0,3851,1389,0,3271,1540,236,810,0,4,146,-55,586128,0
586164,301,-1250,-586,5049,-1806,9508,13373,1229,34,950,3600,35688,-24,34,127,0,0,4041,1944,0,3271,1540,236,820,0,4,146,-55,586144,0
586174,470,-1434,-1002,5236,-851,9157,14041,1596,382,1199,4544,35675,4,34,127,0,0,4275,2367,0,3271,1540,236,830,0,4,146,-55,586175,0
586184,616,-1476,-1050,5317,-54,8778,14898,2024,644,1221,5584,35677,42,34,127,0,0,4546,2713,0,3271,1540,236,840,0,4,146,-55,586175,0
586194,920,-1560,-1006,5271,1321,8127,15958,2436,754,1099,6128,35663,83,34,127,0,0,4783,2307,0,3271,1540,236,850,0,4,146,-55,586175,0
586204,1058,-1585,-945,5077,2226,7693,17108,2527,575,801,6192,35646,107,34,127,0,0,5005,2169,0,3271,1540,236,860,0,4,146,-55,586206,0
586214,1121,-1779,-719,4516,3210,7088,18253,2508,152,596,6056,35633,97,34,127,0,0,5206,1977,0,3271,1540,236,870,0,4,146,-55,586206,0
586224,1145,-2040,-522,4072,3608,6735,19376,2447,-49,460,5840,35650,70,34,127,0,0,5396,1922,0,3271,1540,236,880,0,4,146,-55,586206,0
586234,1084,-2646,-356,3322,3873,6296,20445,2302,-146,460,4784,35661,53,34,127,0,0,5605,2153,0,3271,1540,236,890,0,4,146,-55,586206,0
586244,1568,-2840,-116,2931,4141,6002,21352,1842,-398,-245,2648,35670,26,34,127,0,0,5818,2131,0,3271,1540,236,900,0,4,146,-55,586222,0
586254,1125,-3513,-195,2516,3878,5370,21982,1188,-850,-526,984,35684,-15,34,127,0,0,6013,1895,0,3271,1540,236,910,0,4,146,-55,586253,0
586264,1154,-3914,-35,2313,3574,4850,22316,521,-1096,-975,-352,35709,-55,34,127,0,0,6207,1845,0,3271,1540,236,920,0,4,146,-55,586253,0
586274,1429,-4080,206,1983,2925,4099,22215,-383,-1405,-801,-1064,35717,-72,34,127,0,0,6369,1582,0,3271,1540,236,930,0,4,146,-55,586253,0
586284,1389,-3750,438,1589,2543,3600,21983,-569,-1087,-727,-1744,35702,-51,34,127,0,0,6506,1312,0,3271,1540,236,940,0,4,146,-55,586253,0
586294,1120,-3746,616,909,1798,2796,21635,-838,-440,-864,-2480,35682,-19,34,127,0,0,6615,1093,0,3271,1540,236,950,0,4,146,-55,586269,0
586304,643,-3727,475,652,975,2087,21165,-1121,-459,-960,-3144,35680,-2,34,127,0,0,6713,972,0,3271,1540,236,960,0,4,146,-55,586300,0
586314,285,-3215,83,420,-205,859,20574,-1362,-466,-849,-3680,35682,19,34,127,0,0,6802,873,0,3271,1540,236,970,0,4,146,-55,586300,0
586324,319,-2875,-53,241,-564,130,19879,-1590,-433,-705,-3984,35677,28,34,127,0,0,6895,884,0,3271,1540,236,980,0,4,146,-55,586300,0
586334,327,-2618,-60,-69,-708,-888,19118,-1710,-334,-598,-4176,35666,35,34,127,0,0,6976,812,0,3271,1540,236,990,0,4,146,-55,586316,0
586344,233,-2389,110,-375,-902,-1613,18325,-1765,-186,-649,-4400,35658,28,34,127,0,0,7053,730,0,3271,1540,236,1000,0,4,146,-55,586378,0
586354,130,-2343,672,-632,-186,-2561,17498,-1848,-132,-684,-4728,35670,23,34,127,0,0,7078,225,0,3271,1540,236,1010,0,4,146,-55,586378,0
586364,-3529,-5508,-1669,32,3777,-4993,16539,-2362,-290,-2346,-8136,35669,35,34,127,0,0,6704,-4059,0,2235,1506,237,4,1,4,165,-52,586378,0
586374,-1139,-2070,3597,595,3895,-6646,14876,-4220,-1587,-3668,-12136,35621,209,34,127,0,0,6233,-4691,0,2235,1506,237,14,1,4,165,-52,586378,0
586384,-607,-2763,2035,194,4068,-5329,12598,-5273,-2613,-2175,-13752,35520,498,34,127,0,0,5850,-3702,0,2235,1506,237,24,1,4,165,-52,586394,0
586394,-351,-3431,1276,-1146,3898,-6282,9990,-5851,-1795,-1392,-15024,35456,666,34,127,0,0,5415,-4476,0,2235,1506,237,34,1,4,165,-52,586394,0
586404,-667,-882,748,-510,2094,-6231,7479,-4802,-559,3624,-4088,35436,713,34,127,0,0,4996,-3977,0,2235,1506,237,44,1,4,165,-52,586394,0
586414,340,-588,-1413,-289,709,-6537,6802,183,3669,8970,7672,35621,80,34,127,0,0,4578,-4158,0,2235,1506,237,54,1,4,165,-52,586394,0
586424,56,-2485,-771,-501,-434,-5911,8152,3669,7700,4321,10376,35616,217,34,127,0,0,4159,-4152,0,2235,1506,237,64,1,4,165,-52,586394,0
586434,-1419,-4324,1556,0,-806,-5413,10143,4704,5095,2163,9528,35616,261,34,127,0,0,3777,-3757,0,2235,1506,237,74,1,4,165,-52,586441,0
586444,-1443,-4346,1390,-184,-736,-5099,11888,3026,810,-4100,2336,35524,594,34,127,0,0,3467,-3037,0,2235,1506,237,84,1,4,165,-52,586441,0
586454,-2715,-2770,1153,-582,718,-6056,12359,132,-3025,-4545,-2160,35608,221,34,127,0,0,3142,-3240,0,2235,1506,237,94,1,4,165,-52,586441,0
586464,-1528,-2067,190,-991,1674,-7114,11860,-1424,-4404,-2131,-4584,35688,-59,34,127,0,0,2810,-3284,0,2235,1506,237,104,1,4,165,-52,586441,0
586474,-1109,-4868,1378,-50,1171,-6908,10949,-2200,-2607,-1431,-5840,35707,-153,34,127,0,0,2501,-3059,0,2235,1506,237,114,1,4,165,-52,586472,0
586484,1162,-2735,381,-121,-368,-5220,9846,-2443,-1163,-570,-5448,35647,102,34,127,0,0,2351,-1362,0,2235,1506,237,124,1,4,165,-52,586472,0
586494,1447,-1125,912,-1587,-486,-5203,8820,-2176,-215,-120,-4744,35640,125,34,127,0,0,2177,-1856,0,2235,1506,237,134,1,4,165,-52,586472,0
586504,903,-2887,387,-1767,-557,-4372,7889,-2001,356,-242,-4384,35652,67,34,127,0,0,2030,-1378,0,2235,1506,237,144,1,4,165,-52,586472,0
586514,1833,-1246,-458,-1196,-249,-3950,7050,-1781,352,-194,-3784,35672,-3,34,127,0,0,1918,-1170,0,2235,1506,237,154,1,4,165,-52,586503,0
586524,1703,-1552,-347,-1206,-261,-3507,6313,-1561,377,-205,-3368,35684,-37,34,127,0,0,1800,-1093,0,2235,1506,237,164,1,4,165,-52,586503,0
586534,2220,-1837,178,-1186,-414,-2700,5671,-1360,375,-268,-3112,35682,-34,34,127,0,0,1705,-944,0,2235,1506,237,174,1,4,165,-52,586503,0
586544,1791,-1862,410,-1327,-729,-2065,5099,-1217,318,-332,-2744,35673,-11,34,127,0,0,1634,-653,0,2235,1506,237,184,1,4,165,-52,586534,0
586554,1021,-1840,503,-1179,-833,-1788,4593,-1069,261,-292,-2352,35677,-2,34,127,0,0,1576,-576,0,2235,1506,237,194,1,4,165,-52,586534,0
586564,611,-1695,-25,-1201,-622,-1878,4192,-951,240,-343,-2080,35682,-22,34,127,0,0,1513,-620,0,2235,1506,237,204,1,4,165,-52,586534,0
586574,803,-1782,-435,-1082,-182,-2082,3791,-872,209,-458,-1952,35687,-14,34,127,0,0,1440,-741,0,2235,1506,237,214,1,4,165,-52,586581,0
586584,1113,-1920,-371,-840,-130,-1963,3400,-853,100,-451,-1936,35684,-36,34,127,0,0,1384,-620,0,2235,1506,237,224,1,4,165,-52,586581,0
586594,1359,-1835,-86,-614,-227,-1635,3019,-830,31,-451,-1864,35682,-14,34,127,0,0,1321,-565,0,2235,1506,237,234,1,4,165,-52,586581,0
586604,1220,-1800,50,-593,-377,-1439,2653,-792,46,-391,-1664,35682,-29,34,127,0,0,1278,-466,0,2235,1506,237,244,1,4,165,-52,586581,0
586614,720,-1918,71,-539,-475,-1403,2319,-722,91,-378,-1480,35669,-13,34,127,0,0,1237,-406,0,2235,1506,237,254,1,4,165,-52,586581,0
586624,397,-1943,41,-483,-437,-1601,2017,-649,120,-398,-1392,35673,-25,34,127,0,0,1199,-379,0,2235,1506,237,264,1,4,165,-52,586597,0
586634,141,-1904,309,-405,-258,-2050,1741,-601,106,-527,-1392,35683,-12,34,127,0,0,1142,-466,0,2235,1506,237,274,1,4,165,-52,586628,0
586644,471,-1669,264,-357,-69,-2382,1464,-632,37,-630,-1624,35697,-20,34,127,0,0,1081,-653,0,2235,1506,237,284,1,4,165,-52,586628,0
586654,1372,-1354,-284,-338,34,-2502,1150,-707,-86,-675,-1872,35691,-22,34,127,0,0,1009,-741,0,2235,1506,237,294,1,4,165,-52,586644,0
586664,1622,-1585,-335,-238,-22,-2251,790,-822,-160,-554,-1568,35679,-22,34,127,0,0,938,-730,0,2235,1506,237,304,1,4,165,-52,586644,0
586674,1334,-1715,136,-169,-243,-1936,456,-674,-31,-136,-904,35669,-45,34,127,0,0,877,-560,0,2235,1506,237,314,1,4,165,-52,586659,0
586684,912,-1868,399,-166,-348,-1930,220,-457,275,-172,-432,35679,-45,34,127,0,0,815,-609,0,2235,1506,237,324,1,4,165,-52,586659,0
586694,544,-1968,350,-187,-357,-2185,70,-275,353,-168,-160,35688,-58,34,127,0,0,759,-604,0,2235,1506,237,334,1,4,165,-52,586675,0
586704,489,-2072,279,-145,-320,-2465,2,-103,316,-119,-56,35682,-59,34,127,0,0,700,-587,0,2235,1506,237,344,1,4,165,-52,586691,0
586714,409,-2109,563,-107,-413,-2891,1,-9,275,-517,-168,35677,-69,34,127,0,0,641,-554,0,2235,1506,237,354,1,4,165,-52,586691,0
586724,479,-1801,634,-60,-397,-3269,-14,-43,69,-725,-312,35671,-79,34,127,0,0,575,-703,0,2235,1506,237,364,1,4,165,-52,586737,0
586734,846,-1291,-6,-52,-276,-3716,-76,-168,-126,-687,-456,35678,-101,34,127,0,0,499,-780,0,2235,1506,237,374,1,4,165,-52,586737,0
586744,1294,-1075,-417,-128,-139,-3791,-186,-286,-192,-648,-664,35673,-89,34,127,0,0,405,-856,0,2235,1506,237,384,1,4,165,-52,586753,0
586754,1728,-1288,-192,-219,-172,-3551,-336,-351,-169,-600,-848,35673,-68,34,127,0,0,316,-939,0,2235,1506,237,394,1,4,165,-52,586753,0
586764,1603,-1512,218,-200,-239,-3361,-513,-394,-117,-610,-904,35670,-38,34,127,0,0,234,-856,0,2235,1506,237,404,1,4,165,-52,586753,0
586774,1347,-1805,708,-368,-514,-3311,-704,-417,-70,-514,-912,35662,-34,34,127,0,0,156,-812,0,2235,1506,237,414,1,4,165,-52,586753,0
586784,1112,-2370,856,-593,-803,-3323,-897,-418,-23,-512,-856,35665,-40,34,127,0,0,85,-642,0,2235,1506,237,424,1,4,165,-52,586784,0
586794,1047,-2976,854,-878,-1216,-3488,-1079,-386,24,-474,-712,35677,-35,34,127,0,0,32,-538,0,2235,1506,237,434,1,4,165,-52,586784,0
586804,768,-3130,1052,-1055,-1604,-3570,-1239,-324,72,-381,-320,35681,-34,34,127,0,0,6,-302,0,2235,1506,237,444,1,4,165,-52,586800,0
586814,686,-2488,842,-917,-1976,-4137,-1323,-110,199,11,184,35682,-28,34,127,0,0,-3,-87,0,2235,1506,237,454,1,4,165,-52,586800,0
586824,700,-2108,102,-851,-1915,-4294,-1258,211,453,553,552,35679,-31,34,127,0,0,-8,-27,0,2235,1506,237,464,1,4,165,-52,586800,0
586834,1719,-1331,-570,-669,-1773,-4259,-1140,249,360,901,816,35679,-24,34,127,0,0,1,109,0,2235,1506,237,474,1,4,165,-52,586800,0
586844,1994,-1313,-795,-724,-1768,-4073,-1020,290,73,1527,1160,35679,-13,34,127,0,0,9,71,0,2235,1506,237,484,1,4,165,-52,586878,0
586854,1478,-1890,-294,-903,-1875,-3843,-853,408,105,1736,1552,35683,2,34,127,0,0,34,214,0,2235,1506,237,494,1,4,165,-52,586878,0
586864,1249,-2581,-97,-1029,-1826,-4009,-640,470,182,1606,1288,35673,14,34,127,0,0,60,307,0,2235,1506,237,504,1,4,165,-52,586878,0
586874,568,-3755,227,-1041,-1376,-4878,-469,343,-26,1275,944,35668,-4,34,127,0,0,80,230,0,2235,1506,237,514,1,4,165,-52,586878,0
586884,146,-4586,415,-971,-1092,-5653,-335,276,-127,973,680,35659,-12,34,127,0,0,96,192,0,2235,1506,237,524,1,4,165,-52,586878,0
586894,78,-5045,656,-721,-573,-6782,-203,302,-24,543,480,35664,-11,34,127,0,0,131,411,0,2235,1506,237,534,1,4,165,-52,586878,0
586904,320,-5082,207,-832,-520,-6617,-60,299,19,341,704,35667,-27,34,127,0,0,243,1235,0,2235,1506,237,544,1,4,165,-52,586878,0
586914,1595,-2900,108,-769,-681,-6485,122,458,83,807,1448,35668,-40,34,127,0,0,399,1631,0,2235,1506,237,554,1,4,165,-52,586894,0
586924,2362,-2129,-419,-922,-1027,-5969,413,718,292,786,1832,35679,-52,34,127,0,0,587,1950,0,2235,1506,237,564,1,4,165,-52,586941,0
586934,2723,-1649,-471,-1032,-955,-5480,758,765,331,503,1752,35688,-10,34,127,0,0,789,2098,0,2235,1506,237,574,1,4,165,-52,586941,0
586944,1895,-1851,129,-737,-750,-5297,1094,705,80,311,1240,35692,4,34,127,0,0,996,1961,0,2235,1506,237,584,1,4,165,-52,586941,0
586954,1407,-1401,649,-272,-939,-4131,1373,567,-133,248,984,35680,17,34,127,0,0,1221,2378,0,2235,1506,237,594,1,4,165,-52,586941,0
586964,1556,-1018,920,-157,-1057,-3659,1601,481,-215,395,1608,35680,-19,34,127,0,0,1468,2400,0,2235,1506,237,604,1,4,165,-52,586941,0
586974,1553,-725,1048,-245,-1353,-2854,1959,1032,138,1894,3600,35692,-20,34,127,0,0,1729,2614,0,2235,1506,237,614,1,4,165,-52,586956,0
586984,1952,-295,912,-339,-1498,-2036,2655,1719,953,1533,4936,35685,24,34,127,0,0,2009,2850,0,2235,1506,237,624,1,4,165,-52,586956,0
586994,1894,1180,506,-418,-1334,-675,3580,2137,1093,1246,5760,35667,56,34,127,0,0,2302,2889,0,2235,1506,237,634,1,4,165,-52,586987,0
587004,1612,3091,-157,-515,-995,525,4619,2313,653,866,5736,35647,120,34,127,0,0,2494,1818,0,2235,1506,237,644,1,4,165,-52,586987,0
587014,493,3487,-1317,-1128,-244,2976,5625,2153,165,368,4832,35639,107,34,127,0,0,2583,845,0,2235,1506,237,654,1,4,165,-52,586987,0
587024,148,2151,-768,-992,-65,3521,6522,1870,-278,-12,3144,35644,71,34,127,0,0,2558,-390,0,2235,1506,237,664,0,4,165,-52,587019,0
587034,-697,688,269,-104,-1141,4954,7218,1352,-594,-369,1240,35666,5,34,127,0,0,2503,-571,0,2235,1506,237,674,0,4,165,-52,587019,0
587044,-493,59,774,327,-1720,6047,7630,721,-930,-410,128,35689,-33,34,127,0,0,2489,-120,0,2235,1506,237,684,0,4,165,-52,587019,0
587054,-550,275,797,772,-1915,7296,7758,86,-1093,-637,-88,35701,-70,34,127,0,0,2497,87,0,2235,1506,237,694,0,4,165,-52,587034,0
587064,-39,624,369,1085,-1791,7950,7735,-3,-869,230,168,35701,-89,34,127,0,0,2522,181,0,2235,1506,237,704,0,4,165,-52,587050,0
587074,-78,798,-536,1563,-1798,9035,7781,102,-128,471,320,35699,-119,34,127,0,0,2562,461,0,2235,1506,237,714,0,4,165,-52,587050,0
587084,21,599,-487,1952,-1738,9824,7862,233,201,783,768,35702,-127,34,127,0,0,2637,878,0,2235,1506,237,724,0,4,165,-52,587066,0
587094,163,300,-139,2576,-1938,10910,8036,453,251,922,1552,35694,-98,34,127,0,0,2775,1411,0,2235,1506,237,734,0,4,165,-52,587128,0
587104,371,266,34,2900,-2191,11210,8357,819,455,1163,2496,35694,-54,34,127,0,0,2948,1757,0,2235,1506,237,744,0,4,165,-52,587128,0
587114,661,251,-45,3438,-2484,11093,8846,1172,608,1049,3280,35681,-10,34,127,0,0,3131,1790,0,2235,1506,237,754,0,4,165,-52,587144,0
587124,838,75,-246,3794,-2566,10988,9469,1435,583,844,3704,35674,20,34,127,0,0,3291,1598,0,2235,1506,237,764,0,4,165,-52,587144,0
587134,1000,-172,-368,4241,-2435,10893,10164,1555,397,649,3768,35662,36,34,127,0,0,3423,1362,0,2235,1506,237,774,0,4,165,-52,587144,0
587144,864,-357,-355,4530,-2286,10838,10883,1570,187,445,3600,35659,33,34,127,0,0,3545,1257,0,2235,1506,237,784,0,4,165,-52,587144,0
587154,660,-584,-198,4831,-2180,10829,11572,1497,-14,465,3592,35662,18,34,127,0,0,3680,1406,0,2235,1506,237,794,0,4,165,-52,587144,0
587164,567,-738,-239,4947,-2132,10849,12255,1507,-68,666,3848,35664,4,34,127,0,0,3848,1691,0,2235,1506,237,804,0,4,165,-52,587144,0
587174,645,-878,-495,5027,-1813,10857,12973,1637,51,984,4528,35664,2,34,127,0,0,4055,2087,0,2235,1506,237,814,0,4,165,-52,587144,0
587184,676,-1057,-726,5037,-1406,10774,13798,1890,274,1068,5304,35664,33,34,127,0,0,4305,2515,0,2235,1506,237,824,0,4,165,-52,587190,0
587194,785,-1258,-926,4978,-543,10302,14783,2291,509,1136,6136,35667,73,34,127,0,0,4576,2730,0,2235,1506,237,834,0,4,165,-52,587190,0
587204,873,-1370,-905,4915,126,9873,15945,2646,655,960,6536,35665,105,34,127,0,0,4828,2504,0,2235,1506,237,844,0,4,165,-52,587190,0
587214,1072,-1732,-906,4660,1183,9204,17172,2690,470,740,6600,35650,121,34,127,0,0,5059,2340,0,2235,1506,237,854,0,4,165,-52,587190,0
587224,1110,-2065,-840,4328,1854,8783,18395,2693,108,671,6560,35634,108,34,127,0,0,5284,2186,0,2235,1506,237,864,0,4,165,-52,587190,0
587234,-1755,-5321,-643,3782,2143,8934,19608,2634,-29,567,6560,35644,98,34,127,0,0,5554,2724,0,2235,1506,237,874,0,4,165,-52,587222,0
587244,5959,-4994,1321,2801,2679,9384,20820,2761,-43,1338,7744,35656,86,34,127,0,0,6129,5487,0,2235,1506,237,884,0,4,165,-52,587237,0
587254,519,657,-1075,3113,3789,6053,22154,2887,257,329,5832,35645,130,34,127,0,0,6356,2109,0,2235,1506,237,894,0,4,165,-52,587237,0
587264,1704,-2646,-2216,1609,4789,4782,23297,2294,-120,-960,2768,35642,95,34,127,0,0,6511,1428,0,2235,1506,237,904,0,4,165,-52,587237,0
587274,638,-5146,86,1492,4482,2261,23919,840,-1339,-2978,-1272,35666,11,34,127,0,0,6485,-379,0,2235,1506,237,914,0,4,165,-52,587253,0
587284,1532,-5264,878,1833,3397,2467,23600,-1030,-2846,-1777,-3128,35704,-62,34,127,0,0,6484,21,0,2235,1506,237,924,0,4,165,-52,587253,0
587294,831,-4126,909,1047,2799,2510,22963,-1558,-2406,-1332,-4408,35701,-39,34,127,0,0,6519,444,0,2235,1506,237,934,0,4,165,-52,587300,0
587304,951,-3719,948,281,2309,2465,22119,-1965,-975,-1138,-4712,35679,49,34,127,0,0,6641,1296,0,2235,1506,237,944,0,4,165,-52,587300,0
587314,421,-3256,-102,-189,1442,1370,21254,-1853,-456,-227,-4128,35649,78,34,127,0,0,6785,1527,0,2235,1506,237,954,0,4,165,-52,587300,0
587324,744,-3245,-407,-137,1046,301,20472,-1669,136,-176,-3776,35655,39,34,127,0,0,6901,1186,0,2235,1506,237,964,0,4,165,-52,587300,0
587334,703,-2665,-46,72,578,-1472,19742,-1604,259,-525,-4144,35661,1,34,127,0,0,6965,565,0,2235,1506,237,974,0,4,165,-52,587300,0
587344,608,-2514,255,109,260,-2385,18942,-1840,-38,-981,-4904,35679,-5,34,127,0,0,6985,175,0,2235,1506,237,984,0,4,165,-52,587331,0
587354,629,-2334,432,-273,20,-2942,18006,-2142,-393,-1032,-5624,35675,32,34,127,0,0,6978,-5,0,2235,1506,237,994,0,4,165,-52,587331,0
587364,2591,-3398,2233,-37,2076,-3081,16942,-2423,-511,-1008,-6688,35658,80,34,127,0,0,6837,-1664,0,2235,1506,237,1004,0,4,165,-52,587347,0
587374,-1584,-4540,2087,-61,2045,-5206,15551,-3523,-833,-3248,-10608,35634,137,34,127,0,0,6433,-3955,0,3388,1654,238,6,1,4,178,-45,587362,0
587384,-956,-1874,3018,855,2244,-4229,13534,-4678,-1891,-2318,-12384,35565,362,34,127,0,0,6093,-3279,0,3388,1654,238,16,1,4,178,-45,587362,0
587394,856,-3560,911,-63,2095,-4902,11228,-5234,-1762,-1080,-12896,35518,516,34,127,0,0,5767,-3356,0,3388,1654,238,26,1,4,178,-45,587378,0
587404,-94,-2059,1014,-310,759,-5935,8749,-5619,-860,-2008,-13248,35487,584,34,127,0,0,5309,-4658,0,3388,1654,238,36,1,4,178,-45,587378,0
587414,-448,-1906,-395,189,-222,-5967,6521,-3813,17,4893,-1736,35505,483,34,127,0,0,4908,-4070,0,3388,1654,238,46,1,4,178,-45,587409,0
587424,-1518,-2484,-625,-166,-257,-6112,6394,1360,4624,10179,8152,35659,21,34,127,0,0,4478,-4240,0,3388,1654,238,56,1,4,178,-45,587409,0
587434,-938,-4529,500,-574,270,-5273,7865,3635,7375,2739,10328,35598,285,34,127,0,0,4098,-3614,0,3388,1654,238,66,1,4,178,-45,587409,0
587444,-2003,-3004,1815,-286,505,-5720,9836,4600,3892,1926,9600,35596,261,34,127,0,0,3733,-3636,0,3388,1654,238,76,1,4,178,-45,587519,0
587454,79,-2081,894,-533,1286,-6176,11581,3055,618,-4003,2168,35481,621,34,127,0,0,3373,-3625,0,3388,1654,238,86,1,4,178,-45,587519,0
587464,-120,-1094,274,-939,1374,-6099,11971,-191,-3134,-4963,-2808,35620,100,34,127,0,0,2984,-3878,0,3388,1654,238,96,1,4,178,-45,587519,0
587474,-6770,-8140,1808,-479,384,-4021,11333,-1788,-4701,-2146,-5312,35682,-49,34,127,0,0,2657,-3306,0,3388,1654,238,106,1,4,178,-45,587519,0
587484,4422,109,1019,-733,-565,-3531,10371,-2049,-2594,-268,-3608,35698,-128,34,127,0,0,2659,-258,0,3388,1654,238,116,1,4,178,-45,587534,0
587494,-3973,-3799,1656,-2417,-584,-4949,9586,-1640,-227,-74,-3744,35643,53,34,127,0,0,2456,-1966,0,3388,1654,238,126,1,4,178,-45,587534,0
587504,-139,-2308,1480,-1713,286,-5676,8878,-1512,509,-404,-3528,35639,35,34,127,0,0,2333,-1422,0,3388,1654,238,136,1,4,178,-45,587534,0
587514,1169,-2712,-458,-1462,-34,-6016,8200,-1494,203,-534,-3664,35659,-20,34,127,0,0,2169,-1669,0,3388,1654,238,146,1,4,178,-45,587534,0
587524,1451,-2523,511,-860,-117,-5521,7499,-1569,3,-585,-3664,35658,-12,34,127,0,0,2019,-1362,0,3388,1654,238,156,1,4,178,-45,587534,0
587534,2797,-1604,201,-988,-464,-4033,6799,-1501,-53,-290,-3176,35657,-2,34,127,0,0,1936,-812,0,3388,1654,238,166,1,4,178,-45,587534,0
587544,2828,-1554,279,-1294,-751,-3038,6176,-1294,157,-108,-2424,35663,-4,34,127,0,0,1898,-379,0,3388,1654,238,176,1,4,178,-45,587550,0
587554,2236,-1347,69,-1139,-1229,-2162,5676,-1008,384,-8,-1560,35667,-25,34,127,0,0,1880,-148,0,3388,1654,238,186,1,4,178,-45,587550,0
587564,1537,-1274,-95,-944,-1206,-1903,5349,-687,510,-51,-984,35681,-27,34,127,0,0,1863,-148,0,3388,1654,238,196,1,4,178,-45,587550,0
587574,1315,-1245,-294,-690,-948,-1862,5097,-494,497,-186,-728,35685,-48,34,127,0,0,1833,-274,0,3388,1654,238,206,1,4,178,-45,587550,0
587584,1370,-1148,-597,-686,-980,-1677,4912,-375,338,-382,-688,35694,-41,34,127,0,0,1805,-296,0,3388,1654,238,216,1,4,178,-45,587597,0
587594,1124,-1372,-558,-523,-1004,-1445,4749,-341,155,-432,-600,35695,-48,34,127,0,0,1767,-313,0,3388,1654,238,226,1,4,178,-45,587597,0
587604,684,-1277,-523,-418,-1013,-1475,4594,-339,44,-488,-656,35687,-44,34,127,0,0,1735,-373,0,3388,1654,238,236,1,4,178,-45,587597,0
587614,504,-989,-378,-261,-573,-1938,4438,-343,9,-491,-816,35680,-60,34,127,0,0,1686,-483,0,3388,1654,238,246,1,4,178,-45,587597,0
587624,786,-612,-707,-244,-180,-2247,4266,-413,-34,-692,-1216,35670,-53,34,127,0,0,1600,-884,0,3388,1654,238,256,1,4,178,-45,587597,0
587634,1373,-728,-898,-258,239,-2169,4026,-590,-178,-912,-1768,35677,-34,34,127,0,0,1498,-1065,0,3388,1654,238,266,1,4,178,-45,587628,0
587644,1482,-819,-876,-269,429,-1927,3685,-817,-339,-797,-2200,35682,-9,34,127,0,0,1393,-1049,0,3388,1654,238,276,1,4,178,-45,587628,0
587654,1386,-689,-393,-394,435,-1642,3263,-981,-353,-781,-2576,35679,-5,34,127,0,0,1285,-1065,0,3388,1654,238,286,1,4,178,-45,587628,0
587664,1336,-1100,-242,-493,257,-1668,2769,-1116,-280,-735,-2944,35669,-21,34,127,0,0,1168,-1203,0,3388,1654,238,296,1,4,178,-45,587675,0
587674,802,-3042,-49,-1189,-108,-1363,2209,-1290,-251,-837,-3312,35665,-11,34,127,0,0,1055,-1060,0,3388,1654,238,306,1,4,178,-45,587675,0
587684,391,-3572,1028,-1177,-409,-1132,1603,-1326,-219,-522,-3056,35669,7,34,127,0,0,987,-653,0,3388,1654,238,316,1,4,178,-45,587675,0
587694,-275,-3198,1502,-548,-167,-2145,1035,-1172,16,-174,-2064,35672,1,34,127,0,0,918,-769,0,3388,1654,238,326,1,4,178,-45,587675,0
587704,-402,-3758,1206,-61,-468,-2775,592,-886,358,-28,-1176,35665,-20,34,127,0,0,848,-692,0,3388,1654,238,336,1,4,178,-45,587675,0
587714,-24,-2164,891,25,-455,-3599,284,-575,505,-51,-560,35670,-56,34,127,0,0,775,-747,0,3388,1654,238,346,1,4,178,-45,587706,0
587724,312,-1777,351,-70,-603,-4049,95,-350,492,-141,-208,35688,-63,34,127,0,0,689,-840,0,3388,1654,238,356,1,4,178,-45,587706,0
587734,948,-1302,-164,-163,-621,-4373,1,-167,395,-198,-248,35691,-68,34,127,0,0,603,-950,0,3388,1654,238,366,1,4,178,-45,587706,0
587744,1287,-1194,-288,-227,-697,-4351,-63,-172,212,-702,-504,35683,-80,34,127,0,0,514,-856,0,3388,1654,238,376,1,4,178,-45,587722,0
587754,1651,-1439,-231,-314,-812,-4188,-182,-312,-85,-690,-712,35678,-89,34,127,0,0,424,-895,0,3388,1654,238,386,1,4,178,-45,587737,0
587764,1347,-1861,-19,-632,-886,-3906,-340,-358,-186,-527,-704,35684,-83,34,127,0,0,347,-730,0,3388,1654,238,396,1,4,178,-45,587737,0
587774,1244,-2285,528,-955,-977,-3854,-498,-326,-62,-496,-576,35687,-57,34,127,0,0,281,-637,0,3388,1654,238,406,1,4,178,-45,587753,0
587784,1014,-2688,760,-1170,-1137,-3940,-645,-323,33,-450,-432,35685,-39,34,127,0,0,230,-450,0,3388,1654,238,416,1,4,178,-45,587753,0
587794,758,-2821,1228,-1119,-1626,-4297,-765,-240,69,-300,-152,35676,-32,34,127,0,0,194,-335,0,3388,1654,238,426,1,4,178,-45,587784,0
587804,504,-2286,893,-1149,-1620,-4774,-810,-7,204,-75,-32,35689,-41,34,127,0,0,160,-340,0,3388,1654,238,436,1,4,178,-45,587784,0
587814,1154,-1454,153,-1106,-1613,-5182,-784,41,292,-124,24,35686,-57,34,127,0,0,129,-285,0,3388,1654,238,446,1,4,178,-45,587784,0
587824,1600,-1045,-501,-999,-1382,-5373,-779,11,59,203,64,35688,-83,34,127,0,0,87,-384,0,3388,1654,238,456,1,4,178,-45,587800,0
587834,2238,-1709,-537,-1149,-1513,-4952,-784,-24,-64,113,40,35679,-75,34,127,0,0,49,-340,0,3388,1654,238,466,1,4,178,-45,587831,0
587844,2566,-2426,-294,-1372,-1851,-4449,-777,38,4,403,352,35693,-91,34,127,0,0,46,32,0,3388,1654,238,476,1,4,178,-45,587847,0
587854,1019,-3849,221,-1743,-1969,-4625,-697,246,183,806,776,35689,-88,34,127,0,0,56,137,0,3388,1654,238,486,1,4,178,-45,587847,0
587864,136,-4841,513,-1965,-2006,-4926,-514,460,354,585,1040,35682,-93,34,127,0,0,107,538,0,3388,1654,238,496,1,4,178,-45,587847,0
587874,183,-5435,949,-2069,-1848,-5532,-272,537,238,353,1016,35667,-68,34,127,0,0,205,994,0,3388,1654,238,506,1,4,178,-45,587847,0
587884,636,-4445,673,-1930,-1528,-6117,-27,531,113,361,1168,35671,-57,34,127,0,0,331,1345,0,3388,1654,238,516,1,4,178,-45,587862,0
587894,938,-3669,-327,-1896,-1107,-6393,227,567,71,431,1240,35684,-65,34,127,0,0,469,1433,0,3388,1654,238,526,1,4,178,-45,587893,0
587904,1231,-3375,-410,-1725,-1008,-5888,485,579,36,500,1440,35692,-49,34,127,0,0,667,2043,0,3388,1654,238,536,1,4,178,-45,587893,0
587914,2370,-1926,-471,-1622,-1004,-5637,778,693,66,690,1832,35692,-42,34,127,0,0,910,2493,0,3388,1654,238,546,1,4,178,-45,587893,0
587924,2585,-1900,-380,-1720,-565,-5880,1119,753,171,402,1272,35684,-21,34,127,0,0,1107,1829,0,3388,1654,238,556,1,4,178,-45,587893,0
587934,1618,-1543,180,-1597,-570,-5208,1407,562,-1,67,440,35681,-20,34,127,0,0,1297,1928,0,3388,1654,238,566,1,4,178,-45,587925,0
587944,1579,-1332,386,-1534,-592,-4432,1614,480,-283,914,2144,35690,-30,34,127,0,0,1508,2147,0,3388,1654,238,576,1,4,178,-45,587925,0
587954,1401,-956,620,-1397,-620,-3265,2044,1148,251,1582,3728,35686,-25,34,127,0,0,1747,2438,0,3388,1654,238,586,1,4,178,-45,587940,0
587964,1619,-484,619,-1321,-590,-2582,2754,1732,990,1452,4848,35671,4,34,127,0,0,2017,2647,0,3388,1654,238,596,1,4,178,-45,587940,0
587974,1511,540,473,-1138,-182,-1667,3663,2082,925,1100,5472,35653,40,34,127,0,0,2276,2559,0,3388,1654,238,606,1,4,178,-45,587972,0
587984,1008,1807,370,-845,177,-649,4651,2190,539,753,5432,35648,97,34,127,0,0,2468,1796,0,3388,1654,238,616,1,4,178,-45,587972,0
587994,31,3590,-645,-853,642,1819,5604,2057,87,447,4792,35646,94,34,127,0,0,2585,1087,0,3388,1654,238,626,1,4,178,-45,587972,0
588004,1526,3645,-923,-1370,527,2615,6475,1849,-235,205,3712,35648,52,34,127,0,0,2619,175,0,3388,1654,238,636,0,4,178,-45,587972,0
588014,525,1606,-28,-701,-909,4517,7200,1468,-432,-69,2160,35656,1,34,127,0,0,2601,-203,0,3388,1654,238,646,0,4,178,-45,588003,0
588024,81,770,359,-6,-1861,5848,7718,991,-677,-199,920,35685,-46,34,127,0,0,2596,-27,0,3388,1654,238,656,0,4,178,-45,588003,0
588034,-196,713,904,955,-2679,7218,8038,588,-782,-101,296,35696,-81,34,127,0,0,2594,32,0,3388,1654,238,666,0,4,178,-45,588003,0
588044,-157,896,917,1291,-3295,7987,8192,236,-690,-131,72,35695,-76,34,127,0,0,2607,131,0,3388,1654,238,676,0,4,178,-45,588034,0
588054,-43,746,88,2132,-3669,8994,8217,11,-564,238,144,35698,-51,34,127,0,0,2623,181,0,3388,1654,238,686,0,4,178,-45,588034,0
588064,232,674,-121,2570,-3652,9742,8237,66,-260,674,392,35692,-16,34,127,0,0,2657,335,0,3388,1654,238,696,0,4,178,-45,588034,0
588074,293,478,-141,3499,-3529,10604,8325,245,134,734,688,35700,6,34,127,0,0,2718,631,0,3388,1654,238,706,0,4,178,-45,588065,0
588084,288,406,-85,4058,-3610,10936,8482,371,262,643,984,35693,-6,34,127,0,0,2793,840,0,3388,1654,238,716,0,4,178,-45,588065,0
588094,126,102,100,4839,-3966,11154,8694,517,232,746,1464,35690,-27,34,127,0,0,2885,994,0,3388,1654,238,726,0,4,178,-45,588081,0
588104,176,-121,34,5326,-4264,11237,8989,699,261,800,1992,35690,-38,34,127,0,0,3021,1367,0,3388,1654,238,736,0,4,178,-45,588081,0
588114,369,-280,-150,5922,-4610,11481,9384,964,346,1092,2904,35678,-29,34,127,0,0,3206,1867,0,3388,1654,238,746,0,4,178,-45,588128,0
588124,516,-293,-255,6266,-4726,11686,9950,1376,526,1261,3992,35678,-5,34,127,0,0,3433,2246,0,3388,1654,238,756,0,4,178,-45,588128,0
588134,506,-237,-414,6619,-4524,11728,10722,1832,735,1200,4984,35667,38,34,127,0,0,3684,2537,0,3388,1654,238,766,0,4,178,-45,588128,0
588144,312,-261,-584,6761,-4062,11452,11680,2213,762,1134,5816,35651,59,34,127,0,0,3948,2620,0,3388,1654,238,776,0,4,178,-45,588128,0
588154,35,-584,-1014,6831,-2999,10693,12764,2434,601,972,6328,35635,100,34,127,0,0,4207,2642,0,3388,1654,238,786,0,4,178,-45,588128,0
588164,143,-974,-1366,6758,-2025,10132,13912,2573,352,883,6720,35627,121,34,127,0,0,4467,2581,0,3388,1654,238,796,0,4,178,-45,588143,0
588174,335,-1523,-1311,6672,-50,9257,15162,2845,315,860,7008,35635,144,34,127,0,0,4724,2416,0,3388,1654,238,806,0,4,178,-45,588237,0
588184,509,-1647,-1110,6489,1594,8689,16481,2877,346,532,6840,35653,128,34,127,0,0,4944,2246,0,3388,1654,238,816,0,4,178,-45,588237,0
588194,634,-1897,-825,5882,4239,7746,17746,2742,18,512,6536,35662,101,34,127,0,0,5155,2048,0,3388,1654,238,826,0,4,178,-45,588237,0
588204,740,-2143,-784,5368,5814,7104,18954,2627,-215,353,6112,35658,77,34,127,0,0,5338,1851,0,3388,1654,238,836,0,4,178,-45,588253,0
588214,960,-2554,-589,4704,7319,6373,20087,2423,-246,345,5808,35656,35,34,127,0,0,5525,1939,0,3388,1654,238,846,0,4,178,-45,588253,0
588224,1287,-2802,-526,4339,7853,6102,21086,2065,-396,-119,3280,35657,18,34,127,0,0,5728,2098,0,3388,1654,238,856,0,4,178,-45,588253,0
588234,1706,-3024,-436,3567,8265,5762,21812,1384,-771,-580,1512,35668,-18,34,127,0,0,5951,2274,0,3388,1654,238,866,0,4,178,-45,588253,0
588244,1798,-3374,-194,2949,8222,5268,22251,803,-1099,-350,408,35691,-43,34,127,0,0,6189,2356,0,3388,1654,238,876,0,4,178,-45,588253,0
588254,1885,-4279,404,2143,7436,4194,22447,227,-1004,-710,-296,35696,-60,34,127,0,0,6396,2054,0,3388,1654,238,886,0,4,178,-45,588253,0
588264,2194,-4349,765,1400,7020,3347,22352,-307,-1032,-542,-784,35696,-63,34,127,0,0,6568,1598,0,3388,1654,238,896,0,4,178,-45,588253,0
588274,1886,-5203,1310,650,5728,2623,22156,-495,-743,-737,-1512,35688,-48,34,127,0,0,6710,1384,0,3388,1654,238,906,0,4,178,-45,588253,0
588284,1413,-5217,890,492,4577,1959,21850,-762,-390,-930,-2312,35689,-24,34,127,0,0,6815,1065,0,3388,1654,238,916,0,4,178,-45,588253,0
588294,975,-3540,353,263,3000,853,21404,-1087,-487,-1054,-3136,35700,-2,34,127,0,0,6906,862,0,3388,1654,238,926,0,4,178,-45,588284,0
588304,1059,-2835,-61,251,2437,203,20813,-1388,-551,-971,-3784,35700,22,34,127,0,0,6987,867,0,3388,1654,238,936,0,4,178,-45,588300,0
588314,724,-1978,-433,186,1782,-728,20099,-1638,-513,-826,-4184,35689,21,34,127,0,0,7071,878,0,3388,1654,238,946,0,4,178,-45,588300,0
588324,741,-1670,-339,226,1092,-1455,19309,-1761,-384,-535,-4224,35676,44,34,127,0,0,7168,999,0,3388,1654,238,956,0,4,178,-45,588300,0
588334,2314,-3488,1565,676,2127,-2810,18511,-1750,-163,-533,-4520,35661,28,34,127,0,0,7154,-285,0,3388,1654,238,966,0,4,178,-45,588331,0
588344,-392,-7496,-1459,307,2007,-5723,17555,-2466,-254,-3054,-8840,35663,36,34,127,0,0,6725,-4504,0,2005,1448,239,8,1,4,205,-54,588331,0
588354,-2030,-1540,3647,1184,2210,-6072,15775,-4564,-1885,-3904,-13272,35612,253,34,127,0,0,6200,-5234,0,2005,1448,239,18,1,4,205,-54,588331,0
588364,-704,-3096,609,310,2568,-5154,13275,-5717,-3068,-2414,-14624,35503,598,34,127,0,0,5789,-4010,0,2005,1448,239,28,1,4,205,-54,588331,0
588374,-1171,-2046,1181,-619,185,-6727,10498,-6288,-1865,-1304,-14288,35433,805,34,127,0,0,5293,-5103,0,2005,1448,239,38,1,4,205,-54,588362,0
588384,-746,-1966,-451,9,423,-6519,8130,-4093,114,5499,-2336,35455,689,34,127,0,0,4857,-4427,0,2005,1448,239,48,1,4,205,-54,588362,0
588394,-2430,-2691,-836,-226,330,-6698,7849,1112,4899,9477,8728,35656,28,34,127,0,0,4391,-4592,0,2005,1448,239,58,1,4,205,-54,588362,0
588404,-1600,-4407,657,-345,346,-6172,9442,4057,7888,3625,11440,35627,202,34,127,0,0,3983,-3993,0,2005,1448,239,68,1,4,205,-54,588393,0
588414,-1804,-3334,1690,-549,655,-6072,11466,4297,4414,-1147,5032,35600,258,34,127,0,0,3619,-3609,0,2005,1448,239,78,1,4,205,-54,588393,0
588424,-160,-2754,1612,-1039,1151,-6478,12482,1359,-1131,-4183,-752,35542,443,34,127,0,0,3273,-3537,0,2005,1448,239,88,1,4,205,-54,588393,0
588434,674,-960,63,-900,1701,-7085,12225,-1111,-4522,-3026,-4192,35641,86,34,127,0,0,2908,-3751,0,2005,1448,239,98,1,4,205,-54,588425,0
588444,1349,-7658,201,-585,709,-7965,11372,-2174,-3560,-1961,-6232,35718,-145,34,127,0,0,2523,-3955,0,2005,1448,239,108,1,4,205,-54,588425,0
588454,2858,-1225,941,1266,-690,-3712,10167,-2728,-1778,-702,-5728,35672,35,34,127,0,0,2419,-582,0,2005,1448,239,118,1,4,205,-54,588425,0
588464,954,-99,95,-2284,-870,-5416,9061,-2298,-491,57,-4760,35630,148,34,127,0,0,2226,-2120,0,2005,1448,239,128,1,4,205,-54,588440,0
588474,-178,-3772,1055,-2273,-732,-4548,8099,-2043,508,-129,-4280,35639,84,34,127,0,0,2093,-1109,0,2005,1448,239,138,1,4,205,-54,588456,0
588484,352,-1296,-1879,-1839,90,-5273,7265,-1749,519,-155,-3776,35676,-11,34,127,0,0,1954,-1455,0,2005,1448,239,148,1,4,205,-54,588456,0
588494,1967,-2133,-651,-1032,-24,-5107,6537,-1561,457,-391,-3688,35688,-34,34,127,0,0,1803,-1527,0,2005,1448,239,158,1,4,205,-54,588471,0
588504,2855,-1863,-474,-939,-319,-4094,5842,-1509,259,-417,-3512,35686,-19,34,127,0,0,1700,-1043,0,2005,1448,239,168,1,4,205,-54,588487,0
588514,2453,-2112,95,-653,-862,-2703,5201,-1358,166,-260,-2960,35679,7,34,127,0,0,1634,-626,0,2005,1448,239,178,1,4,205,-54,588487,0
588524,1681,-2029,302,-479,-1162,-2119,4648,-1149,275,-134,-2240,35678,5,34,127,0,0,1608,-324,0,2005,1448,239,188,1,4,205,-54,588503,0
588534,804,-1351,-166,-345,-968,-2199,4203,-895,380,-82,-1552,35681,-8,34,127,0,0,1583,-296,0,2005,1448,239,198,1,4,205,-54,588534,0
588544,914,-1302,-704,-304,-405,-2426,3870,-669,430,-213,-1336,35680,-24,34,127,0,0,1535,-510,0,2005,1448,239,208,1,4,205,-54,588534,0
588554,1393,-1544,-667,-234,-4,-2223,3580,-632,301,-369,-1328,35679,-37,34,127,0,0,1480,-499,0,2005,1448,239,218,1,4,205,-54,588534,0
588564,1552,-1598,-520,-174,40,-1883,3305,-606,104,-397,-1264,35682,-25,34,127,0,0,1434,-472,0,2005,1448,239,228,1,4,205,-54,588581,0
588574,1170,-1479,-226,-75,-107,-1601,3066,-574,46,-389,-1104,35680,-24,34,127,0,0,1402,-329,0,2005,1448,239,238,1,4,205,-54,588581,0
588584,798,-1660,191,-14,-183,-1727,2825,-516,73,-390,-1064,35688,-33,34,127,0,0,1360,-379,0,2005,1448,239,248,1,4,205,-54,588596,0
588594,425,-2269,662,109,-57,-2153,2602,-477,77,-534,-1152,35684,-32,34,127,0,0,1313,-499,0,2005,1448,239,258,1,4,205,-54,588596,0
588604,416,-2440,884,47,-93,-2370,2366,-543,4,-576,-1296,35671,-40,34,127,0,0,1261,-488,0,2005,1448,239,268,1,4,205,-54,588596,0
588614,624,-2163,1002,-204,-358,-2563,2106,-584,-80,-543,-1336,35664,-47,34,127,0,0,1216,-433,0,2005,1448,239,278,1,4,205,-54,588596,0
588624,740,-1789,770,-291,-458,-2690,1842,-575,-52,-501,-1336,35670,-44,34,127,0,0,1168,-455,0,2005,1448,239,288,1,4,205,-54,588596,0
588634,1101,-1128,-19,-248,-408,-2883,1576,-590,-8,-560,-1424,35675,-44,34,127,0,0,1117,-527,0,2005,1448,239,298,1,4,205,-54,588643,0
588644,1224,-958,-194,-200,-470,-2926,1290,-631,-41,-599,-1616,35678,-45,34,127,0,0,1051,-664,0,2005,1448,239,308,1,4,205,-54,588643,0
588654,1223,-1354,110,-199,-528,-2910,976,-722,-91,-705,-1888,35681,-36,34,127,0,0,981,-752,0,2005,1448,239,318,1,4,205,-54,588643,0
588664,977,-1505,302,-340,-623,-2908,624,-761,-133,-302,-1240,35673,-36,34,127,0,0,906,-780,0,2005,1448,239,328,1,4,205,-54,588643,0
588674,732,-1768,464,-551,-819,-3095,341,-563,89,-164,-672,35665,-43,34,127,0,0,837,-664,0,2005,1448,239,338,1,4,205,-54,588643,0
588684,523,-2042,629,-583,-1004,-3294,149,-371,317,-230,-288,35666,-36,34,127,0,0,762,-703,0,2005,1448,239,348,1,4,205,-54,588675,0
588694,739,-1747,498,-456,-962,-3833,37,-192,324,-170,-120,35682,-55,34,127,0,0,692,-659,0,2005,1448,239,358,1,4,205,-54,588690,0
588704,754,-1369,221,-405,-840,-4314,-10,-80,272,-467,-384,35688,-65,34,127,0,0,593,-994,0,2005,1448,239,368,1,4,205,-54,588690,0
588714,1505,-1202,-199,-376,-975,-4232,-95,-236,24,-808,-632,35685,-80,34,127,0,0,508,-873,0,2005,1448,239,378,1,4,205,-54,588690,0
588724,1493,-930,-314,-428,-783,-4333,-244,-346,-212,-571,-768,35674,-89,34,127,0,0,411,-1049,0,2005,1448,239,388,1,4,205,-54,588706,0
588734,1555,-1467,-275,-656,-868,-4002,-412,-383,-137,-566,-824,35671,-72,34,127,0,0,326,-862,0,2005,1448,239,398,1,4,205,-54,588706,0
588744,1699,-1970,264,-894,-1006,-3941,-584,-386,-44,-549,-864,35678,-49,34,127,0,0,243,-791,0,2005,1448,239,408,1,4,205,-54,588737,0
588754,1200,-3079,856,-1316,-1360,-3840,-767,-395,-20,-445,-680,35686,-32,34,127,0,0,181,-604,0,2005,1448,239,418,1,4,205,-54,588768,0
588764,959,-3622,1327,-1405,-1875,-3977,-929,-330,33,-415,-384,35681,-36,34,127,0,0,143,-291,0,2005,1448,239,428,1,4,205,-54,588768,0
588774,285,-3130,1114,-1217,-2100,-4666,-1035,-157,166,-61,80,35671,-62,34,127,0,0,130,-109,0,2005,1448,239,438,1,4,205,-54,588768,0
588784,577,-2534,338,-956,-1923,-5312,-983,206,442,289,280,35662,-77,34,127,0,0,112,-148,0,2005,1448,239,448,1,4,205,-54,588768,0
588794,979,-1868,-496,-795,-1667,-5677,-871,234,402,270,352,35667,-76,34,127,0,0,96,-98,0,2005,1448,239,458,1,4,205,-54,588784,0
588804,1466,-1534,-688,-756,-1515,-5689,-744,287,102,371,520,35668,-74,34,127,0,0,93,-49,0,2005,1448,239,468,1,4,205,-54,588784,0
588814,1565,-1708,-879,-895,-1271,-5582,-597,350,69,463,696,35672,-76,34,127,0,0,97,60,0,2005,1448,239,478,1,4,205,-54,588799,0
588824,1071,-2343,-832,-904,-1255,-5511,-415,423,111,467,840,35686,-77,34,127,0,0,112,164,0,2005,1448,239,488,1,4,205,-54,588799,0
588834,1666,-3691,-351,-982,-1192,-5314,-216,419,92,306,584,35694,-57,34,127,0,0,179,686,0,2005,1448,239,498,1,4,205,-54,588815,0
588844,1459,-4229,-98,-1008,-1142,-5311,-38,370,-27,328,680,35691,-44,34,127,0,0,280,1060,0,2005,1448,239,508,1,4,205,-54,588815,0
588854,1162,-4340,338,-1023,-1147,-5265,146,431,-29,574,1216,35687,-52,34,127,0,0,422,1461,0,2005,1448,239,518,1,4,205,-54,588846,0
588864,1433,-4248,437,-978,-943,-5561,399,612,168,683,1536,35692,-38,34,127,0,0,603,1757,0,2005,1448,239,528,1,4,205,-54,588846,0
588874,1747,-3119,478,-923,-655,-6003,706,686,179,492,1480,35695,-22,34,127,0,0,784,1845,0,2005,1448,239,538,1,4,205,-54,588862,0
588884,2009,-3097,621,-799,-645,-6077,1004,630,110,301,1096,35686,-7,34,127,0,0,971,1851,0,2005,1448,239,548,1,4,205,-54,588862,0
588894,1944,-2483,1074,-639,-965,-4921,1249,511,-52,256,808,35679,-23,34,127,0,0,1186,2142,0,2005,1448,239,558,1,4,205,-54,588878,0
588904,2249,-1555,1270,-681,-1292,-4094,1444,424,-204,445,1592,35694,-25,34,127,0,0,1440,2543,0,2005,1448,239,568,1,4,205,-54,588878,0
588914,1851,-487,1243,-773,-1500,-3009,1793,1023,181,1936,3616,35692,-10,34,127,0,0,1698,2570,0,2005,1448,239,578,1,4,205,-54,588893,0
588924,1371,719,950,-807,-1387,-1991,2485,1702,998,1498,4824,35681,37,34,127,0,0,1957,2691,0,2005,1448,239,588,1,4,205,-54,588971,0
588934,380,3374,-450,-991,-545,24,3380,2043,1056,993,5016,35656,74,34,127,0,0,2128,1598,0,2005,1448,239,598,1,4,205,-54,588971,0
588944,957,3368,-1297,-1374,-481,1452,4279,1918,403,277,4128,35641,90,34,127,0,0,2187,538,0,2005,1448,239,608,1,4,205,-54,588987,0
588954,-566,1587,-310,-1031,-923,2939,5038,1549,-279,-69,2328,35647,55,34,127,0,0,2143,-488,0,2005,1448,239,618,0,4,205,-54,588987,0
588964,-557,479,590,-563,-1325,4513,5580,1033,-684,-289,896,35653,-1,34,127,0,0,2125,-60,0,2005,1448,239,628,0,4,205,-54,588987,0
588974,-695,134,1343,-107,-962,6451,5897,566,-857,-122,288,35672,-52,34,127,0,0,2131,65,0,2005,1448,239,638,0,4,205,-54,588987,0
588984,-289,647,1158,-22,-766,7594,6046,234,-757,143,312,35678,-69,34,127,0,0,2173,455,0,2005,1448,239,648,0,4,205,-54,588987,0
588994,-558,641,164,552,-749,8937,6126,192,-466,715,624,35681,-73,34,127,0,0,2239,664,0,2005,1448,239,658,0,4,205,-54,588987,0
589004,-300,648,-15,931,-812,9970,6264,361,-14,965,1288,35677,-71,34,127,0,0,2357,1186,0,2005,1448,239,668,0,4,205,-54,588987,0
589014,143,642,86,1667,-1017,11422,6514,643,332,1196,2176,35676,-69,34,127,0,0,2529,1779,0,2005,1448,239,678,0,4,205,-54,588987,0
589024,530,792,89,2020,-1290,12143,6937,1059,545,1347,3192,35677,-46,34,127,0,0,2732,2081,0,2005,1448,239,688,0,4,205,-54,589003,0
589034,824,1081,-75,2558,-1675,12591,7544,1455,689,1182,3888,35680,-20,34,127,0,0,2927,1983,0,2005,1448,239,698,0,4,205,-54,589034,0
589044,806,960,-258,2979,-2119,12733,8279,1675,606,835,4264,35684,28,34,127,0,0,3122,1955,0,2005,1448,239,708,0,4,205,-54,589034,0
589054,740,529,-286,3810,-2936,13034,9080,1800,371,741,4552,35676,43,34,127,0,0,3314,1966,0,2005,1448,239,718,0,4,205,-54,589034,0
589064,689,337,-264,4292,-3350,13262,9940,1936,233,827,4904,35664,57,34,127,0,0,3521,2169,0,2005,1448,239,728,0,4,205,-54,589034,0
589074,529,168,-215,4800,-3357,13481,10876,2119,253,801,5400,35651,56,34,127,0,0,3752,2427,0,2005,1448,239,738,0,4,205,-54,589049,0
589084,380,86,-250,5030,-3041,13421,11905,2333,325,1034,6040,35656,67,34,127,0,0,4008,2620,0,2005,1448,239,748,0,4,205,-54,589081,0
589094,356,-219,-498,5241,-2172,13115,13021,2498,351,994,6624,35660,89,34,127,0,0,4293,2850,0,2005,1448,239,758,0,4,205,-54,589081,0
589104,468,-633,-809,5390,-1383,12877,14230,2757,328,1088,7400,35649,119,34,127,0,0,4602,3109,0,2005,1448,239,768,0,4,205,-54,589081,0
589114,678,-1200,-1114,5592,-65,12380,15607,3136,508,974,7768,35625,136,34,127,0,0,4897,2960,0,2005,1448,239,778,0,4,205,-54,589081,0
589124,766,-1677,-1122,5721,878,11838,17076,3246,516,897,7992,35618,143,34,127,0,0,5193,2933,0,2005,1448,239,788,0,4,205,-54,589112,0
589134,920,-2331,-979,5869,2411,10615,18564,3277,195,664,8064,35632,149,34,127,0,0,5486,2944,0,2005,1448,239,798,0,4,205,-54,589112,0
589144,999,-2745,-697,5792,3309,9759,20032,3141,16,111,5920,35642,142,34,127,0,0,5748,2691,0,2005,1448,239,808,0,4,205,-54,589128,0
589154,1265,-3492,-239,5286,4350,8557,21232,2374,-533,-818,3432,35656,73,34,127,0,0,5976,2323,0,2005,1448,239,818,0,4,205,-54,589128,0
589164,1371,-4050,122,4673,4630,7841,22015,1480,-1346,-766,1640,35680,-30,34,127,0,0,6205,2246,0,2005,1448,239,828,0,4,205,-54,589159,0
589174,1746,-4862,488,3603,4357,6566,22486,870,-1392,-390,424,35715,-98,34,127,0,0,6432,2219,0,2005,1448,239,838,0,4,205,-54,589159,0
589184,2345,-4734,513,2458,4238,5620,22689,184,-1093,-1087,-416,35725,-124,34,127,0,0,6631,1961,0,2005,1448,239,848,0,4,205,-54,589159,0
589194,2031,-5691,1063,1253,3002,4354,22572,-340,-1156,-609,-824,35707,-91,34,127,0,0,6807,1757,0,2005,1448,239,858,0,4,205,-54,589190,0
589204,1321,-5777,978,909,1531,3145,22374,-487,-764,-695,-1576,35704,-72,34,127,0,0,6937,1230,0,2005,1448,239,868,0,4,205,-54,589190,0
589214,930,-3966,391,212,165,1095,22059,-798,-365,-1103,-2512,35697,-54,34,127,0,0,7022,862,0,2005,1448,239,878,0,4,205,-54,589190,0
589224,843,-3001,173,-4,142,-44,21576,-1166,-550,-1169,-3424,35691,-13,34,127,0,0,7094,675,0,2005,1448,239,888,0,4,205,-54,589221,0
589234,568,-1907,-527,-205,-37,-1699,20938,-1488,-627,-966,-4024,35673,23,34,127,0,0,7176,802,0,2005,1448,239,898,0,4,205,-54,589221,0
589244,642,-1592,-398,-256,-229,-2783,20194,-1691,-497,-791,-4272,35669,51,34,127,0,0,7267,906,0,2005,1448,239,908,0,4,205,-54,589237,0
589254,646,-1831,13,-382,-41,-4112,19387,-1780,-330,-490,-4448,35667,50,34,127,0,0,7358,900,0,2005,1448,239,918,0,4,205,-54,589237,0
589264,1902,-4584,1433,-57,3558,-4706,18551,-1855,-170,-723,-5488,35659,46,34,127,0,0,7205,-2120,0,1915,1517,240,0,1,4,210,-55,589237,0
589274,-786,-7600,1406,-328,3854,-8285,17374,-3153,-631,-4099,-10616,35649,86,34,127,0,0,6697,-5119,0,1915,1517,240,10,1,4,210,-55,589268,0
589284,-1733,-2171,4977,555,4366,-7520,15265,-5255,-2513,-3599,-14512,35571,392,34,127,0,0,6172,-5229,0,1915,1517,240,20,1,4,210,-55,589268,0
589294,1855,-1813,-1551,-1074,1805,-7983,12585,-6055,-2966,-1928,-15552,35467,739,34,127,0,0,5717,-4570,0,1915,1517,240,30,1,4,210,-55,589268,0
589304,-387,-510,-703,-1469,628,-8492,9592,-6803,-1637,-1686,-11592,35403,908,34,127,0,0,5148,-5718,0,1915,1517,240,40,1,4,210,-55,589284,0
589314,-109,-2936,-1990,-161,797,-7042,7260,-3950,510,5734,-2000,35468,586,34,127,0,0,4701,-4454,0,1915,1517,240,50,1,4,210,-55,589315,0
589324,-292,-3065,313,195,753,-6689,7036,1182,5433,9787,9024,35662,-49,34,127,0,0,4237,-4702,0,1915,1517,240,60,1,4,210,-55,589315,0
589334,622,-2614,1348,-21,539,-5467,8885,5091,8207,6473,12920,35602,254,34,127,0,0,3857,-3801,0,1915,1517,240,70,1,4,210,-55,589315,0
589344,877,-2575,1570,-586,336,-4839,11110,4291,4869,-3436,4528,35518,473,34,127,0,0,3514,-3345,0,1915,1517,240,80,1,4,210,-55,589315,0
589354,-351,-1253,379,-835,718,-5145,12053,1202,-1894,-4371,-1328,35478,602,34,127,0,0,3133,-3823,0,1915,1517,240,90,1,4,210,-55,589331,0
589364,330,-1526,-529,-1038,1067,-5520,11694,-1305,-5064,-2829,-4504,35583,241,34,127,0,0,2767,-3685,0,1915,1517,240,100,1,4,210,-55,589362,0
589374,2546,-7692,-1017,-1185,669,-5344,10781,-2271,-3515,-1742,-6104,35744,-217,34,127,0,0,2421,-3350,0,1915,1517,240,110,1,4,210,-55,589362,0
589384,-7616,-6970,5658,-861,-536,-564,9592,-2725,-1567,-722,-5808,35674,101,34,127,0,0,2335,-82,0,1915,1517,240,120,1,4,210,-55,589362,0
589394,780,-350,-347,-1616,-1429,-4609,8498,-2218,-371,342,-3464,35640,178,34,127,0,0,2254,-1082,0,1915,1517,240,130,1,4,210,-55,589377,0
589404,-3374,-4451,663,-2081,-400,-4141,7651,-1733,693,132,-3128,35645,84,34,127,0,0,2121,-1087,0,1915,1517,240,140,1,4,210,-55,589377,0
589414,995,-2639,-1079,-162,417,-5128,6978,-1392,803,-78,-2904,35676,-11,34,127,0,0,1989,-1318,0,1915,1517,240,150,1,4,210,-55,589409,0
589424,2154,-1494,-922,-13,-132,-4256,6399,-1248,514,-301,-2680,35690,-70,34,127,0,0,1898,-818,0,1915,1517,240,160,1,4,210,-55,589409,0
589434,2156,-1050,-736,-330,-795,-3052,5882,-1087,283,-217,-2232,35689,-52,34,127,0,0,1844,-538,0,1915,1517,240,170,1,4,210,-55,589409,0
589444,1422,-1567,-70,-677,-908,-2608,5451,-887,283,-217,-1744,35676,-41,34,127,0,0,1809,-368,0,1915,1517,240,180,1,4,210,-55,589456,0
589454,354,-1599,304,-534,-865,-2977,5115,-687,345,-255,-1368,35680,-36,34,127,0,0,1769,-444,0,1915,1517,240,190,1,4,210,-55,589456,0
589464,283,-1594,49,-303,-327,-3502,4842,-575,311,-461,-1448,35690,-44,34,127,0,0,1705,-747,0,1915,1517,240,200,1,4,210,-55,589456,0
589474,1325,-1758,126,-303,-273,-3428,4560,-646,105,-627,-1664,35692,-34,34,127,0,0,1627,-741,0,1915,1517,240,210,1,4,210,-55,589456,0
589484,1705,-1879,143,-352,-528,-3025,4242,-706,-93,-558,-1712,35678,-34,34,127,0,0,1567,-604,0,1915,1517,240,220,1,4,210,-55,589456,0
589494,1007,-1803,237,-163,-1028,-2731,3918,-710,-85,-492,-1544,35664,-25,34,127,0,0,1521,-444,0,1915,1517,240,230,1,4,210,-55,589471,0
589504,375,-1653,528,-45,-1296,-2925,3605,-663,16,-379,-1384,35666,-49,34,127,0,0,1480,-406,0,1915,1517,240,240,1,4,210,-55,589502,0
589514,391,-1500,785,44,-1137,-3539,3323,-602,90,-451,-1352,35677,-37,34,127,0,0,1420,-626,0,1915,1517,240,250,1,4,210,-55,589502,0
589524,1018,-1404,599,-42,-1003,-3795,3040,-647,61,-602,-1632,35691,-38,34,127,0,0,1343,-774,0,1915,1517,240,260,1,4,210,-55,589502,0
589534,1699,-1218,107,-294,-1122,-3492,2714,-751,-83,-670,-1912,35698,-38,34,127,0,0,1267,-719,0,1915,1517,240,270,1,4,210,-55,589502,0
589544,1744,-1202,69,-430,-1206,-3210,2346,-826,-166,-614,-2048,35689,-22,34,127,0,0,1189,-785,0,1915,1517,240,280,1,4,210,-55,589534,0
589554,1022,-1503,263,-612,-1357,-3001,1952,-876,-118,-549,-2176,35693,-35,34,127,0,0,1120,-774,0,1915,1517,240,290,1,4,210,-55,589534,0
589564,768,-1598,611,-781,-1508,-3063,1543,-920,-68,-598,-2208,35685,-14,34,127,0,0,1054,-714,0,1915,1517,240,300,1,4,210,-55,589549,0
589574,673,-1729,341,-746,-1499,-3531,1171,-916,-47,-582,-2304,35683,-24,34,127,0,0,982,-769,0,1915,1517,240,310,1,4,210,-55,589549,0
589584,702,-1588,168,-642,-1527,-3729,759,-876,-2,-282,-1512,35676,-12,34,127,0,0,894,-862,0,1915,1517,240,320,1,4,210,-55,589565,0
589594,1120,-1274,-173,-450,-1568,-4012,425,-660,177,-109,-840,35675,-44,34,127,0,0,802,-873,0,1915,1517,240,330,1,4,210,-55,589596,0
589604,1131,-1313,-422,-459,-1744,-4096,197,-434,374,-177,-384,35681,-45,34,127,0,0,707,-900,0,1915,1517,240,340,1,4,210,-55,589596,0
589614,986,-2042,-210,-671,-2005,-4086,56,-253,369,-193,-176,35682,-62,34,127,0,0,632,-780,0,1915,1517,240,350,1,4,210,-55,589596,0
589624,689,-2732,80,-889,-1971,-4226,-19,-121,289,-322,-200,35679,-72,34,127,0,0,553,-686,0,1915,1517,240,360,1,4,210,-55,589596,0
589634,370,-2760,489,-1397,-1485,-4514,-67,-120,169,-571,-256,35676,-102,34,127,0,0,502,-560,0,1915,1517,240,370,1,4,210,-55,589612,0
589644,588,-2773,380,-1564,-1444,-4744,-119,-118,23,-488,-184,35678,-108,34,127,0,0,458,-433,0,1915,1517,240,380,1,4,210,-55,589627,0
589654,554,-2374,155,-1535,-1342,-5204,-152,-17,33,-168,8,35690,-86,34,127,0,0,422,-384,0,1915,1517,240,390,1,4,210,-55,589690,0
589664,845,-1832,210,-1306,-1261,-5453,-123,82,174,73,120,35686,-61,34,127,0,0,392,-269,0,1915,1517,240,400,1,4,210,-55,589690,0
589674,1407,-1433,-141,-1076,-1368,-5849,-69,139,157,271,144,35681,-57,34,127,0,0,351,-433,0,1915,1517,240,410,1,4,210,-55,589690,0
589684,1768,-1781,-178,-1056,-1714,-5734,-12,81,39,-9,32,35679,-72,34,127,0,0,333,-241,0,1915,1517,240,420,1,4,210,-55,589690,0
589694,1948,-2584,-112,-938,-2249,-5555,2,-11,-98,-29,8,35684,-81,34,127,0,0,321,-16,0,1915,1517,240,430,1,4,210,-55,589690,0
589704,1590,-3368,68,-908,-2325,-5720,-1,-2,-113,4,8,35678,-99,34,127,0,0,330,98,0,1915,1517,240,440,1,4,210,-55,589690,0
589714,1075,-5127,475,-1124,-2889,-5720,2,7,-4,77,128,35667,-115,34,127,0,0,397,725,0,1915,1517,240,450,1,4,210,-55,589690,0
589724,606,-6000,964,-1148,-2416,-6155,44,151,87,675,520,35670,-119,34,127,0,0,487,955,0,1915,1517,240,460,1,4,210,-55,589706,0
589734,130,-5624,1152,-1369,-1989,-6284,174,340,268,638,984,35688,-105,34,127,0,0,635,1505,0,1915,1517,240,470,1,4,210,-55,589737,0
589744,474,-4570,1087,-1447,-1349,-6273,384,505,315,621,1264,35699,-61,34,127,0,0,826,1977,0,1915,1517,240,480,1,4,210,-55,589752,0
589754,1074,-3069,455,-1184,-1323,-5379,642,592,237,619,1408,35694,-32,34,127,0,0,1067,2455,0,1915,1517,240,490,1,4,210,-55,589752,0
589764,1367,-1767,403,-1075,-1643,-4077,923,626,128,622,1640,35682,-22,34,127,0,0,1374,3098,0,1915,1517,240,500,1,4,210,-55,589752,0
589774,1166,591,463,-660,-1829,-2271,1332,1181,319,2324,4472,35673,-21,34,127,0,0,1714,3367,0,1915,1517,240,510,1,4,210,-55,589752,0
589784,169,2568,58,-472,-1195,-721,2186,2124,1217,1880,5936,35646,51,34,127,0,0,2006,2823,0,1915,1517,240,520,1,4,210,-55,589752,0
589794,1821,3877,-1632,-1355,320,723,3278,2461,1275,672,5560,35625,124,34,127,0,0,2142,1170,0,1915,1517,240,530,1,4,210,-55,589784,0
589804,-388,2361,-1381,-1517,142,1612,4294,2099,208,-89,3248,35632,140,34,127,0,0,2072,-785,0,1915,1517,240,540,0,4,210,-55,589784,0
589814,-285,-220,-12,-778,-793,4160,5034,1374,-771,-739,1264,35655,48,34,127,0,0,2040,-241,0,1915,1517,240,550,0,4,210,-55,589784,0
589824,-130,-761,768,-265,-410,5180,5448,750,-1199,-294,456,35682,-45,34,127,0,0,2045,76,0,1915,1517,240,560,0,4,210,-55,589815,0
589834,-1,-246,929,62,103,6403,5660,364,-968,-66,216,35691,-84,34,127,0,0,2068,252,0,1915,1517,240,570,0,4,210,-55,589815,0
589844,88,209,409,264,362,6932,5751,154,-585,223,152,35689,-77,34,127,0,0,2085,131,0,1915,1517,240,580,0,4,210,-55,589815,0
589854,929,754,-426,519,430,8106,5793,85,-293,472,312,35691,-48,34,127,0,0,2114,340,0,1915,1517,240,590,0,4,210,-55,589831,0
589864,1076,831,-378,808,401,9062,5864,170,-9,760,616,35689,-23,34,127,0,0,2176,648,0,1915,1517,240,600,0,4,210,-55,589846,0
589874,1114,634,297,1155,-331,10502,5996,350,143,936,1240,35688,4,34,127,0,0,2295,1296,0,1915,1517,240,610,0,4,210,-55,589862,0
589884,1170,453,584,1349,-1098,11354,6236,627,302,1213,2200,35679,13,34,127,0,0,2475,1889,0,1915,1517,240,620,0,4,210,-55,589862,0
589894,1424,327,420,1719,-2023,12216,6663,1080,585,1470,3480,35673,12,34,127,0,0,2716,2504,0,1915,1517,240,630,0,4,210,-55,589877,0
589904,1550,414,66,2148,-2295,12424,7324,1608,816,1435,4584,35660,28,34,127,0,0,2977,2581,0,1915,1517,240,640,0,4,210,-55,589893,0
589914,1294,517,-435,2834,-2658,12399,8196,2048,862,1263,5496,35652,70,34,127,0,0,3255,2817,0,1915,1517,240,650,0,4,210,-55,589893,0
589924,1133,535,-490,3281,-2904,12327,9237,2384,727,1104,6200,35630,104,34,127,0,0,3523,2702,0,1915,1517,240,660,0,4,210,-55,589924,0
589934,1230,453,-651,3776,-2846,12205,10400,2633,560,866,6592,35628,117,34,127,0,0,3781,2603,0,1915,1517,240,670,0,4,210,-55,589924,0
589944,1233,276,-678,3979,-2324,11990,11645,2770,392,785,6792,35633,118,34,127,0,0,4024,2471,0,1915,1517,240,680,0,4,210,-55,589924,0
