state_time,accelx,accely,accelz,gyrox,gyroy,gyroz,mot_ang,mot_vel,mot_acc,mot_cur,mot_volt,batt_volt,batt_curr,temperature,status_mn,status_ex,status_re,ank_ang,ank_vel,ank_torque,peak_ank_torque,step_energy,step_count,step_time,gait_state,movement,speed,incline,sys_time,eventFlags
439255,95,-2071,320,-79,37,182,9440,4,-60,407,88,35690,46,33,127,0,0,2876,0,0,1553,-18,180,39407,-4,0,-9,0,439250,0
439265,99,-2061,320,-78,50,174,9441,-2,-3,437,96,35687,44,33,127,0,0,2876,10,0,1553,-18,180,39417,-4,0,-9,0,439250,0
439275,108,-2064,326,-75,48,167,9445,8,5,455,120,35683,36,33,127,0,0,2878,10,0,1553,-18,180,39427,-4,0,-9,0,439250,0
439285,114,-2069,327,-80,46,164,9446,5,10,474,144,35676,28,33,127,0,0,2880,32,0,1553,-18,180,39437,-4,0,-9,0,439266,0
439295,104,-2067,331,-75,42,161,9452,17,7,485,152,35683,22,33,127,0,0,2882,10,0,1553,-18,180,39447,-4,0,-9,0,439282,0
439305,119,-2064,327,-78,41,164,9463,25,17,463,152,35680,12,33,127,0,0,2882,43,0,1553,-18,180,39457,-4,0,-9,0,439282,0
439315,112,-2063,321,-83,47,164,9492,82,41,276,104,35683,23,33,127,0,0,2882,10,0,1553,-18,180,39467,-4,0,-9,0,439297,0
439325,164,-2054,325,-76,38,180,9510,0,7,191,88,35689,24,33,127,0,0,2882,32,0,1553,-18,180,39477,-4,0,-9,0,439329,0
439335,105,-2068,318,-75,38,182,9510,9,-65,281,80,35681,20,33,127,0,0,2885,10,0,1553,-18,180,39487,-4,0,-9,0,439329,0
439345,124,-2051,322,-80,37,179,9510,-1,-21,327,96,35677,26,33,127,0,0,2887,21,0,1553,-18,180,39497,-4,0,-9,0,439329,0
439355,124,-2060,319,-80,36,186,9510,-4,-4,366,128,35674,8,33,127,0,0,2887,10,0,1553,-18,180,39507,-4,0,-9,0,439329,0
439365,143,-2066,323,-79,41,179,9513,0,2,352,112,35681,-7,33,127,0,0,2891,65,0,1553,-18,180,39517,-4,0,-9,0,439344,0
439376,113,-2070,329,-76,34,189,9519,26,8,413,120,35692,1,33,127,0,0,2894,32,0,1553,-18,180,39528,-4,0,-9,0,439360,0
439386,91,-2060,325,-76,41,185,9533,44,27,427,120,35697,2,32,127,0,0,2897,0,0,1553,-18,180,39538,-4,0,-9,0,439375,0
439396,93,-2064,332,-75,32,184,9560,68,43,274,88,35687,4,32,127,0,0,2895,0,0,1553,-18,180,39548,-4,0,-9,0,439391,0
439406,116,-2051,322,-74,33,181,9566,-5,-24,292,88,35680,3,33,127,0,0,2898,-5,0,1553,-18,180,39558,-4,0,-9,0,439391,0
439416,67,-2060,329,-81,38,172,9567,2,-52,364,112,35675,11,33,127,0,0,2900,-10,0,1553,-18,180,39568,-4,0,-9,0,439391,0
439426,80,-2054,321,-79,35,162,9568,1,-4,370,112,35684,-8,33,127,0,0,2903,32,0,1553,-18,180,39578,-4,0,-9,0,439407,0
439436,86,-2053,327,-80,42,157,9573,19,3,452,120,35684,-17,33,127,0,0,2902,-43,0,1553,-18,180,39588,-4,0,-9,0,439407,0
439446,82,-2063,328,-83,35,153,9575,14,13,479,136,35688,-21,33,127,0,0,2904,-38,0,1553,-18,180,39598,-4,0,-9,0,439438,0
439456,95,-2053,325,-79,41,147,9576,-4,-3,450,136,35674,-21,33,127,0,0,2904,5,0,1553,-18,180,39608,-4,0,-9,0,439438,0
439466,95,-2070,326,-86,35,142,9577,3,-3,472,160,35676,-19,33,127,0,0,2906,21,0,1553,-18,180,39618,-4,0,-9,0,439438,0
439476,103,-2062,320,-83,39,146,9578,-3,3,472,152,35682,-30,33,127,0,0,2906,27,0,1553,-18,180,39628,-4,0,-9,0,439454,0
439486,105,-2065,323,-81,34,136,9578,-3,-7,453,152,35682,-24,33,127,0,0,2906,43,0,1553,-18,180,39638,-4,0,-9,0,439469,0
439496,112,-2064,322,-89,38,143,9582,10,3,504,144,35685,-34,33,127,0,0,2906,-32,0,1553,-18,180,39648,-4,0,-9,0,439485,0
439506,104,-2068,326,-82,35,140,9588,12,10,479,160,35668,-25,33,127,0,0,2909,21,0,1553,-18,180,39658,-4,0,-9,0,439485,0
439516,103,-2055,328,-82,36,131,9597,20,11,456,120,35677,-27,33,127,0,0,2910,21,0,1553,-18,180,39668,-4,0,-9,0,439516,0
439526,122,-2061,330,-83,38,135,9620,58,40,259,80,35672,-19,33,127,0,0,2913,104,0,1553,-18,180,39678,-4,0,-9,0,439516,0
439536,110,-2066,324,-85,38,144,9638,20,11,214,56,35671,-13,33,127,0,0,2912,43,0,1553,-18,180,39688,-4,0,-9,0,439516,0
439546,101,-2062,323,-92,33,142,9635,-9,-61,221,56,35673,-1,33,127,0,0,2909,16,0,1553,-18,180,39698,-4,0,-9,0,439532,0
439556,94,-2066,329,-93,33,140,9638,14,-23,238,56,35665,9,33,127,0,0,2915,49,0,1553,-18,180,39708,-4,0,-9,0,439532,0
439566,111,-2073,324,-88,31,146,9639,-3,11,299,72,35675,15,33,127,0,0,2914,43,0,1553,-18,180,39718,-4,0,-9,0,439578,0
439576,96,-2061,327,-89,36,147,9638,-6,-6,285,56,35667,4,33,127,0,0,2919,98,0,1553,-18,180,39728,-4,0,-9,0,439610,0
439586,100,-2064,319,-91,34,150,9641,6,3,355,64,35665,-5,33,127,0,0,2917,49,0,1553,-18,180,39738,-4,0,-9,0,439610,0
439596,95,-2060,320,-89,33,145,9644,7,5,311,104,35658,-7,33,127,0,0,2915,43,0,1553,-18,180,39748,-4,0,-9,0,439610,0
439606,114,-2062,320,-92,34,142,9646,0,-2,339,80,35659,-25,33,127,0,0,2913,16,0,1553,-18,180,39758,-4,0,-9,0,439610,0
439616,108,-2063,327,-88,37,142,9650,6,2,349,96,35662,-22,33,127,0,0,2915,5,0,1553,-18,180,39768,-4,0,-9,0,439610,0
439626,106,-2058,329,-89,37,142,9655,7,7,326,80,35665,-16,33,127,0,0,2915,0,0,1553,-18,180,39778,-4,0,-9,0,439610,0
439637,104,-2066,325,-92,32,141,9665,23,8,288,64,35667,-14,33,127,0,0,2917,32,0,1553,-18,180,39789,-4,0,-9,0,439625,0
439647,95,-2061,322,-94,29,142,9683,51,22,191,64,35663,3,33,127,0,0,2917,10,0,1553,-18,180,39799,-4,0,-9,0,439625,0
439657,114,-2062,318,-90,28,149,9691,7,-3,170,32,35668,7,33,127,0,0,2917,0,0,1553,-18,180,39809,-4,0,-9,0,439641,0
439667,87,-2062,318,-85,34,144,9692,10,-35,185,32,35675,11,33,127,0,0,2917,-21,0,1553,-18,180,39819,-4,0,-9,0,439657,0
439677,92,-2065,321,-85,40,145,9691,-4,-13,187,32,35673,21,33,127,0,0,2920,10,0,1553,-18,180,39829,-4,0,-9,0,439657,0
439687,103,-2062,319,-85,36,150,9691,0,-3,206,56,35668,20,33,127,0,0,2920,21,0,1553,-18,180,39839,-4,0,-9,0,439672,0
439697,118,-2060,321,-82,38,155,9691,0,1,230,40,35667,16,33,127,0,0,2922,21,0,1553,-18,180,39849,-4,0,-9,0,439688,0
439707,109,-2057,316,-75,30,161,9691,-6,-3,230,80,35662,15,33,127,0,0,2922,32,0,1553,-18,180,39859,-4,0,-9,0,439688,0
439717,107,-2063,326,-78,35,161,9694,-2,5,260,104,35670,18,33,127,0,0,2922,21,0,1553,-18,180,39869,-4,0,-9,0,439703,0
439727,112,-2069,319,-80,34,164,9698,7,3,262,88,35663,17,33,127,0,0,2926,54,0,1553,-18,180,39879,-4,0,-9,0,439703,0
439737,105,-2076,329,-80,34,161,9703,10,6,328,56,35661,15,33,127,0,0,2926,10,0,1553,-18,180,39889,-4,0,-9,0,439719,0
439747,90,-2066,325,-85,34,162,9705,0,-8,358,112,35668,23,33,127,0,0,2928,21,0,1553,-18,180,39899,-4,0,-9,0,439735,0
439757,84,-2058,330,-80,32,158,9707,10,-7,387,112,35670,18,33,127,0,0,2928,-21,0,1553,-18,180,39909,-4,0,-9,0,439735,0
439767,93,-2061,322,-79,34,152,9708,1,0,380,136,35673,11,33,127,0,0,2933,54,0,1553,-18,180,39919,-4,0,-9,0,439750,0
439777,98,-2066,319,-78,39,152,9711,6,-2,393,120,35669,5,33,127,0,0,2931,32,0,1553,-18,180,39929,-4,0,-9,0,439766,0
439787,102,-2064,322,-85,35,147,9717,10,8,388,96,35661,19,33,127,0,0,2933,10,0,1553,-18,180,39939,-4,0,-9,0,439766,0
439797,86,-2061,321,-76,30,143,9725,21,10,398,80,35664,24,33,127,0,0,2933,0,0,1553,-18,180,39949,-4,0,-9,0,439782,0
439807,79,-2059,323,-84,37,134,9746,60,35,292,64,35662,18,33,127,0,0,2935,21,0,1553,-18,180,39959,-4,0,-9,0,439782,0
439817,113,-2067,327,-83,30,146,9764,20,16,161,8,35669,12,33,127,0,0,2933,-10,0,1553,-18,180,39969,-4,0,-9,0,439813,0
439827,59,-2065,318,-83,31,139,9762,21,-46,242,64,35667,10,33,127,0,0,2935,0,0,1553,-18,180,39979,-4,0,-9,0,439813,0
439837,86,-2053,318,-87,40,133,9761,-2,-16,241,64,35664,13,33,127,0,0,2935,0,0,1553,-18,180,39989,-4,0,-9,0,439813,0
439847,107,-2069,332,-81,35,133,9760,-8,-2,231,96,35673,10,33,127,0,0,2935,0,0,1553,-18,180,39999,-4,0,-9,0,439828,0
439857,104,-2063,333,-85,37,132,9761,-6,-1,240,96,35667,16,33,127,0,0,2937,32,0,1553,-18,180,40009,-4,0,-9,0,439844,0
439867,107,-2071,323,-87,35,141,9763,-1,2,311,80,35675,15,33,127,0,0,2939,32,0,1553,-18,180,40019,-4,0,-9,0,439844,0
439878,112,-2062,321,-86,27,137,9761,-11,-7,301,104,35683,7,33,127,0,0,2939,65,0,1553,-18,180,40030,-4,0,-9,0,439860,0
439888,99,-2068,318,-86,33,145,9764,-7,-4,329,80,35688,3,33,127,0,0,2941,38,0,1553,-18,180,40040,-4,0,-9,0,439875,0
439898,101,-2064,319,-91,31,140,9764,-1,-7,338,112,35683,10,33,127,0,0,2938,49,0,1553,-18,180,40050,-4,0,-9,0,439891,0
439908,97,-2067,319,-81,33,146,9767,4,-1,368,112,35669,14,33,127,0,0,2942,21,0,1553,-18,180,40060,-4,0,-9,0,439891,0
439918,89,-2056,330,-85,34,139,9766,0,-7,360,96,35667,16,33,127,0,0,2943,38,0,1553,-18,180,40070,-4,0,-9,0,439907,0
439928,86,-2059,332,-87,32,137,9767,1,-4,420,136,35667,3,33,127,0,0,2944,32,0,1553,-18,180,40080,-4,0,-9,0,439907,0
439938,88,-2060,331,-94,33,128,9773,8,10,417,120,35665,-3,33,127,0,0,2941,-32,0,1553,-18,180,40090,-4,0,-9,0,439922,0
439948,94,-2056,324,-86,37,125,9772,-6,-5,403,104,35668,-20,33,127,0,0,2945,-10,0,1553,-18,180,40100,-4,0,-9,0,439922,0
439958,78,-2059,322,-87,40,123,9773,0,-10,413,104,35666,-6,33,127,0,0,2945,0,0,1553,-18,180,40110,-4,0,-9,0,439938,0
439968,60,-2064,320,-85,37,122,9773,-5,1,385,104,35672,2,33,127,0,0,2942,-10,0,1553,-18,180,40120,-4,0,-9,0,439969,0
439978,97,-2066,315,-90,39,114,9774,17,-1,403,120,35669,1,33,127,0,0,2941,-16,0,1553,-18,180,40130,-4,0,-9,0,439985,0
439988,104,-2066,322,-89,37,117,9774,4,3,424,120,35669,3,33,127,0,0,2944,-10,0,1553,-18,180,40140,-4,0,-9,0,440000,0
439998,93,-2060,330,-82,34,114,9775,0,0,439,120,35666,-13,33,127,0,0,2944,0,0,1553,-18,180,40150,-4,0,-9,0,440016,0
440008,100,-2058,328,-85,37,121,9774,-8,-5,416,120,35666,6,33,127,0,0,2944,27,0,1553,-18,180,40160,-4,0,-9,0,440016,0
440018,101,-2059,332,-94,39,123,9774,-6,1,402,120,35673,-3,33,127,0,0,2944,21,0,1553,-18,180,40170,-4,0,-9,0,440016,0
440028,95,-2069,323,-94,32,123,9776,3,7,429,120,35674,-4,33,127,0,0,2944,0,0,1553,-18,180,40180,-4,0,-9,0,440016,0
440038,103,-2070,321,-91,33,126,9776,0,-3,419,120,35676,-2,33,127,0,0,2944,27,0,1553,-18,180,40190,-4,0,-9,0,440016,0
440048,105,-2069,316,-96,35,128,9777,0,-3,439,112,35683,-5,33,127,0,0,2941,-32,0,1553,-18,180,40200,-4,0,-9,0,440016,0
440058,88,-2062,327,-96,30,132,9776,5,1,423,136,35687,-4,33,127,0,0,2943,-5,0,1553,-18,180,40210,-4,0,-9,0,440047,0
440068,102,-2063,321,-89,27,135,9777,3,1,433,112,35676,5,33,127,0,0,2947,27,0,1553,-18,180,40220,-4,0,-9,0,440063,0
440078,84,-2063,325,-91,30,133,9780,12,3,467,112,35672,-11,33,127,0,0,2947,-5,0,1553,-18,180,40230,-4,0,-9,0,440063,0
440088,87,-2052,327,-94,33,131,9781,5,-2,465,128,35666,-7,33,127,0,0,2946,-16,0,1553,-18,180,40240,-4,0,-9,0,440063,0
440098,86,-2070,323,-92,37,128,9783,4,2,447,120,35675,-26,33,127,0,0,2949,16,0,1553,-18,180,40250,-4,0,-9,0,440094,0
440108,89,-2057,328,-87,35,132,9786,5,4,420,120,35673,-26,33,127,0,0,2946,10,0,1553,-18,180,40260,-4,0,-9,0,440094,0
440118,82,-2064,314,-89,32,128,9793,28,12,443,144,35671,-19,33,127,0,0,2950,0,0,1553,-18,180,40270,-4,0,-9,0,440094,0
440129,93,-2064,317,-95,33,131,9819,71,42,292,64,35679,-12,33,127,0,0,2950,-10,0,1553,-18,180,40281,-4,0,-9,0,440110,0
440139,103,-2058,321,-85,26,137,9825,-8,-5,263,96,35685,-7,33,127,0,0,2950,32,0,1553,-18,180,40291,-4,0,-9,0,440110,0
440149,94,-2065,328,-88,29,129,9827,12,-43,309,80,35690,-7,33,127,0,0,2950,0,0,1553,-18,180,40301,-4,0,-9,0,440141,0
440159,78,-2064,323,-90,33,128,9825,1,-2,322,80,35682,-14,33,127,0,0,2953,21,0,1553,-18,180,40311,-4,0,-9,0,440141,0
440169,99,-2066,320,-95,31,121,9826,5,-2,342,112,35677,-19,33,127,0,0,2950,0,0,1553,-18,180,40321,-4,0,-9,0,440141,0
440179,104,-2069,325,-94,34,126,9825,-4,2,330,112,35676,-11,33,127,0,0,2950,0,0,1553,-18,180,40331,-4,0,-9,0,440172,0
440189,79,-2060,320,-89,37,123,9825,0,-5,332,112,35679,-16,33,127,0,0,2953,32,0,1553,-18,180,40341,-4,0,-9,0,440172,0
440199,100,-2064,318,-87,32,132,9827,-6,1,325,80,35677,-15,33,127,0,0,2950,0,0,1553,-18,180,40351,-4,0,-9,0,440172,0
440209,105,-2067,323,-92,34,131,9827,2,-1,327,112,35672,-10,33,127,0,0,2953,21,0,1553,-18,180,40361,-4,0,-9,0,440188,0
440219,86,-2065,319,-91,34,126,9827,3,1,354,96,35669,-4,33,127,0,0,2950,0,0,1553,-18,180,40371,-4,0,-9,0,440203,0
440229,81,-2066,323,-96,31,123,9826,-2,-1,352,104,35674,7,33,127,0,0,2953,0,0,1553,-18,180,40381,-4,0,-9,0,440203,0
440239,92,-2061,321,-90,32,130,9826,-7,-1,367,136,35670,-13,33,127,0,0,2950,10,0,1553,-18,180,40391,-4,0,-9,0,440219,0
440249,85,-2053,325,-94,38,123,9829,-4,2,375,88,35671,-30,33,127,0,0,2953,-43,0,1553,-18,180,40401,-4,0,-9,0,440235,0
440259,75,-2056,324,-87,36,119,9829,6,-5,383,128,35671,-17,33,127,0,0,2955,21,0,1553,-18,180,40411,-4,0,-9,0,440235,0
440269,84,-2070,317,-86,36,124,9830,-4,-4,388,128,35673,-19,33,127,0,0,2955,0,0,1553,-18,180,40421,-4,0,-9,0,440266,0
440279,98,-2068,325,-91,34,124,9830,0,-1,393,80,35664,5,33,127,0,0,2957,21,0,1553,-18,180,40431,-4,0,-9,0,440281,0
440289,95,-2071,313,-90,32,129,9835,19,10,461,96,35669,2,33,127,0,0,2953,-54,0,1553,-18,180,40441,-4,0,-9,0,440281,0
440299,88,-2056,317,-90,31,122,9833,0,-7,419,128,35672,0,33,127,0,0,2955,-10,0,1553,-18,180,40451,-4,0,-9,0,440281,0
440309,76,-2063,314,-88,34,114,9835,-5,-5,416,96,35669,-13,33,127,0,0,2955,0,0,1553,-18,180,40461,-4,0,-9,0,440281,0
440319,89,-2065,324,-91,41,126,9836,4,5,430,136,35670,3,33,127,0,0,2957,-32,0,1553,-18,180,40471,-4,0,-9,0,440313,0
440329,74,-2072,317,-85,38,129,9836,8,1,442,120,35669,6,33,127,0,0,2955,-21,0,1553,-18,180,40481,-4,0,-9,0,440313,0
440339,81,-2064,324,-85,34,116,9836,-1,-2,435,120,35670,9,33,127,0,0,2955,-21,0,1553,-18,180,40491,-4,0,-9,0,440313,0
440349,65,-2071,324,-86,33,114,9836,2,-2,437,120,35665,-2,33,127,0,0,2959,21,0,1553,-18,180,40501,-4,0,-9,0,440344,0
440359,76,-2066,324,-87,36,115,9837,1,3,450,120,35662,-22,33,127,0,0,2959,43,0,1553,-18,180,40511,-4,0,-9,0,440344,0
440369,102,-2065,318,-91,31,116,9837,0,7,476,144,35663,-24,33,127,0,0,2957,-21,0,1553,-18,180,40521,-4,0,-9,0,440344,0
440380,89,-2060,313,-84,34,111,9837,3,2,450,120,35666,-32,33,127,0,0,2957,-27,0,1553,-18,180,40532,-4,0,-9,0,440360,0
440390,75,-2075,313,-85,28,119,9836,1,-3,450,104,35678,-17,33,127,0,0,2958,-32,0,1553,-18,180,40542,-4,0,-9,0,440391,0
440400,64,-2069,315,-84,33,113,9836,4,3,453,104,35679,-13,33,127,0,0,2955,-27,0,1553,-18,180,40552,-4,0,-9,0,440406,0
440410,70,-2064,321,-87,41,104,9836,0,-4,463,120,35671,-3,33,127,0,0,2960,0,0,1553,-18,180,40562,-4,0,-9,0,440406,0
440420,84,-2065,325,-88,30,109,9836,-12,-2,449,104,35662,-5,33,127,0,0,2961,60,0,1553,-18,180,40572,-4,0,-9,0,440406,0
440430,101,-2062,321,-90,32,115,9836,-11,-6,441,144,35654,-15,33,127,0,0,2953,10,0,1553,-18,180,40582,-4,0,-9,0,440406,0
440440,102,-2058,311,-88,31,106,9837,-2,0,457,120,35661,-15,33,127,0,0,2957,-27,0,1553,-18,180,40592,-4,0,-9,0,440422,0
440450,78,-2060,309,-85,32,108,9837,-1,0,430,104,35674,-11,33,127,0,0,2958,-16,0,1553,-18,180,40602,-4,0,-9,0,440438,0
440460,68,-2060,316,-87,41,106,9836,5,-8,404,120,35671,15,33,127,0,0,2957,32,0,1553,-18,180,40612,-4,0,-9,0,440438,0
440470,97,-2066,316,-76,42,100,9837,-1,3,428,120,35670,5,33,127,0,0,2957,0,0,1553,-18,180,40622,-4,0,-9,0,440453,0
440480,101,-2071,321,-78,37,106,9837,5,-2,444,120,35671,10,33,127,0,0,2954,-60,0,1553,-18,180,40632,-4,0,-9,0,440469,0
440490,100,-2065,324,-82,35,108,9836,0,-1,390,104,35681,12,33,127,0,0,2955,10,0,1553,-18,180,40642,-4,0,-9,0,440469,0
440500,121,-2071,323,-84,33,104,9837,-5,2,413,120,35676,13,33,127,0,0,2957,16,0,1553,-18,180,40652,-4,0,-9,0,440485,0
440510,113,-2059,324,-85,34,110,9837,0,2,401,128,35669,12,33,127,0,0,2954,38,0,1553,-18,180,40662,-4,0,-9,0,440500,0
440520,122,-2064,318,-85,38,107,9836,-10,-2,392,120,35668,2,33,127,0,0,2957,10,0,1553,-18,180,40672,-4,0,-9,0,440516,0
440530,112,-2067,320,-84,37,103,9837,-1,0,409,120,35671,7,33,127,0,0,2954,-5,0,1553,-18,180,40682,-4,0,-9,0,440516,0
440540,105,-2066,317,-83,32,115,9838,7,-2,415,120,35673,11,33,127,0,0,2954,-16,0,1553,-18,180,40692,-4,0,-9,0,440516,0
440550,70,-2065,320,-86,41,108,9837,0,1,419,104,35666,-8,33,127,0,0,2958,10,0,1553,-18,180,40702,-4,0,-9,0,440547,0
440560,83,-2057,324,-82,35,106,9836,-7,2,405,104,35659,-3,33,127,0,0,2958,38,0,1553,-18,180,40712,-4,0,-9,0,440547,0
440570,93,-2066,325,-88,37,107,9837,-3,2,410,104,35659,-7,33,127,0,0,2955,5,0,1553,-18,180,40722,-4,0,-9,0,440563,0
440580,95,-2067,321,-83,34,110,9836,2,-2,376,104,35656,4,33,127,0,0,2955,27,0,1553,-18,180,40732,-4,0,-9,0,440563,0
440590,79,-2061,327,-83,33,108,9836,3,1,386,96,35652,5,33,127,0,0,2955,-10,0,1553,-18,180,40742,-4,0,-9,0,440625,0
440600,88,-2059,320,-83,31,112,9836,-2,2,371,104,35653,12,33,127,0,0,2955,16,0,1553,-18,180,40752,-4,0,-9,0,440625,0
440610,111,-2055,314,-84,36,113,9837,-3,-1,369,104,35658,3,33,127,0,0,2955,27,0,1553,-18,180,40762,-4,0,-9,0,440625,0
440620,105,-2054,315,-86,34,112,9836,-7,-3,383,80,35667,-8,33,127,0,0,2956,-5,0,1553,-18,180,40772,-4,0,-9,0,440641,0
440630,98,-2056,311,-78,33,122,9836,-3,-2,364,104,35660,-3,33,127,0,0,2955,27,0,1553,-18,180,40782,-4,0,-9,0,440641,0
440640,97,-2049,322,-79,37,122,9836,-5,-4,389,104,35655,4,33,127,0,0,2958,32,0,1553,-18,180,40792,-4,0,-9,0,440641,0
440650,109,-2064,319,-80,37,126,9837,-4,2,391,104,35654,-6,33,127,0,0,2955,10,0,1553,-18,180,40802,-4,0,-9,0,440641,0
440661,92,-2065,319,-79,37,129,9836,0,2,387,104,35653,1,33,127,0,0,2955,0,0,1553,-18,180,40813,-4,0,-9,0,440641,0
440671,88,-2068,322,-84,41,131,9835,-4,-3,386,104,35670,-7,33,127,0,0,2955,-10,0,1553,-18,180,40823,-4,0,-9,0,440641,0
440681,75,-2071,318,-85,38,131,9838,11,6,405,96,35681,-6,33,127,0,0,2955,-21,0,1553,-18,180,40833,-4,0,-9,0,440656,0
440691,68,-2062,321,-84,34,129,9837,0,2,409,120,35687,-6,33,127,0,0,2955,-10,0,1553,-18,180,40843,-4,0,-9,0,440703,0
440701,70,-2069,325,-87,30,123,9837,0,-3,407,128,35679,-11,33,127,0,0,2957,10,0,1553,-18,180,40853,-4,0,-9,0,440703,0
440711,86,-2061,323,-85,37,118,9836,-10,0,404,128,35674,7,33,127,0,0,2957,21,0,1553,-18,180,40863,-4,0,-9,0,440703,0
440721,95,-2068,324,-89,35,117,9838,7,3,407,128,35658,-4,33,127,0,0,2957,21,0,1553,-18,180,40873,-4,0,-9,0,440703,0
440731,84,-2064,328,-95,36,117,9836,3,0,400,88,35651,-4,33,127,0,0,2957,21,0,1553,-18,180,40883,-4,0,-9,0,440719,0
440741,107,-2062,324,-93,31,115,9837,-1,-1,400,104,35657,-11,33,127,0,0,2955,10,0,1553,-18,180,40893,-4,0,-9,0,440719,0
440751,106,-2071,314,-96,31,114,9836,-2,-2,374,136,35672,18,33,127,0,0,2957,54,0,1553,-18,180,40903,-4,0,-9,0,440766,0
440761,78,-2050,318,-94,32,111,9837,-9,-1,416,120,35675,20,33,127,0,0,2957,10,0,1553,-18,180,40913,-4,0,-9,0,440766,0
440771,65,-2062,325,-92,38,114,9837,-3,0,421,120,35672,23,33,127,0,0,2957,10,0,1553,-18,180,40923,-4,0,-9,0,440766,0
440781,86,-2063,314,-90,33,108,9837,3,-2,432,120,35661,-1,33,127,0,0,2955,-21,0,1553,-18,180,40933,-4,0,-9,0,440781,0
440791,89,-2060,318,-90,31,110,9836,-4,-1,396,104,35658,8,33,127,0,0,2957,10,0,1553,-18,180,40943,-4,0,-9,0,440781,0
440801,101,-2063,317,-91,33,105,9838,2,2,416,88,35658,7,33,127,0,0,2957,-10,0,1553,-18,180,40953,-4,0,-9,0,440781,0
440811,75,-2064,316,-89,32,113,9838,9,4,419,88,35664,5,33,127,0,0,2955,-32,0,1553,-18,180,40963,-4,0,-9,0,440781,0
440821,86,-2064,306,-86,30,117,9838,7,1,408,96,35672,1,33,127,0,0,2955,0,0,1553,-18,180,40973,-4,0,-9,0,440813,0
440831,96,-2054,313,-88,35,106,9836,-5,-1,399,136,35679,-7,33,127,0,0,2957,32,0,1553,-18,180,40983,-4,0,-9,0,440813,0
440841,95,-2072,314,-84,34,113,9838,-6,6,425,120,35674,6,33,127,0,0,2955,-32,0,1553,-18,180,40993,-4,0,-9,0,440828,0
440851,84,-2063,314,-82,32,112,9837,2,-2,396,56,35671,2,33,127,0,0,2955,-32,0,1553,-18,180,41003,-4,0,-9,0,440828,0
440861,105,-2079,315,-76,31,119,9837,6,4,403,88,35664,10,33,127,0,0,2955,-10,0,1553,-18,180,41013,-4,0,-9,0,440859,0
440871,91,-2064,308,-73,33,112,9837,1,0,421,120,35670,13,33,127,0,0,2955,-32,0,1553,-18,180,41023,-4,0,-9,0,440859,0
440881,75,-2066,316,-73,35,119,9837,1,-2,426,128,35675,3,33,127,0,0,2957,-21,0,1553,-18,180,41033,-4,0,-9,0,440859,0
440892,66,-2064,318,-73,30,117,9837,3,2,417,144,35676,14,33,127,0,0,2956,27,0,1553,-18,180,41044,-4,0,-9,0,440875,0
440902,107,-2062,317,-70,38,111,9836,-5,1,394,104,35676,14,33,127,0,0,2958,27,0,1553,-18,180,41054,-4,0,-9,0,440891,0
440912,99,-2071,321,-76,42,116,9838,3,-1,411,120,35679,15,33,127,0,0,2957,27,0,1553,-18,180,41064,-4,0,-9,0,440906,0
440922,92,-2052,316,-70,33,118,9837,-5,-1,379,104,35687,16,33,127,0,0,2955,27,0,1553,-18,180,41074,-4,0,-9,0,440906,0
440932,93,-2055,313,-72,35,126,9836,0,-3,396,104,35687,42,33,127,0,0,2955,5,0,1553,-18,180,41084,-4,0,-9,0,440906,0
440942,81,-2046,315,-71,31,122,9835,-7,-2,394,120,35688,36,33,127,0,0,2957,38,0,1553,-18,180,41094,-4,0,-9,0,440938,0
440952,92,-2053,321,-65,37,126,9837,2,-3,399,120,35686,10,33,127,0,0,2957,32,0,1553,-18,180,41104,-4,0,-9,0,440953,0
440962,104,-2060,327,-68,41,126,9838,3,3,409,120,35687,-12,33,127,0,0,2954,-27,0,1553,-18,180,41114,-4,0,-9,0,440953,0
440972,90,-2072,323,-71,31,126,9837,2,-4,382,104,35676,6,33,127,0,0,2958,32,0,1553,-18,180,41124,-4,0,-9,0,440953,0
440982,95,-2068,322,-72,33,132,9838,5,0,426,120,35673,15,33,127,0,0,2957,0,0,1553,-18,180,41134,-4,0,-9,0,440984,0
440992,96,-2071,316,-69,41,135,9838,8,1,423,80,35676,14,33,127,0,0,2959,16,0,1553,-18,180,41144,-4,0,-9,0,440984,0
441002,88,-2073,322,-71,35,140,9839,8,2,465,120,35677,18,33,127,0,0,2957,-21,0,1553,-18,180,41154,-4,0,-9,0,440984,0
441012,111,-2069,330,-72,32,142,9837,-1,3,452,144,35678,8,33,127,0,0,2956,0,0,1553,-18,180,41164,-4,0,-9,0,440984,0
441022,114,-2070,329,-73,38,150,9839,2,-1,478,136,35670,10,33,127,0,0,2959,-10,0,1553,-18,180,41174,-4,0,-9,0,441000,0
441032,100,-2064,330,-78,39,157,9840,7,3,495,136,35676,3,33,127,0,0,2959,-27,0,1553,-18,180,41184,-4,0,-9,0,441094,0
441042,92,-2064,333,-81,30,163,9840,2,2,508,176,35683,2,33,127,0,0,2960,27,0,1553,-18,180,41194,-4,0,-9,0,441094,0
441052,90,-2057,335,-88,34,162,9843,-6,5,493,176,35685,5,33,127,0,0,2967,71,0,1553,-18,180,41204,-4,0,-9,0,441094,0
441062,72,-2073,328,-84,28,160,9853,32,10,545,160,35680,3,33,127,0,0,2967,16,0,1553,-18,180,41214,-4,0,-9,0,441109,0
441072,73,-2055,324,-95,28,151,9875,67,35,473,144,35673,17,33,127,0,0,2966,-32,0,1553,-18,180,41224,-4,0,-9,0,441109,0
441082,79,-2060,324,-93,32,146,9907,61,48,320,72,35671,14,33,127,0,0,2969,-43,0,1553,-18,180,41234,-4,0,-9,0,441125,0
441092,86,-2046,322,-93,26,139,9907,-6,-48,332,112,35674,9,33,127,0,0,2967,21,0,1553,-18,180,41244,-4,0,-9,0,441125,0
441102,77,-2055,315,-92,40,136,9908,-3,-61,322,88,35676,7,33,127,0,0,2965,-32,0,1553,-18,180,41254,-4,0,-9,0,441125,0
441112,73,-2057,304,-90,38,123,9906,0,-5,343,112,35675,15,33,127,0,0,2970,21,0,1553,-18,180,41264,-4,0,-9,0,441125,0
441122,89,-2049,319,-90,40,122,9909,-5,1,352,104,35678,24,33,127,0,0,2970,21,0,1553,-18,180,41274,-4,0,-9,0,441125,0
441133,89,-2060,323,-89,27,120,9911,5,1,354,80,35685,22,33,127,0,0,2968,-10,0,1553,-18,180,41285,-4,0,-9,0,441125,0
441143,91,-2067,323,-95,32,118,9910,9,-2,349,72,35697,44,33,127,0,0,2970,10,0,1553,-18,180,41295,-4,0,-9,0,441125,0
441153,73,-2071,326,-95,32,119,9910,8,0,348,40,35699,55,33,127,0,0,2966,-54,0,1553,-18,180,41305,-4,0,-9,0,441125,0
441163,76,-2071,320,-97,31,112,9908,4,-3,333,72,35708,69,33,127,0,0,2970,10,0,1553,-18,180,41315,-4,0,-9,0,441156,0
441173,81,-2076,324,-102,30,126,9910,-5,8,368,72,35700,46,33,127,0,0,2970,0,0,1553,-18,180,41325,-4,0,-9,0,441156,0
441183,69,-2073,326,-95,27,120,9911,5,-1,368,72,35694,36,33,127,0,0,2970,0,0,1553,-18,180,41335,-4,0,-9,0,441156,0
441193,90,-2075,321,-94,31,115,9911,6,3,351,72,35687,56,33,127,0,0,2970,10,0,1553,-18,180,41345,-4,0,-9,0,441172,0
441203,73,-2066,329,-99,30,116,9910,0,2,371,104,35690,66,33,127,0,0,2966,-32,0,1553,-18,180,41355,-4,0,-9,0,441187,0
441213,67,-2067,324,-102,31,109,9909,0,-3,340,104,35691,49,33,127,0,0,2968,-21,0,1553,-18,180,41365,-4,0,-9,0,441203,0
441223,57,-2048,316,-99,30,108,9910,2,-1,367,104,35691,39,33,127,0,0,2968,-32,0,1553,-18,180,41375,-4,0,-9,0,441203,0
441233,87,-2071,310,-99,34,116,9910,-2,3,344,80,35686,15,33,127,0,0,2970,0,0,1553,-18,180,41385,-4,0,-9,0,441219,0
441243,92,-2060,308,-98,35,118,9910,7,1,354,80,35683,34,33,127,0,0,2970,0,0,1553,-18,180,41395,-4,0,-9,0,441250,0
441253,97,-2062,314,-99,31,119,9910,5,3,374,104,35680,20,33,127,0,0,2968,-32,0,1553,-18,180,41405,-4,0,-9,0,441250,0
441263,93,-2065,312,-93,36,118,9909,-3,-4,349,112,35683,11,33,127,0,0,2970,21,0,1553,-18,180,41415,-4,0,-9,0,441250,0
441273,89,-2060,321,-88,37,123,9911,-8,1,360,104,35683,22,33,127,0,0,2968,0,0,1553,-18,180,41425,-4,0,-9,0,441250,0
441283,96,-2068,319,-98,34,120,9911,0,0,352,72,35681,31,33,127,0,0,2968,-32,0,1553,-18,180,41435,-4,0,-9,0,441328,0
441293,80,-2064,324,-91,39,124,9911,-4,3,347,72,35682,35,33,127,0,0,2968,0,0,1553,-18,180,41445,-4,0,-9,0,441328,0
441303,87,-2065,320,-91,38,126,9911,1,-5,342,112,35683,29,33,127,0,0,2970,21,0,1553,-18,180,41455,-4,0,-9,0,441328,0
441313,84,-2069,323,-97,30,128,9912,0,6,345,80,35690,5,33,127,0,0,2970,43,0,1553,-18,180,41465,-4,0,-9,0,441344,0
441323,80,-2071,315,-96,29,129,9913,1,7,331,104,35686,21,33,127,0,0,2968,10,0,1553,-18,180,41475,-4,0,-9,0,441344,0
441333,80,-2072,320,-96,31,116,9912,0,-3,341,96,35688,26,33,127,0,0,2970,21,0,1553,-18,180,41485,-4,0,-9,0,441344,0
441343,73,-2074,321,-102,32,110,9915,11,3,371,96,35685,32,33,127,0,0,2970,-32,0,1553,-18,180,41495,-4,0,-9,0,441344,0
441353,81,-2071,315,-101,33,112,9916,0,-3,314,72,35690,12,33,127,0,0,2970,0,0,1553,-18,180,41505,-4,0,-9,0,441344,0
441363,56,-2066,315,-95,33,110,9917,13,-5,348,88,35688,23,33,127,0,0,2970,-10,0,1553,-18,180,41515,-4,0,-9,0,441344,0
441374,82,-2065,311,-96,33,94,9927,25,22,281,88,35688,51,33,127,0,0,2966,-43,0,1553,-18,180,41526,-4,0,-9,0,441359,0
441384,100,-2064,318,-91,28,95,9943,37,25,126,40,35696,63,33,127,0,0,2973,10,0,1553,-18,180,41536,-4,0,-9,0,441422,0
441394,80,-2064,316,-98,30,97,9949,7,-6,121,0,35704,37,33,127,0,0,2971,5,0,1553,-18,180,41546,-4,0,-9,0,441437,0
441404,55,-2062,321,-93,31,89,9950,9,-30,152,24,35705,13,33,127,0,0,2970,-32,0,1553,-18,180,41556,-4,0,-9,0,441437,0
441414,74,-2059,323,-97,28,92,9948,-4,-16,102,32,35694,22,33,127,0,0,2970,16,0,1553,-18,180,41566,-4,0,-9,0,441453,0
441424,96,-2060,308,-102,19,86,9950,6,3,108,0,35676,46,33,127,0,0,2968,-38,0,1553,-18,180,41576,-4,0,-9,0,441531,0
441434,71,-2056,314,-103,27,86,9951,24,8,93,24,35677,43,33,127,0,0,2970,-21,0,1553,-18,180,41586,-4,0,-9,0,441562,0
441444,65,-2052,319,-98,26,89,9947,-4,-2,94,0,35678,20,33,127,0,0,2971,10,0,1553,-18,180,41596,-4,0,-9,0,441562,0
441454,90,-2064,316,-94,30,95,9950,3,0,114,24,35686,7,33,127,0,0,2967,-32,0,1553,-18,180,41606,-4,0,-9,0,441562,0
441464,96,-2068,312,-97,29,89,9946,-7,-4,45,32,35682,25,33,127,0,0,2964,-27,0,1553,-18,180,41616,-4,0,-9,0,441562,0
441474,110,-2063,313,-94,32,93,9947,-9,1,-8,8,35684,28,33,127,0,0,2968,5,0,1553,-18,180,41626,-4,0,-9,0,441562,0
441484,100,-2077,315,-100,30,99,9948,-7,-2,-2,-16,35692,21,33,127,0,0,2969,10,0,1553,-18,180,41636,-4,0,-9,0,441578,0
441494,95,-2069,305,-97,25,109,9948,11,4,0,-16,35688,40,33,127,0,0,2969,0,0,1553,-18,180,41646,-4,0,-9,0,441594,0
441504,81,-2071,315,-94,29,104,9947,3,3,25,8,35687,40,33,127,0,0,2968,0,0,1553,-18,180,41656,-4,0,-9,0,441594,0
441514,91,-2073,313,-102,32,111,9948,-2,-1,38,-32,35675,55,33,127,0,0,2967,-43,0,1553,-18,180,41666,-4,0,-9,0,441594,0
441524,86,-2067,319,-98,33,110,9947,15,-2,-10,-16,35678,28,33,127,0,0,2966,-27,0,1553,-18,180,41676,-4,0,-9,0,441594,0
441534,84,-2081,311,-96,36,122,9948,12,12,24,-16,35676,24,33,127,0,0,2969,-16,0,1553,-18,180,41686,-4,0,-9,0,441594,0
441544,72,-2063,308,-92,33,121,9948,5,6,42,-16,35677,26,33,127,0,0,2966,-38,0,1553,-18,180,41696,-4,0,-9,0,441594,0
441554,85,-2072,303,-89,29,126,9945,1,-4,-52,-8,35675,27,33,127,0,0,2969,49,0,1553,-18,180,41706,-4,0,-9,0,441594,0
441564,83,-2070,306,-93,30,129,9948,7,6,2,-16,35677,18,33,127,0,0,2969,0,0,1553,-18,180,41716,-4,0,-9,0,441594,0
441574,91,-2071,312,-89,34,124,9947,-1,6,-6,8,35682,21,33,127,0,0,2968,21,0,1553,-18,180,41726,-4,0,-9,0,441594,0
441584,69,-2067,308,-90,33,129,9946,3,-5,0,8,35703,25,33,127,0,0,2968,21,0,1553,-18,180,41736,-4,0,-9,0,441594,0
441594,95,-2068,310,-89,34,124,9947,-2,5,23,-16,35704,60,33,127,0,0,2969,-16,0,1553,-18,180,41746,-4,0,-9,0,441594,0
441604,67,-2071,311,-90,32,120,9947,12,3,24,-16,35712,37,33,127,0,0,2966,-38,0,1553,-18,180,41756,-4,0,-9,0,441594,0
441614,58,-2063,308,-89,31,116,9945,-2,-2,11,-32,35705,26,33,127,0,0,2970,-5,0,1553,-18,180,41766,-4,0,-9,0,441594,0
441625,123,-2056,305,-85,32,106,9945,-6,-5,-21,16,35721,46,33,127,0,0,2968,54,0,1553,-18,180,41777,-4,0,-9,0,441609,0
441635,126,-2063,309,-91,34,104,9947,0,3,9,-24,35720,75,33,127,0,0,2966,-32,0,1553,-18,180,41787,-4,0,-9,0,441609,0
441645,65,-2056,317,-89,35,114,9948,14,5,-1,-24,35705,94,33,127,0,0,2968,0,0,1553,-18,180,41797,-4,0,-9,0,441640,0
441655,66,-2062,322,-82,24,111,9946,-15,-2,16,8,35703,80,33,127,0,0,2964,-21,0,1553,-18,180,41807,-4,0,-9,0,441656,0
441665,46,-2062,320,-87,38,99,9946,-4,-1,-35,-56,35691,72,33,127,0,0,2968,0,0,1553,-18,180,41817,-4,0,-9,0,441656,0
441675,68,-2059,317,-86,29,111,9947,1,7,15,-24,35680,69,33,127,0,0,2966,-21,0,1553,-18,180,41827,-4,0,-9,0,441656,0
441685,97,-2073,309,-87,36,100,9947,5,1,1,8,35685,61,33,127,0,0,2968,21,0,1553,-18,180,41837,-4,0,-9,0,441672,0
441695,107,-2073,310,-92,36,103,9945,-12,-6,15,16,35685,47,33,127,0,0,2966,-32,0,1553,-18,180,41847,-4,0,-9,0,441672,0
441705,65,-2063,315,-90,31,105,9947,12,2,-21,-56,35679,35,33,127,0,0,2968,-21,0,1553,-18,180,41857,-4,0,-9,0,441703,0
441715,50,-2056,310,-84,38,84,9947,11,6,66,0,35677,58,33,127,0,0,2966,-32,0,1553,-18,180,41867,-4,0,-9,0,441703,0
441725,76,-2064,313,-89,41,93,9945,-7,-4,-25,-40,35676,68,33,127,0,0,2966,-21,0,1553,-18,180,41877,-4,0,-9,0,441703,0
441735,88,-2072,321,-85,43,94,9945,-11,-1,-79,-32,35685,71,33,127,0,0,2964,-10,0,1553,-18,180,41887,-4,0,-9,0,441719,0
441745,97,-2075,314,-87,35,97,9945,4,2,-115,-32,35689,43,33,127,0,0,2966,21,0,1553,-18,180,41897,-4,0,-9,0,441734,0
441755,85,-2068,316,-88,38,101,9945,-2,-1,-111,-16,35691,5,33,127,0,0,2964,10,0,1553,-18,180,41907,-4,0,-9,0,441734,0
441765,85,-2067,315,-93,37,96,9944,5,1,-96,-32,35702,11,33,127,0,0,2961,-43,0,1553,-18,180,41917,-4,0,-9,0,441734,0
441775,85,-2063,314,-93,42,98,9942,-6,-4,-184,-80,35693,9,33,127,0,0,2961,-10,0,1553,-18,180,41927,-4,0,-9,0,441828,0
441785,89,-2069,317,-97,37,99,9942,10,1,-184,-64,35694,48,33,127,0,0,2961,0,0,1553,-18,180,41937,-4,0,-9,0,441828,0
441795,76,-2065,310,-97,38,95,9942,-1,13,-168,-80,35691,52,33,127,0,0,2959,-21,0,1553,-18,180,41947,-4,0,-9,0,441828,0
441805,86,-2061,309,-93,34,89,9940,0,-2,-185,-40,35682,61,33,127,0,0,2959,0,0,1553,-18,180,41957,-4,0,-9,0,441828,0
441815,104,-2061,314,-98,32,96,9936,-27,-12,-236,-56,35685,40,33,127,0,0,2959,21,0,1553,-18,180,41967,-4,0,-9,0,441844,0
441825,91,-2065,319,-95,35,88,9938,-1,-1,-219,-56,35683,29,33,127,0,0,2959,-10,0,1553,-18,180,41977,-4,0,-9,0,441844,0
441835,89,-2067,317,-99,31,89,9937,5,4,-208,-56,35683,25,33,127,0,0,2957,-32,0,1553,-18,180,41987,-4,0,-9,0,441844,0
441845,94,-2059,314,-97,40,93,9935,3,-3,-269,-96,35685,21,33,127,0,0,2955,-43,0,1553,-18,180,41997,-4,0,-9,0,441844,0
441855,107,-2062,302,-96,37,94,9925,-24,-11,-261,-80,35691,14,33,127,0,0,2955,0,0,1553,-18,180,42007,-4,0,-9,0,441844,0
441865,126,-2074,295,-91,37,103,9909,-44,-26,-199,-40,35704,23,33,127,0,0,2953,0,0,1553,-18,180,42017,-4,0,-9,0,441844,0
441876,113,-2059,303,-86,41,108,9890,-19,-14,-51,-48,35716,47,33,127,0,0,2957,0,0,1553,-18,180,42028,-4,0,-9,0,441859,0
441886,132,-2061,305,-88,45,135,9891,8,43,-62,8,35720,53,33,127,0,0,2954,49,0,1553,-18,180,42038,-4,0,-9,0,441890,0
441896,144,-2063,308,-92,34,137,9892,-7,24,-57,-32,35707,22,33,127,0,0,2959,32,0,1553,-18,180,42048,-4,0,-9,0,441890,0
441906,136,-2065,302,-87,40,149,9891,-1,-7,-47,-32,35695,11,33,127,0,0,2953,16,0,1553,-18,180,42058,-4,0,-9,0,441890,0
441916,104,-2080,304,-84,37,150,9891,10,0,-88,16,35686,-3,33,127,0,0,2950,10,0,1553,-18,180,42068,-4,0,-9,0,441890,0
441926,112,-2060,308,-81,46,156,9891,-8,1,-57,-8,35695,5,33,127,0,0,2955,5,0,1553,-18,180,42078,-4,0,-9,0,441922,0
441936,101,-2075,306,-79,46,167,9893,5,6,-7,8,35700,14,33,127,0,0,2957,21,0,1553,-18,180,42088,-4,0,-9,0,441922,0
441946,105,-2063,307,-71,36,172,9891,-7,-2,-2,16,35700,13,33,127,0,0,2954,10,0,1553,-18,180,42098,-4,0,-9,0,441937,0
441956,97,-2068,307,-74,39,170,9897,22,6,108,24,35682,7,33,127,0,0,2956,-71,0,1553,-18,180,42108,-4,0,-9,0,441937,0
441966,94,-2055,309,-76,31,171,9895,-5,0,62,32,35694,17,33,127,0,0,2959,32,0,1553,-18,180,42118,-4,0,-9,0,441953,0
441976,90,-2076,313,-77,41,177,9900,11,4,153,40,35697,27,33,127,0,0,2961,-10,0,1553,-18,180,42128,-4,0,-9,0,441953,0
441986,71,-2066,314,-76,38,172,9899,0,6,167,40,35692,11,33,127,0,0,2961,0,0,1553,-18,180,42138,-4,0,-9,0,441969,0
441996,80,-2062,318,-73,34,167,9902,22,-4,252,56,35687,-12,33,127,0,0,2964,-5,0,1553,-18,180,42148,-4,0,-9,0,441969,0
442006,76,-2059,325,-75,39,153,9904,-4,12,247,48,35679,-14,33,127,0,0,2964,-43,0,1553,-18,180,42158,-4,0,-9,0,442000,0
442016,78,-2048,320,-85,39,153,9906,13,-2,257,64,35679,-8,33,127,0,0,2966,16,0,1553,-18,180,42168,-4,0,-9,0,442000,0
442026,92,-2054,319,-84,36,142,9908,7,0,283,72,35670,-11,33,127,0,0,2963,-27,0,1553,-18,180,42178,-4,0,-9,0,442000,0
442036,97,-2051,321,-84,35,142,9909,11,4,294,88,35676,-10,33,127,0,0,2971,27,0,1553,-18,180,42188,-4,0,-9,0,442031,0
442046,78,-2056,320,-92,39,144,9916,23,11,292,72,35674,0,33,127,0,0,2968,10,0,1553,-18,180,42198,-4,0,-9,0,442031,0
442056,63,-2071,322,-89,30,143,9920,4,3,221,64,35681,-4,33,127,0,0,2968,27,0,1553,-18,180,42208,-4,0,-9,0,442031,0
442066,52,-2075,330,-98,24,123,9924,7,-10,218,80,35673,12,33,127,0,0,2970,38,0,1553,-18,180,42218,-4,0,-9,0,442062,0
442076,33,-2089,329,-107,28,102,9938,45,20,176,32,35689,8,33,127,0,0,2971,0,0,1553,-18,180,42228,-4,0,-9,0,442062,0
442086,59,-2084,335,-108,28,84,9948,0,16,81,0,35686,6,33,127,0,0,2968,-10,0,1553,-18,180,42238,-4,0,-9,0,442062,0
442096,45,-2086,332,-126,24,65,9946,2,-41,63,-16,35693,2,33,127,0,0,2972,10,0,1553,-18,180,42248,-4,0,-9,0,442094,0
442106,46,-2078,331,-134,9,55,9947,2,-6,75,8,35689,9,33,127,0,0,2968,-5,0,1553,-18,180,42258,-4,0,-9,0,442094,0
442116,47,-2057,323,-143,17,30,9946,-7,1,36,-16,35694,16,33,127,0,0,2966,-38,0,1553,-18,180,42268,-4,0,-9,0,442094,0
442127,26,-2053,320,-143,13,-13,9945,3,0,-35,-40,35692,33,33,127,0,0,2964,-21,0,1553,-18,180,42279,-4,0,-9,0,442109,0
442137,22,-2050,316,-149,27,-58,9943,-4,-1,-147,-80,35694,43,33,127,0,0,2961,-32,0,1553,-18,180,42289,-4,0,-9,0,442187,0
442147,19,-2037,304,-147,37,-89,9936,-10,-10,-184,-56,35694,37,33,127,0,0,2955,-65,0,1553,-18,180,42299,-4,0,-9,0,442203,0
442157,84,-2041,308,-149,34,-108,9927,-38,-11,-327,-136,35685,35,33,127,0,0,2948,-65,0,1553,-18,180,42309,-4,0,-9,0,442203,0
442167,101,-2049,304,-152,27,-110,9889,-112,-70,-225,-152,35680,29,33,127,0,0,2942,-87,0,1553,-18,180,42319,-4,0,-9,0,442203,0
442177,83,-2059,299,-151,27,-106,9844,-89,-62,-171,-48,35672,6,33,127,0,0,2935,-65,0,1553,-18,180,42329,-4,0,-9,0,442203,0
442187,94,-2056,304,-153,34,-127,9810,-44,21,-181,-48,35674,-17,33,127,0,0,2928,-76,0,1553,-18,180,42339,-4,0,-9,0,442203,0
442197,175,-2053,298,-148,31,-91,9807,-1,88,-372,-112,35672,-33,33,127,0,0,2922,-65,0,1553,-18,180,42349,-4,0,-9,0,442203,0
442207,173,-2068,290,-156,14,-63,9786,-64,11,-416,-136,35670,-26,33,127,0,0,2917,-54,0,1553,-18,180,42359,-4,0,-9,0,442203,0
442217,117,-2062,288,-146,18,-43,9742,-90,-82,-242,-104,35669,-15,33,127,0,0,2911,-87,0,1553,-18,180,42369,-4,0,-9,0,442203,0
442227,168,-2064,288,-140,22,-24,9730,-22,29,-378,-144,35672,7,33,127,0,0,2906,-76,0,1553,-18,180,42379,-4,0,-9,0,442218,0
442237,172,-2064,280,-130,30,10,9707,-64,36,-346,-96,35679,5,33,127,0,0,2906,-10,0,1553,-18,180,42389,-4,0,-9,0,442218,0
442247,154,-2075,270,-119,27,36,9688,-21,-12,-278,-88,35695,-8,33,127,0,0,2900,-21,0,1553,-18,180,42399,-4,0,-9,0,442234,0
442257,190,-2063,282,-106,29,77,9688,-2,56,-421,-96,35694,-18,33,127,0,0,2900,0,0,1553,-18,180,42409,-4,0,-9,0,442234,0
442267,182,-2076,277,-108,24,103,9684,-4,24,-421,-120,35688,-13,33,127,0,0,2898,-10,0,1553,-18,180,42419,-4,0,-9,0,442281,0
442277,153,-2061,285,-96,34,133,9684,-2,2,-425,-152,35680,2,33,127,0,0,2900,-21,0,1553,-18,180,42429,-4,0,-9,0,442281,0
442287,136,-2072,292,-91,49,146,9683,11,0,-390,-120,35674,9,33,127,0,0,2902,0,0,1553,-18,180,42439,-4,0,-9,0,442281,0
442297,145,-2073,291,-86,38,167,9682,0,0,-380,-120,35673,5,33,127,0,0,2900,-21,0,1553,-18,180,42449,-4,0,-9,0,442281,0
442307,129,-2067,298,-90,47,169,9684,7,1,-366,-88,35676,0,33,127,0,0,2902,-21,0,1553,-18,180,42459,-4,0,-9,0,442281,0
442317,105,-2079,298,-83,42,198,9684,7,0,-341,-56,35687,10,33,127,0,0,2904,21,0,1553,-18,180,42469,-4,0,-9,0,442297,0
442327,146,-2078,306,-84,44,214,9684,0,2,-299,-80,35687,6,33,127,0,0,2906,21,0,1553,-18,180,42479,-4,0,-9,0,442328,0
442337,123,-2080,301,-87,29,229,9688,15,11,-251,-56,35681,14,33,127,0,0,2909,43,0,1553,-18,180,42489,-4,0,-9,0,442328,0
442347,101,-2072,301,-88,21,222,9689,18,3,-169,-48,35673,8,33,127,0,0,2911,21,0,1553,-18,180,42499,-4,0,-9,0,442328,0
442357,82,-2079,298,-91,37,216,9692,13,4,-24,8,35681,7,33,127,0,0,2915,0,0,1553,-18,180,42509,-4,0,-9,0,442328,0
442367,136,-2061,296,-95,34,215,9697,7,5,81,24,35690,-2,33,127,0,0,2920,21,0,1553,-18,180,42519,-4,0,-9,0,442343,0
442378,118,-2067,299,-92,39,227,9702,12,-2,161,56,35691,24,33,127,0,0,2925,71,0,1553,-18,180,42530,-4,0,-9,0,442359,0
442388,111,-2054,300,-95,27,230,9709,12,12,233,64,35684,26,33,127,0,0,2927,60,0,1553,-18,180,42540,-4,0,-9,0,442375,0
442398,109,-2049,300,-94,27,242,9718,33,14,307,88,35674,29,33,127,0,0,2928,5,0,1553,-18,180,42550,-4,0,-9,0,442375,0
442408,122,-2053,299,-94,25,249,9737,47,31,201,96,35679,20,33,127,0,0,2930,43,0,1553,-18,180,42560,-4,0,-9,0,442406,0
442418,106,-2067,285,-90,25,280,9766,64,38,194,80,35677,21,33,127,0,0,2937,0,0,1553,-18,180,42570,-4,0,-9,0,442406,0
442428,130,-2068,291,-81,17,283,9770,-17,-37,233,88,35675,18,33,127,0,0,2939,38,0,1553,-18,180,42580,-4,0,-9,0,442406,0
442438,89,-2084,282,-82,28,296,9775,20,-53,361,120,35680,7,33,127,0,0,2944,21,0,1553,-18,180,42590,-4,0,-9,0,442437,0
442448,104,-2065,282,-68,30,289,9786,30,25,443,144,35685,3,33,127,0,0,2952,38,0,1553,-18,180,42600,-4,0,-9,0,442437,0
442458,96,-2070,291,-69,34,290,9815,84,46,385,152,35685,-1,33,127,0,0,2955,65,0,1553,-18,180,42610,-4,0,-9,0,442437,0
442468,125,-2065,296,-68,24,309,9850,47,46,381,144,35679,0,33,127,0,0,2961,38,0,1553,-18,180,42620,-4,0,-9,0,442437,0
442478,74,-2071,296,-63,32,303,9870,48,-34,417,144,35673,-16,33,127,0,0,2969,82,0,1553,-18,180,42630,-4,0,-9,0,442468,0
442488,55,-2071,301,-56,35,306,9905,78,10,346,136,35683,-12,33,127,0,0,2972,71,0,1553,-18,180,42640,-4,0,-9,0,442468,0
442498,72,-2068,304,-63,39,292,9931,60,10,341,144,35681,0,33,127,0,0,2976,60,0,1553,-18,180,42650,-4,0,-9,0,442468,0
442508,74,-2083,305,-65,35,312,9973,72,6,229,88,35688,15,33,127,0,0,2988,93,0,1553,-18,180,42660,-4,0,-9,0,442547,0
442518,42,-2071,295,-65,31,296,9973,-5,-65,440,144,35673,33,33,127,0,0,2988,32,0,1553,-18,180,42670,-4,0,-9,0,442562,0
442528,66,-2076,308,-55,33,298,9978,16,-64,516,176,35672,29,33,127,0,0,2992,32,0,1553,-18,180,42680,-4,0,-9,0,442578,0
442538,54,-2065,305,-64,45,275,9997,48,39,486,208,35663,23,33,127,0,0,2995,21,0,1553,-18,180,42690,-4,0,-9,0,442578,0
442548,47,-2069,309,-68,38,269,10030,73,57,377,168,35660,24,33,127,0,0,3001,27,0,1553,-18,180,42700,-4,0,-9,0,442578,0
442558,62,-2072,307,-69,37,263,10048,29,-6,454,168,35659,23,33,127,0,0,3005,27,0,1553,-18,180,42710,-4,0,-9,0,442593,0
442568,44,-2068,311,-75,28,256,10071,76,-20,427,184,35659,22,33,127,0,0,3012,87,0,1553,-18,180,42720,-4,0,-9,0,442593,0
442578,85,-2071,297,-71,38,257,10128,115,80,265,104,35656,16,33,127,0,0,3017,76,0,1553,-18,180,42730,-4,0,-9,0,442593,0
442588,36,-2074,296,-69,14,252,10167,36,5,154,32,35658,5,33,127,0,0,3020,32,0,1553,-18,180,42740,-4,0,-9,0,442593,0
442598,-33,-2064,291,-68,22,222,10161,11,-132,357,112,35667,8,33,127,0,0,3023,27,0,1553,-18,180,42750,-4,0,-9,0,442593,0
442608,67,-2062,309,-67,31,206,10169,19,-36,481,120,35678,20,33,127,0,0,3028,0,0,1553,-18,180,42760,-4,0,-9,0,442593,0
442618,38,-2068,312,-71,31,185,10172,0,12,496,176,35691,33,33,127,0,0,3032,76,0,1553,-18,180,42770,-4,0,-9,0,442593,0
442629,50,-2072,313,-74,34,161,10184,40,12,533,144,35692,25,33,127,0,0,3032,0,0,1553,-18,180,42781,-4,0,-9,0,442640,0
442639,49,-2070,308,-77,37,154,10208,72,48,409,160,35679,42,33,127,0,0,3036,21,0,1553,-18,180,42791,-4,0,-9,0,442656,0
442649,59,-2068,315,-84,27,151,10228,17,19,334,112,35667,42,33,127,0,0,3036,32,0,1553,-18,180,42801,-4,0,-9,0,442656,0
442659,22,-2061,302,-86,31,130,10228,6,-60,430,128,35657,42,33,127,0,0,3041,10,0,1553,-18,180,42811,-4,0,-9,0,442656,0
442669,22,-2073,304,-84,33,115,10231,6,-24,473,152,35653,37,33,127,0,0,3041,10,0,1553,-18,180,42821,-4,0,-9,0,442656,0
442679,40,-2071,309,-82,35,105,10231,6,2,447,112,35652,42,33,127,0,0,3041,10,0,1553,-18,180,42831,-4,0,-9,0,442656,0
442689,55,-2079,307,-88,33,97,10231,8,1,457,152,35657,61,33,127,0,0,3041,10,0,1553,-18,180,42841,-4,0,-9,0,442687,0
442699,47,-2073,307,-91,34,97,10233,0,5,445,120,35669,59,33,127,0,0,3038,-10,0,1553,-18,180,42851,-4,0,-9,0,442687,0
442709,64,-2062,308,-90,32,91,10232,1,-6,438,104,35670,50,33,127,0,0,3043,10,0,1553,-18,180,42861,-4,0,-9,0,442687,0
442719,32,-2067,305,-95,22,88,10233,0,0,490,136,35669,27,33,127,0,0,3041,-10,0,1553,-18,180,42871,-4,0,-9,0,442687,0
442729,57,-2062,305,-90,20,79,10233,-14,-3,402,128,35663,31,33,127,0,0,3038,10,0,1553,-18,180,42881,-4,0,-9,0,442734,0
442739,50,-2067,302,-93,27,75,10234,5,-3,392,112,35657,35,33,127,0,0,3041,32,0,1553,-18,180,42891,-4,0,-9,0,442734,0
442749,59,-2062,298,-101,14,62,10233,0,-2,412,128,35657,39,33,127,0,0,3036,-21,0,1553,-18,180,42901,-4,0,-9,0,442734,0
442759,43,-2066,289,-98,22,48,10234,9,0,359,64,35651,35,33,127,0,0,3034,-54,0,1553,-18,180,42911,-4,0,-9,0,442734,0
442769,19,-2077,294,-93,28,27,10231,3,0,313,80,35660,35,33,127,0,0,3032,-21,0,1553,-18,180,42921,-4,0,-9,0,442750,0
442779,70,-2065,305,-95,37,20,10229,-16,-4,229,56,35668,50,33,127,0,0,3032,0,0,1553,-18,180,42931,-4,0,-9,0,442781,0
442789,54,-2075,296,-90,34,14,10227,-5,-2,192,40,35675,47,33,127,0,0,3030,-21,0,1553,-18,180,42941,-4,0,-9,0,442781,0
442799,49,-2080,291,-89,37,-3,10223,-19,-4,100,32,35670,52,33,127,0,0,3025,0,0,1553,-18,180,42951,-4,0,-9,0,442781,0
442809,43,-2078,289,-87,36,-11,10221,1,-6,56,-8,35661,49,33,127,0,0,3021,-76,0,1553,-18,180,42961,-4,0,-9,0,442781,0
442819,81,-2066,288,-83,30,-22,10211,-19,-8,-88,-32,35660,33,33,127,0,0,3019,-21,0,1553,-18,180,42971,-4,0,-9,0,442812,0
442829,75,-2078,295,-80,40,-13,10206,-2,-5,-135,-40,35670,37,33,127,0,0,3016,-21,0,1553,-18,180,42981,-4,0,-9,0,442812,0
442839,90,-2068,295,-72,29,-6,10204,-16,20,-200,-56,35666,25,33,127,0,0,3014,-21,0,1553,-18,180,42991,-4,0,-9,0,442812,0
442849,109,-2069,297,-69,25,17,10189,-41,-26,-221,-80,35671,25,33,127,0,0,3010,0,0,1553,-18,180,43001,-4,0,-9,0,442843,0
442859,100,-2069,295,-67,26,23,10156,-77,-57,-81,-40,35670,28,33,127,0,0,3008,0,0,1553,-18,180,43011,-4,0,-9,0,442843,0
442869,97,-2079,289,-68,35,47,10154,19,33,-90,-56,35674,35,33,127,0,0,3005,-21,0,1553,-18,180,43021,-4,0,-9,0,442843,0
442880,123,-2055,290,-56,22,43,10152,-1,56,-146,-40,35666,32,33,127,0,0,3009,32,0,1553,-18,180,43032,-4,0,-9,0,442937,0
442890,119,-2060,289,-59,24,66,10152,-5,-6,-137,-24,35668,30,33,127,0,0,3004,16,0,1553,-18,180,43042,-4,0,-9,0,442937,0
442900,97,-2066,280,-47,21,82,10152,-3,5,-154,-40,35671,16,33,127,0,0,3005,38,0,1553,-18,180,43052,-4,0,-9,0,442937,0
442910,99,-2054,293,-47,32,75,10151,-4,-4,-182,-64,35673,22,33,127,0,0,3000,-38,0,1553,-18,180,43062,-4,0,-9,0,442937,0
442920,107,-2064,295,-37,39,81,10152,9,-1,-210,-64,35666,34,33,127,0,0,3000,-71,0,1553,-18,180,43072,-4,0,-9,0,442953,0
442930,61,-2059,316,-38,36,107,10149,-4,-4,-192,-40,35658,27,33,127,0,0,2999,-54,0,1553,-18,180,43082,-4,0,-9,0,442953,0
442940,130,-2054,315,-39,32,105,10150,0,-3,-223,-80,35655,26,33,127,0,0,3004,-38,0,1553,-18,180,43092,-4,0,-9,0,442953,0
442950,92,-2071,315,-45,32,115,10150,2,5,-224,-80,35658,18,33,127,0,0,3004,21,0,1553,-18,180,43102,-4,0,-9,0,442953,0
442960,70,-2069,307,-48,36,116,10151,11,5,-158,-80,35662,17,33,127,0,0,3008,27,0,1553,-18,180,43112,-4,0,-9,0,442953,0
442970,45,-2068,304,-41,40,113,10150,-4,0,-152,-40,35659,15,33,127,0,0,3005,5,0,1553,-18,180,43122,-4,0,-9,0,442953,0
442980,60,-2064,300,-45,41,110,10149,-9,-4,-204,-56,35665,30,33,127,0,0,3006,43,0,1553,-18,180,43132,-4,0,-9,0,442953,0
442990,105,-2071,304,-45,39,107,10151,-1,5,-179,-40,35677,51,33,127,0,0,3005,43,0,1553,-18,180,43142,-4,0,-9,0,442968,0
443000,101,-2073,303,-47,36,107,10149,-4,-5,-199,-40,35690,45,33,127,0,0,3005,49,0,1553,-18,180,43152,-4,0,-9,0,443000,0
443010,102,-2061,320,-46,32,100,10149,-13,-3,-188,-80,35689,20,33,127,0,0,3004,0,0,1553,-18,180,43162,-4,0,-9,0,443000,0
443020,73,-2073,317,-49,44,92,10151,5,3,-152,-40,35676,-3,33,127,0,0,3005,5,0,1553,-18,180,43172,-4,0,-9,0,443000,0
443030,88,-2071,314,-56,31,96,10150,-6,-6,-166,-56,35667,-9,33,127,0,0,3003,-10,0,1553,-18,180,43182,-4,0,-9,0,443000,0
443040,104,-2056,312,-59,39,94,10151,5,-6,-183,-80,35670,13,33,127,0,0,3004,-49,0,1553,-18,180,43192,-4,0,-9,0,443046,0
443050,64,-2060,306,-59,25,106,10151,10,0,-189,-56,35678,20,33,127,0,0,3006,5,0,1553,-18,180,43202,-4,0,-9,0,443046,0
443060,59,-2059,309,-56,29,110,10150,-4,5,-164,-40,35677,21,33,127,0,0,3002,-5,0,1553,-18,180,43212,-4,0,-9,0,443046,0
443070,90,-2066,306,-56,36,105,10148,-14,-8,-186,-56,35672,11,33,127,0,0,3003,32,0,1553,-18,180,43222,-4,0,-9,0,443046,0
443080,141,-2061,312,-62,36,100,10147,-12,-4,-209,-32,35666,13,33,127,0,0,2999,0,0,1553,-18,180,43232,-4,0,-9,0,443062,0
443090,84,-2040,325,-63,38,105,10150,-3,2,-223,-40,35679,11,33,127,0,0,3005,27,0,1553,-18,180,43242,-4,0,-9,0,443078,0
443100,95,-2057,315,-65,36,121,10148,-11,-5,-207,-56,35686,16,33,127,0,0,3006,43,0,1553,-18,180,43252,-4,0,-9,0,443078,0
443110,126,-2063,306,-64,39,118,10149,-9,-5,-232,-80,35685,26,33,127,0,0,3001,16,0,1553,-18,180,43262,-4,0,-9,0,443093,0
443120,107,-2074,298,-61,44,121,10151,10,-2,-195,-64,35684,31,33,127,0,0,3006,-5,0,1553,-18,180,43272,-4,0,-9,0,443093,0
443131,112,-2074,309,-64,28,129,10148,-2,-6,-239,-16,35682,35,33,127,0,0,3003,54,0,1553,-18,180,43283,-4,0,-9,0,443171,0
443141,118,-2066,319,-65,37,119,10149,-16,-4,-194,-72,35687,27,33,127,0,0,3003,-21,0,1553,-18,180,43293,-4,0,-9,0,443171,0
443151,73,-2074,314,-65,44,115,10151,17,-1,-134,-48,35683,19,33,127,0,0,3003,-21,0,1553,-18,180,43303,-4,0,-9,0,443171,0
443161,83,-2066,310,-70,42,106,10148,-18,-4,-147,-48,35678,23,33,127,0,0,3003,0,0,1553,-18,180,43313,-4,0,-9,0,443187,0
443171,106,-2049,322,-72,28,100,10150,-6,-4,-199,-56,35672,23,33,127,0,0,3001,-21,0,1553,-18,180,43323,-4,0,-9,0,443187,0
443181,80,-2056,328,-72,38,94,10150,0,7,-200,-80,35666,15,33,127,0,0,3003,-10,0,1553,-18,180,43333,-4,0,-9,0,443187,0
443191,54,-2047,332,-72,22,89,10149,-1,-1,-193,-104,35666,15,33,127,0,0,3001,-43,0,1553,-18,180,43343,-4,0,-9,0,443187,0
443201,34,-2068,320,-78,27,97,10150,5,1,-201,-56,35666,7,33,127,0,0,3001,-54,0,1553,-18,180,43353,-4,0,-9,0,443187,0
443211,48,-2052,325,-80,29,82,10147,-5,-1,-256,-72,35672,4,33,127,0,0,3001,0,0,1553,-18,180,43363,-4,0,-9,0,443187,0
443221,59,-2066,312,-84,33,66,10149,9,2,-189,-112,35684,-4,33,127,0,0,3001,-54,0,1553,-18,180,43373,-4,0,-9,0,443203,0
443231,68,-2049,315,-85,25,44,10148,3,5,-233,-48,35686,23,33,127,0,0,2999,-43,0,1553,-18,180,43383,-4,0,-9,0,443203,0
443241,50,-2060,313,-81,40,23,10148,-3,-3,-287,-112,35680,22,33,127,0,0,2999,-32,0,1553,-18,180,43393,-4,0,-9,0,443218,0
443251,70,-2059,305,-86,44,17,10147,1,3,-319,-128,35681,32,33,127,0,0,2999,0,0,1553,-18,180,43403,-4,0,-9,0,443296,0
443261,83,-2058,311,-78,45,6,10145,-6,0,-355,-112,35682,30,33,127,0,0,2994,-32,0,1553,-18,180,43413,-4,0,-9,0,443296,0
443271,97,-2055,322,-84,44,11,10138,-21,-14,-443,-144,35679,16,33,127,0,0,2990,-21,0,1553,-18,180,43423,-4,0,-9,0,443312,0
443281,87,-2068,323,-84,40,10,10129,-18,-15,-429,-152,35673,25,33,127,0,0,2988,-54,0,1553,-18,180,43433,-4,0,-9,0,443312,0
443291,114,-2065,324,-89,35,19,10119,-30,-5,-475,-176,35660,7,33,127,0,0,2986,-43,0,1553,-18,180,43443,-4,0,-9,0,443312,0
443301,90,-2069,313,-91,33,20,10097,-53,-32,-369,-144,35664,10,33,127,0,0,2983,-21,0,1553,-18,180,43453,-4,0,-9,0,443312,0
443311,83,-2076,309,-90,38,12,10080,-24,-4,-364,-112,35662,13,33,127,0,0,2981,-32,0,1553,-18,180,43463,-4,0,-9,0,443312,0
443321,113,-2070,311,-88,41,9,10080,0,45,-437,-136,35661,16,33,127,0,0,2977,-54,0,1553,-18,180,43473,-4,0,-9,0,443312,0
443331,109,-2061,304,-96,26,10,10075,-15,11,-505,-168,35661,10,33,127,0,0,2979,0,0,1553,-18,180,43483,-4,0,-9,0,443312,0
443341,104,-2063,302,-88,31,20,10063,-32,-16,-489,-192,35679,6,32,127,0,0,2972,-32,0,1553,-18,180,43493,-4,0,-9,0,443312,0
443351,102,-2059,307,-83,42,16,10027,-104,-61,-344,-160,35700,17,33,127,0,0,2970,-21,0,1553,-18,180,43503,-4,0,-9,0,443343,0
443361,66,-2083,306,-84,43,13,9981,-84,-71,-156,-72,35707,29,33,127,0,0,2966,-54,0,1553,-18,180,43513,-4,0,-9,0,443343,0
443371,111,-2057,328,-79,39,-1,9957,-38,35,-139,-64,35685,44,33,127,0,0,2964,-10,0,1553,-18,180,43523,-4,0,-9,0,443343,0
443382,134,-2071,323,-87,37,16,9959,0,87,-247,-104,35677,43,33,127,0,0,2959,-54,0,1553,-18,180,43534,-4,0,-9,0,443359,0
443392,106,-2059,310,-85,24,10,9953,-3,25,-313,-112,35679,52,33,127,0,0,2957,-10,0,1553,-18,180,43544,-4,0,-9,0,443390,0
443402,107,-2068,315,-87,36,10,9951,0,-2,-388,-152,35687,56,33,127,0,0,2949,-104,0,1553,-18,180,43554,-4,0,-9,0,443390,0
443412,118,-2065,313,-83,29,10,9944,-23,-5,-450,-152,35681,69,33,127,0,0,2950,-16,0,1553,-18,180,43564,-4,0,-9,0,443390,0
443422,118,-2068,311,-92,37,18,9937,-14,-10,-512,-168,35681,63,33,127,0,0,2945,-21,0,1553,-18,180,43574,-4,0,-9,0,443421,0
443432,115,-2066,306,-80,31,17,9925,-42,-8,-528,-184,35682,62,33,127,0,0,2944,-5,0,1553,-18,180,43584,-4,0,-9,0,443421,0
443442,126,-2053,308,-77,32,23,9889,-106,-69,-332,-160,35679,53,33,127,0,0,2939,-54,0,1553,-18,180,43594,-4,0,-9,0,443421,0
443452,103,-2065,303,-80,33,27,9852,-67,-48,-263,-80,35677,44,33,127,0,0,2939,-21,0,1553,-18,180,43604,-4,0,-9,0,443437,0
443462,129,-2052,309,-81,37,27,9824,-46,32,-150,-64,35670,19,33,127,0,0,2935,-21,0,1553,-18,180,43614,-4,0,-9,0,443468,0
443472,122,-2072,310,-80,42,40,9824,17,77,-217,-64,35678,9,33,127,0,0,2932,-32,0,1553,-18,180,43624,-4,0,-9,0,443468,0
443482,146,-2055,316,-81,33,52,9820,-10,45,-294,-96,35676,-5,33,127,0,0,2931,-32,0,1553,-18,180,43634,-4,0,-9,0,443468,0
443492,124,-2078,310,-85,32,66,9818,-4,-5,-344,-112,35674,0,33,127,0,0,2925,-54,0,1553,-18,180,43644,-4,0,-9,0,443468,0
443502,113,-2052,307,-82,29,69,9814,-3,2,-342,-104,35667,0,33,127,0,0,2928,-43,0,1553,-18,180,43654,-4,0,-9,0,443499,0
443512,122,-2066,316,-82,38,71,9812,-10,1,-413,-128,35680,10,33,127,0,0,2930,16,0,1553,-18,180,43664,-4,0,-9,0,443499,0
443522,104,-2063,312,-83,33,67,9806,-10,-3,-380,-120,35682,9,33,127,0,0,2926,10,0,1553,-18,180,43674,-4,0,-9,0,443499,0
443532,114,-2061,314,-88,36,59,9804,-6,0,-422,-128,35679,13,33,127,0,0,2924,-16,0,1553,-18,180,43684,-4,0,-9,0,443515,0
443542,121,-2062,305,-83,38,63,9789,-53,-24,-422,-128,35666,1,33,127,0,0,2915,-54,0,1553,-18,180,43694,-4,0,-9,0,443515,0
443552,139,-2058,310,-82,38,63,9751,-87,-72,-257,-72,35659,-9,33,127,0,0,2923,21,0,1553,-18,180,43704,-4,0,-9,0,443546,0
443562,128,-2080,311,-89,50,72,9750,8,40,-286,-80,35677,3,33,127,0,0,2917,16,0,1553,-18,180,43714,-4,0,-9,0,443546,0
443572,151,-2053,317,-85,46,59,9749,2,69,-303,-80,35674,30,33,127,0,0,2914,-71,0,1553,-18,180,43724,-4,0,-9,0,443562,0
443582,117,-2049,325,-90,39,76,9746,-1,-8,-374,-104,35673,36,33,127,0,0,2912,-49,0,1553,-18,180,43734,-4,0,-9,0,443562,0
443592,126,-2057,320,-98,35,72,9746,-2,2,-407,-120,35672,35,33,127,0,0,2913,-43,0,1553,-18,180,43744,-4,0,-9,0,443578,0
443602,115,-2059,312,-96,42,74,9744,-10,-2,-440,-112,35682,37,33,127,0,0,2906,-32,0,1553,-18,180,43754,-4,0,-9,0,443578,0
443612,125,-2072,304,-89,42,69,9739,-11,-5,-477,-128,35687,46,33,127,0,0,2904,-82,0,1553,-18,180,43764,-4,0,-9,0,443593,0
443622,135,-2065,312,-97,39,76,9727,-36,-13,-442,-120,35678,40,33,127,0,0,2905,-43,0,1553,-18,180,43774,-4,0,-9,0,443593,0
443633,125,-2062,310,-96,42,82,9697,-64,-40,-279,-88,35669,31,33,127,0,0,2906,0,0,1553,-18,180,43785,-4,0,-9,0,443609,0
443643,109,-2072,308,-102,44,78,9692,14,23,-262,-72,35669,22,33,127,0,0,2906,-10,0,1553,-18,180,43795,-4,0,-9,0,443624,0
443653,141,-2064,314,-91,40,92,9691,-4,58,-279,-64,35676,16,33,127,0,0,2904,0,0,1553,-18,180,43805,-4,0,-9,0,443640,0
443663,144,-2072,311,-99,39,101,9691,3,3,-305,-104,35680,32,33,127,0,0,2904,-10,0,1553,-18,180,43815,-4,0,-9,0,443656,0
443673,129,-2066,310,-102,37,102,9691,0,5,-318,-96,35673,33,33,127,0,0,2904,-21,0,1553,-18,180,43825,-4,0,-9,0,443656,0
443683,126,-2061,303,-96,43,101,9692,16,1,-337,-152,35669,38,33,127,0,0,2902,-32,0,1553,-18,180,43835,-4,0,-9,0,443656,0
443693,124,-2073,307,-98,37,112,9688,0,3,-387,-144,35673,33,33,127,0,0,2900,-32,0,1553,-18,180,43845,-4,0,-9,0,443687,0
443703,130,-2057,317,-97,37,113,9687,6,4,-400,-96,35677,33,33,127,0,0,2900,-21,0,1553,-18,180,43855,-4,0,-9,0,443703,0
443713,115,-2059,303,-98,35,119,9685,-3,3,-412,-128,35670,24,33,127,0,0,2902,0,0,1553,-18,180,43865,-4,0,-9,0,443703,0
443723,107,-2056,310,-95,40,123,9686,2,3,-407,-168,35664,27,33,127,0,0,2902,10,0,1553,-18,180,43875,-4,0,-9,0,443703,0
443733,112,-2071,301,-92,34,123,9685,-8,-1,-415,-144,35665,25,33,127,0,0,2900,-10,0,1553,-18,180,43885,-4,0,-9,0,443703,0
443743,99,-2064,301,-92,46,115,9683,3,-1,-409,-152,35675,20,33,127,0,0,2900,-10,0,1553,-18,180,43895,-4,0,-9,0,443734,0
443753,119,-2066,302,-90,46,113,9683,5,0,-405,-112,35683,37,33,127,0,0,2900,10,0,1553,-18,180,43905,-4,0,-9,0,443734,0
443763,129,-2066,314,-88,47,117,9680,-16,-1,-439,-136,35682,31,33,127,0,0,2898,-10,0,1553,-18,180,43915,-4,0,-9,0,443734,0
443773,126,-2069,312,-92,39,118,9678,-3,-8,-410,-136,35676,26,33,127,0,0,2898,-10,0,1553,-18,180,43925,-4,0,-9,0,443781,0
443783,124,-2061,318,-96,41,131,9677,-3,-1,-450,-152,35684,12,33,127,0,0,2898,21,0,1553,-18,180,43935,-4,0,-9,0,443796,0
443793,111,-2065,312,-93,40,132,9678,9,7,-415,-128,35681,25,33,127,0,0,2895,-21,0,1553,-18,180,43945,-4,0,-9,0,443796,0
443803,104,-2058,302,-93,36,124,9677,3,7,-428,-128,35674,21,33,127,0,0,2898,0,0,1553,-18,180,43955,-4,0,-9,0,443812,0
443813,117,-2062,297,-91,44,117,9676,0,2,-433,-128,35662,10,33,127,0,0,2898,10,0,1553,-18,180,43965,-4,0,-9,0,443812,0
443823,113,-2063,303,-88,37,118,9676,-3,1,-453,-152,35663,8,33,127,0,0,2895,0,0,1553,-18,180,43975,-4,0,-9,0,443812,0
443833,137,-2059,306,-83,42,108,9671,-20,-8,-449,-120,35670,25,33,127,0,0,2895,10,0,1553,-18,180,43985,-4,0,-9,0,443812,0
443843,131,-2064,308,-77,41,103,9671,3,-2,-408,-120,35674,32,33,127,0,0,2895,-32,0,1553,-18,180,43995,-4,0,-9,0,443828,0
443853,117,-2058,316,-82,40,111,9669,-9,3,-443,-136,35681,38,33,127,0,0,2898,0,0,1553,-18,180,44005,-4,0,-9,0,443828,0
443863,117,-2058,310,-81,40,114,9666,-13,-6,-436,-128,35691,36,33,127,0,0,2895,10,0,1553,-18,180,44015,-4,0,-9,0,443843,0
443874,129,-2063,306,-84,40,123,9658,-21,-10,-412,-112,35702,35,33,127,0,0,2892,-10,0,1553,-18,180,44026,-4,0,-9,0,443890,0
443884,138,-2066,306,-86,33,124,9640,-39,-24,-262,-80,35697,47,33,127,0,0,2892,-21,0,1553,-18,180,44036,-4,0,-9,0,443890,0
443894,103,-2052,310,-81,38,123,9635,-1,8,-220,-64,35689,44,33,127,0,0,2899,21,0,1553,-18,180,44046,-4,0,-9,0,443906,0
443904,128,-2070,316,-89,40,130,9636,-8,39,-175,-64,35688,31,33,127,0,0,2899,21,0,1553,-18,180,44056,-4,0,-9,0,443906,0
443914,129,-2065,309,-91,33,134,9636,6,4,-194,-48,35693,7,33,127,0,0,2894,0,0,1553,-18,180,44066,-4,0,-9,0,443906,0
443924,135,-2061,307,-84,36,135,9634,-4,-3,-227,-88,35686,2,33,127,0,0,2897,-5,0,1553,-18,180,44076,-4,0,-9,0,443906,0
443934,118,-2065,309,-82,39,140,9635,0,3,-224,-88,35682,7,33,127,0,0,2897,-5,0,1553,-18,180,44086,-4,0,-9,0,443906,0
443944,115,-2062,305,-82,32,145,9634,0,4,-261,-88,35685,21,33,127,0,0,2897,16,0,1553,-18,180,44096,-4,0,-9,0,443937,0
443954,112,-2069,306,-86,37,149,9636,12,5,-201,-72,35703,23,33,127,0,0,2899,5,0,1553,-18,180,44106,-4,0,-9,0,443937,0
443964,92,-2064,308,-80,34,148,9634,0,0,-192,-40,35709,13,33,127,0,0,2894,16,0,1553,-18,180,44116,-4,0,-9,0,443937,0
443974,137,-2064,312,-94,40,146,9635,2,-5,-169,-48,35688,5,33,127,0,0,2894,-16,0,1553,-18,180,44126,-4,0,-9,0,444031,0
443984,139,-2060,317,-92,35,148,9635,-3,1,-176,-64,35688,-2,33,127,0,0,2899,0,0,1553,-18,180,44136,-4,0,-9,0,444031,0
443994,125,-2059,320,-97,22,163,9634,-3,0,-145,-48,35685,-4,33,127,0,0,2898,0,0,1553,-18,180,44146,-4,0,-9,0,444046,0
444004,115,-2059,312,-97,25,162,9636,11,6,-114,-32,35692,-3,33,127,0,0,2897,-27,0,1553,-18,180,44156,-4,0,-9,0,444046,0
444014,114,-2060,311,-101,28,163,9637,8,-1,-105,-24,35685,4,33,127,0,0,2903,21,0,1553,-18,180,44166,-4,0,-9,0,444046,0
444024,113,-2056,304,-103,29,156,9642,22,7,13,-16,35676,11,33,127,0,0,2909,5,0,1553,-18,180,44176,-4,0,-9,0,444046,0
444034,113,-2068,300,-105,26,167,9640,-9,5,-10,32,35677,9,33,127,0,0,2900,32,0,1553,-18,180,44186,-4,0,-9,0,444046,0
444044,106,-2070,307,-102,28,164,9646,18,-4,57,-24,35679,2,33,127,0,0,2909,-32,0,1553,-18,180,44196,-4,0,-9,0,444046,0
444054,100,-2058,302,-103,29,152,9646,11,6,106,40,35680,8,33,127,0,0,2905,5,0,1553,-18,180,44206,-4,0,-9,0,444046,0
444064,125,-2061,300,-99,30,157,9647,1,4,78,32,35679,3,33,127,0,0,2905,-21,0,1553,-18,180,44216,-4,0,-9,0,444046,0
444074,110,-2062,305,-100,35,152,9650,15,1,138,32,35683,9,33,127,0,0,2909,-10,0,1553,-18,180,44226,-4,0,-9,0,444046,0
444084,123,-2064,307,-96,27,152,9657,19,10,148,24,35700,1,33,127,0,0,2912,-5,0,1553,-18,180,44236,-4,0,-9,0,444077,0
444094,118,-2062,320,-100,31,161,9662,10,6,93,24,35721,11,33,127,0,0,2911,0,0,1553,-18,180,44246,-4,0,-9,0,444093,0
444104,115,-2061,315,-107,24,161,9669,16,0,114,56,35714,27,33,127,0,0,2912,21,0,1553,-18,180,44256,-4,0,-9,0,444093,0
444114,107,-2069,309,-112,27,159,9684,31,17,-20,24,35700,13,33,127,0,0,2915,16,0,1553,-18,180,44266,-4,0,-9,0,444093,0
444125,113,-2075,295,-110,24,155,9690,7,-12,68,16,35693,8,33,127,0,0,2915,10,0,1553,-18,180,44277,-4,0,-9,0,444109,0
444135,107,-2081,294,-105,24,143,9688,-8,-35,111,40,35689,2,33,127,0,0,2920,32,0,1553,-18,180,44287,-4,0,-9,0,444124,0
444145,103,-2067,307,-101,28,136,9694,15,-1,161,16,35689,53,33,127,0,0,2917,-10,0,1553,-18,180,44297,-4,0,-9,0,444124,0
444155,105,-2060,309,-98,39,137,9693,0,-2,127,32,35681,55,33,127,0,0,2920,32,0,1553,-18,180,44307,-4,0,-9,0,444124,0
444165,121,-2068,317,-97,29,139,9695,3,-1,143,56,35696,39,33,127,0,0,2920,21,0,1553,-18,180,44317,-4,0,-9,0,444156,0
444175,108,-2068,307,-107,33,138,9694,1,2,144,24,35703,36,33,127,0,0,2920,10,0,1553,-18,180,44327,-4,0,-9,0,444156,0
444185,117,-2067,303,-110,34,143,9697,9,2,165,8,35697,34,33,127,0,0,2922,21,0,1553,-18,180,44337,-4,0,-9,0,444156,0
444195,108,-2061,305,-104,37,145,9697,8,1,201,40,35692,44,33,127,0,0,2922,21,0,1553,-18,180,44347,-4,0,-9,0,444187,0
444205,111,-2063,299,-105,25,145,9700,14,5,238,56,35688,26,33,127,0,0,2922,0,0,1553,-18,180,44357,-4,0,-9,0,444187,0
444215,114,-2063,302,-104,27,144,9699,-1,0,221,88,35692,18,33,127,0,0,2924,21,0,1553,-18,180,44367,-4,0,-9,0,444187,0
444225,110,-2056,297,-100,25,145,9703,3,7,263,72,35698,22,33,127,0,0,2926,10,0,1553,-18,180,44377,-4,0,-9,0,444234,0
444235,94,-2060,296,-108,34,143,9705,12,5,309,56,35700,36,33,127,0,0,2926,0,0,1553,-18,180,44387,-4,0,-9,0,444234,0
444245,110,-2064,297,-96,24,141,9710,16,0,319,80,35702,45,33,127,0,0,2928,21,0,1553,-18,180,44397,-4,0,-9,0,444234,0
444255,103,-2063,303,-99,29,141,9714,14,4,303,72,35698,40,33,127,0,0,2928,0,0,1553,-18,180,44407,-4,0,-9,0,444234,0
444265,97,-2060,301,-100,35,144,9717,3,-1,332,88,35696,47,33,127,0,0,2928,-10,0,1553,-18,180,44417,-4,0,-9,0,444265,0
444275,112,-2071,307,-104,37,135,9727,24,5,278,64,35699,69,33,127,0,0,2928,-21,0,1553,-18,180,44427,-4,0,-9,0,444265,0
444285,118,-2066,303,-97,43,133,9743,42,23,177,56,35696,64,33,127,0,0,2931,21,0,1553,-18,180,44437,-4,0,-9,0,444265,0
444295,129,-2071,307,-99,22,146,9758,21,15,83,40,35700,46,33,127,0,0,2931,10,0,1553,-18,180,44447,-4,0,-9,0,444296,0
444305,88,-2074,301,-100,26,146,9757,12,-31,133,24,35690,0,33,127,0,0,2935,43,0,1553,-18,180,44457,-4,0,-9,0,444296,0
444315,89,-2055,307,-97,37,141,9758,8,-15,254,64,35692,10,33,127,0,0,2935,0,0,1553,-18,180,44467,-4,0,-9,0,444296,0
444325,90,-2068,300,-102,31,142,9760,7,2,230,72,35698,23,33,127,0,0,2933,-21,0,1553,-18,180,44477,-4,0,-9,0,444296,0
444335,112,-2063,302,-102,27,139,9760,0,-3,231,32,35707,28,33,127,0,0,2937,10,0,1553,-18,180,44487,-4,0,-9,0,444327,0
444345,101,-2070,302,-100,26,148,9760,-2,-4,242,40,35708,22,33,127,0,0,2937,21,0,1553,-18,180,44497,-4,0,-9,0,444327,0
444355,93,-2063,303,-100,35,141,9765,10,7,276,40,35706,14,33,127,0,0,2939,21,0,1553,-18,180,44507,-4,0,-9,0,444327,0
444365,107,-2067,296,-104,22,138,9764,2,-1,306,80,35699,18,33,127,0,0,2937,0,0,1553,-18,180,44517,-4,0,-9,0,444343,0
444375,92,-2065,305,-104,30,128,9764,0,-4,297,80,35700,20,33,127,0,0,2937,0,0,1553,-18,180,44527,-4,0,-9,0,444359,0
444385,99,-2061,304,-104,32,126,9765,-2,-3,279,72,35705,24,33,127,0,0,2939,21,0,1553,-18,180,44537,-4,0,-9,0,444374,0
444395,93,-2067,300,-111,32,119,9767,9,4,308,72,35693,34,33,127,0,0,2937,-21,0,1553,-18,180,44547,-4,0,-9,0,444390,0
444406,98,-2065,300,-109,36,119,9767,9,0,291,72,35689,24,33,127,0,0,2937,-5,0,1553,-18,180,44558,-4,0,-9,0,444390,0
444416,115,-2057,299,-109,29,112,9765,0,-7,301,96,35686,17,33,127,0,0,2936,-10,0,1553,-18,180,44568,-4,0,-9,0,444390,0
444426,95,-2069,300,-106,32,109,9767,-1,-1,277,72,35689,5,33,127,0,0,2937,-16,0,1553,-18,180,44578,-4,0,-9,0,444468,0
444436,97,-2062,306,-109,30,110,9768,5,5,292,72,35689,33,33,127,0,0,2941,16,0,1553,-18,180,44588,-4,0,-9,0,444468,0
444446,112,-2075,293,-109,33,117,9767,-1,3,292,72,35688,31,33,127,0,0,2937,-16,0,1553,-18,180,44598,-4,0,-9,0,444468,0
444456,109,-2073,297,-113,33,112,9766,1,-2,268,72,35689,27,33,127,0,0,2941,32,0,1553,-18,180,44608,-4,0,-9,0,444468,0
444466,108,-2075,295,-113,28,105,9768,1,4,303,72,35691,10,33,127,0,0,2941,0,0,1553,-18,180,44618,-4,0,-9,0,444468,0
444476,77,-2072,297,-116,30,106,9769,12,-2,316,88,35690,7,33,127,0,0,2936,-27,0,1553,-18,180,44628,-4,0,-9,0,444484,0
444486,106,-2073,298,-115,23,101,9766,-5,-4,265,96,35686,13,33,127,0,0,2939,38,0,1553,-18,180,44638,-4,0,-9,0,444484,0
444496,115,-2070,293,-110,26,105,9767,-14,-1,270,72,35684,-1,33,127,0,0,2937,10,0,1553,-18,180,44648,-4,0,-9,0,444484,0
444506,112,-2065,292,-111,30,107,9768,3,2,277,72,35700,2,33,127,0,0,2937,-27,0,1553,-18,180,44658,-4,0,-9,0,444484,0
444516,107,-2064,285,-109,28,107,9767,0,-3,248,48,35714,17,33,127,0,0,2938,21,0,1553,-18,180,44668,-4,0,-9,0,444515,0
444526,111,-2065,284,-106,31,113,9767,4,0,253,72,35713,38,33,127,0,0,2937,5,0,1553,-18,180,44678,-4,0,-9,0,444515,0
444536,108,-2061,289,-102,37,121,9767,1,4,225,72,35696,47,33,127,0,0,2937,32,0,1553,-18,180,44688,-4,0,-9,0,444515,0
444546,136,-2069,287,-102,31,123,9767,1,-1,229,72,35692,37,33,127,0,0,2934,-10,0,1553,-18,180,44698,-4,0,-9,0,444530,0
444556,135,-2062,287,-90,38,134,9766,-3,-1,218,72,35693,25,33,127,0,0,2937,10,0,1553,-18,180,44708,-4,0,-9,0,444546,0
444566,124,-2061,293,-100,49,134,9768,0,-2,262,72,35694,19,33,127,0,0,2934,-32,0,1553,-18,180,44718,-4,0,-9,0,444546,0
444576,121,-2065,287,-95,41,132,9767,3,-2,253,48,35695,13,33,127,0,0,2938,-16,0,1553,-18,180,44728,-4,0,-9,0,444577,0
444586,110,-2072,290,-92,48,147,9768,-1,1,272,72,35698,8,33,127,0,0,2937,0,0,1553,-18,180,44738,-4,0,-9,0,444577,0
444596,121,-2067,301,-85,38,151,9767,-4,-3,264,72,35701,5,33,127,0,0,2937,0,0,1553,-18,180,44748,-4,0,-9,0,444577,0
444606,131,-2059,293,-89,47,156,9767,0,-1,253,72,35683,4,33,127,0,0,2937,27,0,1553,-18,180,44758,-4,0,-9,0,444593,0
444616,119,-2074,294,-97,40,166,9767,0,1,283,88,35685,17,33,127,0,0,2939,10,0,1553,-18,180,44768,-4,0,-9,0,444593,0
444627,132,-2073,299,-92,26,193,9768,-4,2,319,88,35691,17,33,127,0,0,2939,21,0,1553,-18,180,44779,-4,0,-9,0,444624,0
444637,118,-2078,292,-94,21,198,9772,10,6,379,96,35695,13,33,127,0,0,2942,-21,0,1553,-18,180,44789,-4,0,-9,0,444624,0
444647,111,-2065,291,-92,27,208,9773,-1,-2,394,168,35686,15,33,127,0,0,2946,65,0,1553,-18,180,44799,-4,0,-9,0,444624,0
444657,111,-2063,288,-93,26,207,9783,27,8,437,120,35680,12,33,127,0,0,2948,10,0,1553,-18,180,44809,-4,0,-9,0,444640,0
444667,105,-2064,300,-93,30,202,9801,50,39,419,136,35690,10,33,127,0,0,2948,-21,0,1553,-18,180,44819,-4,0,-9,0,444655,0
444677,116,-2059,297,-87,25,215,9832,50,39,257,96,35690,-2,33,127,0,0,2953,21,0,1553,-18,180,44829,-4,0,-9,0,444655,0
444687,96,-2054,287,-87,33,200,9834,-9,-44,380,104,35694,-11,33,127,0,0,2955,0,0,1553,-18,180,44839,-4,0,-9,0,444671,0
444697,90,-2066,287,-88,26,195,9837,10,-52,432,152,35694,-19,33,127,0,0,2959,21,0,1553,-18,180,44849,-4,0,-9,0,444687,0
444707,95,-2059,279,-82,34,186,9839,6,7,491,168,35691,-15,33,127,0,0,2961,32,0,1553,-18,180,44859,-4,0,-9,0,444687,0
444717,97,-2074,291,-76,30,187,9845,5,7,483,176,35691,-18,33,127,0,0,2964,32,0,1553,-18,180,44869,-4,0,-9,0,444780,0
444727,83,-2076,292,-80,28,186,9858,31,20,490,152,35685,-5,33,127,0,0,2966,21,0,1553,-18,180,44879,-4,0,-9,0,444780,0
444737,69,-2069,289,-77,33,172,9880,67,34,389,128,35669,-9,33,127,0,0,2966,32,0,1553,-18,180,44889,-4,0,-9,0,444780,0
444747,98,-2067,296,-78,33,172,9907,32,27,281,56,35667,-19,33,127,0,0,2968,0,0,1553,-18,180,44899,-4,0,-9,0,444780,0
444757,64,-2067,297,-79,33,157,9908,-3,-62,351,120,35657,-9,33,127,0,0,2972,43,0,1553,-18,180,44909,-4,0,-9,0,444780,0
444767,75,-2061,296,-79,43,150,9911,6,-36,393,128,35658,4,33,127,0,0,2968,-10,0,1553,-18,180,44919,-4,0,-9,0,444796,0
444777,94,-2066,305,-81,38,142,9920,12,16,341,120,35656,12,33,127,0,0,2972,10,0,1553,-18,180,44929,-4,0,-9,0,444796,0
444787,90,-2075,304,-87,34,142,9937,54,23,253,80,35659,14,33,127,0,0,2972,10,0,1553,-18,180,44939,-4,0,-9,0,444796,0
444797,115,-2074,297,-84,25,152,9959,25,25,136,56,35661,11,33,127,0,0,2972,10,0,1553,-18,180,44949,-4,0,-9,0,444796,0
444807,81,-2076,291,-88,24,139,9956,0,-54,173,64,35662,22,33,127,0,0,2972,10,0,1553,-18,180,44959,-4,0,-9,0,444796,0
444817,103,-2058,286,-82,38,135,9959,-6,-24,168,16,35676,34,33,127,0,0,2975,-10,0,1553,-18,180,44969,-4,0,-9,0,444796,0
444827,77,-2072,279,-80,33,142,9959,3,1,195,8,35694,61,33,127,0,0,2977,10,0,1553,-18,180,44979,-4,0,-9,0,444812,0
444837,80,-2068,276,-76,38,139,9960,13,2,277,88,35702,64,33,127,0,0,2977,0,0,1553,-18,180,44989,-4,0,-9,0,444827,0
444847,103,-2058,294,-76,33,131,9961,1,0,289,88,35687,59,33,127,0,0,2979,0,0,1553,-18,180,44999,-4,0,-9,0,444827,0
444857,104,-2061,296,-72,33,124,9961,-1,-3,276,88,35674,38,33,127,0,0,2981,43,0,1553,-18,180,45009,-4,0,-9,0,444843,0
444867,78,-2062,300,-76,36,131,9963,0,1,333,104,35667,49,33,127,0,0,2981,32,0,1553,-18,180,45019,-4,0,-9,0,444843,0
444878,76,-2062,298,-83,40,124,9962,-1,-1,347,104,35673,41,33,127,0,0,2981,16,0,1553,-18,180,45030,-4,0,-9,0,444858,0
444888,80,-2071,292,-78,35,120,9964,0,0,362,80,35679,40,33,127,0,0,2982,-5,0,1553,-18,180,45040,-4,0,-9,0,444890,0
444898,71,-2064,299,-82,24,112,9965,0,0,367,96,35682,26,33,127,0,0,2978,-60,0,1553,-18,180,45050,-4,0,-9,0,444890,0
444908,83,-2071,296,-87,28,106,9965,3,-3,354,96,35683,19,33,127,0,0,2981,-10,0,1553,-18,180,45060,-4,0,-9,0,444890,0
444918,75,-2072,293,-79,29,110,9967,3,3,365,96,35684,13,33,127,0,0,2981,-27,0,1553,-18,180,45070,-4,0,-9,0,444921,0
444928,87,-2074,300,-87,33,113,9965,-6,-3,327,72,35678,16,33,127,0,0,2982,0,0,1553,-18,180,45080,-4,0,-9,0,444921,0
444938,93,-2079,297,-86,25,103,9966,4,0,354,88,35673,18,33,127,0,0,2981,0,0,1553,-18,180,45090,-4,0,-9,0,444921,0
444948,88,-2068,298,-86,36,105,9966,0,-1,346,96,35667,28,33,127,0,0,2978,-32,0,1553,-18,180,45100,-4,0,-9,0,444921,0
444958,72,-2055,293,-90,29,105,9965,-1,-6,321,72,35676,34,33,127,0,0,2979,-32,0,1553,-18,180,45110,-4,0,-9,0,444941,0
444968,95,-2058,297,-96,32,100,9966,7,2,332,72,35681,30,33,127,0,0,2982,-16,0,1553,-18,180,45120,-4,0,-9,0,444941,0
444978,76,-2067,288,-87,37,108,9967,1,7,340,96,35679,34,33,127,0,0,2981,0,0,1553,-18,180,45130,-4,0,-9,0,444972,0
444988,85,-2065,292,-82,36,107,9965,0,-5,308,96,35674,18,33,127,0,0,2981,21,0,1553,-18,180,45140,-4,0,-9,0,444972,0
444998,106,-2074,292,-90,33,103,9967,-1,2,332,72,35666,9,33,127,0,0,2979,-21,0,1553,-18,180,45150,-4,0,-9,0,444972,0
445008,85,-2075,290,-89,32,101,9967,3,3,299,72,35685,7,33,127,0,0,2982,5,0,1553,-18,180,45160,-4,0,-9,0,444988,0
445018,79,-2077,288,-89,35,105,9966,0,1,308,72,35688,20,33,127,0,0,2982,16,0,1553,-18,180,45170,-4,0,-9,0,445003,0
445028,62,-2078,284,-83,29,99,9966,0,-5,299,96,35690,26,33,127,0,0,2978,16,0,1553,-18,180,45180,-4,0,-9,0,445003,0
445038,97,-2072,285,-79,42,87,9965,0,-4,279,96,35688,25,33,127,0,0,2978,-5,0,1553,-18,180,45190,-4,0,-9,0,445035,0
445048,93,-2073,280,-77,34,91,9966,6,2,300,96,35685,27,33,127,0,0,2978,-21,0,1553,-18,180,45200,-4,0,-9,0,445035,0
445058,91,-2076,287,-77,39,101,9966,4,-6,298,80,35683,36,33,127,0,0,2979,-27,0,1553,-18,180,45210,-4,0,-9,0,445035,0
445068,89,-2074,285,-76,41,91,9965,-3,-2,269,80,35683,30,33,127,0,0,2976,-5,0,1553,-18,180,45220,-4,0,-9,0,445050,0
445078,121,-2062,291,-76,41,84,9964,-6,-4,224,80,35686,20,33,127,0,0,2972,-16,0,1553,-18,180,45230,-4,0,-9,0,445160,0
445088,122,-2066,297,-73,37,94,9963,0,-7,171,80,35691,19,33,127,0,0,2972,-5,0,1553,-18,180,45240,-4,0,-9,0,445160,0
445098,116,-2057,296,-78,41,93,9964,0,2,166,56,35687,28,33,127,0,0,2977,21,0,1553,-18,180,45250,-4,0,-9,0,445175,0
445108,97,-2061,288,-74,42,100,9964,-3,1,157,56,35683,35,33,127,0,0,2973,5,0,1553,-18,180,45260,-4,0,-9,0,445175,0
445118,105,-2061,288,-66,37,101,9963,0,-5,136,16,35673,36,33,127,0,0,2972,-49,0,1553,-18,180,45270,-4,0,-9,0,445175,0
445128,91,-2072,282,-63,40,94,9963,1,2,130,56,35675,31,33,127,0,0,2973,38,0,1553,-18,180,45280,-4,0,-9,0,445175,0
445138,108,-2072,291,-56,41,99,9961,-11,-5,114,0,35674,26,33,127,0,0,2973,-21,0,1553,-18,180,45290,-4,0,-9,0,445175,0
445148,86,-2070,295,-63,32,98,9962,5,0,108,40,35671,27,33,127,0,0,2971,5,0,1553,-18,180,45300,-4,0,-9,0,445175,0
445158,113,-2073,295,-60,39,101,9961,-2,4,113,24,35673,27,33,127,0,0,2972,0,0,1553,-18,180,45310,-4,0,-9,0,445175,0
445168,112,-2073,300,-60,38,113,9960,-6,-10,92,24,35681,32,33,127,0,0,2972,27,0,1553,-18,180,45320,-4,0,-9,0,445175,0
445178,112,-2066,298,-58,34,111,9962,0,2,110,16,35682,32,33,127,0,0,2969,-32,0,1553,-18,180,45330,-4,0,-9,0,445191,0
445188,109,-2078,294,-61,41,110,9962,10,4,102,16,35681,34,33,127,0,0,2972,-10,0,1553,-18,180,45340,-4,0,-9,0,445191,0
445199,110,-2060,300,-55,42,114,9961,-1,-1,69,-8,35671,34,33,127,0,0,2970,-32,0,1553,-18,180,45351,-4,0,-9,0,445191,0
445209,70,-2073,297,-64,42,122,9960,0,-4,90,24,35678,35,33,127,0,0,2970,-21,0,1553,-18,180,45361,-4,0,-9,0,445191,0
445219,99,-2058,308,-66,37,120,9959,-16,-2,28,8,35695,41,33,127,0,0,2970,10,0,1553,-18,180,45371,-4,0,-9,0,445191,0
445229,104,-2065,304,-65,37,111,9959,-10,-2,15,8,35707,37,33,127,0,0,2970,10,0,1553,-18,180,45381,-4,0,-9,0,445222,0
445239,115,-2075,299,-67,39,114,9961,2,10,69,-8,35701,28,33,127,0,0,2972,-10,0,1553,-18,180,45391,-4,0,-9,0,445222,0
445249,101,-2066,294,-69,28,119,9959,5,-6,77,32,35690,29,33,127,0,0,2972,32,0,1553,-18,180,45401,-4,0,-9,0,445238,0
445259,114,-2070,291,-69,44,113,9957,-20,-8,44,8,35670,21,33,127,0,0,2972,32,0,1553,-18,180,45411,-4,0,-9,0,445238,0
445269,119,-2058,297,-70,33,108,9961,7,2,82,-8,35674,15,33,127,0,0,2975,0,0,1553,-18,180,45421,-4,0,-9,0,445253,0
445279,51,-2080,302,-67,39,111,9960,14,1,68,0,35681,26,33,127,0,0,2972,21,0,1553,-18,180,45431,-4,0,-9,0,445253,0
445289,93,-2084,300,-71,36,107,9961,9,0,116,24,35679,30,33,127,0,0,2970,-21,0,1553,-18,180,45441,-4,0,-9,0,445269,0
445299,103,-2073,305,-67,38,107,9959,0,2,74,24,35677,38,33,127,0,0,2970,0,0,1553,-18,180,45451,-4,0,-9,0,445285,0
445309,113,-2060,304,-70,42,108,9958,-18,-6,31,8,35679,31,33,127,0,0,2972,32,0,1553,-18,180,45461,-4,0,-9,0,445285,0
445319,123,-2072,288,-70,37,120,9960,-5,5,52,-40,35687,32,33,127,0,0,2970,-10,0,1553,-18,180,45471,-4,0,-9,0,445300,0
445329,94,-2065,282,-75,38,122,9959,7,-2,13,16,35693,42,33,127,0,0,2970,10,0,1553,-18,180,45481,-4,0,-9,0,445331,0
445339,94,-2071,290,-65,31,122,9959,-1,1,57,32,35682,49,33,127,0,0,2970,10,0,1553,-18,180,45491,-4,0,-9,0,445331,0
445349,74,-2066,307,-67,46,119,9960,0,3,65,-40,35680,52,33,127,0,0,2970,-32,0,1553,-18,180,45501,-4,0,-9,0,445331,0
445359,62,-2065,306,-66,35,117,9958,0,-3,47,40,35670,57,33,127,0,0,2970,10,0,1553,-18,180,45511,-4,0,-9,0,445331,0
445369,88,-2070,303,-75,41,115,9959,-10,2,52,8,35673,48,33,127,0,0,2972,-10,0,1553,-18,180,45521,-4,0,-9,0,445363,0
445379,81,-2064,308,-73,35,114,9961,14,2,96,-8,35675,54,33,127,0,0,2970,-32,0,1553,-18,180,45531,-4,0,-9,0,445363,0
445389,61,-2078,291,-73,36,116,9959,9,2,58,8,35677,44,33,127,0,0,2970,-21,0,1553,-18,180,45541,-4,0,-9,0,445363,0
445400,76,-2070,299,-67,31,111,9957,-2,-5,51,24,35676,38,33,127,0,0,2969,16,0,1553,-18,180,45552,-4,0,-9,0,445378,0
445410,97,-2057,303,-70,29,104,9958,-10,1,85,8,35676,29,33,127,0,0,2973,0,0,1553,-18,180,45562,-4,0,-9,0,445394,0
445420,93,-2068,299,-69,32,106,9960,0,0,92,-16,35674,37,33,127,0,0,2971,-16,0,1553,-18,180,45572,-4,0,-9,0,445425,0
445430,61,-2065,302,-70,31,114,9959,8,-1,69,24,35675,28,33,127,0,0,2969,0,0,1553,-18,180,45582,-4,0,-9,0,445425,0
445440,123,-2057,303,-69,24,101,9959,0,-3,102,-16,35662,11,33,127,0,0,2968,-87,0,1553,-18,180,45592,-4,0,-9,0,445425,0
445450,72,-2070,301,-61,42,105,9958,10,3,67,24,35662,19,33,127,0,0,2969,-10,0,1553,-18,180,45602,-4,0,-9,0,445425,0
445460,132,-2055,304,-64,37,104,9955,-23,0,-9,8,35660,17,33,127,0,0,2967,16,0,1553,-18,180,45612,-4,0,-9,0,445441,0
445470,128,-2070,301,-70,34,110,9955,-18,-3,-57,-16,35671,41,33,127,0,0,2971,49,0,1553,-18,180,45622,-4,0,-9,0,445456,0
445480,101,-2081,295,-71,51,117,9959,6,8,-30,-16,35670,41,33,127,0,0,2968,0,0,1553,-18,180,45632,-4,0,-9,0,445472,0
445490,85,-2077,296,-70,48,126,9958,17,1,-31,-16,35671,41,33,127,0,0,2971,32,0,1553,-18,180,45642,-4,0,-9,0,445488,0
445500,92,-2066,304,-66,45,121,9956,-5,-3,-24,-8,35663,33,33,127,0,0,2968,10,0,1553,-18,180,45652,-4,0,-9,0,445488,0
445510,112,-2071,297,-63,51,124,9956,-2,-1,-73,-16,35669,34,33,127,0,0,2968,5,0,1553,-18,180,45662,-4,0,-9,0,445488,0
445520,92,-2069,301,-70,38,125,9958,5,7,-15,-16,35667,35,33,127,0,0,2968,-16,0,1553,-18,180,45672,-4,0,-9,0,445503,0
445530,85,-2067,296,-72,37,124,9955,-4,-6,-35,-8,35671,22,33,127,0,0,2968,0,0,1553,-18,180,45682,-4,0,-9,0,445534,0
445540,105,-2063,305,-69,45,126,9955,-9,-7,-56,-8,35676,30,33,127,0,0,2968,16,0,1553,-18,180,45692,-4,0,-9,0,445534,0
445550,117,-2059,299,-76,41,122,9958,3,1,-22,-16,35673,29,33,127,0,0,2968,-16,0,1553,-18,180,45702,-4,0,-9,0,445534,0
445560,85,-2067,298,-77,46,126,9955,3,-5,-66,-8,35666,28,33,127,0,0,2965,-5,0,1553,-18,180,45712,-4,0,-9,0,445550,0
445570,77,-2064,303,-78,43,120,9956,4,-1,-48,-32,35661,18,33,127,0,0,2969,-16,0,1553,-18,180,45722,-4,0,-9,0,445550,0
445580,66,-2052,307,-70,40,121,9958,11,7,-35,-8,35667,19,33,127,0,0,2968,0,0,1553,-18,180,45732,-4,0,-9,0,445581,0
445590,98,-2077,301,-77,52,132,9956,-4,2,-40,-16,35668,32,33,127,0,0,2968,0,0,1553,-18,180,45742,-4,0,-9,0,445581,0
445600,109,-2063,305,-71,46,131,9955,-4,-7,-34,-8,35669,32,33,127,0,0,2968,0,0,1553,-18,180,45752,-4,0,-9,0,445581,0
445610,92,-2075,301,-78,41,129,9956,-8,1,-42,-8,35658,28,33,127,0,0,2965,-32,0,1553,-18,180,45762,-4,0,-9,0,445581,0
445620,113,-2072,306,-72,43,131,9957,8,1,-48,-8,35662,29,33,127,0,0,2965,-43,0,1553,-18,180,45772,-4,0,-9,0,445597,0
445630,61,-2061,306,-76,32,125,9957,14,4,-23,-16,35666,31,33,127,0,0,2971,16,0,1553,-18,180,45782,-4,0,-9,0,445613,0
445641,90,-2076,306,-78,36,122,9956,-12,1,-6,-16,35667,30,33,127,0,0,2968,0,0,1553,-18,180,45793,-4,0,-9,0,445628,0
445651,92,-2069,305,-81,33,124,9957,1,-1,-41,-16,35672,24,33,127,0,0,2968,0,0,1553,-18,180,45803,-4,0,-9,0,445628,0
445661,73,-2069,315,-84,37,118,9957,8,3,-24,-16,35662,25,33,127,0,0,2968,-21,0,1553,-18,180,45813,-4,0,-9,0,445644,0
445671,76,-2078,311,-87,36,115,9956,-3,-4,-64,0,35662,34,33,127,0,0,2968,0,0,1553,-18,180,45823,-4,0,-9,0,445675,0
445681,107,-2071,298,-89,37,103,9955,-1,-7,-76,-8,35660,32,33,127,0,0,2968,43,0,1553,-18,180,45833,-4,0,-9,0,445675,0
445691,106,-2070,301,-90,38,104,9955,-13,-2,-58,-8,35658,27,33,127,0,0,2968,21,0,1553,-18,180,45843,-4,0,-9,0,445675,0
445701,91,-2057,299,-86,33,101,9956,-4,-1,-37,-16,35653,29,33,127,0,0,2968,0,0,1553,-18,180,45853,-4,0,-9,0,445691,0
445711,100,-2058,291,-85,35,104,9956,-1,0,-60,-8,35654,30,33,127,0,0,2968,21,0,1553,-18,180,45863,-4,0,-9,0,445691,0
445721,106,-2052,286,-83,38,88,9955,-10,-5,-77,-40,35658,34,33,127,0,0,2968,21,0,1553,-18,180,45873,-4,0,-9,0,445738,0
445731,65,-2066,296,-83,34,92,9955,-6,-5,-99,-72,35661,26,33,127,0,0,2966,10,0,1553,-18,180,45883,-4,0,-9,0,445738,0
445741,82,-2061,293,-79,39,72,9956,2,4,-122,-32,35664,30,33,127,0,0,2964,-32,0,1553,-18,180,45893,-4,0,-9,0,445738,0
445751,99,-2050,304,-78,37,70,9953,-7,0,-176,-40,35650,31,33,127,0,0,2964,0,0,1553,-18,180,45903,-4,0,-9,0,445738,0
445761,116,-2062,315,-72,42,71,9951,-9,-7,-202,-72,35647,40,33,127,0,0,2961,-10,0,1553,-18,180,45913,-4,0,-9,0,445753,0
445771,113,-2068,311,-82,33,81,9952,0,5,-219,-64,35648,35,33,127,0,0,2959,-10,0,1553,-18,180,45923,-4,0,-9,0,445753,0
445781,116,-2064,306,-83,33,86,9950,-10,-2,-258,-64,35664,29,33,127,0,0,2959,0,0,1553,-18,180,45933,-4,0,-9,0,445769,0
445791,112,-2072,301,-89,34,100,9949,-4,1,-261,-48,35677,26,33,127,0,0,2959,-10,0,1553,-18,180,45943,-4,0,-9,0,445784,0
445801,103,-2061,299,-76,31,98,9946,-4,-4,-278,-72,35677,21,33,127,0,0,2959,10,0,1553,-18,180,45953,-4,0,-9,0,445784,0
445811,103,-2057,298,-72,39,108,9946,0,2,-279,-72,35667,21,33,127,0,0,2957,-10,0,1553,-18,180,45963,-4,0,-9,0,445784,0
445821,95,-2069,301,-75,29,109,9944,1,2,-309,-96,35658,22,33,127,0,0,2957,-21,0,1553,-18,180,45973,-4,0,-9,0,445894,0
445831,103,-2071,306,-72,35,109,9945,2,5,-329,-96,35665,18,33,127,0,0,2957,0,0,1553,-18,180,45983,-4,0,-9,0,445894,0
445841,104,-2074,306,-71,36,117,9943,3,1,-340,-128,35669,25,33,127,0,0,2957,0,0,1553,-18,180,45993,-4,0,-9,0,445894,0
445851,102,-2069,303,-75,24,125,9943,2,1,-308,-104,35664,27,33,127,0,0,2955,-10,0,1553,-18,180,46003,-4,0,-9,0,445894,0
445861,90,-2067,301,-74,22,126,9939,-9,-8,-332,-88,35658,30,33,127,0,0,2957,0,0,1553,-18,180,46013,-4,0,-9,0,445894,0
445871,100,-2057,300,-74,34,130,9941,-7,1,-334,-88,35651,24,33,127,0,0,2961,43,0,1553,-18,180,46023,-4,0,-9,0,445909,0
445881,136,-2062,291,-68,36,131,9943,4,7,-261,-104,35651,22,33,127,0,0,2957,-10,0,1553,-18,180,46033,-4,0,-9,0,445909,0
445891,105,-2072,287,-68,37,133,9940,-1,-7,-329,-88,35650,24,33,127,0,0,2957,0,0,1553,-18,180,46043,-4,0,-9,0,445909,0
445901,99,-2050,297,-59,47,133,9942,0,1,-285,-104,35649,19,33,127,0,0,2957,0,0,1553,-18,180,46053,-4,0,-9,0,445909,0
445911,96,-2051,310,-57,34,135,9942,14,6,-270,-104,35651,14,33,127,0,0,2959,10,0,1553,-18,180,46063,-4,0,-9,0,445909,0
445922,89,-2064,302,-59,37,138,9943,6,3,-227,-64,35654,16,33,127,0,0,2959,-16,0,1553,-18,180,46074,-4,0,-9,0,445909,0
445932,99,-2057,312,-66,34,140,9941,-5,-2,-242,-72,35658,22,33,127,0,0,2956,-32,0,1553,-18,180,46084,-4,0,-9,0,445909,0
445942,85,-2064,308,-67,37,143,9944,17,5,-191,-72,35669,32,33,127,0,0,2959,-60,0,1553,-18,180,46094,-4,0,-9,0,445925,0
445952,117,-2061,318,-64,30,136,9943,6,4,-185,-24,35688,31,33,127,0,0,2957,-10,0,1553,-18,180,46104,-4,0,-9,0,445956,0
445962,114,-2055,317,-66,32,146,9943,-8,-4,-171,-32,35695,36,33,127,0,0,2960,-10,0,1553,-18,180,46114,-4,0,-9,0,445956,0
445972,111,-2069,301,-68,32,154,9944,-3,-1,-155,-56,35691,38,33,127,0,0,2965,-10,0,1553,-18,180,46124,-4,0,-9,0,445956,0
445982,89,-2063,296,-67,36,155,9945,6,0,-141,-32,35669,36,33,127,0,0,2964,5,0,1553,-18,180,46134,-4,0,-9,0,445956,0
445992,91,-2064,306,-66,37,150,9947,7,0,-76,-16,35661,29,33,127,0,0,2963,-27,0,1553,-18,180,46144,-4,0,-9,0,445972,0
446002,104,-2070,316,-74,28,146,9946,8,-4,-97,-16,35671,31,33,127,0,0,2966,21,0,1553,-18,180,46154,-4,0,-9,0,445987,0
446012,101,-2065,310,-76,34,151,9947,-3,1,-45,8,35679,38,33,127,0,0,2965,5,0,1553,-18,180,46164,-4,0,-9,0,446003,0
446022,101,-2066,310,-80,31,150,9948,1,-2,-44,-16,35682,40,33,127,0,0,2966,-27,0,1553,-18,180,46174,-4,0,-9,0,446003,0
446032,88,-2067,305,-84,37,146,9948,0,-5,-39,-16,35667,45,33,127,0,0,2969,16,0,1553,-18,180,46184,-4,0,-9,0,446019,0
446042,75,-2069,301,-80,37,151,9952,17,4,81,0,35675,42,33,127,0,0,2971,-16,0,1553,-18,180,46194,-4,0,-9,0,446019,0
446052,102,-2057,316,-84,51,141,9954,0,-1,55,0,35673,33,33,127,0,0,2971,-5,0,1553,-18,180,46204,-4,0,-9,0,446050,0
446062,99,-2058,317,-87,33,146,9952,-3,-10,45,16,35679,52,33,127,0,0,2970,43,0,1553,-18,180,46214,-4,0,-9,0,446050,0
446072,97,-2064,318,-92,33,145,9952,-6,0,48,16,35677,54,33,127,0,0,2970,0,0,1553,-18,180,46224,-4,0,-9,0,446050,0
446082,94,-2064,307,-97,45,140,9954,0,-2,64,32,35679,51,33,127,0,0,2972,38,0,1553,-18,180,46234,-4,0,-9,0,446081,0
446092,77,-2065,299,-101,40,143,9954,-3,-2,94,16,35688,52,33,127,0,0,2973,16,0,1553,-18,180,46244,-4,0,-9,0,446081,0
446102,100,-2073,291,-92,43,140,9955,12,-4,91,32,35684,28,33,127,0,0,2969,0,0,1553,-18,180,46254,-4,0,-9,0,446081,0
446112,77,-2070,294,-87,31,131,9954,-1,-3,69,32,35680,35,33,127,0,0,2969,16,0,1553,-18,180,46264,-4,0,-9,0,446097,0
446122,77,-2059,298,-86,40,121,9953,-9,-3,44,16,35681,36,33,127,0,0,2970,16,0,1553,-18,180,46274,-4,0,-9,0,446097,0
446133,80,-2075,309,-89,36,120,9957,7,6,110,8,35674,45,33,127,0,0,2972,-10,0,1553,-18,180,46285,-4,0,-9,0,446128,0
446143,38,-2076,304,-86,36,113,9956,11,3,115,32,35681,44,33,127,0,0,2970,10,0,1553,-18,180,46295,-4,0,-9,0,446144,0
446153,28,-2069,304,-92,44,90,9954,-7,-11,88,0,35674,42,33,127,0,0,2970,0,0,1553,-18,180,46305,-4,0,-9,0,446144,0
446163,90,-2068,307,-83,38,82,9954,-13,1,46,16,35678,47,33,127,0,0,2972,32,0,1553,-18,180,46315,-4,0,-9,0,446144,0
446173,125,-2063,303,-83,37,78,9956,-5,2,43,-8,35681,57,33,127,0,0,2968,-21,0,1553,-18,180,46325,-4,0,-9,0,446144,0
446183,77,-2076,296,-86,35,76,9953,2,-5,-12,-8,35685,70,33,127,0,0,2968,0,0,1553,-18,180,46335,-4,0,-9,0,446237,0
446193,80,-2067,300,-85,41,68,9953,1,-3,3,-8,35688,75,33,127,0,0,2966,-21,0,1553,-18,180,46345,-4,0,-9,0,446237,0
446203,110,-2068,302,-80,45,57,9952,7,-4,-93,-56,35685,65,33,127,0,0,2968,0,0,1553,-18,180,46355,-4,0,-9,0,446237,0
446213,84,-2071,299,-71,49,64,9953,0,11,-91,-16,35676,52,33,127,0,0,2966,10,0,1553,-18,180,46365,-4,0,-9,0,446253,0
446223,73,-2062,292,-72,50,52,9950,-11,-2,-150,-72,35674,45,33,127,0,0,2964,0,0,1553,-18,180,46375,-4,0,-9,0,446253,0
446233,85,-2072,298,-73,48,44,9949,5,-5,-180,-72,35665,35,33,127,0,0,2959,-65,0,1553,-18,180,46385,-4,0,-9,0,446253,0
446243,105,-2058,306,-69,48,41,9947,0,-2,-254,-112,35670,29,33,127,0,0,2957,-43,0,1553,-18,180,46395,-4,0,-9,0,446253,0
446253,96,-2066,303,-61,43,50,9944,-2,-1,-327,-96,35671,35,33,127,0,0,2955,-10,0,1553,-18,180,46405,-4,0,-9,0,446253,0
446263,104,-2063,301,-63,38,56,9942,-6,1,-361,-112,35671,47,33,127,0,0,2955,0,0,1553,-18,180,46415,-4,0,-9,0,446253,0
446273,98,-2064,294,-61,44,49,9940,0,0,-359,-104,35667,53,33,127,0,0,2953,-32,0,1553,-18,180,46425,-4,0,-9,0,446253,0
446283,105,-2066,294,-60,45,51,9936,-13,-6,-411,-152,35675,53,33,127,0,0,2950,-10,0,1553,-18,180,46435,-4,0,-9,0,446269,0
446293,109,-2069,296,-48,49,55,9924,-33,-17,-374,-120,35694,50,33,127,0,0,2948,-32,0,1553,-18,180,46445,-4,0,-9,0,446269,0
446303,117,-2069,303,-41,48,54,9897,-77,-44,-229,-80,35706,46,33,127,0,0,2948,-21,0,1553,-18,180,46455,-4,0,-9,0,446284,0
446313,62,-2073,298,-43,54,47,9874,-4,-21,-108,-56,35707,24,33,127,0,0,2946,-54,0,1553,-18,180,46465,-4,0,-9,0,446284,0
446323,126,-2066,309,-40,52,61,9874,-3,72,-246,-80,35688,11,33,127,0,0,2944,0,0,1553,-18,180,46475,-4,0,-9,0,446331,0
446333,123,-2080,307,-34,47,69,9873,-2,29,-281,-64,35685,7,33,127,0,0,2942,-21,0,1553,-18,180,46485,-4,0,-9,0,446331,0
446343,120,-2074,302,-32,47,77,9869,-14,-10,-288,-56,35683,16,33,127,0,0,2939,-21,0,1553,-18,180,46495,-4,0,-9,0,446331,0
446353,125,-2070,299,-27,41,85,9859,-36,-20,-301,-88,35679,20,33,127,0,0,2939,0,0,1553,-18,180,46505,-4,0,-9,0,446331,0
446363,124,-2067,302,-32,41,91,9829,-82,-54,-154,-24,35669,15,33,127,0,0,2937,0,0,1553,-18,180,46515,-4,0,-9,0,446362,0
446373,105,-2075,312,-22,57,98,9824,25,13,-120,-8,35674,15,33,127,0,0,2937,-21,0,1553,-18,180,46525,-4,0,-9,0,446362,0
446383,143,-2055,323,-23,45,102,9820,-18,56,-170,-40,35674,6,33,127,0,0,2937,0,0,1553,-18,180,46535,-4,0,-9,0,446362,0
446394,133,-2051,324,-27,43,110,9823,7,-1,-172,-40,35680,7,33,127,0,0,2934,-43,0,1553,-18,180,46546,-4,0,-9,0,446378,0
446404,111,-2045,319,-34,47,115,9824,11,13,-177,-64,35677,4,33,127,0,0,2935,-49,0,1553,-18,180,46556,-4,0,-9,0,446409,0
446414,98,-2049,315,-35,55,122,9821,-1,-3,-181,-56,35682,17,33,127,0,0,2938,10,0,1553,-18,180,46566,-4,0,-9,0,446425,0
446424,103,-2041,324,-36,37,121,9822,-7,4,-193,-56,35686,6,33,127,0,0,2938,27,0,1553,-18,180,46576,-4,0,-9,0,446425,0
446434,109,-2048,309,-40,41,128,9823,1,1,-191,-40,35693,15,33,127,0,0,2937,21,0,1553,-18,180,46586,-4,0,-9,0,446425,0
446444,100,-2057,314,-39,48,130,9822,3,0,-186,-64,35688,12,33,127,0,0,2938,21,0,1553,-18,180,46596,-4,0,-9,0,446425,0
446454,91,-2054,318,-42,37,128,9823,7,1,-182,-64,35685,8,33,127,0,0,2935,-38,0,1553,-18,180,46606,-4,0,-9,0,446425,0
446464,94,-2058,316,-44,46,124,9822,6,-4,-179,-64,35698,11,32,127,0,0,2935,-49,0,1553,-18,180,46616,-4,0,-9,0,446456,0
446474,98,-2067,329,-47,47,128,9823,10,3,-176,-40,35711,20,33,127,0,0,2937,-10,0,1553,-18,180,46626,-4,0,-9,0,446472,0
446484,104,-2057,333,-54,38,130,9821,-3,0,-184,-56,35704,29,33,127,0,0,2938,10,0,1553,-18,180,46636,-4,0,-9,0,446472,0
446494,121,-2076,330,-65,52,126,9823,10,5,-182,-40,35682,18,33,127,0,0,2941,60,0,1553,-18,180,46646,-4,0,-9,0,446472,0
446504,92,-2073,336,-60,39,140,9822,-12,5,-158,-40,35673,8,33,127,0,0,2937,27,0,1553,-18,180,46656,-4,0,-9,0,446503,0
446514,133,-2080,325,-72,33,131,9822,0,-2,-190,-40,35679,-12,33,127,0,0,2937,27,0,1553,-18,180,46666,-4,0,-9,0,446503,0
446524,121,-2080,324,-72,55,138,9823,6,1,-188,-64,35686,-5,33,127,0,0,2938,-5,0,1553,-18,180,46676,-4,0,-9,0,446503,0
446534,110,-2074,314,-79,41,153,9822,2,-1,-180,-64,35673,-1,33,127,0,0,2935,-38,0,1553,-18,180,46686,-4,0,-9,0,446519,0
446544,105,-2070,318,-79,46,148,9823,4,4,-177,-64,35672,-4,33,127,0,0,2935,-32,0,1553,-18,180,46696,-4,0,-9,0,446534,0
446554,91,-2075,314,-84,46,151,9825,18,7,-144,-64,35686,2,33,127,0,0,2938,-32,0,1553,-18,180,46706,-4,0,-9,0,446534,0
446564,89,-2051,324,-74,40,149,9821,-2,-5,-161,-40,35692,-1,33,127,0,0,2941,32,0,1553,-18,180,46716,-4,0,-9,0,446550,0
446574,119,-2066,313,-79,46,160,9822,-11,-1,-159,-40,35688,0,33,127,0,0,2937,10,0,1553,-18,180,46726,-4,0,-9,0,446566,0
446584,101,-2065,310,-81,43,160,9822,3,2,-191,-40,35670,-18,33,127,0,0,2941,32,0,1553,-18,180,46736,-4,0,-9,0,446566,0
446594,108,-2065,312,-75,44,170,9825,6,8,-56,-24,35669,-21,33,127,0,0,2939,0,0,1553,-18,180,46746,-4,0,-9,0,446581,0
446604,110,-2059,315,-72,33,175,9823,-2,-7,-85,-40,35671,-28,33,127,0,0,2941,0,0,1553,-18,180,46756,-4,0,-9,0,446581,0
446614,100,-2065,316,-78,43,193,9825,9,0,-55,0,35675,-24,33,127,0,0,2938,5,0,1553,-18,180,46766,-4,0,-9,0,446597,0
446624,132,-2057,315,-75,34,192,9826,7,7,25,-8,35673,6,33,127,0,0,2942,-32,0,1553,-18,180,46776,-4,0,-9,0,446597,0
446635,109,-2057,322,-73,31,206,9825,-2,-6,56,16,35682,5,33,127,0,0,2946,43,0,1553,-18,180,46787,-4,0,-9,0,446628,0
446645,89,-2059,318,-79,29,214,9832,16,8,193,48,35679,6,33,127,0,0,2948,0,0,1553,-18,180,46797,-4,0,-9,0,446644,0
446655,83,-2059,320,-74,14,207,9833,0,2,223,40,35673,4,33,127,0,0,2950,32,0,1553,-18,180,46807,-4,0,-9,0,446644,0
446665,84,-2059,319,-75,24,195,9835,1,-6,251,24,35661,20,33,127,0,0,2953,21,0,1553,-18,180,46817,-4,0,-9,0,446644,0
446675,63,-2063,315,-79,26,186,9838,13,3,341,96,35671,6,33,127,0,0,2957,54,0,1553,-18,180,46827,-4,0,-9,0,446675,0
446685,83,-2064,316,-76,29,174,9846,11,16,366,72,35680,0,33,127,0,0,2957,10,0,1553,-18,180,46837,-4,0,-9,0,446690,0
446695,72,-2062,313,-77,33,170,9852,21,1,409,112,35675,3,33,127,0,0,2959,0,0,1553,-18,180,46847,-4,0,-9,0,446690,0
446705,71,-2069,316,-72,40,149,9865,36,13,336,88,35665,8,33,127,0,0,2959,0,0,1553,-18,180,46857,-4,0,-9,0,446690,0
446715,73,-2070,323,-74,41,151,9888,45,29,180,48,35676,6,33,127,0,0,2961,21,0,1553,-18,180,46867,-4,0,-9,0,446690,0
446725,81,-2063,323,-78,28,140,9892,-11,-29,185,64,35697,-1,33,127,0,0,2961,32,0,1553,-18,180,46877,-4,0,-9,0,446722,0
446735,76,-2065,321,-80,36,141,9893,2,-43,220,48,35698,4,33,127,0,0,2961,0,0,1553,-18,180,46887,-4,0,-9,0,446737,0
446745,79,-2062,315,-77,36,128,9892,2,-5,213,16,35679,22,33,127,0,0,2961,0,0,1553,-18,180,46897,-4,0,-9,0,446737,0
446755,72,-2070,313,-78,43,130,9893,2,3,224,48,35667,27,33,127,0,0,2964,21,0,1553,-18,180,46907,-4,0,-9,0,446737,0
446765,94,-2071,318,-86,31,121,9893,2,1,243,48,35675,13,33,127,0,0,2964,21,0,1553,-18,180,46917,-4,0,-9,0,446737,0
446775,76,-2075,316,-80,43,128,9893,-4,4,250,80,35688,25,33,127,0,0,2961,0,0,1553,-18,180,46927,-4,0,-9,0,446769,0
446785,80,-2060,313,-80,37,118,9894,3,0,254,72,35683,35,33,127,0,0,2964,10,0,1553,-18,180,46937,-4,0,-9,0,446769,0
446795,70,-2063,320,-78,36,116,9896,8,3,264,80,35673,36,33,127,0,0,2961,-21,0,1553,-18,180,46947,-4,0,-9,0,446769,0
446805,92,-2073,325,-76,39,113,9895,6,4,223,48,35684,20,33,127,0,0,2961,0,0,1553,-18,180,46957,-4,0,-9,0,446784,0
446815,91,-2059,325,-78,40,111,9894,-1,-2,275,56,35698,-10,33,127,0,0,2961,-21,0,1553,-18,180,46967,-4,0,-9,0,446800,0
446825,66,-2062,322,-83,38,113,9895,-2,-3,221,48,35685,-4,33,127,0,0,2961,0,0,1553,-18,180,46977,-4,0,-9,0,446815,0
446835,82,-2054,329,-81,33,114,9896,-5,2,233,48,35675,9,33,127,0,0,2961,-21,0,1553,-18,180,46987,-4,0,-9,0,446815,0
446845,94,-2065,313,-86,29,110,9897,7,7,240,32,35687,13,33,127,0,0,2961,-10,0,1553,-18,180,46997,-4,0,-9,0,446815,0
446855,72,-2061,314,-83,31,102,9897,8,1,244,40,35704,14,33,127,0,0,2964,10,0,1553,-18,180,47007,-4,0,-9,0,446847,0
446865,83,-2072,305,-80,38,103,9895,0,-3,237,48,35696,14,33,127,0,0,2961,0,0,1553,-18,180,47017,-4,0,-9,0,446847,0
446875,96,-2067,314,-79,44,107,9894,-6,-2,190,48,35682,26,33,127,0,0,2961,21,0,1553,-18,180,47027,-4,0,-9,0,446847,0
446886,121,-2056,319,-83,38,103,9894,-12,1,189,48,35681,16,33,127,0,0,2961,27,0,1553,-18,180,47038,-4,0,-9,0,446878,0
446896,119,-2065,311,-85,33,104,9894,-9,-6,217,40,35692,15,33,127,0,0,2961,0,0,1553,-18,180,47048,-4,0,-9,0,446878,0
446906,98,-2053,312,-79,36,114,9894,-6,-3,182,48,35694,28,33,127,0,0,2961,5,0,1553,-18,180,47058,-4,0,-9,0,446894,0
446916,82,-2070,311,-79,37,116,9896,3,2,176,24,35679,36,33,127,0,0,2963,10,0,1553,-18,180,47068,-4,0,-9,0,446894,0
446926,101,-2075,314,-72,42,125,9895,-1,4,178,48,35686,27,33,127,0,0,2958,-16,0,1553,-18,180,47078,-4,0,-9,0,446972,0
446936,126,-2062,312,-76,33,119,9893,3,-7,149,32,35694,18,33,127,0,0,2959,-5,0,1553,-18,180,47088,-4,0,-9,0,446972,0
446946,77,-2053,327,-74,42,123,9893,-8,-1,171,48,35694,11,33,127,0,0,2958,-27,0,1553,-18,180,47098,-4,0,-9,0,446972,0
446956,107,-2055,317,-70,46,119,9895,4,5,176,48,35679,25,33,127,0,0,2965,0,0,1553,-18,180,47108,-4,0,-9,0,446972,0
446966,94,-2071,317,-68,33,123,9895,0,4,228,24,35672,23,33,127,0,0,2966,10,0,1553,-18,180,47118,-4,0,-9,0,447003,0
446976,53,-2083,313,-69,34,119,9894,0,-5,160,32,35677,11,33,127,0,0,2963,38,0,1553,-18,180,47128,-4,0,-9,0,447003,0
446986,103,-2068,314,-68,37,112,9894,-1,-5,128,48,35683,25,33,127,0,0,2961,49,0,1553,-18,180,47138,-4,0,-9,0,447003,0
446996,100,-2075,320,-69,43,117,9894,-2,7,150,48,35682,30,33,127,0,0,2958,0,0,1553,-18,180,47148,-4,0,-9,0,447003,0
447006,85,-2056,326,-74,39,113,9895,0,0,153,24,35683,21,33,127,0,0,2966,21,0,1553,-18,180,47158,-4,0,-9,0,447003,0
447016,46,-2068,322,-72,34,123,9894,-10,2,188,48,35680,4,33,127,0,0,2961,27,0,1553,-18,180,47168,-4,0,-9,0,447003,0
447026,126,-2066,317,-73,42,111,9893,-11,-3,127,32,35688,-7,33,127,0,0,2959,10,0,1553,-18,180,47178,-4,0,-9,0,447003,0
447036,103,-2080,318,-70,31,111,9894,0,3,135,24,35688,11,33,127,0,0,2959,-16,0,1553,-18,180,47188,-4,0,-9,0,447018,0
447046,66,-2061,328,-72,38,120,9894,10,2,151,48,35696,15,33,127,0,0,2958,-21,0,1553,-18,180,47198,-4,0,-9,0,447050,0
447056,95,-2057,323,-71,40,121,9893,3,-1,134,32,35703,8,33,127,0,0,2959,0,0,1553,-18,180,47208,-4,0,-9,0,447050,0
447066,111,-2064,320,-70,40,111,9893,-5,1,133,48,35705,9,33,127,0,0,2955,-27,0,1553,-18,180,47218,-4,0,-9,0,447050,0
447076,139,-2068,318,-70,38,123,9894,0,2,146,48,35694,10,33,127,0,0,2958,-10,0,1553,-18,180,47228,-4,0,-9,0,447050,0
447086,92,-2051,324,-69,36,125,9892,-5,-3,144,32,35689,10,33,127,0,0,2959,-5,0,1553,-18,180,47238,-4,0,-9,0,447097,0
447096,124,-2062,321,-68,49,123,9894,0,-2,139,48,35697,10,33,127,0,0,2958,-21,0,1553,-18,180,47248,-4,0,-9,0,447097,0
447106,116,-2066,321,-62,52,135,9893,-3,3,145,32,35703,1,33,127,0,0,2963,27,0,1553,-18,180,47258,-4,0,-9,0,447097,0
447116,106,-2069,312,-57,51,132,9894,-6,-2,139,32,35706,13,33,127,0,0,2963,54,0,1553,-18,180,47268,-4,0,-9,0,447097,0
447127,91,-2044,322,-62,50,134,9895,0,1,183,56,35697,32,33,127,0,0,2961,0,0,1553,-18,180,47279,-4,0,-9,0,447112,0
447137,103,-2058,318,-60,46,138,9896,20,4,180,56,35703,49,33,127,0,0,2961,10,0,1553,-18,180,47289,-4,0,-9,0,447143,0
447147,94,-2059,316,-52,47,140,9894,-3,2,166,32,35711,42,33,127,0,0,2959,-10,0,1553,-18,180,47299,-4,0,-9,0,447143,0
447157,114,-2056,322,-59,49,131,9895,2,-2,110,24,35717,31,33,127,0,0,2961,32,0,1553,-18,180,47309,-4,0,-9,0,447159,0
447167,79,-2067,317,-52,35,135,9894,-8,-1,136,32,35700,17,33,127,0,0,2959,0,0,1553,-18,180,47319,-4,0,-9,0,447159,0
447177,88,-2068,324,-56,50,131,9895,12,-3,198,48,35682,14,33,127,0,0,2959,-10,0,1553,-18,180,47329,-4,0,-9,0,447159,0
447187,101,-2074,329,-52,41,128,9893,-11,-3,145,64,35691,18,33,127,0,0,2961,32,0,1553,-18,180,47339,-4,0,-9,0,447175,0
447197,92,-2063,335,-57,46,125,9898,13,5,201,40,35706,4,33,127,0,0,2961,-21,0,1553,-18,180,47349,-4,0,-9,0,447190,0
447207,71,-2067,329,-54,47,126,9896,8,4,214,48,35703,13,33,127,0,0,2961,0,0,1553,-18,180,47359,-4,0,-9,0,447190,0
447217,79,-2075,325,-56,48,124,9896,-5,-8,209,48,35694,14,33,127,0,0,2961,0,0,1553,-18,180,47369,-4,0,-9,0,447206,0
447227,87,-2066,329,-56,38,123,9896,-5,-1,214,48,35691,20,33,127,0,0,2961,10,0,1553,-18,180,47379,-4,0,-9,0,447206,0
447237,89,-2059,328,-52,37,118,9896,-4,2,190,48,35697,7,33,127,0,0,2961,10,0,1553,-18,180,47389,-4,0,-9,0,447206,0
447247,81,-2069,310,-62,37,117,9898,0,2,234,64,35709,4,33,127,0,0,2961,-10,0,1553,-18,180,47399,-4,0,-9,0,447237,0
447257,65,-2050,330,-60,38,106,9896,0,-6,218,48,35703,2,33,127,0,0,2961,0,0,1553,-18,180,47409,-4,0,-9,0,447237,0
447267,83,-2060,325,-57,43,101,9895,-2,-4,215,48,35705,8,33,127,0,0,2964,21,0,1553,-18,180,47419,-4,0,-9,0,447253,0
447277,106,-2066,336,-56,34,104,9897,1,3,223,40,35706,12,33,127,0,0,2961,0,0,1553,-18,180,47429,-4,0,-9,0,447331,0
447287,92,-2063,330,-57,39,110,9896,7,-3,220,80,35708,29,33,127,0,0,2959,-21,0,1553,-18,180,47439,-4,0,-9,0,447331,0
447297,71,-2053,329,-59,35,102,9895,-1,-7,183,48,35702,27,33,127,0,0,2961,10,0,1553,-18,180,47449,-4,0,-9,0,447331,0
447307,106,-2047,321,-65,42,114,9895,-16,-3,195,48,35689,17,33,127,0,0,2961,10,0,1553,-18,180,47459,-4,0,-9,0,447331,0
447317,120,-2056,317,-63,46,103,9896,-5,-2,226,64,35685,4,33,127,0,0,2961,-10,0,1553,-18,180,47469,-4,0,-9,0,447331,0
447327,111,-2059,321,-55,46,108,9896,2,-3,218,48,35693,7,33,127,0,0,2961,0,0,1553,-18,180,47479,-4,0,-9,0,447347,0
447337,86,-2064,335,-57,32,120,9895,0,-5,201,48,35696,13,33,127,0,0,2961,0,0,1553,-18,180,47489,-4,0,-9,0,447347,0
447347,102,-2058,333,-57,41,118,9896,1,1,204,48,35689,6,33,127,0,0,2961,10,0,1553,-18,180,47499,-4,0,-9,0,447347,0
447357,98,-2055,327,-55,55,124,9896,-3,2,207,48,35694,6,33,127,0,0,2961,0,0,1553,-18,180,47509,-4,0,-9,0,447347,0
447367,113,-2062,333,-59,40,125,9898,8,4,244,104,35705,9,33,127,0,0,2961,-32,0,1553,-18,180,47519,-4,0,-9,0,447347,0
447378,88,-2056,329,-54,44,130,9896,-4,-6,207,48,35719,22,33,127,0,0,2965,32,0,1553,-18,180,47530,-4,0,-9,0,447362,0
447388,91,-2059,333,-56,43,135,9897,-11,0,232,40,35711,29,33,127,0,0,2965,38,0,1553,-18,180,47540,-4,0,-9,0,447378,0
447398,87,-2070,331,-56,43,140,9897,0,1,218,40,35703,7,33,127,0,0,2965,16,0,1553,-18,180,47550,-4,0,-9,0,447393,0
447408,53,-2074,330,-54,45,141,9899,17,5,253,64,35696,-10,33,127,0,0,2964,-10,0,1553,-18,180,47560,-4,0,-9,0,447393,0
447418,70,-2067,325,-56,48,146,9899,5,1,264,56,35701,-23,33,127,0,0,2967,10,0,1553,-18,180,47570,-4,0,-9,0,447393,0
447428,53,-2058,331,-54,40,140,9898,0,-6,240,40,35704,15,33,127,0,0,2961,-32,0,1553,-18,180,47580,-4,0,-9,0,447425,0
447438,66,-2078,325,-57,38,140,9899,17,2,224,80,35703,25,33,127,0,0,2959,-16,0,1553,-18,180,47590,-4,0,-9,0,447440,0
447448,91,-2067,331,-52,40,131,9898,-5,2,244,64,35707,32,33,127,0,0,2960,-54,0,1553,-18,180,47600,-4,0,-9,0,447440,0
447458,63,-2064,330,-52,39,131,9900,12,-4,235,80,35694,28,33,127,0,0,2963,-27,0,1553,-18,180,47610,-4,0,-9,0,447440,0
447468,76,-2066,334,-51,46,133,9896,-13,0,235,64,35683,17,33,127,0,0,2960,5,0,1553,-18,180,47620,-4,0,-9,0,447440,0
447478,50,-2055,341,-55,40,113,9899,8,-3,298,64,35683,18,33,127,0,0,2964,-60,0,1553,-18,180,47630,-4,0,-9,0,447487,0
447488,53,-2052,352,-55,44,113,9896,-14,-6,236,48,35684,7,33,127,0,0,2968,43,0,1553,-18,180,47640,-4,0,-9,0,447487,0
447498,102,-2058,343,-57,34,107,9897,-14,1,203,64,35674,-10,33,127,0,0,2960,27,0,1553,-18,180,47650,-4,0,-9,0,447487,0
447508,94,-2070,338,-71,30,109,9898,1,3,222,40,35662,-4,33,127,0,0,2965,21,0,1553,-18,180,47660,-4,0,-9,0,447503,0
447518,72,-2055,337,-64,43,102,9900,2,4,224,64,35661,3,33,127,0,0,2964,32,0,1553,-18,180,47670,-4,0,-9,0,447503,0
447528,79,-2060,335,-63,33,109,9898,-6,-4,197,48,35675,1,33,127,0,0,2965,43,0,1553,-18,180,47680,-4,0,-9,0,447503,0
447538,111,-2057,326,-65,33,103,9897,5,-2,208,56,35692,-1,33,127,0,0,2964,32,0,1553,-18,180,47690,-4,0,-9,0,447534,0
447548,88,-2072,329,-65,30,104,9896,-4,-1,192,64,35693,6,33,127,0,0,2967,82,0,1553,-18,180,47700,-4,0,-9,0,447534,0
447558,154,-2057,321,-62,39,108,9897,-20,-5,199,64,35679,10,33,127,0,0,2960,27,0,1553,-18,180,47710,-4,0,-9,0,447534,0
447568,128,-2070,323,-57,39,117,9900,20,-1,242,64,35667,5,33,127,0,0,2964,-10,0,1553,-18,180,47720,-4,0,-9,0,447550,0
447578,73,-2061,330,-48,41,121,9899,3,4,287,40,35670,-1,33,127,0,0,2965,-10,0,1553,-18,180,47730,-4,0,-9,0,447581,0
447588,87,-2051,331,-52,43,116,9900,7,-3,277,56,35678,-4,33,127,0,0,2960,-71,0,1553,-18,180,47740,-4,0,-9,0,447581,0
447598,98,-2079,332,-57,45,135,9898,9,2,236,40,35669,-18,33,127,0,0,2965,-27,0,1553,-18,180,47750,-4,0,-9,0,447581,0
447608,70,-2072,337,-50,46,141,9898,1,4,225,40,35665,-22,33,127,0,0,2965,38,0,1553,-18,180,47760,-4,0,-9,0,447581,0
447618,108,-2066,336,-52,43,147,9899,2,3,229,64,35676,-21,33,127,0,0,2964,5,0,1553,-18,180,47770,-4,0,-9,0,447596,0
447629,117,-2070,340,-55,34,152,9898,-6,0,242,104,35690,1,33,127,0,0,2961,0,0,1553,-18,180,47781,-4,0,-9,0,447706,0
447639,101,-2067,347,-59,36,154,9900,14,-1,278,80,35693,18,33,127,0,0,2966,0,0,1553,-18,180,47791,-4,0,-9,0,447706,0
447649,103,-2056,344,-63,33,164,9901,0,-2,311,80,35675,17,33,127,0,0,2968,32,0,1553,-18,180,47801,-4,0,-9,0,447706,0
447659,80,-2065,344,-64,36,177,9904,10,1,353,48,35666,13,33,127,0,0,2968,0,0,1553,-18,180,47811,-4,0,-9,0,447721,0
447669,66,-2063,333,-66,41,167,9906,16,4,396,112,35660,5,33,127,0,0,2970,0,0,1553,-18,180,47821,-4,0,-9,0,447721,0
447679,81,-2054,339,-65,36,161,9916,21,19,362,160,35655,5,33,127,0,0,2970,0,0,1553,-18,180,47831,-4,0,-9,0,447721,0
447689,73,-2066,331,-67,32,159,9940,64,41,216,48,35650,0,33,127,0,0,2972,21,0,1553,-18,180,47841,-4,0,-9,0,447721,0
447699,101,-2062,335,-68,32,180,9960,9,20,82,24,35652,2,33,127,0,0,2972,32,0,1553,-18,180,47851,-4,0,-9,0,447721,0
447709,48,-2068,326,-64,37,175,9958,14,-61,184,88,35660,8,33,127,0,0,2977,21,0,1553,-18,180,47861,-4,0,-9,0,447721,0
447719,78,-2056,334,-57,47,165,9959,-5,-20,233,80,35670,10,33,127,0,0,2979,32,0,1553,-18,180,47871,-4,0,-9,0,447721,0
447729,88,-2064,339,-57,41,160,9959,-7,-4,274,96,35660,21,33,127,0,0,2977,0,0,1553,-18,180,47881,-4,0,-9,0,447721,0
447739,79,-2071,333,-63,45,157,9960,1,-2,248,64,35659,24,33,127,0,0,2981,54,0,1553,-18,180,47891,-4,0,-9,0,447721,0
447749,88,-2062,340,-61,45,158,9964,7,6,311,80,35659,29,33,127,0,0,2981,21,0,1553,-18,180,47901,-4,0,-9,0,447721,0
447759,64,-2061,335,-66,41,159,9963,1,-1,337,72,35679,26,33,127,0,0,2979,0,0,1553,-18,180,47911,-4,0,-9,0,447753,0
447769,71,-2069,327,-63,40,150,9963,0,-3,319,72,35682,35,33,127,0,0,2979,-10,0,1553,-18,180,47921,-4,0,-9,0,447768,0
447779,72,-2062,332,-57,42,145,9963,0,-1,311,80,35670,34,33,127,0,0,2979,0,0,1553,-18,180,47931,-4,0,-9,0,447768,0
447789,60,-2053,332,-57,48,141,9962,3,-3,326,112,35656,38,33,127,0,0,2979,-10,0,1553,-18,180,47941,-4,0,-9,0,447768,0
447799,66,-2055,335,-53,46,132,9963,0,1,328,112,35658,26,33,127,0,0,2981,10,0,1553,-18,180,47951,-4,0,-9,0,447768,0
447809,78,-2061,346,-56,59,143,9965,7,2,364,96,35675,23,33,127,0,0,2981,-10,0,1553,-18,180,47961,-4,0,-9,0,447800,0
447819,90,-2060,358,-61,52,141,9965,-2,1,341,112,35677,39,33,127,0,0,2981,21,0,1553,-18,180,47971,-4,0,-9,0,447800,0
447829,128,-2063,364,-64,44,164,9966,-1,-1,340,96,35676,46,33,127,0,0,2981,21,0,1553,-18,180,47981,-4,0,-9,0,447815,0
447839,121,-2068,363,-71,36,192,9965,-12,-2,362,88,35671,33,33,127,0,0,2986,43,0,1553,-18,180,47991,-4,0,-9,0,447815,0
447849,98,-2072,344,-82,22,224,9971,22,4,421,144,35673,20,33,127,0,0,2988,32,0,1553,-18,180,48001,-4,0,-9,0,447831,0
447859,90,-2062,337,-76,19,226,9974,12,8,464,128,35673,17,33,127,0,0,2990,21,0,1553,-18,180,48011,-4,0,-9,0,447831,0
447869,75,-2066,319,-74,30,231,9983,20,4,464,184,35673,8,33,127,0,0,2992,32,0,1553,-18,180,48021,-4,0,-9,0,447846,0
447880,64,-2058,327,-65,46,225,10001,44,25,431,136,35674,25,33,127,0,0,2999,60,0,1553,-18,180,48032,-4,0,-9,0,447878,0
447890,80,-2066,341,-60,48,231,10028,53,41,358,128,35681,62,33,127,0,0,3000,60,0,1553,-18,180,48042,-4,0,-9,0,447893,0
447900,80,-2053,360,-64,36,223,10038,11,-21,448,144,35673,52,33,127,0,0,2998,-27,0,1553,-18,180,48052,-4,0,-9,0,447893,0
447910,55,-2063,362,-66,46,233,10041,16,-44,495,176,35667,51,33,127,0,0,3005,21,0,1553,-18,180,48062,-4,0,-9,0,447893,0
447920,62,-2068,363,-77,37,233,10056,40,21,485,176,35668,29,33,127,0,0,3008,32,0,1553,-18,180,48072,-4,0,-9,0,447893,0
447930,55,-2068,359,-89,41,230,10103,117,87,266,128,35686,41,33,127,0,0,3015,65,0,1553,-18,180,48082,-4,0,-9,0,447940,0
447940,63,-2056,345,-84,37,228,10151,99,61,184,56,35691,43,33,127,0,0,3014,0,0,1553,-18,180,48092,-4,0,-9,0,447940,0
447950,99,-2048,344,-83,24,230,10153,-37,-98,192,56,35684,25,33,127,0,0,3016,32,0,1553,-18,180,48102,-4,0,-9,0,447940,0
447960,-2,-2076,326,-85,34,234,10161,20,-82,310,96,35670,24,33,127,0,0,3021,21,0,1553,-18,180,48112,-4,0,-9,0,447940,0
447970,40,-2056,327,-82,41,196,10160,3,5,400,112,35671,36,33,127,0,0,3026,49,0,1553,-18,180,48122,-4,0,-9,0,447987,0
447980,53,-2059,343,-80,48,196,10163,3,-5,440,120,35681,45,33,127,0,0,3028,76,0,1553,-18,180,48132,-4,0,-9,0,447987,0
447990,52,-2060,344,-84,42,188,10167,3,6,465,144,35677,31,33,127,0,0,3027,49,0,1553,-18,180,48142,-4,0,-9,0,447987,0
448000,52,-2067,348,-84,39,185,10171,8,-1,505,136,35680,19,33,127,0,0,3027,0,0,1553,-18,180,48152,-4,0,-9,0,447987,0
448010,35,-2052,340,-88,40,169,10178,21,11,547,160,35672,6,33,127,0,0,3032,-21,0,1553,-18,180,48162,-4,0,-9,0,447987,0
448020,44,-2056,339,-87,35,167,10192,30,22,451,136,35669,14,33,127,0,0,3028,-16,0,1553,-18,180,48172,-4,0,-9,0,448003,0
448030,45,-2058,348,-89,37,147,10212,49,30,337,112,35670,28,33,127,0,0,3034,10,0,1553,-18,180,48182,-4,0,-9,0,448081,0
448040,58,-2064,349,-91,35,149,10220,-8,-6,341,96,35673,39,33,127,0,0,3031,-5,0,1553,-18,180,48192,-4,0,-9,0,448081,0
448050,30,-2060,345,-86,37,133,10220,7,-41,364,96,35677,34,33,127,0,0,3034,-10,0,1553,-18,180,48202,-4,0,-9,0,448081,0
448060,40,-2059,342,-93,40,128,10222,6,-12,388,96,35672,26,33,127,0,0,3034,0,0,1553,-18,180,48212,-4,0,-9,0,448081,0
448070,42,-2064,342,-87,33,119,10222,3,-1,432,120,35662,26,33,127,0,0,3033,-21,0,1553,-18,180,48222,-4,0,-9,0,448081,0
448080,68,-2066,345,-95,33,107,10221,-12,-1,359,96,35659,24,33,127,0,0,3034,0,0,1553,-18,180,48232,-4,0,-9,0,448096,0
448090,43,-2052,350,-96,37,109,10224,7,0,363,88,35660,31,33,127,0,0,3034,-27,0,1553,-18,180,48242,-4,0,-9,0,448096,0
448100,25,-2064,355,-102,33,107,10222,4,-2,346,120,35664,39,33,127,0,0,3030,-27,0,1553,-18,180,48252,-4,0,-9,0,448096,0
448110,43,-2061,361,-107,29,94,10223,0,-1,322,96,35664,47,33,127,0,0,3031,-38,0,1553,-18,180,48262,-4,0,-9,0,448096,0
448120,53,-2060,356,-113,25,93,10223,10,1,322,96,35673,61,33,127,0,0,3031,-38,0,1553,-18,180,48272,-4,0,-9,0,448096,0
448131,52,-2069,346,-116,28,88,10220,-1,3,271,80,35687,45,33,127,0,0,3030,-21,0,1553,-18,180,48283,-4,0,-9,0,448128,0
448141,55,-2060,335,-124,35,83,10221,-5,0,270,72,35709,40,33,127,0,0,3032,-10,0,1553,-18,180,48293,-4,0,-9,0,448143,0
448151,70,-2064,334,-115,36,90,10221,3,-6,272,72,35701,49,33,127,0,0,3032,-10,0,1553,-18,180,48303,-4,0,-9,0,448143,0
448161,69,-2074,327,-114,33,100,10221,-4,4,260,56,35685,52,33,127,0,0,3032,0,0,1553,-18,180,48313,-4,0,-9,0,448143,0
448171,57,-2064,330,-114,31,112,10221,0,-2,259,8,35668,42,33,127,0,0,3030,-10,0,1553,-18,180,48323,-4,0,-9,0,448174,0
448181,63,-2065,328,-105,35,118,10220,1,0,220,24,35670,39,33,127,0,0,3030,0,0,1553,-18,180,48333,-4,0,-9,0,448174,0
448191,68,-2060,321,-97,35,123,10220,3,0,249,48,35683,31,33,127,0,0,3030,-10,0,1553,-18,180,48343,-4,0,-9,0,448174,0
448201,82,-2063,324,-95,42,126,10218,-11,-1,185,72,35677,31,33,127,0,0,3030,54,0,1553,-18,180,48353,-4,0,-9,0,448190,0
448211,84,-2051,324,-93,44,134,10220,2,-1,222,56,35670,20,33,127,0,0,3030,0,0,1553,-18,180,48363,-4,0,-9,0,448190,0
448221,41,-2056,337,-90,35,136,10221,8,7,247,56,35675,42,33,127,0,0,3027,-43,0,1553,-18,180,48373,-4,0,-9,0,448206,0
448231,41,-2067,341,-85,49,129,10219,0,-1,218,56,35689,38,33,127,0,0,3030,10,0,1553,-18,180,48383,-4,0,-9,0,448221,0
448241,65,-2064,334,-93,47,131,10220,-8,-2,231,56,35681,40,33,127,0,0,3030,0,0,1553,-18,180,48393,-4,0,-9,0,448221,0
448251,73,-2063,343,-94,51,132,10221,4,6,222,56,35678,33,33,127,0,0,3027,-32,0,1553,-18,180,48403,-4,0,-9,0,448237,0
448261,57,-2059,348,-91,44,140,10218,-3,-5,203,72,35686,32,33,127,0,0,3030,10,0,1553,-18,180,48413,-4,0,-9,0,448253,0
448271,62,-2067,347,-97,33,137,10220,1,2,225,56,35687,48,33,127,0,0,3030,0,0,1553,-18,180,48423,-4,0,-9,0,448253,0
448281,45,-2064,349,-104,34,132,10221,0,3,225,56,35678,40,33,127,0,0,3032,21,0,1553,-18,180,48433,-4,0,-9,0,448315,0
448291,30,-2066,350,-103,41,129,10220,-1,-2,252,56,35665,34,33,127,0,0,3030,10,0,1553,-18,180,48443,-4,0,-9,0,448315,0
448301,68,-2065,340,-109,39,119,10219,-7,-1,219,56,35665,36,33,127,0,0,3030,21,0,1553,-18,180,48453,-4,0,-9,0,448315,0
448311,57,-2069,338,-102,39,118,10219,-9,-2,213,56,35670,32,33,127,0,0,3032,43,0,1553,-18,180,48463,-4,0,-9,0,448331,0
448321,53,-2048,339,-107,33,107,10221,5,0,253,56,35666,40,33,127,0,0,3027,-21,0,1553,-18,180,48473,-4,0,-9,0,448331,0
448331,61,-2070,332,-112,33,99,10220,2,3,197,24,35651,41,33,127,0,0,3030,21,0,1553,-18,180,48483,-4,0,-9,0,448331,0
448341,822,-2058,150,-235,22,-461,10222,11,5,252,72,35653,41,33,127,0,0,3030,-10,0,1553,-18,180,48493,-4,0,-9,0,448331,0
448351,232,-1768,251,-295,58,-721,10213,-39,-15,3,-112,35661,43,33,127,0,0,2999,-318,0,1553,-18,180,48503,-4,0,-9,0,448331,0
448361,-10,-2118,456,-172,-17,-165,10156,-181,-126,-347,-240,35682,44,33,127,0,0,2986,-98,0,1553,-18,180,48513,-4,0,-9,0,448362,0
448371,153,-2087,303,-124,-31,-121,10085,-129,-122,-267,-120,35701,47,33,127,0,0,2983,-21,0,1553,-18,180,48523,-4,0,-9,0,448362,0
448381,467,-1999,195,-253,-6,-680,10061,-24,92,-376,-144,35693,21,33,127,0,0,2968,-164,0,1553,-18,180,48533,-4,0,-9,0,448362,0
448392,270,-1851,194,-350,28,-945,10018,-152,30,-518,-384,35690,19,33,127,0,0,2934,-390,0,1553,-18,180,48544,-4,0,-9,0,448362,0
448402,156,-2079,317,-337,48,-816,9909,-263,-202,-445,-472,35688,31,33,127,0,0,2903,-296,0,1553,-18,180,48554,-4,0,-9,0,448393,0
448412,379,-2131,259,-258,8,-696,9777,-302,-156,-394,-464,35679,47,33,127,0,0,2880,-230,0,1553,-18,180,48564,-4,0,-9,0,448393,0
448422,539,-2011,143,-284,-44,-858,9650,-263,-25,-396,-416,35667,39,33,127,0,0,2855,-296,0,1553,-18,180,48574,-4,0,-9,0,448424,0
448432,516,-1899,174,-358,-15,-1036,9534,-273,37,-432,-480,35660,20,33,127,0,0,2824,-329,0,1553,-18,180,48584,-4,0,-9,0,448424,0
448442,377,-2067,255,-359,42,-1022,9404,-300,-20,-449,-520,35661,15,33,127,0,0,2793,-313,0,1553,-18,180,48594,-4,0,-9,0,448440,0
448452,463,-2099,271,-264,53,-834,9267,-303,-38,-500,-544,35662,29,33,127,0,0,2769,-197,0,1553,-18,180,48604,-4,0,-9,0,448440,0
448462,762,-1984,234,-209,-26,-582,9133,-282,-7,-395,-448,35656,26,33,127,0,0,2749,-142,0,1553,-18,180,48614,-4,0,-9,0,448440,0
448472,816,-1943,243,-222,-54,-485,9013,-246,37,-369,-312,35654,25,33,127,0,0,2738,-109,0,1553,-18,180,48624,-4,0,-9,0,448471,0
448482,682,-2105,219,-231,-35,-350,8916,-193,78,-327,-240,35664,13,33,127,0,0,2725,-76,0,1553,-18,180,48634,-4,0,-9,0,448471,0
448492,670,-2049,183,-202,-9,-245,8853,-123,112,-341,-168,35674,20,33,127,0,0,2725,-16,0,1553,-18,180,48644,-4,0,-9,0,448471,0
448502,560,-2143,116,-149,13,-76,8807,-86,94,-255,-112,35661,16,33,127,0,0,2714,-32,0,1553,-18,180,48654,-4,0,-9,0,448487,0
448512,597,-2083,125,-85,19,-16,8775,-39,55,-151,-56,35663,-1,33,127,0,0,2719,10,0,1553,-18,180,48664,-4,0,-9,0,448487,0
448522,494,-2048,168,-53,36,45,8780,9,102,-218,-72,35678,-4,33,127,0,0,2715,10,0,1553,-18,180,48674,-4,0,-9,0,448518,0
448532,337,-2082,269,-35,21,45,8781,10,52,-187,-64,35687,-11,33,127,0,0,2715,-49,0,1553,-18,180,48684,-4,0,-9,0,448518,0
448542,146,-2028,385,-54,16,30,8778,-6,-6,-187,-48,35683,3,33,127,0,0,2721,21,0,1553,-18,180,48694,-4,0,-9,0,448518,0
448552,91,-2048,403,-98,-14,-2,8780,3,-1,-119,-24,35668,-6,33,127,0,0,2720,27,0,1553,-18,180,48704,-4,0,-9,0,448534,0
448562,46,-2310,449,-114,-66,-115,8781,2,5,-146,-24,35674,-9,33,127,0,0,2720,32,0,1553,-18,180,48714,-4,0,-9,0,448549,0
448572,11,-2273,392,-91,-62,-223,8781,0,3,-92,-8,35679,-3,33,127,0,0,2719,-21,0,1553,-18,180,48724,-4,0,-9,0,448565,0
448582,26,-2448,348,-178,-54,-379,8782,0,4,-42,-8,35673,-3,33,127,0,0,2722,0,0,1553,-18,180,48734,-4,0,-9,0,448565,0
448592,2,-2162,291,-214,22,-423,8781,-10,-8,-52,-8,35654,-1,33,127,0,0,2725,49,0,1553,-18,180,48744,-4,0,-9,0,448565,0
448602,8,-2050,167,-278,43,-550,8783,-2,-6,-4,-16,35655,-9,33,127,0,0,2722,5,0,1553,-18,180,48754,-4,0,-9,0,448596,0
448612,131,-2026,95,-215,-26,-638,8784,0,2,-22,-16,35670,1,33,127,0,0,2722,-27,0,1553,-18,180,48764,-4,0,-9,0,448596,0
448622,225,-2101,98,-178,20,-644,8781,-5,-7,-105,-32,35671,1,33,127,0,0,2720,10,0,1553,-18,180,48774,-4,0,-9,0,448612,0
448633,234,-2104,181,-184,136,-667,8781,-7,-1,-156,-48,35662,-9,33,127,0,0,2718,-21,0,1553,-18,180,48785,-4,0,-9,0,448612,0
448643,277,-2047,251,-195,208,-698,8781,6,3,-185,-48,35667,-24,33,127,0,0,2715,-32,0,1553,-18,180,48795,-4,0,-9,0,448627,0
448653,388,-2037,279,-215,239,-682,8778,-11,-1,-226,-72,35683,-33,33,127,0,0,2709,-76,0,1553,-18,180,48805,-4,0,-9,0,448643,0
448663,466,-2053,302,-204,200,-614,8774,-14,-11,-373,-128,35681,-10,33,127,0,0,2709,-10,0,1553,-18,180,48815,-4,0,-9,0,448643,0
448673,470,-2025,324,-162,129,-530,8773,3,5,-372,-112,35676,4,33,127,0,0,2711,0,0,1553,-18,180,48825,-4,0,-9,0,448674,0
448683,421,-2001,336,-140,73,-512,8773,5,13,-369,-120,35672,4,33,127,0,0,2709,10,0,1553,-18,180,48835,-4,0,-9,0,448674,0
448693,397,-2008,349,-117,34,-493,8773,3,3,-369,-128,35671,7,33,127,0,0,2709,0,0,1553,-18,180,48845,-4,0,-9,0,448690,0
448703,387,-1999,332,-116,4,-463,8772,1,-1,-377,-112,35671,-7,33,127,0,0,2711,32,0,1553,-18,180,48855,-4,0,-9,0,448690,0
448713,336,-1985,297,-111,-58,-432,8771,-10,-3,-364,-112,35654,4,33,127,0,0,2711,32,0,1553,-18,180,48865,-4,0,-9,0,448690,0
448723,274,-2020,273,-96,-99,-446,8774,1,1,-324,-96,35664,4,33,127,0,0,2713,32,0,1553,-18,180,48875,-4,0,-9,0,448721,0
448733,202,-2082,215,-83,-82,-489,8776,12,4,-231,-32,35671,17,33,127,0,0,2718,32,0,1553,-18,180,48885,-4,0,-9,0,448721,0
448743,198,-2094,183,-68,-39,-524,8777,7,0,-155,-8,35678,23,33,127,0,0,2720,21,0,1553,-18,180,48895,-4,0,-9,0,448721,0
448753,212,-2062,133,-53,41,-587,8778,-3,-2,-82,8,35665,20,33,127,0,0,2720,32,0,1553,-18,180,48905,-4,0,-9,0,448721,0
448763,240,-2047,134,-52,98,-628,8780,4,1,-14,24,35655,5,33,127,0,0,2720,-21,0,1553,-18,180,48915,-4,0,-9,0,448815,0
448773,259,-2016,115,-51,172,-686,8781,1,0,-17,-16,35667,-4,33,127,0,0,2722,-10,0,1553,-18,180,48925,-4,0,-9,0,448815,0
448783,307,-2015,126,-50,206,-700,8781,-6,-6,-9,-8,35667,-7,33,127,0,0,2722,0,0,1553,-18,180,48935,-4,0,-9,0,448815,0
448793,382,-2051,207,-30,211,-711,8780,-5,0,-17,-8,35657,1,33,127,0,0,2724,10,0,1553,-18,180,48945,-4,0,-9,0,448815,0
448803,377,-2053,274,-12,205,-713,8782,8,2,26,-16,35645,-2,33,127,0,0,2722,-10,0,1553,-18,180,48955,-4,0,-9,0,448831,0
448813,402,-2062,392,-29,170,-713,8782,10,3,-13,-8,35649,-6,33,127,0,0,2720,-21,0,1553,-18,180,48965,-4,0,-9,0,448831,0
448823,409,-2111,425,-47,135,-726,8782,8,2,-27,24,35657,-1,33,127,0,0,2724,10,0,1553,-18,180,48975,-4,0,-9,0,448831,0
448833,373,-2126,450,-58,72,-738,8782,-3,6,44,8,35653,4,33,127,0,0,2726,43,0,1553,-18,180,48985,-4,0,-9,0,448831,0
448843,377,-2142,432,-65,36,-759,8785,9,7,107,-8,35646,12,33,127,0,0,2726,0,0,1553,-18,180,48995,-4,0,-9,0,448831,0
448853,396,-2131,392,-63,12,-795,8784,2,1,124,56,35647,2,33,127,0,0,2729,32,0,1553,-18,180,49005,-4,0,-9,0,448831,0
448863,397,-2087,346,-68,-13,-786,8788,9,0,183,40,35659,8,33,127,0,0,2733,43,0,1553,-18,180,49015,-4,0,-9,0,448831,0
448873,449,-2060,278,-55,-52,-764,8796,25,16,351,136,35674,1,33,127,0,0,2742,87,0,1553,-18,180,49025,-4,0,-9,0,448846,0
448884,439,-2032,239,-37,-65,-787,8820,62,40,460,184,35680,0,33,127,0,0,2750,27,0,1553,-18,180,49036,-4,0,-9,0,448862,0
448894,414,-2015,215,-41,-50,-795,8874,112,80,289,160,35687,-4,33,127,0,0,2763,131,0,1553,-18,180,49046,-4,0,-9,0,448893,0
448904,462,-2000,281,-41,-21,-829,8936,142,67,216,88,35690,-10,33,127,0,0,2770,82,0,1553,-18,180,49056,-4,0,-9,0,448893,0
448914,587,-1942,238,-44,-10,-793,8980,105,-16,223,112,35689,19,33,127,0,0,2780,93,0,1553,-18,180,49066,-4,0,-9,0,448893,0
448924,705,-1975,207,-60,-26,-730,9006,36,-67,355,120,35678,34,33,127,0,0,2787,54,0,1553,-18,180,49076,-4,0,-9,0,448924,0
448934,683,-1931,202,-15,-34,-685,9030,78,-35,415,184,35675,51,33,127,0,0,2798,104,0,1553,-18,180,49086,-4,0,-9,0,448924,0
448944,733,-1874,204,23,-88,-617,9079,95,61,384,184,35674,48,33,127,0,0,2809,126,0,1553,-18,180,49096,-4,0,-9,0,448924,0
448954,680,-1771,194,69,-151,-544,9132,112,44,356,144,35681,28,33,127,0,0,2819,71,0,1553,-18,180,49106,-4,0,-9,0,448924,0
448964,659,-1754,167,42,-110,-493,9188,138,13,331,184,35674,28,33,127,0,0,2827,65,0,1553,-18,180,49116,-4,0,-9,0,448987,0
448974,678,-1820,240,44,-43,-476,9242,103,1,267,136,35674,36,33,127,0,0,2837,104,0,1553,-18,180,49126,-4,0,-9,0,448987,0
448984,627,-1798,249,59,6,-462,9264,29,-78,385,168,35674,39,33,127,0,0,2839,60,0,1553,-18,180,49136,-4,0,-9,0,448987,0
448994,682,-1853,290,47,-6,-454,9292,77,-53,356,160,35686,52,33,127,0,0,2844,32,0,1553,-18,180,49146,-4,0,-9,0,448987,0
449004,728,-1912,318,69,-46,-389,9333,77,39,274,80,35683,47,33,127,0,0,2850,16,0,1553,-18,180,49156,-4,0,-9,0,448987,0
449014,681,-1934,381,74,-96,-333,9371,86,20,147,48,35685,45,33,127,0,0,2852,16,0,1553,-18,180,49166,-4,0,-9,0,449002,0
449024,679,-1953,410,39,-94,-318,9375,-7,-69,286,96,35690,35,33,127,0,0,2858,16,0,1553,-18,180,49176,-4,0,-9,0,449002,0
449034,646,-1934,400,-7,-60,-339,9377,-3,-67,365,112,35691,33,33,127,0,0,2860,32,0,1553,-18,180,49186,-4,0,-9,0,449034,0
449044,656,-1925,402,-37,-75,-348,9381,10,-2,445,128,35690,33,33,127,0,0,2866,32,0,1553,-18,180,49196,-4,0,-9,0,449034,0
449054,741,-2003,391,-75,-136,-414,9391,24,11,483,128,35681,35,33,127,0,0,2868,-10,0,1553,-18,180,49206,-4,0,-9,0,449034,0
449064,560,-1890,440,-63,-149,-362,9403,22,17,434,104,35671,44,33,127,0,0,2868,0,0,1553,-18,180,49216,-4,0,-9,0,449034,0
449074,486,-2056,472,-125,-209,-265,9421,51,14,374,112,35680,58,33,127,0,0,2872,38,0,1553,-18,180,49226,-4,0,-9,0,449065,0
449084,626,-2160,516,-167,-179,-365,9444,44,25,387,128,35680,57,33,127,0,0,2876,21,0,1553,-18,180,49236,-4,0,-9,0,449065,0
449094,647,-2048,446,-239,-173,-463,9450,3,-22,388,112,35683,59,33,127,0,0,2876,27,0,1553,-18,180,49246,-4,0,-9,0,449065,0
449104,623,-1963,370,-296,-183,-408,9451,14,-44,471,152,35679,53,33,127,0,0,2883,27,0,1553,-18,180,49256,-4,0,-9,0,449096,0
449114,647,-2007,314,-325,-203,-311,9465,45,20,510,192,35696,55,33,127,0,0,2893,87,0,1553,-18,180,49266,-4,0,-9,0,449096,0
449124,674,-2026,307,-322,-202,-347,9519,137,105,307,168,35697,54,33,127,0,0,2899,82,0,1553,-18,180,49276,-4,0,-9,0,449159,0
449135,682,-1968,277,-368,-177,-416,9580,121,64,328,128,35681,40,33,127,0,0,2911,76,0,1553,-18,180,49287,-4,0,-9,0,449159,0
449145,601,-1959,289,-396,-172,-361,9615,84,-49,382,144,35677,34,33,127,0,0,2917,76,0,1553,-18,180,49297,-4,0,-9,0,449174,0
449155,620,-2007,287,-405,-184,-309,9662,96,-8,334,168,35688,28,33,127,0,0,2931,142,0,1553,-18,180,49307,-4,0,-9,0,449268,0
449165,641,-2029,323,-418,-188,-362,9722,131,45,299,184,35675,34,33,127,0,0,2942,142,0,1553,-18,180,49317,-4,0,-9,0,449268,0
449175,607,-2027,388,-444,-178,-424,9778,131,16,351,208,35669,40,33,127,0,0,2953,65,0,1553,-18,180,49327,-4,0,-9,0,449268,0
449185,576,-1996,418,-492,-208,-420,9828,106,-20,360,200,35666,52,33,127,0,0,2966,131,0,1553,-18,180,49337,-4,0,-9,0,449268,0
449195,606,-2022,382,-503,-240,-415,9863,63,-50,525,248,35685,39,33,127,0,0,2979,175,0,1553,-18,180,49347,-4,0,-9,0,449268,0
449205,613,-1999,304,-523,-264,-475,9924,147,22,437,232,35694,26,33,127,0,0,2992,131,0,1553,-18,180,49357,-4,0,-9,0,449299,0
449215,615,-1984,268,-527,-239,-519,9993,135,69,341,240,35692,10,33,127,0,0,3001,142,0,1553,-18,180,49367,-4,0,-9,0,449315,0
449225,679,-1975,220,-542,-243,-519,10043,91,-36,433,264,35693,22,33,127,0,0,3014,131,0,1553,-18,180,49377,-4,0,-9,0,449315,0
449235,693,-1948,180,-535,-247,-528,10101,151,-24,391,280,35687,44,33,127,0,0,3027,153,0,1553,-18,180,49387,-4,0,-9,0,449315,0
449245,764,-1909,77,-487,-307,-489,10185,176,71,337,256,35714,38,33,127,0,0,3049,208,0,1553,-18,180,49397,-4,0,-9,0,449315,0
449255,675,-1912,52,-458,-310,-472,10253,141,3,451,288,35700,46,33,127,0,0,3065,197,0,1553,-18,180,49407,-4,0,-9,0,449315,0
449265,618,-1950,125,-468,-249,-500,10331,171,-9,425,304,35695,49,33,127,0,0,3084,186,0,1553,-18,180,49417,-4,0,-9,0,449315,0
449275,611,-1990,188,-489,-205,-538,10412,188,26,460,304,35690,48,33,127,0,0,3102,164,0,1553,-18,180,49427,-4,0,-9,0,449315,0
449285,647,-2028,222,-517,-176,-552,10505,209,28,415,352,35690,31,33,127,0,0,3122,186,0,1553,-18,180,49437,-4,0,-9,0,449315,0
449295,679,-2010,226,-521,-218,-560,10602,205,26,367,296,35706,22,33,127,0,0,3144,241,0,1553,-18,180,49447,-4,0,-9,0,449315,0
449305,684,-1974,258,-521,-289,-588,10685,197,-22,513,376,35690,38,33,127,0,0,3164,219,0,1553,-18,180,49457,-4,0,-20,0,449315,0
449315,646,-1998,299,-507,-341,-603,10777,207,-1,466,360,35686,44,33,127,0,0,3188,263,0,1553,-18,180,49467,-4,0,-20,0,449330,0
449325,645,-2003,309,-485,-416,-670,10877,242,34,487,432,35684,49,33,127,0,0,3208,219,0,1553,-18,180,49477,-4,0,-20,0,449330,0
