state_time,accelx,accely,accelz,gyrox,gyroy,gyroz,mot_ang,mot_vel,mot_acc,mot_cur,mot_volt,batt_volt,batt_curr,temperature,status_mn,status_ex,status_re,ank_ang,ank_vel,ank_torque,peak_ank_torque,step_energy,step_count,step_time,gait_state,movement,speed,incline,sys_time,eventFlags
505620,282,-2009,318,-45,-11,-53,6188,0,0,154,48,35769,-106,33,127,0,0,2165,38,0,24433,11772,192,35452,-4,0,-7,0,505631,0
505630,314,-2020,305,-48,-8,-50,6190,4,8,180,24,35766,-98,33,127,0,0,2163,5,0,24433,11772,192,35462,-4,0,-7,0,505631,0
505640,274,-2016,313,-45,-8,-48,6187,1,-1,155,48,35764,-113,33,127,0,0,2162,27,0,24433,11772,192,35472,-4,0,-7,0,505631,0
505650,291,-2008,311,-43,-2,-49,6186,-11,-2,150,72,35774,-125,33,127,0,0,2161,32,0,24433,11772,192,35482,-4,0,-7,0,505631,0
505660,308,-2009,321,-47,-7,-51,6189,0,3,154,24,35775,-138,33,127,0,0,2163,-5,0,24433,11772,192,35492,-4,0,-7,0,505631,0
505670,283,-2025,317,-49,-6,-48,6189,9,5,185,40,35781,-138,33,127,0,0,2162,-32,0,24433,11772,192,35502,-4,0,-7,0,505668,0
505680,302,-2002,313,-41,-10,-52,6189,-5,-2,187,40,35780,-124,33,127,0,0,2162,-5,0,24433,11772,192,35512,-4,0,-7,0,505670,0
505690,274,-2008,325,-45,-8,-49,6189,0,-4,161,64,35772,-127,33,127,0,0,2161,-16,0,24433,11772,192,35522,-4,0,-7,0,505673,0
505700,280,-2015,325,-43,-16,-45,6190,1,7,137,64,35774,-128,33,127,0,0,2157,-21,0,24433,11772,192,35532,-4,0,-7,0,505690,0
505710,306,-2014,312,-52,-7,-65,6189,1,-2,151,40,35767,-116,33,127,0,0,2162,0,0,24433,11772,192,35542,-4,0,-7,0,505690,0
505720,281,-2010,321,-49,-14,-55,6187,-9,-6,149,64,35774,-112,33,127,0,0,2161,32,0,24433,11772,192,35552,-4,0,-7,0,505690,0
505730,308,-1999,324,-51,-6,-58,6188,-10,-4,143,48,35780,-103,33,127,0,0,2162,5,0,24433,11772,192,35562,-4,0,-7,0,505721,0
505740,288,-2027,309,-52,-10,-53,6189,5,1,152,40,35773,-102,33,127,0,0,2162,0,0,24433,11772,192,35572,-4,0,-7,0,505721,0
505750,287,-2017,310,-47,-12,-54,6188,0,-1,154,24,35771,-101,33,127,0,0,2163,0,0,24433,11772,192,35582,-4,0,-7,0,505721,0
505760,272,-2003,316,-44,-8,-52,6190,5,1,141,40,35778,-99,33,127,0,0,2162,5,0,24433,11772,192,35592,-4,0,-7,0,505752,0
505770,314,-2010,312,-47,2,-56,6188,0,-1,151,48,35776,-102,33,127,0,0,2162,27,0,24433,11772,192,35602,-4,0,-7,0,505752,0
505780,296,-2004,315,-44,-3,-56,6190,1,3,161,40,35778,-100,33,127,0,0,2165,10,0,24433,11772,192,35612,-4,0,-7,0,505768,0
505790,330,-2028,312,-46,-12,-54,6190,4,3,147,24,35775,-109,33,127,0,0,2159,5,0,24433,11772,192,35622,-4,0,-7,0,505768,0
505800,287,-2017,310,-44,-2,-51,6188,5,-4,121,48,35775,-118,33,127,0,0,2162,38,0,24433,11772,192,35632,-4,0,-7,0,505799,0
505810,307,-2004,323,-46,-12,-51,6188,-9,1,134,48,35784,-128,33,127,0,0,2162,32,0,24433,11772,192,35642,-4,0,-7,0,505799,0
505820,296,-2014,324,-49,-9,-45,6189,1,2,158,40,35783,-134,33,127,0,0,2162,0,0,24433,11772,192,35652,-4,0,-7,0,505799,0
505830,281,-2012,316,-49,-14,-53,6190,7,-1,143,40,35778,-126,33,127,0,0,2162,5,0,24433,11772,192,35662,-4,0,-7,0,505815,0
505840,296,-2014,315,-50,-7,-53,6190,9,1,158,40,35774,-112,33,127,0,0,2162,-21,0,24433,11772,192,35672,-4,0,-7,0,505815,0
505850,312,-2013,308,-55,-8,-55,6189,7,-3,141,40,35785,-82,33,127,0,0,2158,0,0,24433,11772,192,35682,-4,0,-7,0,505846,0
505860,299,-2008,308,-41,-6,-57,6189,8,-3,137,24,35791,-91,33,127,0,0,2163,-16,0,24433,11772,192,35692,-4,0,-7,0,505846,0
505870,299,-2005,310,-44,-9,-52,6188,-4,-1,154,48,35788,-96,33,127,0,0,2162,27,0,24433,11772,192,35702,-4,0,-7,0,505846,0
505880,301,-2008,315,-42,-7,-50,6188,-6,-2,121,8,35779,-105,33,127,0,0,2157,-54,0,24433,11772,192,35712,-4,0,-7,0,505862,0
505890,296,-2012,318,-45,-7,-55,6188,13,-5,91,24,35782,-106,33,127,0,0,2156,-38,0,24433,11772,192,35722,-4,0,-7,0,505893,0
505900,332,-2007,310,-39,-7,-51,6186,-15,-1,94,8,35788,-100,33,127,0,0,2161,-16,0,24433,11772,192,35732,-4,0,-7,0,505893,0
505910,300,-2003,323,-37,-8,-38,6188,8,5,91,48,35786,-113,33,127,0,0,2158,10,0,24433,11772,192,35742,-4,0,-7,0,505893,0
505920,290,-2012,311,-38,-2,-35,6187,-8,3,64,24,35775,-115,33,127,0,0,2159,32,0,24433,11772,192,35752,-4,0,-7,0,505909,0
505930,299,-2010,315,-32,-2,-37,6189,9,2,132,24,35775,-120,33,127,0,0,2159,-16,0,24433,11772,192,35762,-4,0,-7,0,505909,0
505940,277,-1998,321,-33,1,-36,6188,9,2,130,8,35781,-120,33,127,0,0,2161,-21,0,24433,11772,192,35772,-4,0,-7,0,505956,0
505950,269,-2004,325,-39,-9,-29,6187,0,3,91,24,35782,-115,33,127,0,0,2159,5,0,24433,11772,192,35782,-4,0,-7,0,505971,0
505960,277,-2001,328,-32,-7,-32,6187,-5,7,119,48,35775,-112,33,127,0,0,2162,32,0,24433,11772,192,35792,-4,0,-7,0,505971,0
505970,290,-2014,313,-35,0,-31,6187,-6,2,105,24,35777,-113,33,127,0,0,2159,21,0,24433,11772,192,35802,-4,0,-7,0,505971,0
505980,300,-2020,309,-34,-1,-37,6189,1,-2,115,24,35777,-120,33,127,0,0,2159,-5,0,24433,11772,192,35812,-4,0,-7,0,505971,0
505990,271,-2018,314,-24,0,-33,6188,8,-1,127,48,35773,-118,33,127,0,0,2162,5,0,24433,11772,192,35822,-4,0,-7,0,505971,0
506000,309,-2010,326,-27,-2,-28,6187,-5,-4,133,64,35776,-121,33,127,0,0,2161,49,0,24433,11772,192,35832,-4,0,-7,0,505971,0
506010,309,-1994,334,-30,-3,-38,6188,-5,2,138,8,35785,-116,33,127,0,0,2161,-27,0,24433,11772,192,35842,-4,0,-7,0,506018,0
506020,254,-2008,322,-33,-3,-39,6189,15,-1,113,40,35793,-111,33,127,0,0,2155,-54,0,24433,11772,192,35852,-4,0,-7,0,506018,0
506030,274,-2007,320,-35,1,-45,6188,2,-1,116,48,35801,-109,33,127,0,0,2168,71,0,24433,11772,192,35862,-4,0,-7,0,506018,0
506040,266,-2003,327,-34,-6,-36,6191,-7,2,186,16,35791,-114,33,127,0,0,2163,16,0,24433,11772,192,35872,-4,0,-7,0,506018,0
506050,286,-2015,315,-36,-12,-39,6191,22,2,158,40,35782,-111,33,127,0,0,2162,0,0,24433,11772,192,35882,-4,0,-7,0,506034,0
506060,289,-1997,320,-33,-7,-39,6190,3,-7,164,40,35796,-109,33,127,0,0,2162,0,0,24433,11772,192,35892,-4,0,-7,0,506049,0
506070,291,-2008,319,-40,-13,-39,6189,0,1,158,24,35792,-101,33,127,0,0,2163,-5,0,24433,11772,192,35902,-4,0,-7,0,506049,0
506080,275,-2012,325,-43,-6,-41,6190,7,2,164,24,35798,-98,33,127,0,0,2159,-38,0,24433,11772,192,35912,-4,0,-7,0,506065,0
506090,265,-2011,325,-41,-8,-33,6188,11,-2,136,48,35786,-104,33,127,0,0,2162,-10,0,24433,11772,192,35922,-4,0,-7,0,506065,0
506100,298,-2009,324,-42,-14,-40,6188,-4,3,163,48,35784,-99,33,127,0,0,2162,0,0,24433,11772,192,35932,-4,0,-7,0,506080,0
506110,291,-2020,317,-42,-8,-38,6189,1,3,157,40,35792,-106,33,127,0,0,2168,65,0,24433,11772,192,35942,-4,0,-7,0,506096,0
506120,271,-2027,320,-43,-11,-37,6191,0,10,240,40,35793,-115,33,127,0,0,2162,-16,0,24433,11772,192,35952,-4,0,-7,0,506112,0
506130,281,-2024,324,-41,-6,-43,6189,5,-2,153,40,35793,-126,33,127,0,0,2165,38,0,24433,11772,192,35962,-4,0,-7,0,506112,0
506140,281,-2014,320,-40,-7,-40,6191,2,-2,213,40,35790,-126,33,127,0,0,2165,21,0,24433,11772,192,35972,-4,0,-7,0,506112,0
506150,309,-2015,317,-41,-6,-33,6187,-12,1,137,64,35789,-94,33,127,0,0,2161,60,0,24433,11772,192,35982,-4,0,-7,0,506143,0
506160,328,-2035,311,-39,-4,-34,6190,-7,2,167,40,35798,-96,33,127,0,0,2165,5,0,24433,11772,192,35992,-4,0,-7,0,506143,0
506170,278,-2022,313,-43,-2,-22,6191,4,5,218,40,35797,-97,33,127,0,0,2168,16,0,24433,11772,192,36002,-4,0,-7,0,506143,0
506180,281,-2001,321,-36,-6,-15,6190,0,-5,236,40,35791,-115,33,127,0,0,2165,32,0,24433,11772,192,36012,-4,0,-7,0,506174,0
506190,299,-1999,320,-39,-10,-13,6192,10,3,267,56,35794,-120,33,127,0,0,2170,32,0,24433,11772,192,36022,-4,0,-7,0,506174,0
506200,286,-2017,329,-41,-13,-10,6193,-5,-4,304,104,35796,-122,33,127,0,0,2168,54,0,24433,11772,192,36032,-4,0,-7,0,506174,0
506210,285,-2019,323,-45,-14,-17,6195,2,5,316,96,35795,-130,33,127,0,0,2168,0,0,24433,11772,192,36042,-4,0,-7,0,506284,0
506220,279,-2018,317,-45,-11,-25,6195,3,4,321,112,35787,-129,33,127,0,0,2170,38,0,24433,11772,192,36052,-4,0,-7,0,506299,0
506230,275,-2020,319,-42,-8,-34,6200,14,4,383,104,35788,-112,33,127,0,0,2170,-10,0,24433,11772,192,36062,-4,0,-7,0,506299,0
506240,269,-2005,319,-44,-11,-40,6198,12,4,393,120,35797,-110,33,127,0,0,2166,-49,0,24433,11772,192,36072,-4,0,-7,0,506299,0
506250,270,-2013,321,-38,-8,-48,6198,5,-3,363,104,35791,-107,33,127,0,0,2174,0,0,24433,11772,192,36082,-4,0,-7,0,506299,0
506260,259,-2013,324,-37,-11,-52,6199,3,4,389,104,35790,-118,33,127,0,0,2170,10,0,24433,11772,192,36092,-4,0,-7,0,506299,0
506270,283,-2016,319,-46,-8,-60,6198,-5,-5,360,112,35786,-107,33,127,0,0,2170,38,0,24433,11772,192,36102,-4,0,-7,0,506299,0
506280,298,-2010,326,-48,-1,-64,6200,13,11,390,104,35785,-108,33,127,0,0,2170,-27,0,24433,11772,192,36112,-4,0,-7,0,506299,0
506290,289,-2010,320,-43,-3,-59,6200,1,-3,374,104,35783,-104,33,127,0,0,2174,38,0,24433,11772,192,36122,-4,0,-7,0,506299,0
506300,274,-2013,321,-46,-13,-61,6200,3,-2,392,104,35783,-107,33,127,0,0,2170,10,0,24433,11772,192,36132,-4,0,-7,0,506299,0
506310,275,-2003,321,-45,-8,-65,6199,-7,0,398,128,35779,-103,33,127,0,0,2169,0,0,24433,11772,192,36142,-4,0,-7,0,506315,0
506320,300,-2003,326,-49,-14,-65,6200,2,5,373,80,35779,-104,33,127,0,0,2168,-32,0,24433,11772,192,36152,-4,0,-7,0,506315,0
506330,261,-2014,320,-50,-14,-68,6201,9,0,363,88,35785,-107,33,127,0,0,2168,-49,0,24433,11772,192,36162,-4,0,-7,0,506315,0
506340,288,-1997,327,-50,-10,-78,6198,-5,-4,326,64,35787,-104,33,127,0,0,2169,-5,0,24433,11772,192,36172,-4,0,-7,0,506315,0
506350,284,-1999,330,-48,-13,-72,6199,6,-2,330,88,35799,-97,33,127,0,0,2168,-16,0,24433,11772,192,36182,-4,0,-7,0,506330,0
506360,280,-2005,325,-49,-16,-71,6200,9,4,325,104,35801,-123,33,127,0,0,2167,5,0,24433,11772,192,36192,-4,0,-7,0,506346,0
506370,308,-2006,324,-49,-12,-76,6196,-7,-6,298,104,35809,-136,33,127,0,0,2167,32,0,24433,11772,192,36202,-4,0,-7,0,506362,0
506380,301,-2020,322,-53,-9,-75,6199,-2,3,322,88,35798,-132,33,127,0,0,2168,-27,0,24433,11772,192,36212,-4,0,-7,0,506362,0
506390,293,-2019,325,-57,-14,-75,6198,4,3,330,64,35790,-120,33,127,0,0,2169,-10,0,24433,11772,192,36222,-4,0,-7,0,506362,0
506400,290,-2007,322,-57,-17,-83,6198,4,-4,305,88,35791,-122,33,127,0,0,2168,5,0,24433,11772,192,36232,-4,0,-7,0,506393,0
506410,287,-2014,326,-59,-15,-85,6198,-3,3,304,80,35802,-133,33,127,0,0,2168,5,0,24433,11772,192,36242,-4,0,-7,0,506393,0
506420,291,-2008,328,-59,-12,-87,6198,-3,5,275,48,35801,-128,33,127,0,0,2164,-43,0,24433,11772,192,36252,-4,0,-7,0,506393,0
506430,286,-2003,325,-56,-9,-85,6198,8,-6,220,48,35796,-124,33,127,0,0,2164,-32,0,24433,11772,192,36262,-4,0,-7,0,506424,0
506440,311,-2013,324,-56,-10,-87,6195,0,1,211,24,35791,-123,33,127,0,0,2162,-54,0,24433,11772,192,36272,-4,0,-7,0,506424,0
506450,289,-2001,323,-56,-11,-79,6194,-9,-2,136,32,35786,-130,33,127,0,0,2162,0,0,24433,11772,192,36282,-4,0,-7,0,506424,0
506460,297,-2013,317,-55,-12,-80,6194,-1,0,124,16,35791,-129,33,127,0,0,2159,-38,0,24433,11772,192,36292,-4,0,-7,0,506455,0
506470,292,-2007,320,-55,-7,-83,6192,-4,-2,57,16,35775,-121,33,127,0,0,2159,0,0,24433,11772,192,36302,-4,0,-7,0,506455,0
506480,299,-2013,325,-56,-7,-76,6193,6,1,19,32,35776,-112,33,127,0,0,2162,60,0,24433,11772,192,36312,-4,0,-7,0,506455,0
506490,328,-2022,311,-60,-9,-75,6192,-6,5,60,0,35770,-109,33,127,0,0,2157,0,0,24433,11772,192,36322,-4,0,-7,0,506487,0
506500,295,-2007,312,-51,-11,-81,6194,12,-2,24,-8,35771,-116,33,127,0,0,2157,-54,0,24433,11772,192,36332,-4,0,-7,0,506487,0
506510,290,-2019,313,-53,-13,-72,6191,7,-4,-5,0,35769,-112,33,127,0,0,2154,-32,0,24433,11772,192,36342,-4,0,-7,0,506487,0
506520,301,-2008,317,-52,-8,-77,6188,-12,-4,-50,8,35768,-104,33,127,0,0,2157,16,0,24433,11772,192,36352,-4,0,-7,0,506487,0
506530,313,-2013,319,-55,-8,-75,6189,-10,3,-53,-16,35784,-131,33,127,0,0,2155,5,0,24433,11772,192,36362,-4,0,-7,0,506518,0
506540,303,-2016,317,-49,-1,-81,6189,1,3,-61,0,35790,-124,33,127,0,0,2157,38,0,24433,11772,192,36372,-4,0,-7,0,506518,0
506550,309,-2020,316,-49,-9,-77,6188,-6,1,-57,8,35788,-130,33,127,0,0,2151,-16,0,24433,11772,192,36382,-4,0,-7,0,506534,0
506560,306,-2005,314,-50,-10,-72,6188,6,-6,-86,-16,35782,-128,33,127,0,0,2155,-10,0,24433,11772,192,36392,-4,0,-7,0,506549,0
506570,299,-2005,319,-45,-6,-74,6189,-2,7,-41,-16,35787,-116,33,127,0,0,2152,-32,0,24433,11772,192,36402,-4,0,-7,0,506549,0
506580,305,-2013,324,-51,-6,-75,6184,-23,-10,-178,-24,35787,-121,33,127,0,0,2156,49,0,24433,11772,192,36412,-4,0,-7,0,506565,0
506590,307,-2022,319,-55,-9,-76,6186,13,3,-117,-8,35780,-118,33,127,0,0,2148,-27,0,24433,11772,192,36422,-4,0,-7,0,506565,0
506600,301,-1992,329,-46,-10,-65,6181,-10,-1,-214,-40,35767,-115,33,127,0,0,2151,0,0,24433,11772,192,36432,-4,0,-7,0,506658,0
506610,306,-2010,317,-50,-10,-62,6182,-7,-4,-209,-40,35765,-107,33,127,0,0,2154,32,0,24433,11772,192,36442,-4,0,-7,0,506658,0
506620,286,-2007,316,-46,-12,-61,6182,4,6,-189,-40,35767,-110,33,127,0,0,2151,16,0,24433,11772,192,36452,-4,0,-7,0,506658,0
506630,292,-2009,315,-48,-10,-63,6181,2,-3,-201,-64,35768,-117,33,127,0,0,2152,0,0,24433,11772,192,36462,-4,0,-7,0,506658,0
506640,286,-2004,328,-49,-8,-63,6182,2,0,-227,-64,35761,-113,33,127,0,0,2152,16,0,24433,11772,192,36472,-4,0,-7,0,506658,0
506650,304,-2015,322,-49,-7,-57,6181,11,4,-202,-64,35760,-109,33,127,0,0,2148,-32,0,24433,11772,192,36482,-4,0,-7,0,506674,0
506660,300,-1999,327,-44,-5,-64,6180,1,2,-237,-80,35762,-109,33,127,0,0,2150,-32,0,24433,11772,192,36492,-4,0,-7,0,506674,0
506670,281,-2013,325,-48,-14,-58,6181,6,5,-233,-64,35770,-120,33,127,0,0,2148,-27,0,24433,11772,192,36502,-4,0,-7,0,506674,0
506680,297,-2006,320,-46,-8,-65,6180,1,10,-206,-56,35772,-120,33,127,0,0,2148,-43,0,24433,11772,192,36512,-4,0,-7,0,506674,0
506690,291,-2017,324,-51,-10,-63,6180,8,-4,-231,-56,35768,-116,33,127,0,0,2145,-60,0,24433,11772,192,36522,-4,0,-7,0,506674,0
506700,314,-2009,324,-48,-5,-65,6180,0,4,-229,-80,35772,-113,33,127,0,0,2146,-82,0,24433,11772,192,36532,-4,0,-7,0,506674,0
506710,273,-2005,324,-49,-8,-61,6177,-6,-4,-281,-56,35783,-83,33,127,0,0,2145,-32,0,24433,11772,192,36542,-4,0,-7,0,506705,0
506720,297,-2010,323,-49,-8,-67,6178,0,-1,-272,-56,35794,-92,33,127,0,0,2148,-5,0,24433,11772,192,36552,-4,0,-7,0,506705,0
506730,303,-2010,316,-56,-17,-63,6176,-8,5,-262,-48,35787,-89,33,127,0,0,2145,-16,0,24433,11772,192,36562,-4,0,-7,0,506705,0
506740,308,-2013,312,-54,-10,-65,6176,-10,-8,-314,-72,35775,-114,33,127,0,0,2143,-21,0,24433,11772,192,36572,-4,0,-7,0,506721,0
506750,295,-2001,318,-48,3,-58,6174,0,-5,-340,-64,35778,-120,33,127,0,0,2143,-21,0,24433,11772,192,36582,-4,0,-7,0,506752,0
506760,320,-2013,327,-50,-9,-61,6172,-5,3,-323,-64,35788,-125,33,127,0,0,2143,-16,0,24433,11772,192,36592,-4,0,-7,0,506752,0
506770,320,-1997,317,-47,-7,-52,6171,-9,4,-339,-64,35791,-118,33,127,0,0,2143,0,0,24433,11772,192,36602,-4,0,-7,0,506768,0
506780,333,-2017,311,-52,-11,-43,6172,0,5,-347,-64,35782,-119,33,127,0,0,2146,38,0,24433,11772,192,36612,-4,0,-7,0,506768,0
506790,329,-2011,312,-50,-3,-34,6171,0,1,-322,-80,35772,-110,33,127,0,0,2144,10,0,24433,11772,192,36622,-4,0,-7,0,506768,0
506800,311,-2013,308,-47,-5,-33,6169,4,-3,-302,-80,35774,-114,33,127,0,0,2144,-16,0,24433,11772,192,36632,-4,0,-7,0,506799,0
506810,304,-2002,318,-47,-10,-30,6168,-3,0,-307,-56,35771,-105,33,127,0,0,2146,21,0,24433,11772,192,36642,-4,0,-7,0,506799,0
506820,312,-2002,329,-52,-1,-23,6170,5,7,-276,-56,35770,-97,33,127,0,0,2146,27,0,24433,11772,192,36652,-4,0,-7,0,506799,0
506830,297,-2015,327,-46,-8,-25,6170,5,3,-225,-80,35773,-101,33,127,0,0,2144,-54,0,24433,11772,192,36662,-4,0,-7,0,506799,0
506840,291,-2001,325,-46,-3,-24,6167,-4,-7,-290,-72,35779,-120,33,127,0,0,2141,-49,0,24433,11772,192,36672,-4,0,-7,0,506846,0
506850,287,-2006,322,-49,-7,-23,6167,-1,-4,-303,-32,35789,-140,33,127,0,0,2142,-27,0,24433,11772,192,36682,-4,0,-7,0,506846,0
506860,315,-2020,322,-50,-10,-20,6167,-9,7,-302,-32,35787,-133,33,127,0,0,2145,49,0,24433,11772,192,36692,-4,0,-7,0,506846,0
506870,280,-2007,326,-52,-3,-22,6169,0,0,-271,-40,35781,-125,33,127,0,0,2148,27,0,24433,11772,192,36702,-4,0,-7,0,506846,0
506880,280,-2027,319,-51,-11,-22,6168,-4,-2,-269,-56,35772,-119,33,127,0,0,2146,54,0,24433,11772,192,36712,-4,0,-7,0,506862,0
506890,296,-2010,321,-49,-7,-37,6168,0,-12,-270,-72,35779,-106,33,127,0,0,2144,-10,0,24433,11772,192,36722,-4,0,-7,0,506877,0
506900,286,-2011,324,-53,-5,-43,6167,-1,1,-245,-32,35785,-100,33,127,0,0,2148,49,0,24433,11772,192,36732,-4,0,-7,0,506893,0
506910,287,-2006,324,-58,-10,-44,6171,1,7,-209,-80,35787,-85,33,127,0,0,2147,-38,0,24433,11772,192,36742,-4,0,-7,0,506893,0
506920,262,-2008,326,-59,-14,-54,6169,9,-5,-216,-80,35786,-102,33,127,0,0,2147,-32,0,24433,11772,192,36752,-4,0,-7,0,506893,0
506930,289,-2011,320,-61,-14,-59,6169,6,-4,-212,-40,35787,-102,33,127,0,0,2148,16,0,24433,11772,192,36762,-4,0,-7,0,506908,0
506940,296,-2000,324,-60,-12,-60,6172,-1,12,-187,-40,35792,-101,33,127,0,0,2145,-32,0,24433,11772,192,36772,-4,0,-7,0,506940,0
506950,286,-2005,331,-59,-13,-58,6171,8,-3,-209,-40,35794,-98,33,127,0,0,2145,-38,0,24433,11772,192,36782,-4,0,-7,0,506940,0
506960,308,-2006,322,-61,-16,-60,6171,0,0,-208,-40,35788,-91,33,127,0,0,2145,-38,0,24433,11772,192,36792,-4,0,-7,0,506940,0
506970,303,-2005,325,-64,-12,-65,6171,11,1,-180,-40,35782,-101,33,127,0,0,2148,0,0,24433,11772,192,36802,-4,0,-7,0,506940,0
506980,296,-1998,334,-63,-17,-59,6170,-7,0,-193,-16,35786,-117,33,127,0,0,2144,0,0,24433,11772,192,36812,-4,0,-7,0,507018,0
506990,306,-2003,316,-58,-10,-56,6171,0,2,-165,-40,35794,-120,33,127,0,0,2148,-32,0,24433,11772,192,36822,-4,0,-7,0,507018,0
507000,303,-2006,316,-59,-11,-57,6170,-10,-3,-196,-56,35793,-125,33,127,0,0,2150,0,0,24433,11772,192,36832,-4,0,-7,0,507033,0
507010,296,-2009,317,-56,-16,-45,6174,25,2,-173,-64,35786,-117,33,127,0,0,2150,-27,0,24433,11772,192,36842,-4,0,-7,0,507033,0
507020,284,-1998,318,-58,-14,-52,6169,-1,-6,-210,-56,35783,-111,33,127,0,0,2150,16,0,24433,11772,192,36852,-4,0,-7,0,507033,0
507030,298,-2007,312,-56,-14,-54,6172,12,0,-182,-40,35781,-108,33,127,0,0,2145,-32,0,24433,11772,192,36862,-4,0,-7,0,507033,0
507040,302,-2016,321,-56,-12,-52,6171,0,4,-211,-64,35778,-117,33,127,0,0,2150,0,0,24433,11772,192,36872,-4,0,-7,0,507033,0
507050,298,-2016,320,-52,-17,-48,6172,10,-1,-200,-40,35781,-113,33,127,0,0,2145,-27,0,24433,11772,192,36882,-4,0,-7,0,507033,0
507060,312,-2013,321,-56,-16,-52,6169,0,1,-247,-40,35780,-112,33,127,0,0,2145,-16,0,24433,11772,192,36892,-4,0,-7,0,507033,0
507070,322,-2015,321,-55,-15,-47,6171,8,-3,-214,-40,35783,-101,33,127,0,0,2148,5,0,24433,11772,192,36902,-4,0,-7,0,507065,0
507080,315,-2007,317,-57,-10,-44,6171,-3,0,-227,-64,35791,-93,33,127,0,0,2150,21,0,24433,11772,192,36912,-4,0,-7,0,507065,0
507090,323,-2014,311,-56,-16,-44,6168,3,-11,-211,-56,35792,-94,33,127,0,0,2150,38,0,24433,11772,192,36922,-4,0,-7,0,507065,0
507100,298,-2005,319,-60,-10,-49,6171,1,-2,-219,-64,35798,-104,33,127,0,0,2146,0,0,24433,11772,192,36932,-4,0,-7,0,507080,0
507110,289,-2015,310,-58,-14,-44,6169,8,-2,-245,-56,35786,-107,33,127,0,0,2146,-21,0,24433,11772,192,36942,-4,0,-7,0,507112,0
507120,289,-2007,317,-55,-19,-44,6167,-4,1,-260,-32,35795,-111,33,127,0,0,2145,10,0,24433,11772,192,36952,-4,0,-7,0,507112,0
507130,316,-2016,308,-56,-16,-51,6170,1,0,-256,-40,35791,-105,33,127,0,0,2145,16,0,24433,11772,192,36962,-4,0,-7,0,507112,0
507140,328,-2012,315,-52,-8,-53,6170,0,3,-191,-64,35789,-106,33,127,0,0,2146,-38,0,24433,11772,192,36972,-4,0,-7,0,507112,0
507150,283,-2003,315,-53,-13,-43,6169,6,2,-202,-40,35791,-116,33,127,0,0,2148,5,0,24433,11772,192,36982,-4,0,-7,0,507143,0
507160,325,-2000,316,-54,-10,-42,6168,-13,-3,-222,-56,35798,-114,33,127,0,0,2150,49,0,24433,11772,192,36992,-4,0,-7,0,507143,0
507170,298,-2012,317,-49,-11,-41,6169,-3,1,-224,-80,35804,-124,33,127,0,0,2147,5,0,24433,11772,192,37002,-4,0,-7,0,507174,0
507180,283,-2007,323,-50,-6,-45,6168,2,-6,-241,-32,35796,-114,33,127,0,0,2142,-27,0,24433,11772,192,37012,-4,0,-7,0,507174,0
507190,291,-2007,325,-52,-3,-43,6170,1,4,-242,-40,35789,-111,33,127,0,0,2145,-32,0,24433,11772,192,37022,-4,0,-7,0,507190,0
507200,315,-2010,317,-53,-4,-44,6170,6,-7,-219,-32,35785,-108,33,127,0,0,2145,-10,0,24433,11772,192,37032,-4,0,-7,0,507190,0
507210,292,-2013,312,-52,-9,-42,6170,-1,-5,-226,-56,35788,-115,33,127,0,0,2150,5,0,24433,11772,192,37042,-4,0,-7,0,507190,0
507220,277,-2011,312,-47,-4,-40,6168,-5,2,-193,-80,35793,-97,33,127,0,0,2147,-5,0,24433,11772,192,37052,-4,0,-7,0,507221,0
507230,277,-1994,326,-51,-12,-46,6168,2,-5,-228,-32,35787,-91,33,127,0,0,2145,16,0,24433,11772,192,37062,-4,0,-7,0,507221,0
507240,293,-2010,320,-51,-1,-41,6169,-6,-2,-235,-32,35780,-85,33,127,0,0,2145,0,0,24433,11772,192,37072,-4,0,-7,0,507221,0
507250,292,-2007,310,-54,-4,-51,6170,1,1,-186,-16,35781,-91,33,127,0,0,2141,-49,0,24433,11772,192,37082,-4,0,-7,0,507221,0
507260,343,-2016,315,-49,1,-54,6172,-2,0,-191,-64,35794,-99,33,127,0,0,2153,-27,0,24433,11772,192,37092,-4,0,-7,0,507252,0
507270,303,-2010,323,-47,-10,-41,6173,5,0,-157,-80,35791,-87,33,127,0,0,2151,0,0,24433,11772,192,37102,-4,0,-7,0,507252,0
507280,282,-2005,322,-51,-8,-45,6169,1,-5,-203,-40,35788,-92,33,127,0,0,2145,-21,0,24433,11772,192,37112,-4,0,-7,0,507252,0
507290,314,-2016,313,-49,-3,-49,6171,6,7,-231,-40,35781,-110,33,127,0,0,2145,-32,0,24433,11772,192,37122,-4,0,-7,0,507283,0
507300,300,-2010,316,-49,-8,-41,6170,9,5,-213,-80,35789,-104,33,127,0,0,2147,-27,0,24433,11772,192,37132,-4,0,-7,0,507283,0
507310,266,-2009,322,-47,-15,-38,6170,7,1,-188,-40,35797,-117,33,127,0,0,2148,-10,0,24433,11772,192,37142,-4,0,-7,0,507283,0
507320,305,-2000,321,-46,-13,-37,6168,-21,-5,-268,-16,35794,-114,33,127,0,0,2144,54,0,24433,11772,192,37152,-4,0,-7,0,507299,0
507330,308,-2010,320,-49,-5,-36,6169,1,0,-281,-40,35793,-106,33,127,0,0,2148,60,0,24433,11772,192,37162,-4,0,-7,0,507315,0
507340,309,-2023,308,-47,-12,-30,6168,-6,6,-257,-72,35791,-103,33,127,0,0,2151,71,0,24433,11772,192,37172,-4,0,-7,0,507315,0
507350,317,-2027,318,-50,-7,-31,6168,1,-3,-242,-32,35793,-95,33,127,0,0,2148,65,0,24433,11772,192,37182,-4,0,-7,0,507330,0
507360,319,-2017,315,-49,-7,-32,6167,-12,-1,-261,-72,35786,-97,33,127,0,0,2144,10,0,24433,11772,192,37192,-4,0,-7,0,507346,0
507370,274,-2001,320,-48,-6,-32,6167,-7,-6,-284,-48,35773,-103,33,127,0,0,2143,5,0,24433,11772,192,37202,-4,0,-7,0,507361,0
507380,307,-2010,314,-50,-7,-30,6169,5,4,-252,-32,35778,-103,33,127,0,0,2145,-10,0,24433,11772,192,37212,-4,0,-7,0,507377,0
507390,272,-2007,321,-51,-8,-33,6170,0,2,-219,-56,35786,-97,33,127,0,0,2146,-32,0,24433,11772,192,37222,-4,0,-7,0,507377,0
507400,288,-2006,320,-49,-6,-36,6168,-3,-2,-258,-40,35787,-80,33,127,0,0,2148,54,0,24433,11772,192,37232,-4,0,-7,0,507377,0
507410,318,-2008,315,-47,-5,-36,6170,-6,1,-212,-56,35786,-80,33,127,0,0,2146,-10,0,24433,11772,192,37242,-4,0,-7,0,507393,0
507420,283,-2005,319,-46,0,-37,6170,11,-1,-206,-72,35794,-100,33,127,0,0,2151,-5,0,24433,11772,192,37252,-4,0,-7,0,507424,0
507430,286,-2010,321,-50,-9,-30,6169,-5,2,-200,-40,35799,-91,33,127,0,0,2148,21,0,24433,11772,192,37262,-4,0,-7,0,507440,0
507440,297,-2019,315,-41,-10,-28,6167,-11,5,-271,-72,35793,-98,33,127,0,0,2151,82,0,24433,11772,192,37272,-4,0,-7,0,507440,0
507450,274,-2013,318,-48,-15,-29,6168,14,1,-211,-32,35787,-101,33,127,0,0,2148,21,0,24433,11772,192,37282,-4,0,-7,0,507440,0
507460,286,-2013,321,-47,-16,-33,6170,1,10,-211,-40,35774,-105,33,127,0,0,2145,-21,0,24433,11772,192,37292,-4,0,-7,0,507440,0
507470,290,-2022,312,-50,-10,-37,6169,6,-4,-224,-80,35777,-125,33,127,0,0,2151,0,0,24433,11772,192,37302,-4,0,-7,0,507440,0
507480,264,-2001,316,-50,-13,-35,6168,3,3,-212,-72,35792,-133,33,127,0,0,2144,-5,0,24433,11772,192,37312,-4,0,-7,0,507502,0
507490,282,-2001,322,-50,-2,-44,6165,-14,-5,-242,-48,35799,-135,33,127,0,0,2146,10,0,24433,11772,192,37322,-4,0,-7,0,507502,0
507500,309,-2009,321,-44,-3,-39,6169,8,6,-192,-40,35796,-132,33,127,0,0,2148,0,0,24433,11772,192,37332,-4,0,-7,0,507502,0
507510,300,-2003,326,-42,-6,-38,6169,-15,0,-189,-40,35789,-129,33,127,0,0,2148,27,0,24433,11772,192,37342,-4,0,-7,0,507502,0
507520,292,-2012,312,-49,-7,-41,6169,0,-10,-181,-56,35780,-117,33,127,0,0,2146,-38,0,24433,11772,192,37352,-4,0,-7,0,507502,0
507530,274,-2000,315,-52,-6,-40,6169,2,3,-185,-40,35781,-112,33,127,0,0,2148,-10,0,24433,11772,192,37362,-4,0,-7,0,507518,0
507540,293,-2007,317,-44,-6,-44,6168,-8,-1,-187,-32,35776,-100,33,127,0,0,2145,-5,0,24433,11772,192,37372,-4,0,-7,0,507518,0
507550,279,-2002,324,-46,-12,-44,6168,-4,-2,-255,-32,35785,-94,33,127,0,0,2145,-5,0,24433,11772,192,37382,-4,0,-7,0,507549,0
507560,308,-2021,313,-48,-10,-43,6169,7,5,-228,-40,35792,-113,33,127,0,0,2148,21,0,24433,11772,192,37392,-4,0,-7,0,507549,0
507570,297,-2011,315,-49,-8,-48,6169,0,5,-179,-56,35796,-114,33,127,0,0,2150,-5,0,24433,11772,192,37402,-4,0,-7,0,507549,0
507580,264,-2004,326,-48,-8,-48,6171,7,0,-150,-64,35786,-123,33,127,0,0,2150,-32,0,24433,11772,192,37412,-4,0,-7,0,507549,0
507590,291,-2018,310,-49,-7,-50,6167,-9,-11,-177,-72,35781,-120,33,127,0,0,2151,-10,0,24433,11772,192,37422,-4,0,-7,0,507580,0
507600,262,-2003,325,-44,1,-50,6169,7,0,-173,-40,35791,-115,33,127,0,0,2148,0,0,24433,11772,192,37432,-4,0,-7,0,507596,0
507610,300,-2015,314,-44,-11,-49,6168,-8,10,-175,-32,35796,-114,33,127,0,0,2145,-32,0,24433,11772,192,37442,-4,0,-7,0,507596,0
507620,299,-2005,317,-45,-3,-49,6169,4,-2,-192,-56,35799,-106,33,127,0,0,2146,-49,0,24433,11772,192,37452,-4,0,-7,0,507596,0
507630,290,-2007,312,-42,-11,-51,6168,1,3,-172,-32,35796,-100,33,127,0,0,2148,0,0,24433,11772,192,37462,-4,0,-7,0,507627,0
507640,291,-2003,318,-42,-1,-43,6169,-12,2,-178,-40,35796,-105,33,127,0,0,2145,-32,0,24433,11772,192,37472,-4,0,-7,0,507627,0
507650,301,-2001,315,-37,-5,-43,6168,-7,-7,-184,-32,35784,-108,33,127,0,0,2148,10,0,24433,11772,192,37482,-4,0,-7,0,507643,0
507660,314,-2009,314,-45,-3,-50,6169,-11,0,-177,-56,35778,-116,33,127,0,0,2153,27,0,24433,11772,192,37492,-4,0,-7,0,507643,0
507670,304,-2014,334,-37,-3,-36,6170,3,0,-173,-40,35767,-110,33,127,0,0,2148,16,0,24433,11772,192,37502,-4,0,-7,0,507643,0
507680,292,-2007,322,-46,-6,-37,6170,8,3,-165,-40,35769,-107,33,127,0,0,2148,21,0,24433,11772,192,37512,-4,0,-7,0,507674,0
507690,260,-1994,330,-43,-7,-36,6170,-10,2,-161,-40,35776,-97,33,127,0,0,2148,-27,0,24433,11772,192,37522,-4,0,-7,0,507674,0
507700,281,-2012,321,-45,-13,-43,6170,5,-6,-178,-16,35780,-105,33,127,0,0,2147,5,0,24433,11772,192,37532,-4,0,-7,0,507674,0
507710,297,-2009,321,-42,-6,-49,6170,-8,2,-166,-40,35773,-110,33,127,0,0,2152,27,0,24433,11772,192,37542,-4,0,-7,0,507689,0
507720,282,-2015,322,-48,-6,-52,6170,-2,-2,-159,-40,35780,-101,33,127,0,0,2148,10,0,24433,11772,192,37552,-4,0,-7,0,507689,0
507730,285,-2016,319,-44,-7,-51,6169,-2,-2,-179,-40,35786,-121,33,127,0,0,2148,0,0,24433,11772,192,37562,-4,0,-7,0,507721,0
507740,293,-2015,313,-45,0,-56,6170,-5,2,-195,-40,35782,-103,33,127,0,0,2145,-16,0,24433,11772,192,37572,-4,0,-7,0,507721,0
507750,291,-2000,313,-46,-10,-53,6168,-4,-2,-220,-16,35768,-99,33,127,0,0,2147,21,0,24433,11772,192,37582,-4,0,-7,0,507721,0
507760,312,-2017,315,-47,-6,-50,6172,-3,8,-185,-40,35769,-93,33,127,0,0,2148,10,0,24433,11772,192,37592,-4,0,-7,0,507736,0
507770,295,-2012,319,-44,-5,-47,6170,0,-1,-180,-40,35779,-105,33,127,0,0,2148,0,0,24433,11772,192,37602,-4,0,-7,0,507752,0
507780,295,-2010,316,-42,-12,-44,6170,-2,2,-189,-40,35784,-115,33,127,0,0,2148,27,0,24433,11772,192,37612,-4,0,-7,0,507783,0
507790,279,-2002,320,-42,-5,-45,6170,-3,-7,-210,-40,35784,-122,33,127,0,0,2148,21,0,24433,11772,192,37622,-4,0,-7,0,507783,0
507800,297,-2019,313,-44,-4,-51,6170,1,3,-195,-40,35780,-112,33,127,0,0,2148,27,0,24433,11772,192,37632,-4,0,-7,0,507783,0
507810,308,-2004,316,-45,-6,-57,6169,-10,-3,-190,-40,35785,-128,33,127,0,0,2145,16,0,24433,11772,192,37642,-4,0,-7,0,507783,0
507820,310,-2000,318,-44,-4,-57,6170,0,-7,-244,-40,35784,-101,33,127,0,0,2148,27,0,24433,11772,192,37652,-4,0,-7,0,507799,0
507830,320,-2016,316,-31,5,-46,6170,9,2,-184,-40,35797,-116,33,127,0,0,2142,-54,0,24433,11772,192,37662,-4,0,-7,0,507814,0
507840,342,-2003,307,-41,3,-54,6169,-3,-5,-197,-16,35797,-114,33,127,0,0,2144,-38,0,24433,11772,192,37672,-4,0,-7,0,507814,0
507850,312,-1994,325,-33,-6,-38,6169,-6,-2,-235,-40,35793,-131,33,127,0,0,2148,32,0,24433,11772,192,37682,-4,0,-7,0,507830,0
507860,311,-2011,320,-40,0,-35,6170,3,-4,-248,-56,35788,-112,33,127,0,0,2143,-32,0,24433,11772,192,37692,-4,0,-7,0,507846,0
507870,279,-2007,310,-38,-2,-28,6167,0,-6,-253,-56,35781,-90,33,127,0,0,2150,16,0,24433,11772,192,37702,-4,0,-7,0,507846,0
507880,276,-2005,318,-37,-6,-26,6168,0,-2,-218,-32,35780,-91,33,127,0,0,2148,60,0,24433,11772,192,37712,-4,0,-7,0,507861,0
507890,301,-2009,318,-36,-7,-25,6169,0,5,-200,-40,35779,-92,33,127,0,0,2148,16,0,24433,11772,192,37722,-4,0,-7,0,507877,0
507900,303,-2016,317,-37,-1,-26,6169,-4,0,-211,-40,35782,-107,33,127,0,0,2145,-10,0,24433,11772,192,37732,-4,0,-7,0,507877,0
507910,292,-2013,326,-40,2,-20,6170,9,-2,-172,-40,35794,-111,33,127,0,0,2148,-16,0,24433,11772,192,37742,-4,0,-7,0,507908,0
507920,312,-2008,326,-40,-4,-22,6170,0,0,-161,-56,35792,-128,33,127,0,0,2153,0,0,24433,11772,192,37752,-4,0,-7,0,507908,0
507930,299,-2020,317,-40,-7,-10,6170,9,1,-138,-40,35794,-136,33,127,0,0,2152,38,0,24433,11772,192,37762,-4,0,-7,0,507908,0
507940,288,-2009,319,-36,-9,-11,6173,6,3,-100,-24,35790,-133,33,127,0,0,2154,32,0,24433,11772,192,37772,-4,0,-7,0,507908,0
507950,289,-2018,316,-36,-9,-10,6172,-1,2,-83,0,35791,-98,33,127,0,0,2150,10,0,24433,11772,192,37782,-4,0,-7,0,507939,0
507960,303,-2015,316,-34,-4,-12,6174,4,-2,-43,-24,35792,-104,33,127,0,0,2157,21,0,24433,11772,192,37792,-4,0,-7,0,507939,0
507970,279,-2004,327,-33,-4,-18,6177,5,5,-19,8,35789,-98,33,127,0,0,2155,16,0,24433,11772,192,37802,-4,0,-7,0,507955,0
507980,293,-2014,325,-31,2,-18,6177,-4,0,-3,8,35790,-117,33,127,0,0,2155,0,0,24433,11772,192,37812,-4,0,-7,0,507955,0
507990,286,-2013,323,-33,-1,-17,6178,0,-3,12,24,35790,-122,33,127,0,0,2154,0,0,24433,11772,192,37822,-4,0,-7,0,507971,0
508000,301,-2020,327,-36,-5,-16,6181,1,2,8,16,35799,-132,33,127,0,0,2157,21,0,24433,11772,192,37832,-4,0,-7,0,507986,0
508010,296,-2010,323,-37,0,-21,6181,-1,0,28,16,35797,-131,33,127,0,0,2161,65,0,24433,11772,192,37842,-4,0,-7,0,507986,0
508020,273,-2009,323,-41,0,-22,6184,5,-1,68,32,35794,-121,33,127,0,0,2156,-5,0,24433,11772,192,37852,-4,0,-7,0,508002,0
508030,288,-2011,319,-35,-7,-29,6184,5,-4,85,16,35794,-120,33,127,0,0,2164,43,0,24433,11772,192,37862,-4,0,-7,0,508002,0
508040,260,-2011,320,-40,-5,-37,6188,12,2,163,24,35794,-115,33,127,0,0,2159,-21,0,24433,11772,192,37872,-4,0,-7,0,508018,0
508050,267,-1997,315,-34,-1,-40,6187,3,-3,120,48,35796,-123,33,127,0,0,2158,5,0,24433,11772,192,37882,-4,0,-7,0,508033,0
508060,286,-2009,315,-32,1,-52,6188,0,-6,121,24,35795,-109,33,127,0,0,2159,-27,0,24433,11772,192,37892,-4,0,-7,0,508049,0
508070,274,-2020,328,-37,-2,-55,6187,0,5,152,24,35792,-119,33,127,0,0,2163,-16,0,24433,11772,192,37902,-4,0,-7,0,508049,0
508080,274,-2002,327,-40,-2,-58,6187,-5,-3,168,24,35795,-123,33,127,0,0,2159,-38,0,24433,11772,192,37912,-4,0,-7,0,508080,0
508090,279,-2010,334,-41,-8,-56,6188,0,-5,147,24,35784,-118,33,127,0,0,2159,-21,0,24433,11772,192,37922,-4,0,-7,0,508096,0
508100,293,-2003,332,-37,-13,-61,6186,-3,-1,94,32,35785,-113,33,127,0,0,2159,16,0,24433,11772,192,37932,-4,0,-7,0,508127,0
508110,289,-2009,325,-47,-7,-58,6189,6,5,144,24,35787,-112,33,127,0,0,2163,-16,0,24433,11772,192,37942,-4,0,-7,0,508127,0
508120,273,-2016,323,-44,-8,-64,6187,5,5,141,8,35791,-130,33,127,0,0,2161,-21,0,24433,11772,192,37952,-4,0,-7,0,508127,0
508130,290,-2012,319,-45,-7,-59,6187,9,-1,137,24,35793,-119,33,127,0,0,2163,27,0,24433,11772,192,37962,-4,0,-7,0,508143,0
508140,300,-2006,322,-41,-10,-55,6187,-2,6,151,24,35799,-117,33,127,0,0,2159,-5,0,24433,11772,192,37972,-4,0,-7,0,508143,0
508150,285,-2011,320,-36,-7,-52,6189,7,2,153,40,35796,-120,33,127,0,0,2162,-10,0,24433,11772,192,37982,-4,0,-7,0,508143,0
508160,292,-2007,326,-36,-3,-46,6188,-1,3,139,24,35794,-125,33,127,0,0,2159,5,0,24433,11772,192,37992,-4,0,-7,0,508143,0
508170,277,-2002,329,-32,-1,-45,6189,2,0,147,24,35792,-127,33,127,0,0,2156,-76,0,24433,11772,192,38002,-4,0,-7,0,508174,0
508180,283,-1997,326,-34,-10,-49,6186,4,2,77,24,35789,-107,33,127,0,0,2159,5,0,24433,11772,192,38012,-4,0,-7,0,508174,0
508190,300,-2004,326,-28,-7,-49,6187,-5,3,121,8,35789,-98,33,127,0,0,2161,-10,0,24433,11772,192,38022,-4,0,-7,0,508174,0
508200,271,-2006,330,-36,-6,-47,6189,11,-1,119,24,35785,-97,33,127,0,0,2159,0,0,24433,11772,192,38032,-4,0,-7,0,508174,0
508210,271,-2006,327,-28,1,-51,6187,6,-5,145,40,35777,-104,33,127,0,0,2158,-43,0,24433,11772,192,38042,-4,0,-7,0,508189,0
508220,295,-2001,321,-30,-10,-58,6187,-2,-2,136,24,35772,-98,33,127,0,0,2159,-32,0,24433,11772,192,38052,-4,0,-7,0,508236,0
508230,290,-2007,321,-29,-11,-54,6187,-9,-2,107,24,35776,-90,33,127,0,0,2159,0,0,24433,11772,192,38062,-4,0,-7,0,508236,0
508240,300,-2015,321,-31,-6,-50,6188,5,5,152,24,35787,-96,33,127,0,0,2159,-49,0,24433,11772,192,38072,-4,0,-7,0,508236,0
508250,290,-2017,323,-29,-1,-52,6187,10,-3,109,48,35793,-118,33,127,0,0,2158,5,0,24433,11772,192,38082,-4,0,-7,0,508236,0
508260,312,-2016,328,-23,-7,-49,6187,-5,-1,114,48,35787,-133,33,127,0,0,2162,21,0,24433,11772,192,38092,-4,0,-7,0,508236,0
508270,304,-2003,327,-30,-4,-50,6188,-2,-4,113,24,35791,-135,33,127,0,0,2163,21,0,24433,11772,192,38102,-4,0,-7,0,508252,0
508280,283,-2027,322,-25,-8,-42,6188,6,2,74,24,35797,-115,33,127,0,0,2159,32,0,24433,11772,192,38112,-4,0,-7,0,508267,0
508290,295,-2019,323,-31,-1,-41,6188,9,6,100,0,35802,-117,33,127,0,0,2161,-27,0,24433,11772,192,38122,-4,0,-7,0,508267,0
508300,273,-2014,328,-28,-10,-38,6186,2,-6,80,32,35798,-118,33,127,0,0,2159,38,0,24433,11772,192,38132,-4,0,-7,0,508283,0
508310,276,-1994,332,-28,0,-41,6189,1,0,125,24,35790,-124,33,127,0,0,2159,-43,0,24433,11772,192,38142,-4,0,-7,0,508299,0
508320,262,-2002,326,-29,1,-43,6191,22,5,178,40,35795,-119,33,127,0,0,2162,-27,0,24433,11772,192,38152,-4,0,-7,0,508314,0
508330,295,-2015,322,-32,-4,-48,6188,-5,-4,148,24,35793,-108,33,127,0,0,2163,27,0,24433,11772,192,38162,-4,0,-7,0,508314,0
508340,277,-2016,327,-30,-1,-50,6189,-2,-6,161,24,35792,-104,33,127,0,0,2163,-5,0,24433,11772,192,38172,-4,0,-7,0,508314,0
508350,290,-2014,332,-32,-3,-50,6190,8,5,144,24,35787,-98,33,127,0,0,2159,-10,0,24433,11772,192,38182,-4,0,-7,0,508346,0
508360,295,-2001,330,-25,-5,-53,6188,0,-7,106,48,35789,-94,33,127,0,0,2165,43,0,24433,11772,192,38192,-4,0,-7,0,508346,0
508370,321,-2010,326,-29,-5,-48,6189,-8,7,154,40,35786,-102,33,127,0,0,2162,16,0,24433,11772,192,38202,-4,0,-7,0,508346,0
508380,276,-2023,323,-26,-9,-42,6188,-5,-1,101,24,35788,-108,33,127,0,0,2159,10,0,24433,11772,192,38212,-4,0,-7,0,508377,0
508390,300,-2016,325,-28,-1,-49,6189,4,-2,132,0,35774,-98,33,127,0,0,2164,10,0,24433,11772,192,38222,-4,0,-7,0,508377,0
508400,260,-1997,334,-27,-3,-54,6190,7,-1,139,24,35775,-104,33,127,0,0,2159,5,0,24433,11772,192,38232,-4,0,-7,0,508377,0
508410,267,-2007,334,-24,-2,-49,6189,7,2,121,24,35776,-112,33,127,0,0,2163,-10,0,24433,11772,192,38242,-4,0,-7,0,508408,0
508420,259,-2008,339,-28,-4,-38,6189,0,0,91,24,35778,-124,33,127,0,0,2156,-21,0,24433,11772,192,38252,-4,0,-7,0,508408,0
508430,279,-2007,329,-34,1,-50,6188,6,-1,106,24,35777,-121,33,127,0,0,2159,-32,0,24433,11772,192,38262,-4,0,-7,0,508408,0
508440,278,-1996,335,-34,-2,-47,6188,0,-4,116,24,35780,-123,33,127,0,0,2159,-32,0,24433,11772,192,38272,-4,0,-7,0,508424,0
508450,288,-2002,334,-38,-1,-51,6189,-4,-1,82,0,35786,-116,33,127,0,0,2164,38,0,24433,11772,192,38282,-4,0,-7,0,508502,0
508460,257,-2005,331,-38,-1,-48,6190,7,5,132,24,35793,-124,33,127,0,0,2159,-32,0,24433,11772,192,38292,-4,0,-7,0,508502,0
508470,281,-2023,330,-34,-7,-46,6189,10,7,128,0,35791,-123,33,127,0,0,2164,-5,0,24433,11772,192,38302,-4,0,-7,0,508502,0
508480,278,-2000,337,-33,-5,-49,6188,-3,0,147,24,35780,-128,33,127,0,0,2163,27,0,24433,11772,192,38312,-4,0,-7,0,508502,0
508490,306,-2008,334,-30,-8,-41,6188,-4,0,135,24,35778,-114,33,127,0,0,2159,-5,0,24433,11772,192,38322,-4,0,-7,0,508502,0
508500,286,-2006,329,-31,0,-48,6188,2,-3,96,24,35778,-113,33,127,0,0,2163,16,0,24433,11772,192,38332,-4,0,-7,0,508517,0
508510,311,-2010,335,-36,-5,-44,6188,-2,-3,94,8,35777,-114,33,127,0,0,2161,21,0,24433,11772,192,38342,-4,0,-7,0,508517,0
508520,296,-2018,332,-36,-5,-42,6189,19,4,125,40,35773,-116,33,127,0,0,2158,-10,0,24433,11772,192,38352,-4,0,-7,0,508517,0
508530,283,-2008,324,-41,-8,-48,6186,-10,-3,77,48,35774,-115,33,127,0,0,2158,21,0,24433,11772,192,38362,-4,0,-7,0,508517,0
508540,307,-2014,331,-41,-5,-39,6189,-9,-4,74,40,35780,-122,33,127,0,0,2155,-27,0,24433,11772,192,38372,-4,0,-7,0,508517,0
508550,287,-2002,331,-38,-1,-48,6189,7,4,106,24,35791,-127,33,127,0,0,2163,5,0,24433,11772,192,38382,-4,0,-7,0,508517,0
508560,264,-1993,333,-34,-12,-39,6188,-2,-1,124,24,35801,-131,33,127,0,0,2159,-10,0,24433,11772,192,38392,-4,0,-7,0,508549,0
508570,299,-2016,328,-36,-3,-43,6189,5,3,111,0,35798,-141,33,127,0,0,2161,-32,0,24433,11772,192,38402,-4,0,-7,0,508549,0
508580,266,-2002,333,-36,-5,-47,6189,13,4,109,0,35790,-121,33,127,0,0,2161,-5,0,24433,11772,192,38412,-4,0,-7,0,508564,0
508590,255,-2005,334,-41,-8,-43,6188,0,0,139,24,35778,-117,33,127,0,0,2159,-49,0,24433,11772,192,38422,-4,0,-7,0,508564,0
508600,296,-1999,334,-41,-9,-49,6187,-12,-1,111,48,35761,-110,33,127,0,0,2158,-21,0,24433,11772,192,38432,-4,0,-7,0,508596,0
508610,309,-2002,334,-42,-6,-51,6188,-10,0,84,48,35760,-109,33,127,0,0,2158,-5,0,24433,11772,192,38442,-4,0,-7,0,508596,0
508620,286,-2007,328,-39,-2,-40,6189,1,1,116,40,35763,-118,33,127,0,0,2162,21,0,24433,11772,192,38452,-4,0,-7,0,508596,0
508630,306,-2011,331,-41,-6,-42,6189,-2,1,109,40,35772,-126,33,127,0,0,2155,-16,0,24433,11772,192,38462,-4,0,-7,0,508611,0
508640,319,-2025,328,-39,-5,-44,6188,1,-8,98,48,35774,-94,33,127,0,0,2162,5,0,24433,11772,192,38472,-4,0,-7,0,508611,0
508650,291,-2006,335,-35,-11,-51,6188,-14,-2,95,8,35770,-97,33,127,0,0,2164,43,0,24433,11772,192,38482,-4,0,-7,0,508642,0
508660,269,-2023,333,-43,-10,-42,6189,6,-3,89,40,35781,-94,33,127,0,0,2162,49,0,24433,11772,192,38492,-4,0,-7,0,508642,0
508670,317,-2015,329,-41,-2,-43,6188,-7,2,109,48,35772,-109,33,127,0,0,2162,49,0,24433,11772,192,38502,-4,0,-7,0,508642,0
508680,301,-2019,331,-42,-10,-44,6191,15,3,152,40,35780,-109,33,127,0,0,2158,-32,0,24433,11772,192,38512,-4,0,-7,0,508658,0
508690,272,-2007,332,-39,-7,-42,6188,-4,0,100,24,35771,-100,33,127,0,0,2163,27,0,24433,11772,192,38522,-4,0,-7,0,508674,0
508700,280,-2004,332,-38,-5,-47,6189,-3,0,143,40,35766,-99,33,127,0,0,2158,-27,0,24433,11772,192,38532,-4,0,-7,0,508674,0
508710,287,-2014,334,-44,-4,-51,6190,6,5,123,40,35771,-120,33,127,0,0,2158,-38,0,24433,11772,192,38542,-4,0,-7,0,508705,0
508720,295,-2007,325,-36,-7,-47,6188,0,-3,124,48,35775,-130,33,127,0,0,2162,16,0,24433,11772,192,38552,-4,0,-7,0,508705,0
508730,285,-1996,338,-38,-8,-49,6188,-16,-6,145,24,35776,-126,33,127,0,0,2163,21,0,24433,11772,192,38562,-4,0,-7,0,508705,0
508740,270,-2007,344,-38,-6,-53,6189,-1,-7,119,24,35772,-132,33,127,0,0,2159,-16,0,24433,11772,192,38572,-4,0,-7,0,508736,0
508750,286,-2016,334,-45,-2,-49,6189,13,3,127,40,35780,-120,33,127,0,0,2158,-10,0,24433,11772,192,38582,-4,0,-7,0,508736,0
508760,291,-2002,341,-40,-8,-52,6188,-2,3,132,48,35785,-129,33,127,0,0,2158,-16,0,24433,11772,192,38592,-4,0,-7,0,508736,0
508770,260,-1999,331,-40,-10,-47,6187,-10,-1,117,48,35789,-122,33,127,0,0,2158,-27,0,24433,11772,192,38602,-4,0,-7,0,508845,0
508780,301,-2015,328,-45,-9,-54,6189,-11,0,130,40,35779,-103,33,127,0,0,2165,27,0,24433,11772,192,38612,-4,0,-7,0,508845,0
508790,322,-2018,330,-41,-7,-54,6189,-2,1,106,24,35776,-103,33,127,0,0,2159,21,0,24433,11772,192,38622,-4,0,-7,0,508861,0
508800,291,-2023,326,-45,-13,-60,6189,9,-1,134,40,35772,-104,33,127,0,0,2165,49,0,24433,11772,192,38632,-4,0,-7,0,508861,0
508810,296,-2012,325,-38,-12,-48,6189,-2,6,186,24,35768,-119,33,127,0,0,2163,5,0,24433,11772,192,38642,-4,0,-7,0,508861,0
508820,288,-2009,332,-35,-7,-55,6190,0,-10,134,24,35768,-130,33,127,0,0,2159,-43,0,24433,11772,192,38652,-4,0,-7,0,508861,0
508830,285,-2017,330,-37,-2,-48,6192,22,6,182,40,35769,-120,33,127,0,0,2158,-87,0,24433,11772,192,38662,-4,0,-7,0,508861,0
508840,296,-1986,339,-35,-2,-50,6189,-1,1,162,24,35773,-117,33,127,0,0,2163,-21,0,24433,11772,192,38672,-4,0,-7,0,508861,0
508850,282,-2004,340,-37,-5,-48,6188,-5,-5,130,24,35771,-114,33,127,0,0,2163,27,0,24433,11772,192,38682,-4,0,-7,0,508861,0
508860,278,-2009,336,-37,-6,-47,6189,-5,4,125,40,35773,-118,33,127,0,0,2165,65,0,24433,11772,192,38692,-4,0,-7,0,508861,0
508870,300,-2020,328,-42,0,-44,6192,0,6,222,56,35775,-120,33,127,0,0,2157,-65,0,24433,11772,192,38702,-4,0,-7,0,508861,0
508880,304,-2004,327,-38,-4,-56,6189,-2,-5,149,40,35780,-114,33,127,0,0,2162,-10,0,24433,11772,192,38712,-4,0,-7,0,508861,0
508890,306,-2003,335,-33,-9,-51,6190,-5,-7,130,40,35783,-112,33,127,0,0,2162,27,0,24433,11772,192,38722,-4,0,-7,0,508877,0
508900,299,-2008,341,-41,-14,-45,6189,-8,2,133,24,35781,-94,33,127,0,0,2163,21,0,24433,11772,192,38732,-4,0,-7,0,508877,0
508910,290,-2000,341,-42,-12,-44,6189,5,0,169,24,35795,-87,33,127,0,0,2166,32,0,24433,11772,192,38742,-4,0,-7,0,508908,0
508920,247,-1993,345,-44,-12,-46,6190,2,-2,205,24,35798,-86,33,127,0,0,2166,27,0,24433,11772,192,38752,-4,0,-7,0,508908,0
508930,274,-2019,333,-41,-10,-44,6192,15,-5,199,40,35797,-108,33,127,0,0,2162,-27,0,24433,11772,192,38762,-4,0,-7,0,508908,0
508940,284,-2007,327,-36,-9,-50,6192,8,8,208,16,35782,-121,33,127,0,0,2159,-87,0,24433,11772,192,38772,-4,0,-7,0,508908,0
508950,270,-2007,334,-42,-7,-46,6187,0,-5,103,24,35784,-126,33,127,0,0,2166,65,0,24433,11772,192,38782,-4,0,-7,0,508939,0
508960,293,-2001,345,-42,-4,-40,6191,-1,5,145,40,35793,-136,33,127,0,0,2158,-16,0,24433,11772,192,38792,-4,0,-7,0,508939,0
508970,287,-2014,333,-49,-6,-40,6191,9,0,122,40,35794,-135,33,127,0,0,2165,32,0,24433,11772,192,38802,-4,0,-7,0,508955,0
508980,300,-2000,331,-45,-7,-42,6189,-21,-4,172,40,35797,-133,33,127,0,0,2162,10,0,24433,11772,192,38812,-4,0,-7,0,508955,0
508990,301,-2017,334,-46,-10,-43,6189,-4,3,148,40,35789,-116,33,127,0,0,2162,10,0,24433,11772,192,38822,-4,0,-7,0,509017,0
509000,277,-2004,339,-49,-7,-43,6190,0,3,163,40,35793,-107,33,127,0,0,2158,-32,0,24433,11772,192,38832,-4,0,-7,0,509017,0
509010,286,-2005,336,-46,-9,-57,6189,-2,0,129,24,35785,-99,33,127,0,0,2166,38,0,24433,11772,192,38842,-4,0,-7,0,509033,0
509020,270,-1997,337,-46,-7,-46,6189,-8,2,136,40,35782,-94,33,127,0,0,2165,76,0,24433,11772,192,38852,-4,0,-7,0,509033,0
509030,318,-2015,336,-49,-6,-48,6192,0,2,165,40,35778,-88,33,127,0,0,2162,10,0,24433,11772,192,38862,-4,0,-7,0,509033,0
509040,289,-2010,330,-45,-7,-53,6191,10,4,157,40,35779,-98,33,127,0,0,2162,0,0,24433,11772,192,38872,-4,0,-7,0,509033,0
509050,286,-2008,341,-48,-8,-47,6191,-1,1,162,16,35776,-109,33,127,0,0,2163,-5,0,24433,11772,192,38882,-4,0,-7,0,509033,0
509060,278,-1997,340,-51,-16,-50,6189,-1,-1,128,64,35776,-125,33,127,0,0,2157,5,0,24433,11772,192,38892,-4,0,-7,0,509033,0
509070,304,-2003,334,-47,-9,-54,6188,-9,-2,95,64,35790,-131,33,127,0,0,2164,60,0,24433,11772,192,38902,-4,0,-7,0,509064,0
509080,287,-2010,328,-44,-12,-43,6193,5,0,187,32,35796,-118,33,127,0,0,2162,-5,0,24433,11772,192,38912,-4,0,-7,0,509064,0
509090,298,-2014,332,-47,-1,-48,6188,-3,-11,155,48,35804,-117,33,127,0,0,2162,10,0,24433,11772,192,38922,-4,0,-7,0,509064,0
509100,287,-2010,334,-40,-8,-46,6188,-17,-7,106,24,35788,-118,33,127,0,0,2163,43,0,24433,11772,192,38932,-4,0,-7,0,509095,0
509110,296,-2007,337,-42,-7,-48,6192,5,5,170,40,35782,-89,33,127,0,0,2162,-16,0,24433,11772,192,38942,-4,0,-7,0,509095,0
509120,268,-2012,343,-36,-10,-48,6190,5,2,172,40,35777,-83,33,127,0,0,2168,54,0,24433,11772,192,38952,-4,0,-7,0,509095,0
509130,316,-2027,327,-41,-11,-37,6193,9,-2,215,32,35779,-86,33,127,0,0,2162,-32,0,24433,11772,192,38962,-4,0,-7,0,509111,0
509140,293,-2016,336,-39,-8,-50,6189,-4,1,136,24,35781,-122,33,127,0,0,2159,-21,0,24433,11772,192,38972,-4,0,-7,0,509127,0
509150,260,-2008,340,-46,-9,-47,6190,7,1,157,40,35789,-132,33,127,0,0,2162,-27,0,24433,11772,192,38982,-4,0,-7,0,509127,0
509160,272,-2000,338,-43,-10,-46,6190,3,2,147,40,35788,-124,33,127,0,0,2158,-5,0,24433,11772,192,38992,-4,0,-7,0,509142,0
509170,261,-2003,344,-35,-5,-51,6191,-2,-3,174,64,35796,-117,33,127,0,0,2161,-27,0,24433,11772,192,39002,-4,0,-7,0,509236,0
509180,289,-2003,342,-43,-6,-50,6187,-18,-8,122,40,35800,-104,33,127,0,0,2162,21,0,24433,11772,192,39012,-4,0,-7,0,509252,0
509190,315,-2009,338,-44,-7,-48,6192,13,-6,143,56,35804,-106,33,127,0,0,2164,38,0,24433,11772,192,39022,-4,0,-7,0,509252,0
509200,287,-2012,338,-44,-9,-48,6188,-9,-2,133,40,35800,-104,33,127,0,0,2162,54,0,24433,11772,192,39032,-4,0,-7,0,509252,0
509210,291,-1998,347,-43,-8,-51,6190,1,-2,149,16,35794,-106,33,127,0,0,2163,-5,0,24433,11772,192,39042,-4,0,-7,0,509252,0
509220,258,-2008,332,-42,-10,-49,6190,2,-3,136,40,35788,-122,33,127,0,0,2158,-16,0,24433,11772,192,39052,-4,0,-7,0,509267,0
509230,288,-2001,333,-35,-2,-60,6190,7,-6,114,24,35786,-118,33,127,0,0,2163,10,0,24433,11772,192,39062,-4,0,-7,0,509267,0
509240,271,-1994,338,-41,-2,-58,6190,0,-1,133,40,35780,-115,33,127,0,0,2162,16,0,24433,11772,192,39072,-4,0,-7,0,509267,0
509250,309,-1997,338,-41,-5,-60,6189,-5,4,120,40,35779,-104,33,127,0,0,2162,32,0,24433,11772,192,39082,-4,0,-7,0,509267,0
509260,284,-2010,339,-46,-7,-52,6190,2,5,152,40,35781,-111,33,127,0,0,2158,-32,0,24433,11772,192,39092,-4,0,-7,0,509267,0
509270,271,-2001,332,-44,-3,-60,6190,5,-1,139,40,35782,-120,33,127,0,0,2158,-43,0,24433,11772,192,39102,-4,0,-7,0,509267,0
509280,296,-2001,339,-47,-1,-59,6190,5,-4,153,40,35782,-122,33,127,0,0,2158,-71,0,24433,11772,192,39112,-4,0,-7,0,509267,0
509290,280,-2010,342,-47,-13,-55,6189,4,0,115,24,35792,-124,33,127,0,0,2163,0,0,24433,11772,192,39122,-4,0,-7,0,509267,0
509300,288,-2010,340,-49,-8,-55,6190,-4,-2,111,24,35802,-121,33,127,0,0,2163,21,0,24433,11772,192,39132,-4,0,-7,0,509283,0
509310,310,-2022,326,-51,-6,-56,6190,11,0,132,24,35820,-117,33,127,0,0,2159,-5,0,24433,11772,192,39142,-4,0,-7,0,509298,0
509320,272,-2001,342,-45,-6,-60,6188,0,-3,103,24,35812,-96,33,127,0,0,2159,-5,0,24433,11772,192,39152,-4,0,-7,0,509298,0
509330,277,-1992,342,-49,-8,-55,6190,-1,1,131,24,35801,-97,33,127,0,0,2159,-49,0,24433,11772,192,39162,-4,0,-7,0,509314,0
509340,301,-2006,345,-45,-7,-53,6190,8,5,107,40,35785,-96,33,127,0,0,2158,-16,0,24433,11772,192,39172,-4,0,-7,0,509314,0
509350,273,-1997,343,-53,-10,-54,6188,-15,-1,71,24,35780,-112,33,127,0,0,2159,0,0,24433,11772,192,39182,-4,0,-7,0,509330,0
509360,283,-2014,343,-50,-8,-50,6188,-3,1,58,24,35789,-112,33,127,0,0,2159,16,0,24433,11772,192,39192,-4,0,-7,0,509330,0
509370,280,-2013,340,-54,-11,-49,6190,9,6,99,40,35788,-105,33,127,0,0,2158,-21,0,24433,11772,192,39202,-4,0,-7,0,509361,0
509380,289,-2005,328,-52,-13,-55,6189,0,-2,116,24,35784,-98,33,127,0,0,2163,0,0,24433,11772,192,39212,-4,0,-7,0,509361,0
509390,298,-2008,334,-55,-9,-53,6190,5,-5,125,24,35782,-94,33,127,0,0,2159,-5,0,24433,11772,192,39222,-4,0,-7,0,509377,0
509400,290,-1998,339,-51,-9,-53,6187,-6,-3,57,24,35784,-113,33,127,0,0,2156,-16,0,24433,11772,192,39232,-4,0,-7,0,509377,0
509410,291,-2001,341,-50,-8,-58,6189,3,-1,87,48,35784,-115,33,127,0,0,2158,-10,0,24433,11772,192,39242,-4,0,-7,0,509439,0
509420,314,-2007,340,-51,-11,-57,6188,-6,1,54,24,35787,-112,33,127,0,0,2159,5,0,24433,11772,192,39252,-4,0,-7,0,509439,0
509430,310,-2014,331,-54,-10,-46,6190,3,-1,76,24,35786,-109,33,127,0,0,2163,32,0,24433,11772,192,39262,-4,0,-7,0,509439,0
509440,285,-2014,335,-54,-15,-44,6189,3,-1,107,48,35784,-121,33,127,0,0,2155,5,0,24433,11772,192,39272,-4,0,-7,0,509439,0
509450,283,-1990,343,-51,-11,-51,6187,-8,-8,74,48,35775,-132,33,127,0,0,2158,5,0,24433,11772,192,39282,-4,0,-7,0,509439,0
509460,290,-2006,341,-57,-8,-43,6189,-12,-2,70,40,35774,-131,33,127,0,0,2158,5,0,24433,11772,192,39292,-4,0,-7,0,509439,0
509470,305,-2008,342,-53,-8,-42,6191,4,5,120,16,35774,-122,33,127,0,0,2163,10,0,24433,11772,192,39302,-4,0,-7,0,509455,0
509480,274,-1995,339,-54,-11,-44,6189,-5,-5,82,0,35780,-115,33,127,0,0,2157,-32,0,24433,11772,192,39312,-4,0,-7,0,509455,0
509490,304,-2013,338,-61,-7,-42,6188,6,-6,20,8,35788,-122,33,127,0,0,2161,21,0,24433,11772,192,39322,-4,0,-7,0,509470,0
509500,261,-2000,332,-45,-5,-36,6189,7,6,56,0,35795,-112,33,127,0,0,2161,27,0,24433,11772,192,39332,-4,0,-7,0,509502,0
509510,288,-2012,330,-48,-9,-36,6189,8,4,109,24,35796,-108,33,127,0,0,2163,16,0,24433,11772,192,39342,-4,0,-7,0,509502,0
509520,267,-2002,334,-43,-10,-36,6188,-6,1,98,48,35790,-107,33,127,0,0,2158,27,0,24433,11772,192,39352,-4,0,-7,0,509502,0
509530,295,-1995,342,-45,2,-43,6189,-4,4,116,24,35783,-110,33,127,0,0,2163,10,0,24433,11772,192,39362,-4,0,-7,0,509502,0
509540,264,-2009,345,-49,-5,-41,6188,-5,2,70,24,35784,-122,33,127,0,0,2163,65,0,24433,11772,192,39372,-4,0,-7,0,509595,0
509550,326,-2012,342,-52,-5,-41,6190,11,2,96,24,35788,-116,33,127,0,0,2159,10,0,24433,11772,192,39382,-4,0,-7,0,509595,0
509560,281,-2015,335,-52,-7,-44,6189,7,2,130,-120,35790,-128,33,127,0,0,2170,-27,0,24433,11772,192,39392,-4,0,-7,0,509595,0
509570,257,-2028,319,-42,-22,-31,6189,18,-1,178,24,35778,-129,33,127,0,0,2163,0,0,24433,11772,192,39402,-4,0,-7,0,509611,0
509580,276,-2007,339,-43,-18,-43,6191,2,6,165,16,35771,-128,33,127,0,0,2159,-38,0,24433,11772,192,39412,-4,0,-7,0,509611,0
509590,270,-2004,330,-53,-12,-44,6189,-1,3,110,40,35767,-130,33,127,0,0,2158,-21,0,24433,11772,192,39422,-4,0,-7,0,509611,0
509600,296,-2009,335,-50,-17,-44,6188,-3,1,55,48,35767,-137,33,127,0,0,2158,21,0,24433,11772,192,39432,-4,0,-7,0,509611,0
509610,279,-2012,338,-52,-15,-49,6190,-3,0,104,24,35768,-138,33,127,0,0,2159,-32,0,24433,11772,192,39442,-4,0,-7,0,509611,0
509620,287,-2004,322,-54,-8,-53,6189,11,-2,107,40,35769,-139,33,127,0,0,2162,21,0,24433,11772,192,39452,-4,0,-7,0,509611,0
509630,293,-2009,327,-50,-9,-47,6190,0,0,164,24,35766,-133,33,127,0,0,2159,-38,0,24433,11772,192,39462,-4,0,-7,0,509611,0
509640,292,-2003,336,-44,-5,-51,6190,5,-1,96,24,35770,-134,33,127,0,0,2163,5,0,24433,11772,192,39472,-4,0,-7,0,509627,0
509650,319,-2016,335,-46,-11,-49,6187,-14,-7,106,24,35787,-126,33,127,0,0,2166,98,0,24433,11772,192,39482,-4,0,-7,0,509627,0
509660,303,-2015,332,-42,-3,-46,6191,-1,3,160,0,35796,-133,33,127,0,0,2157,-38,0,24433,11772,192,39492,-4,0,-7,0,509658,0
509670,249,-2001,342,-39,-6,-40,6188,1,-6,68,24,35793,-115,33,127,0,0,2163,27,0,24433,11772,192,39502,-4,0,-7,0,509658,0
509680,276,-2002,340,-35,-11,-38,6190,-5,4,159,24,35789,-120,33,127,0,0,2163,16,0,24433,11772,192,39512,-4,0,-7,0,509658,0
509690,264,-2009,343,-43,-7,-38,6191,7,6,161,16,35777,-109,33,127,0,0,2163,-5,0,24433,11772,192,39522,-4,0,-7,0,509673,0
509700,264,-2005,343,-40,-10,-41,6189,0,0,132,0,35780,-103,33,127,0,0,2161,-32,0,24433,11772,192,39532,-4,0,-7,0,509673,0
509710,284,-2030,337,-42,-3,-37,6190,16,6,129,24,35786,-108,33,127,0,0,2163,0,0,24433,11772,192,39542,-4,0,-7,0,509689,0
509720,289,-2008,345,-37,0,-43,6188,-2,3,75,8,35788,-101,33,127,0,0,2157,-5,0,24433,11772,192,39552,-4,0,-7,0,509720,0
509730,282,-2006,339,-40,-4,-40,6188,11,-1,44,8,35790,-93,33,127,0,0,2161,0,0,24433,11772,192,39562,-4,0,-7,0,509720,0
509740,289,-1997,345,-47,-5,-36,6188,1,6,58,8,35779,-110,33,127,0,0,2157,-5,0,24433,11772,192,39572,-4,0,-7,0,509720,0
509750,288,-1998,338,-43,-9,-34,6190,16,1,106,24,35775,-109,33,127,0,0,2159,-32,0,24433,11772,192,39582,-4,0,-7,0,509720,0
509760,293,-1985,344,-47,-6,-29,6187,-9,3,100,8,35771,-104,33,127,0,0,2161,-21,0,24433,11772,192,39592,-4,0,-7,0,509736,0
509770,290,-2011,333,-44,-3,-18,6188,1,-2,87,48,35773,-107,33,127,0,0,2162,49,0,24433,11772,192,39602,-4,0,-7,0,509751,0
509780,304,-2013,338,-46,1,-24,6191,6,7,137,16,35780,-111,33,127,0,0,2163,0,0,24433,11772,192,39612,-4,0,-7,0,509767,0
509790,284,-2020,328,-45,-5,-17,6191,14,-2,155,40,35782,-114,33,127,0,0,2162,0,0,24433,11772,192,39622,-4,0,-7,0,509767,0
509800,285,-2015,329,-43,-3,-6,6188,-13,-7,135,48,35776,-115,33,127,0,0,2162,16,0,24433,11772,192,39632,-4,0,-7,0,509798,0
509810,312,-2002,336,-46,-16,2,6191,4,7,164,56,35779,-106,33,127,0,0,2164,32,0,24433,11772,192,39642,-4,0,-7,0,509798,0
509820,290,-2013,338,-40,-11,-1,6191,0,0,202,56,35782,-106,33,127,0,0,2170,93,0,24433,11772,192,39652,-4,0,-7,0,509798,0
509830,302,-2019,329,-41,-7,3,6192,-5,3,249,96,35779,-98,33,127,0,0,2168,98,0,24433,11772,192,39662,-4,0,-7,0,509798,0
509840,274,-2004,335,-40,-7,-3,6195,4,1,306,96,35777,-97,33,127,0,0,2168,27,0,24433,11772,192,39672,-4,0,-7,0,509830,0
509850,285,-2011,332,-36,-9,-3,6194,-2,-6,335,96,35779,-106,33,127,0,0,2168,-5,0,24433,11772,192,39682,-4,0,-7,0,509830,0
509860,286,-2012,328,-38,-5,-4,6195,-1,1,351,112,35784,-112,33,127,0,0,2177,82,0,24433,11772,192,39692,-4,0,-7,0,509830,0
509870,281,-2011,339,-36,-11,-11,6201,15,6,438,104,35785,-112,33,127,0,0,2170,-27,0,24433,11772,192,39702,-4,0,-7,0,509861,0
509880,289,-1999,349,-37,2,-23,6201,2,-6,431,120,35776,-106,33,127,0,0,2173,-38,0,24433,11772,192,39712,-4,0,-7,0,509861,0
509890,263,-2005,350,-39,3,-21,6204,13,-5,460,112,35774,-120,33,127,0,0,2173,-32,0,24433,11772,192,39722,-4,0,-7,0,509892,0
509900,285,-2001,344,-42,-4,-23,6203,6,3,474,120,35785,-120,33,127,0,0,2176,-16,0,24433,11772,192,39732,-4,0,-7,0,509908,0
509910,274,-1999,337,-41,-7,-19,6204,-4,0,467,152,35783,-118,33,127,0,0,2177,38,0,24433,11772,192,39742,-4,0,-7,0,509908,0
509920,273,-2019,339,-45,-3,-18,6205,-9,7,458,176,35790,-112,33,127,0,0,2173,38,0,24433,11772,192,39752,-4,0,-7,0,509923,0
509930,288,-2007,328,-43,-8,-19,6207,-2,-2,472,112,35782,-109,33,127,0,0,2179,-5,0,24433,11772,192,39762,-4,0,-7,0,509923,0
509940,268,-2003,327,-43,-3,-25,6208,5,3,528,128,35780,-115,33,127,0,0,2178,-5,0,24433,11772,192,39772,-4,0,-7,0,509939,0
509950,281,-2003,341,-36,-7,-23,6209,-11,-2,520,144,35785,-114,33,127,0,0,2180,32,0,24433,11772,192,39782,-4,0,-7,0,509955,0
509960,279,-2010,347,-31,-2,-27,6214,14,2,493,152,35786,-110,33,127,0,0,2176,-21,0,24433,11772,192,39792,-4,0,-7,0,509955,0
509970,289,-2015,339,-37,-4,-20,6213,1,-1,502,176,35782,-102,33,127,0,0,2181,32,0,24433,11772,192,39802,-4,0,-7,0,509955,0
509980,281,-2012,340,-34,-8,-17,6220,22,6,519,160,35779,-99,33,127,0,0,2181,32,0,24433,11772,192,39812,-4,0,-7,0,509970,0
509990,281,-2007,346,-39,-4,-15,6230,30,15,467,144,35780,-107,33,127,0,0,2181,0,0,24433,11772,192,39822,-4,0,-7,0,509970,0
510000,291,-2011,341,-40,-3,-14,6256,69,34,374,88,35786,-98,33,127,0,0,2181,-54,0,24433,11772,192,39832,-4,0,-7,0,510006,0
510010,297,-1993,344,-35,-9,-6,6267,-8,7,278,88,35787,-75,33,127,0,0,2187,54,0,24433,11772,192,39842,-4,0,-7,0,510006,0
510020,245,-2024,331,-37,-7,-11,6265,0,-62,359,112,35791,-54,33,127,0,0,2186,49,0,24433,11772,192,39852,-4,0,-7,0,510006,0
510030,266,-2014,338,-34,-5,-23,6268,-1,-21,394,88,35790,-48,33,127,0,0,2187,10,0,24433,11772,192,39862,-4,0,-7,0,510006,0
510040,260,-2012,342,-35,2,-25,6267,0,3,420,128,35787,-71,33,127,0,0,2188,32,0,24433,11772,192,39872,-4,0,-7,0,510068,0
510050,286,-2006,335,-31,-4,-29,6271,-1,7,406,120,35791,-61,33,127,0,0,2185,10,0,24433,11772,192,39882,-4,0,-7,0,510068,0
510060,279,-2023,336,-37,-5,-27,6271,1,-3,391,120,35783,-60,33,127,0,0,2188,32,0,24433,11772,192,39892,-4,0,-7,0,510068,0
510070,265,-2011,346,-33,-1,-35,6273,9,-1,409,120,35785,-70,33,127,0,0,2188,0,0,24433,11772,192,39902,-4,0,-7,0,510068,0
510080,269,-2007,344,-33,-2,-35,6272,-2,-1,418,120,35780,-79,33,127,0,0,2188,0,0,24433,11772,192,39912,-4,0,-7,0,510068,0
510090,274,-2012,341,-39,-10,-40,6273,4,-2,409,120,35783,-79,33,127,0,0,2188,0,0,24433,11772,192,39922,-4,0,-7,0,510084,0
510100,272,-2006,342,-42,-5,-44,6273,0,-1,447,136,35779,-77,33,127,0,0,2187,-16,0,24433,11772,192,39932,-4,0,-7,0,510084,0
510110,275,-2010,343,-39,-3,-52,6276,-3,10,446,112,35787,-81,33,127,0,0,2188,-27,0,24433,11772,192,39942,-4,0,-7,0,510084,0
510120,277,-2011,346,-44,-8,-56,6281,4,-1,436,104,35799,-77,33,127,0,0,2188,-49,0,24433,11772,192,39952,-4,0,-7,0,510099,0
510130,267,-2007,347,-45,-7,-53,6283,1,-7,351,120,35815,-70,33,127,0,0,2190,38,0,24433,11772,192,39962,-4,0,-7,0,510146,0
510140,268,-2010,344,-43,-11,-51,6287,8,-7,379,88,35814,-64,33,127,0,0,2188,-21,0,24433,11772,192,39972,-4,0,-7,0,510146,0
510150,246,-2009,339,-48,-9,-56,6287,-1,0,337,88,35804,-65,33,127,0,0,2188,-10,0,24433,11772,192,39982,-4,0,-7,0,510146,0
510160,277,-2017,340,-43,-13,-62,6288,3,-11,347,88,35798,-68,33,127,0,0,2188,0,0,24433,11772,192,39992,-4,0,-7,0,510146,0
510170,268,-2005,345,-44,-15,-62,6290,11,1,354,88,35802,-50,33,127,0,0,2188,-16,0,24433,11772,192,40002,-4,0,-7,0,510162,0
510180,264,-2011,346,-47,-14,-59,6291,-9,3,267,80,35809,-49,33,127,0,0,2188,54,0,24433,11772,192,40012,-4,0,-7,0,510162,0
510190,260,-2008,350,-46,-12,-62,6295,7,-5,312,80,35805,-43,33,127,0,0,2188,-32,0,24433,11772,192,40022,-4,0,-7,0,510193,0
510200,277,-2008,339,-51,-8,-63,6299,10,5,244,64,35808,-45,33,127,0,0,2188,0,0,24433,11772,192,40032,-4,0,-7,0,510193,0
510210,287,-2001,342,-53,-11,-57,6302,5,-5,230,40,35798,-51,33,127,0,0,2189,-5,0,24433,11772,192,40042,-4,0,-7,0,510193,0
510220,273,-2000,344,-51,-10,-57,6303,8,-6,223,56,35792,-61,33,127,0,0,2188,5,0,24433,11772,192,40052,-4,0,-7,0,510193,0
510230,290,-2012,336,-57,-8,-58,6304,11,11,255,56,35794,-56,33,127,0,0,2188,-21,0,24433,11772,192,40062,-4,0,-7,0,510224,0
510240,278,-2006,347,-49,-7,-55,6309,10,8,193,48,35802,-52,33,127,0,0,2185,-32,0,24433,11772,192,40072,-4,0,-7,0,510224,0
510250,259,-2009,349,-49,-8,-51,6308,2,-7,156,48,35802,-48,33,127,0,0,2188,-10,0,24433,11772,192,40082,-4,0,-7,0,510240,0
510260,287,-2007,351,-45,-10,-53,6308,0,-4,180,64,35796,-51,33,127,0,0,2187,5,0,24433,11772,192,40092,-4,0,-7,0,510240,0
510270,277,-2011,343,-53,-5,-52,6308,-5,0,164,48,35785,-43,33,127,0,0,2188,0,0,24433,11772,192,40102,-4,0,-7,0,510318,0
510280,275,-2013,345,-58,-5,-54,6309,0,-6,170,48,35789,-41,33,127,0,0,2188,0,0,24433,11772,192,40112,-4,0,-7,0,510334,0
510290,274,-2007,340,-53,-9,-51,6308,-3,-3,173,48,35791,-44,33,127,0,0,2188,0,0,24433,11772,192,40122,-4,0,-7,0,510334,0
510300,276,-2000,340,-55,-4,-56,6308,4,1,171,48,35794,-51,33,127,0,0,2188,0,0,24433,11772,192,40132,-4,0,-7,0,510334,0
510310,282,-2006,335,-52,-9,-56,6308,0,0,173,48,35785,-49,33,127,0,0,2188,0,0,24433,11772,192,40142,-4,0,-7,0,510349,0
510320,278,-2007,339,-47,-6,-53,6309,-3,-2,171,48,35782,-49,33,127,0,0,2188,0,0,24433,11772,192,40152,-4,0,-7,0,510349,0
510330,269,-2011,349,-56,-19,-60,6308,2,-2,170,48,35786,-61,33,127,0,0,2188,0,0,24433,11772,192,40162,-4,0,-7,0,510349,0
510340,266,-2008,338,-55,-14,-66,6309,-3,0,171,48,35785,-68,33,127,0,0,2188,0,0,24433,11772,192,40172,-4,0,-7,0,510349,0
510350,271,-2010,340,-54,-9,-71,6309,3,4,172,48,35781,-69,33,127,0,0,2188,0,0,24433,11772,192,40182,-4,0,-7,0,510349,0
510360,278,-2006,341,-47,-6,-67,6308,-3,2,172,48,35784,-62,33,127,0,0,2188,0,0,24433,11772,192,40192,-4,0,-7,0,510349,0
510370,268,-2007,342,-47,-10,-75,6308,2,1,175,48,35793,-61,33,127,0,0,2188,0,0,24433,11772,192,40202,-4,0,-7,0,510349,0
510380,276,-2003,345,-52,-12,-74,6308,2,1,168,48,35796,-67,33,127,0,0,2188,0,0,24433,11772,192,40212,-4,0,-7,0,510349,0
510390,275,-2005,344,-43,-21,-82,6309,3,0,168,48,35811,-51,33,127,0,0,2188,0,0,24433,11772,192,40222,-4,0,-7,0,510365,0
510400,270,-2006,341,-53,-17,-86,6308,-8,0,180,8,35809,-36,33,127,0,0,2190,-10,0,24433,11772,192,40232,-4,0,-7,0,510381,0
510410,257,-1992,331,-48,-12,-102,6308,4,1,157,48,35818,-38,33,127,0,0,2181,-54,0,24433,11772,192,40242,-4,0,-7,0,510396,0
510420,271,-1995,336,-40,-11,-109,6303,-17,-11,48,-8,35802,-51,33,127,0,0,2185,-10,0,24433,11772,192,40252,-4,0,-7,0,510396,0
510430,259,-2007,340,-44,3,-126,6305,1,4,39,-8,35800,-43,33,127,0,0,2181,-49,0,24433,11772,192,40262,-4,0,-7,0,510427,0
510440,276,-2000,344,-42,-1,-132,6302,0,-2,-8,0,35799,-47,33,127,0,0,2178,-32,0,24433,11772,192,40272,-4,0,-7,0,510427,0
510450,295,-2006,351,-45,3,-124,6297,-20,-10,-145,-56,35793,-46,33,127,0,0,2175,0,0,24433,11772,192,40282,-4,0,-7,0,510427,0
510460,279,-2010,350,-48,0,-137,6285,-29,-19,-122,-24,35791,-58,33,127,0,0,2171,-32,0,24433,11772,192,40292,-4,0,-7,0,510443,0
510470,290,-2008,353,-48,-10,-137,6274,-32,-13,-132,-48,35788,-68,33,127,0,0,2170,-32,0,24433,11772,192,40302,-4,0,-7,0,510474,0
510480,283,-2002,348,-52,-5,-141,6262,-4,3,-62,-40,35778,-60,33,127,0,0,2168,-65,0,24433,11772,192,40312,-4,0,-7,0,510474,0
510490,304,-2002,339,-53,-11,-126,6260,-1,31,-169,-80,35775,-70,33,127,0,0,2164,-71,0,24433,11772,192,40322,-4,0,-7,0,510474,0
510500,311,-2010,345,-54,-8,-126,6248,-32,-5,-278,-72,35777,-80,33,127,0,0,2162,5,0,24433,11772,192,40332,-4,0,-7,0,510474,0
510510,296,-2024,334,-53,-3,-116,6244,0,-1,-274,-88,35773,-86,33,127,0,0,2163,-5,0,24433,11772,192,40342,-4,0,-7,0,510490,0
510520,325,-2005,343,-48,-3,-108,6244,-2,24,-297,-128,35788,-106,33,127,0,0,2158,-71,0,24433,11772,192,40352,-4,0,-7,0,510506,0
510530,330,-1999,341,-50,-7,-87,6236,-15,-19,-301,-88,35787,-112,33,127,0,0,2154,-65,0,24433,11772,192,40362,-4,0,-7,0,510506,0
510540,327,-2018,342,-47,-2,-66,6227,-29,-16,-348,-72,35789,-112,33,127,0,0,2157,32,0,24433,11772,192,40372,-4,0,-7,0,510521,0
510550,321,-2009,334,-41,-8,-50,6206,-54,-23,-160,-32,35790,-114,33,127,0,0,2154,-16,0,24433,11772,192,40382,-4,0,-7,0,510537,0
510560,321,-2009,332,-42,-5,-40,6195,6,-2,-100,-8,35788,-128,33,127,0,0,2154,-21,0,24433,11772,192,40392,-4,0,-7,0,510537,0
510570,331,-2006,338,-40,-2,-28,6193,-15,46,-154,-8,35784,-128,33,127,0,0,2154,5,0,24433,11772,192,40402,-4,0,-7,0,510552,0
510580,312,-2017,336,-40,-8,-25,6195,3,11,-137,-32,35782,-133,33,127,0,0,2158,32,0,24433,11772,192,40412,-4,0,-7,0,510552,0
510590,299,-2010,329,-38,3,-21,6197,10,4,-73,-16,35785,-125,33,127,0,0,2161,60,0,24433,11772,192,40422,-4,0,-7,0,510584,0
510600,290,-2002,336,-36,1,-20,6195,-9,-2,-52,-32,35787,-134,33,127,0,0,2155,0,0,24433,11772,192,40432,-4,0,-7,0,510584,0
510610,284,-1996,346,-29,-1,-22,6194,0,-4,-103,-24,35783,-123,33,127,0,0,2155,-21,0,24433,11772,192,40442,-4,0,-7,0,510584,0
510620,295,-1987,341,-33,1,-15,6197,1,7,-71,-16,35775,-117,33,127,0,0,2154,-43,0,24433,11772,192,40452,-4,0,-7,0,510615,0
510630,298,-1989,339,-30,1,-17,6196,0,-1,-102,-8,35781,-120,33,127,0,0,2157,16,0,24433,11772,192,40462,-4,0,-7,0,510631,0
510640,293,-1996,345,-26,1,-14,6197,-5,2,-50,-16,35780,-113,33,127,0,0,2157,0,0,24433,11772,192,40472,-4,0,-7,0,510631,0
510650,293,-2000,340,-27,6,-9,6197,3,2,-48,-32,35785,-110,33,127,0,0,2158,-5,0,24433,11772,192,40482,-4,0,-7,0,510631,0
510660,281,-2001,339,-24,7,-10,6197,7,-3,-32,-16,35773,-120,33,127,0,0,2157,-5,0,24433,11772,192,40492,-4,0,-7,0,510646,0
510670,281,-1993,338,-21,6,3,6196,-8,1,-17,-8,35775,-123,33,127,0,0,2157,-43,0,24433,11772,192,40502,-4,0,-7,0,510646,0
510680,293,-2010,343,-21,1,8,6196,2,-3,-9,-8,35770,-128,33,127,0,0,2161,-16,0,24433,11772,192,40512,-4,0,-7,0,510663,0
510690,296,-1986,346,-21,-5,22,6199,15,7,40,24,35778,-121,33,127,0,0,2158,-10,0,24433,11772,192,40522,-4,0,-7,0,510691,0
510700,303,-2005,348,-21,-4,33,6198,-3,-1,73,24,35770,-111,33,127,0,0,2162,0,0,24433,11772,192,40532,-4,0,-7,0,510722,0
510710,289,-2002,346,-17,-12,35,6199,-2,5,118,40,35773,-120,33,127,0,0,2167,49,0,24433,11772,192,40542,-4,0,-7,0,510722,0
510720,286,-2015,345,-25,-2,38,6207,20,12,236,72,35771,-120,33,127,0,0,2168,-10,0,24433,11772,192,40552,-4,0,-7,0,510722,0
510730,284,-2010,355,-25,-13,32,6206,-11,-3,296,72,35766,-113,33,127,0,0,2175,38,0,24433,11772,192,40562,-4,0,-7,0,510722,0
510740,275,-2026,356,-31,-2,35,6214,24,1,348,96,35766,-119,33,127,0,0,2173,5,0,24433,11772,192,40572,-4,0,-7,0,510722,0
510750,271,-2009,359,-32,-1,38,6221,23,17,357,120,35767,-120,33,127,0,0,2174,-5,0,24433,11772,192,40582,-4,0,-7,0,510722,0
510760,282,-2014,360,-40,-8,32,6240,58,25,274,80,35777,-115,33,127,0,0,2180,38,0,24433,11772,192,40592,-4,0,-7,0,510784,0
510770,302,-2022,361,-42,-21,46,6265,36,33,190,56,35791,-94,33,127,0,0,2182,54,0,24433,11772,192,40602,-4,0,-7,0,510784,0
510780,279,-2007,357,-49,-22,36,6265,9,-35,341,96,35789,-78,33,127,0,0,2184,0,0,24433,11772,192,40612,-4,0,-7,0,510784,0
510790,264,-2006,357,-49,-8,35,6266,5,-44,342,128,35785,-77,33,127,0,0,2181,10,0,24433,11772,192,40622,-4,0,-7,0,510784,0
510800,282,-2017,344,-56,-18,31,6272,13,8,386,120,35776,-76,33,127,0,0,2188,5,0,24433,11772,192,40632,-4,0,-7,0,510784,0
510810,276,-2001,347,-54,-11,31,6277,4,13,396,128,35770,-86,33,127,0,0,2193,43,0,24433,11772,192,40642,-4,0,-7,0,510800,0
510820,258,-1999,333,-50,-12,32,6291,47,10,437,144,35769,-75,33,127,0,0,2198,98,0,24433,11772,192,40652,-4,0,-7,0,510800,0
510830,279,-2011,329,-50,-19,31,6319,66,43,280,88,35778,-65,33,127,0,0,2198,87,0,24433,11772,192,40662,-4,0,-7,0,510816,0
510840,287,-1992,341,-47,-14,41,6331,7,4,297,104,35792,-59,33,127,0,0,2202,54,0,24433,11772,192,40672,-4,0,-7,0,510816,0
510850,255,-2007,335,-47,-14,36,6331,3,-55,401,120,35789,-63,33,127,0,0,2204,32,0,24433,11772,192,40682,-4,0,-7,0,510831,0
510860,265,-1987,342,-41,-8,31,6339,29,-10,497,120,35785,-67,33,127,0,0,2207,-32,0,24433,11772,192,40692,-4,0,-7,0,510847,0
510870,268,-1994,345,-43,-14,32,6351,25,25,415,136,35781,-53,33,127,0,0,2211,21,0,24433,11772,192,40702,-4,0,-7,0,510863,0
510880,255,-1996,347,-46,-10,24,6377,75,31,348,88,35782,-54,33,127,0,0,2211,0,0,24433,11772,192,40712,-4,0,-7,0,510863,0
510890,274,-1997,352,-41,-15,33,6391,-2,15,253,80,35778,-54,33,127,0,0,2210,0,0,24433,11772,192,40722,-4,0,-7,0,510894,0
510900,235,-2008,340,-41,-16,12,6389,17,-62,360,120,35778,-48,33,127,0,0,2211,-27,0,24433,11772,192,40732,-4,0,-7,0,510894,0
510910,258,-1999,358,-43,-10,10,6391,-4,-20,356,96,35780,-48,33,127,0,0,2212,-49,0,24433,11772,192,40742,-4,0,-7,0,510894,0
510920,261,-2023,349,-49,-8,3,6391,0,-3,364,136,35782,-59,33,127,0,0,2213,0,0,24433,11772,192,40752,-4,0,-7,0,510894,0
510930,263,-2008,348,-47,-4,10,6393,0,6,409,112,35780,-65,33,127,0,0,2224,60,0,24433,11772,192,40762,-4,0,-7,0,510925,0
510940,255,-2014,337,-45,-3,1,6399,13,7,472,160,35787,-63,33,127,0,0,2218,21,0,24433,11772,192,40772,-4,0,-7,0,510925,0
510950,254,-2015,341,-47,-11,-2,6402,4,6,497,152,35787,-53,33,127,0,0,2221,0,0,24433,11772,192,40782,-4,0,-7,0,510941,0
510960,266,-2025,350,-46,-8,-4,6406,1,3,479,144,35794,-42,33,127,0,0,2221,0,0,24433,11772,192,40792,-4,0,-7,0,510941,0
510970,262,-2015,354,-43,-3,-3,6409,5,-3,488,136,35794,-50,33,127,0,0,2221,-43,0,24433,11772,192,40802,-4,0,-7,0,510956,0
510980,283,-2008,351,-47,-2,-4,6413,11,2,471,152,35800,-43,33,127,0,0,2223,-10,0,24433,11772,192,40812,-4,0,-7,0,510956,0
510990,266,-2009,361,-52,-1,7,6423,33,13,447,128,35796,-46,33,127,0,0,2230,49,0,24433,11772,192,40822,-4,0,-7,0,510988,0
511000,262,-2013,363,-55,-12,16,6441,46,26,419,152,35789,-26,33,127,0,0,2230,71,0,24433,11772,192,40832,-4,0,-7,0,510988,0
511010,282,-2013,357,-55,-12,36,6459,21,16,386,136,35783,-33,33,127,0,0,2232,38,0,24433,11772,192,40842,-4,0,-7,0,510988,0
511020,251,-2007,343,-61,-16,30,6459,3,-41,473,160,35785,-44,33,127,0,0,2231,10,0,24433,11772,192,40852,-4,0,-7,0,511066,0
511030,239,-2015,347,-60,-9,28,6464,14,-27,521,168,35788,-49,33,127,0,0,2240,27,0,24433,11772,192,40862,-4,0,-7,0,511066,0
511040,252,-2019,341,-60,-11,22,6475,23,16,486,168,35788,-44,33,127,0,0,2239,32,0,24433,11772,192,40872,-4,0,-7,0,511066,0
511050,244,-2012,344,-52,-10,15,6493,52,23,453,128,35789,-44,33,127,0,0,2245,10,0,24433,11772,192,40882,-4,0,-7,0,511081,0
511060,257,-2024,344,-61,-9,17,6527,62,48,316,96,35782,-45,33,127,0,0,2243,0,0,24433,11772,192,40892,-4,0,-7,0,511081,0
511070,245,-1996,340,-56,-13,16,6536,5,-23,351,104,35784,-36,33,127,0,0,2245,5,0,24433,11772,192,40902,-4,0,-7,0,511081,0
511080,221,-2025,352,-61,-6,6,6537,1,-60,418,96,35785,-36,33,127,0,0,2252,38,0,24433,11772,192,40912,-4,0,-7,0,511081,0
511090,226,-2003,353,-58,-2,-8,6551,34,8,391,112,35792,-26,33,127,0,0,2253,49,0,24433,11772,192,40922,-4,0,-7,0,511081,0
511100,226,-2002,349,-63,-10,-13,6578,71,57,294,56,35794,-23,33,127,0,0,2256,27,0,24433,11772,192,40932,-4,0,-7,0,511081,0
511110,252,-1990,337,-58,-20,-23,6578,-22,-17,282,96,35788,-20,33,127,0,0,2247,10,0,24433,11772,192,40942,-4,0,-7,0,511097,0
511120,242,-2015,334,-68,-10,-29,6580,-7,-52,262,72,35794,-12,33,127,0,0,2255,32,0,24433,11772,192,40952,-4,0,-7,0,511097,0
511130,241,-2014,347,-62,-4,-44,6581,3,2,302,88,35809,15,33,127,0,0,2251,5,0,24433,11772,192,40962,-4,0,-7,0,511128,0
511140,240,-2013,346,-57,0,-46,6581,3,-5,302,72,35821,19,33,127,0,0,2255,16,0,24433,11772,192,40972,-4,0,-7,0,511128,0
511150,247,-2017,338,-66,-13,-52,6580,-1,3,312,88,35813,27,33,127,0,0,2257,54,0,24433,11772,192,40982,-4,0,-7,0,511128,0
511160,233,-2023,346,-63,-14,-56,6581,-6,1,326,72,35795,9,33,127,0,0,2252,10,0,24433,11772,192,40992,-4,0,-7,0,511159,0
511170,232,-2010,348,-63,-9,-65,6581,0,-1,286,88,35786,15,33,127,0,0,2251,-21,0,24433,11772,192,41002,-4,0,-7,0,511159,0
511180,248,-2014,353,-61,-18,-61,6580,-3,3,289,88,35786,6,33,127,0,0,2251,-21,0,24433,11772,192,41012,-4,0,-7,0,511159,0
511190,275,-2019,337,-70,-10,-65,6581,-4,2,279,72,35787,-8,33,127,0,0,2255,32,0,24433,11772,192,41022,-4,0,-7,0,511191,0
511200,256,-2017,323,-69,-13,-60,6582,0,3,302,72,35793,9,33,127,0,0,2255,16,0,24433,11772,192,41032,-4,0,-7,0,511191,0
511210,279,-2022,328,-59,-7,-57,6582,5,3,306,88,35789,13,33,127,0,0,2251,10,0,24433,11772,192,41042,-4,0,-7,0,511191,0
511220,278,-2017,333,-51,-9,-58,6581,2,1,309,72,35791,9,33,127,0,0,2252,-21,0,24433,11772,192,41052,-4,0,-7,0,511191,0
511230,245,-2004,338,-58,-11,-60,6581,-6,-5,284,72,35788,5,33,127,0,0,2252,-5,0,24433,11772,192,41062,-4,0,-7,0,511222,0
511240,266,-2008,330,-49,-4,-63,6580,-6,-5,283,72,35800,17,33,127,0,0,2252,-16,0,24433,11772,192,41072,-4,0,-7,0,511238,0
511250,240,-2014,338,-47,-1,-60,6580,-3,-2,295,64,35796,26,33,127,0,0,2255,5,0,24433,11772,192,41082,-4,0,-7,0,511238,0
511260,239,-2015,343,-48,-2,-67,6580,1,-2,294,72,35795,18,33,127,0,0,2252,10,0,24433,11772,192,41092,-4,0,-7,0,511238,0
511270,251,-2017,348,-41,1,-64,6581,4,8,299,48,35793,3,33,127,0,0,2253,-43,0,24433,11772,192,41102,-4,0,-7,0,511269,0
511280,250,-2003,350,-41,4,-62,6580,1,0,252,72,35800,9,33,127,0,0,2248,-10,0,24433,11772,192,41112,-4,0,-7,0,511269,0
511290,270,-2000,343,-45,-2,-61,6580,-1,-1,265,72,35800,17,33,127,0,0,2248,-43,0,24433,11772,192,41122,-4,0,-7,0,511269,0
511300,259,-2009,350,-49,-14,-62,6580,6,-5,227,32,35793,10,33,127,0,0,2251,-5,0,24433,11772,192,41132,-4,0,-7,0,511269,0
511310,225,-2010,347,-57,1,-80,6579,1,-7,170,40,35795,6,33,127,0,0,2247,10,0,24433,11772,192,41142,-4,0,-7,0,511331,0
511320,210,-2008,344,-61,2,-105,6579,3,5,132,0,35801,5,33,127,0,0,2246,-38,0,24433,11772,192,41152,-4,0,-7,0,511331,0
511330,222,-1999,338,-55,8,-129,6574,-3,-7,53,-16,35799,7,33,127,0,0,2241,-43,0,24433,11772,192,41162,-4,0,-7,0,511331,0
511340,231,-2006,356,-58,2,-122,6568,-18,-4,-92,-40,35789,7,33,127,0,0,2240,5,0,24433,11772,192,41172,-4,0,-7,0,511331,0
511350,269,-2019,371,-63,5,-104,6568,7,-1,-138,-40,35778,-2,33,127,0,0,2236,-16,0,24433,11772,192,41182,-4,0,-7,0,511331,0
511360,324,-2007,378,-68,3,-77,6562,-28,3,-250,-72,35778,-10,33,127,0,0,2232,16,0,24433,11772,192,41192,-4,0,-7,0,511331,0
511370,346,-2004,355,-76,-12,-39,6556,4,-13,-198,-56,35788,-16,33,127,0,0,2239,49,0,24433,11772,192,41202,-4,0,-7,0,511347,0
511380,302,-2004,321,-65,-14,-4,6558,-7,24,-137,-40,35790,20,33,127,0,0,2231,-38,0,24433,11772,192,41212,-4,0,-7,0,511441,0
511390,260,-2017,305,-58,-5,1,6559,16,8,-136,-56,35800,20,33,127,0,0,2235,-38,0,24433,11772,192,41222,-4,0,-7,0,511456,0
511400,267,-2011,323,-54,5,5,6558,-2,-10,-164,-56,35795,16,33,127,0,0,2235,-5,0,24433,11772,192,41232,-4,0,-7,0,511456,0
511410,246,-2017,353,-48,9,9,6557,3,0,-180,-40,35785,-7,33,127,0,0,2231,-16,0,24433,11772,192,41242,-4,0,-7,0,511456,0
511420,252,-2015,349,-56,1,7,6557,9,1,-179,-40,35782,-13,33,127,0,0,2234,-10,0,24433,11772,192,41252,-4,0,-7,0,511456,0
511430,221,-2003,350,-51,-6,10,6561,13,4,-117,-24,35776,-2,33,127,0,0,2240,0,0,24433,11772,192,41262,-4,0,-7,0,511519,0
511440,231,-2002,349,-57,-11,11,6560,3,2,-77,16,35781,-4,33,127,0,0,2234,21,0,24433,11772,192,41272,-4,0,-7,0,511519,0
511450,240,-2013,342,-58,-17,6,6564,12,7,-15,8,35786,4,33,127,0,0,2244,-10,0,24433,11772,192,41282,-4,0,-7,0,511519,0
511460,256,-1997,337,-56,-5,5,6567,10,5,108,16,35785,6,33,127,0,0,2243,-21,0,24433,11772,192,41292,-4,0,-7,0,511519,0
511470,279,-1996,341,-54,3,3,6568,-7,-5,89,16,35787,-2,33,127,0,0,2243,-21,0,24433,11772,192,41302,-4,0,-7,0,511519,0
511480,282,-2009,348,-62,-7,12,6569,6,-4,156,16,35783,1,33,127,0,0,2246,-27,0,24433,11772,192,41312,-4,0,-7,0,511519,0
511490,273,-2005,351,-52,-11,26,6572,-6,4,170,48,35783,-5,33,127,0,0,2251,49,0,24433,11772,192,41322,-4,0,-7,0,511519,0
511500,257,-2007,337,-58,-8,37,6574,4,1,222,64,35790,-11,33,127,0,0,2253,49,0,24433,11772,192,41332,-4,0,-7,0,511534,0
511510,252,-2027,314,-50,-5,40,6576,5,4,286,96,35794,-7,33,127,0,0,2254,76,0,24433,11772,192,41342,-4,0,-7,0,511534,0
511520,261,-2019,309,-38,-2,38,6582,14,6,341,88,35791,-20,33,127,0,0,2257,5,0,24433,11772,192,41352,-4,0,-7,0,511534,0
511530,276,-2005,326,-34,9,45,6582,8,-5,405,128,35785,-12,33,127,0,0,2262,76,0,24433,11772,192,41362,-4,0,-7,0,511534,0
511540,258,-2009,349,-36,3,48,6589,13,10,460,112,35773,-9,33,127,0,0,2258,-32,0,24433,11772,192,41372,-4,0,-7,0,511534,0
511550,200,-1996,382,-50,-4,25,6588,4,-6,443,136,35772,6,33,127,0,0,2260,-5,0,24433,11772,192,41382,-4,0,-7,0,511534,0
511560,183,-2007,384,-64,-10,7,6587,-8,-10,461,136,35786,-4,33,127,0,0,2260,27,0,24433,11772,192,41392,-4,0,-7,0,511534,0
511570,165,-2001,368,-95,-15,-30,6590,7,1,462,128,35807,2,33,127,0,0,2260,0,0,24433,11772,192,41402,-4,0,-7,0,511566,0
511580,181,-2004,361,-107,-26,-50,6589,-3,-1,465,136,35819,7,33,127,0,0,2260,0,0,24433,11772,192,41412,-4,0,-7,0,511566,0
511590,192,-2013,369,-111,-41,-73,6589,0,0,450,136,35800,11,33,127,0,0,2260,16,0,24433,11772,192,41422,-4,0,-7,0,511566,0
511600,197,-2002,350,-124,-44,-87,6589,0,0,449,112,35788,10,33,127,0,0,2258,-21,0,24433,11772,192,41432,-4,0,-7,0,511597,0
511610,204,-2005,361,-118,-36,-158,6588,-2,-2,400,96,35792,-1,33,127,0,0,2253,-71,0,24433,11772,192,41442,-4,0,-7,0,511597,0
511620,160,-2033,333,-126,-17,-192,6585,-5,-7,289,64,35787,3,33,127,0,0,2255,-16,0,24433,11772,192,41452,-4,0,-7,0,511597,0
511630,206,-2031,358,-130,-12,-228,6583,-7,-3,196,8,35782,7,33,127,0,0,2245,-49,0,24433,11772,192,41462,-4,0,-7,0,511597,0
511640,226,-2020,362,-136,-12,-244,6573,-23,-19,-32,-8,35778,12,33,127,0,0,2234,-49,0,24433,11772,192,41472,-4,0,-7,0,511628,0
511650,255,-2036,350,-141,-26,-226,6566,-18,-12,-242,-80,35780,7,33,127,0,0,2229,-54,0,24433,11772,192,41482,-4,0,-7,0,511628,0
511660,276,-2035,345,-138,-30,-201,6554,-23,-2,-335,-128,35780,-5,33,127,0,0,2223,-65,0,24433,11772,192,41492,-4,0,-7,0,511628,0
511670,346,-2016,332,-123,-29,-160,6528,-61,-31,-280,-80,35781,-11,33,127,0,0,2223,-21,0,24433,11772,192,41502,-4,0,-7,0,511659,0
511680,340,-2001,313,-114,-26,-126,6501,-43,-26,-157,-48,35770,4,33,127,0,0,2221,10,0,24433,11772,192,41512,-4,0,-7,0,511659,0
511690,381,-2003,285,-104,-31,-55,6505,4,61,-226,-56,35775,-16,33,127,0,0,2214,-65,0,24433,11772,192,41522,-4,0,-7,0,511659,0
511700,342,-2018,271,-88,-29,-31,6501,-11,34,-258,-48,35782,-24,33,127,0,0,2218,-10,0,24433,11772,192,41532,-4,0,-7,0,511691,0
511710,305,-1994,261,-61,9,-15,6503,-1,-7,-242,-64,35785,-32,33,127,0,0,2222,10,0,24433,11772,192,41542,-4,0,-7,0,511706,0
511720,303,-2003,281,-42,21,12,6503,3,4,-220,-48,35787,-38,33,127,0,0,2218,-5,0,24433,11772,192,41552,-4,0,-7,0,511706,0
511730,317,-2009,301,-14,25,51,6503,1,-2,-228,-48,35783,-40,33,127,0,0,2221,-10,0,24433,11772,192,41562,-4,0,-7,0,511706,0
511740,322,-2029,314,-16,15,118,6504,-2,0,-186,-8,35785,-43,33,127,0,0,2225,65,0,24433,11772,192,41572,-4,0,-7,0,511722,0
511750,335,-1999,342,-20,-13,160,6510,17,12,-26,32,35792,-46,33,127,0,0,2229,10,0,24433,11772,192,41582,-4,0,-7,0,511737,0
511760,282,-1996,339,-16,-19,176,6516,16,5,121,80,35790,-35,33,127,0,0,2239,54,0,24433,11772,192,41592,-4,0,-7,0,511769,0
511770,204,-2013,333,-26,-17,156,6530,34,10,298,112,35789,-15,33,127,0,0,2248,87,0,24433,11772,192,41602,-4,0,-7,0,511784,0
511780,173,-2007,318,-20,4,121,6552,58,34,314,112,35785,-14,33,127,0,0,2256,104,0,24433,11772,192,41612,-4,0,-7,0,511784,0
511790,188,-2024,309,-28,12,70,6586,61,44,218,96,35782,-5,33,127,0,0,2253,65,0,24433,11772,192,41622,-4,0,-7,0,511784,0
511800,178,-1997,310,-15,14,33,6583,-24,-54,315,88,35783,-8,33,127,0,0,2257,16,0,24433,11772,192,41632,-4,0,-7,0,511784,0
511810,187,-2008,326,-11,32,-7,6589,20,-54,382,96,35782,31,33,127,0,0,2253,-65,0,24433,11772,192,41642,-4,0,-7,0,511800,0
511820,222,-2007,353,-18,27,-25,6586,0,-1,371,120,35781,26,33,127,0,0,2255,-27,0,24433,11772,192,41652,-4,0,-7,0,511800,0
511830,259,-2007,366,-28,2,-30,6585,-23,-8,352,80,35788,23,33,127,0,0,2257,0,0,24433,11772,192,41662,-4,0,-7,0,511831,0
511840,234,-2004,354,-31,-1,-31,6587,4,4,360,96,35790,15,33,127,0,0,2253,-71,0,24433,11772,192,41672,-4,0,-7,0,511831,0
511850,248,-2013,308,-31,4,-28,6588,12,1,382,112,35786,15,33,127,0,0,2258,-21,0,24433,11772,192,41682,-4,0,-7,0,511847,0
511860,273,-2001,325,-25,8,-14,6585,-16,0,352,104,35779,14,33,127,0,0,2253,5,0,24433,11772,192,41692,-4,0,-7,0,511847,0
511870,242,-2008,328,-13,3,-4,6588,8,2,333,112,35772,8,33,127,0,0,2252,-65,0,24433,11772,192,41702,-4,0,-7,0,511847,0
511880,251,-2022,331,-13,2,-9,6587,0,0,337,136,35781,4,33,127,0,0,2257,10,0,24433,11772,192,41712,-4,0,-7,0,511862,0
511890,255,-2031,336,-20,11,-8,6589,4,4,396,72,35783,-3,33,127,0,0,2260,-10,0,24433,11772,192,41722,-4,0,-7,0,511878,0
511900,228,-2034,329,-17,20,-2,6587,0,-5,366,80,35781,-9,33,127,0,0,2257,27,0,24433,11772,192,41732,-4,0,-7,0,511878,0
511910,252,-2005,343,-11,3,15,6588,2,-3,370,96,35784,-20,33,127,0,0,2256,-10,0,24433,11772,192,41742,-4,0,-7,0,511909,0
511920,269,-2016,344,-18,-2,33,6588,2,5,408,112,35787,-4,33,127,0,0,2262,5,0,24433,11772,192,41752,-4,0,-7,0,511909,0
511930,231,-2006,343,-12,-8,24,6588,0,4,477,176,35785,7,33,127,0,0,2262,65,0,24433,11772,192,41762,-4,0,-7,0,511909,0
511940,213,-2016,337,-14,-4,12,6597,18,12,528,136,35778,13,33,127,0,0,2269,-16,0,24433,11772,192,41772,-4,0,-7,0,511909,0
511950,220,-2022,346,-20,6,-16,6604,17,13,526,144,35785,0,33,127,0,0,2268,27,0,24433,11772,192,41782,-4,0,-7,0,511972,0
511960,216,-2011,362,-19,9,-29,6608,12,-1,472,136,35793,-5,33,127,0,0,2265,-21,0,24433,11772,192,41792,-4,0,-7,0,511972,0
511970,206,-2013,358,-26,8,-37,6612,12,-4,486,128,35792,-6,33,127,0,0,2265,-76,0,24433,11772,192,41802,-4,0,-7,0,511972,0
511980,228,-2012,352,-38,-12,-43,6627,24,19,394,112,35782,-1,33,127,0,0,2267,-10,0,24433,11772,192,41812,-4,0,-7,0,511972,0
511990,221,-2006,345,-36,-12,-43,6639,17,14,314,112,35777,-3,33,127,0,0,2266,10,0,24433,11772,192,41822,-4,0,-7,0,511972,0
512000,203,-2011,343,-45,-13,-53,6638,-11,-27,334,72,35776,-17,33,127,0,0,2265,-38,0,24433,11772,192,41832,-4,0,-7,0,511972,0
512010,207,-2018,348,-43,-7,-70,6638,7,-22,299,96,35785,-33,33,127,0,0,2267,21,0,24433,11772,192,41842,-4,0,-7,0,511987,0
512020,219,-2015,354,-42,-21,-69,6637,-7,6,289,56,35797,-14,33,127,0,0,2266,5,0,24433,11772,192,41852,-4,0,-7,0,512003,0
512030,220,-2017,346,-49,-19,-82,6639,14,4,279,72,35808,-10,33,127,0,0,2265,0,0,24433,11772,192,41862,-4,0,-7,0,512003,0
512040,215,-2013,342,-53,-14,-89,6638,3,5,296,72,35802,-9,33,127,0,0,2268,27,0,24433,11772,192,41872,-4,0,-7,0,512065,0
512050,227,-2007,329,-48,-8,-103,6637,-3,-1,275,56,35798,-36,33,127,0,0,2263,-10,0,24433,11772,192,41882,-4,0,-7,0,512065,0
512060,238,-2010,320,-44,4,-124,6636,-5,-3,219,56,35790,-23,33,127,0,0,2266,32,0,24433,11772,192,41892,-4,0,-7,0,512065,0
512070,229,-2017,335,-45,6,-129,6633,-24,3,176,24,35788,-21,33,127,0,0,2255,-71,0,24433,11772,192,41902,-4,0,-7,0,512065,0
512080,244,-2008,337,-39,4,-128,6630,0,-10,81,-8,35785,-27,33,127,0,0,2254,-60,0,24433,11772,192,41912,-4,0,-7,0,512065,0
512090,255,-2001,357,-36,2,-117,6625,-15,4,-10,0,35779,-22,33,127,0,0,2251,-32,0,24433,11772,192,41922,-4,0,-7,0,512081,0
512100,255,-2021,345,-44,-8,-107,6621,-21,0,-142,-8,35781,-17,33,127,0,0,2252,54,0,24433,11772,192,41932,-4,0,-7,0,512081,0
512110,265,-2028,336,-44,-1,-103,6609,-25,-20,-37,-24,35790,13,33,127,0,0,2247,5,0,24433,11772,192,41942,-4,0,-7,0,512097,0
512120,258,-2014,358,-51,-15,-94,6599,-17,-8,15,-24,35802,21,33,127,0,0,2245,-54,0,24433,11772,192,41952,-4,0,-7,0,512112,0
512130,242,-2010,354,-49,-7,-87,6589,-16,1,-14,-8,35806,30,33,127,0,0,2242,-21,0,24433,11772,192,41962,-4,0,-7,0,512112,0
512140,244,-2018,339,-58,-16,-88,6584,-12,12,-126,-16,35798,11,33,127,0,0,2240,0,0,24433,11772,192,41972,-4,0,-7,0,512144,0
512150,231,-2025,336,-56,-6,-103,6581,-5,6,-130,-48,35792,6,33,127,0,0,2239,-38,0,24433,11772,192,41982,-4,0,-7,0,512159,0
512160,238,-2009,330,-51,-7,-106,6577,-12,0,-179,-40,35791,4,33,127,0,0,2239,0,0,24433,11772,192,41992,-4,0,-7,0,512159,0
512170,259,-2015,336,-46,-7,-100,6577,-4,4,-214,-56,35795,-4,33,127,0,0,2233,-32,0,24433,11772,192,42002,-4,0,-7,0,512159,0
512180,268,-2001,340,-43,-2,-96,6571,-13,1,-276,-88,35792,-3,33,127,0,0,2239,27,0,24433,11772,192,42012,-4,0,-7,0,512159,0
512190,274,-2012,352,-44,-7,-78,6568,-2,4,-287,-64,35788,7,33,127,0,0,2234,32,0,24433,11772,192,42022,-4,0,-7,0,512159,0
512200,272,-2010,353,-46,-10,-63,6568,1,13,-325,-80,35795,3,33,127,0,0,2232,10,0,24433,11772,192,42032,-4,0,-7,0,512190,0
512210,267,-2019,354,-52,-11,-54,6567,6,-1,-311,-72,35801,10,33,127,0,0,2232,-5,0,24433,11772,192,42042,-4,0,-7,0,512206,0
512220,271,-2016,346,-55,-9,-41,6565,-4,1,-325,-56,35798,-3,33,127,0,0,2231,5,0,24433,11772,192,42052,-4,0,-7,0,512206,0
512230,251,-2014,338,-44,-15,-40,6565,-3,3,-319,-80,35791,-10,33,127,0,0,2235,32,0,24433,11772,192,42062,-4,0,-7,0,512206,0
512240,243,-2021,333,-46,-7,-34,6566,1,-4,-300,-72,35793,-9,33,127,0,0,2235,71,0,24433,11772,192,42072,-4,0,-7,0,512237,0
512250,254,-2013,349,-45,-13,-39,6565,-3,0,-290,-72,35804,-7,33,127,0,0,2235,43,0,24433,11772,192,42082,-4,0,-7,0,512237,0
512260,237,-2014,345,-44,-20,-39,6567,3,2,-289,-80,35799,-3,33,127,0,0,2232,10,0,24433,11772,192,42092,-4,0,-7,0,512237,0
512270,230,-2015,348,-58,-18,-49,6566,7,2,-271,-80,35797,0,33,127,0,0,2232,-21,0,24433,11772,192,42102,-4,0,-7,0,512253,0
512280,218,-2007,341,-51,-13,-56,6564,-3,-2,-296,-72,35788,23,33,127,0,0,2232,-16,0,24433,11772,192,42112,-4,0,-7,0,512253,0
512290,225,-2012,341,-52,-12,-64,6566,-3,2,-273,-80,35787,24,33,127,0,0,2232,-43,0,24433,11772,192,42122,-4,0,-7,0,512300,0
512300,238,-2009,336,-55,-14,-69,6565,11,-1,-278,-72,35796,32,33,127,0,0,2232,-16,0,24433,11772,192,42132,-4,0,-7,0,512300,0
512310,250,-2003,344,-54,-16,-57,6564,-13,-3,-302,-72,35785,7,33,127,0,0,2235,32,0,24433,11772,192,42142,-4,0,-7,0,512300,0
512320,239,-2010,348,-56,-20,-58,6567,2,2,-257,-72,35787,8,33,127,0,0,2232,-21,0,24433,11772,192,42152,-4,0,-7,0,512300,0
512330,241,-2004,337,-64,-19,-62,6563,-5,0,-313,-72,35785,-1,33,127,0,0,2235,65,0,24433,11772,192,42162,-4,0,-7,0,512300,0
512340,239,-2017,333,-60,-14,-62,6567,3,2,-247,-56,35790,-9,33,127,0,0,2234,5,0,24433,11772,192,42172,-4,0,-7,0,512347,0
512350,238,-2017,322,-63,-17,-62,6564,-2,4,-263,-72,35792,-13,33,127,0,0,2232,-16,0,24433,11772,192,42182,-4,0,-7,0,512347,0
512360,239,-2018,317,-58,-11,-68,6564,7,-5,-288,-72,35789,-19,33,127,0,0,2229,-32,0,24433,11772,192,42192,-4,0,-7,0,512347,0
512370,239,-2015,335,-47,-8,-66,6564,2,-2,-318,-72,35784,-12,33,127,0,0,2235,38,0,24433,11772,192,42202,-4,0,-7,0,512347,0
512380,247,-2018,351,-44,-9,-70,6562,-16,4,-280,-72,35781,-13,33,127,0,0,2229,0,0,24433,11772,192,42212,-4,0,-7,0,512347,0
512390,241,-2018,354,-55,-5,-75,6563,-2,-1,-338,-88,35789,-6,33,127,0,0,2230,-21,0,24433,11772,192,42222,-4,0,-7,0,512378,0
512400,235,-2015,349,-54,-5,-81,6561,-4,-8,-364,-120,35790,-2,33,127,0,0,2229,0,0,24433,11772,192,42232,-4,0,-7,0,512378,0
512410,244,-2019,339,-51,-6,-78,6559,-6,-3,-375,-96,35788,6,33,127,0,0,2228,-10,0,24433,11772,192,42242,-4,0,-7,0,512378,0
512420,256,-2019,342,-50,-14,-78,6557,-11,-3,-417,-120,35788,-7,33,127,0,0,2225,-10,0,24433,11772,192,42252,-4,0,-7,0,512409,0
512430,244,-2018,327,-55,-16,-76,6549,-22,-12,-353,-104,35792,-6,33,127,0,0,2222,-38,0,24433,11772,192,42262,-4,0,-7,0,512425,0
512440,253,-2010,324,-52,-2,-79,6541,-22,-6,-330,-104,35791,-3,33,127,0,0,2223,-60,0,24433,11772,192,42272,-4,0,-7,0,512425,0
512450,228,-2010,343,-55,-12,-86,6518,-61,-32,-255,-88,35787,-4,33,127,0,0,2221,-43,0,24433,11772,192,42282,-4,0,-7,0,512425,0
512460,220,-2011,348,-52,-3,-100,6503,-17,-16,-179,-48,35785,-12,33,127,0,0,2221,-5,0,24433,11772,192,42292,-4,0,-7,0,512456,0
512470,279,-2006,359,-63,-12,-99,6505,-9,50,-258,-88,35792,-22,33,127,0,0,2220,16,0,24433,11772,192,42302,-4,0,-7,0,512456,0
512480,307,-2038,342,-62,-48,-149,6503,-2,16,-303,-48,35793,-35,33,127,0,0,2211,-10,0,24433,11772,192,42312,-4,0,-7,0,512456,0
512490,867,-1802,222,-130,11,-619,6503,-10,-1,-348,-88,35783,-34,33,127,0,0,2213,-43,0,24433,11772,192,42322,-4,0,-7,0,512456,0
512500,517,-1849,171,-142,70,-792,6493,-54,-19,-531,-304,35786,-28,33,127,0,0,2180,-313,0,24433,11772,192,42332,-4,0,-7,0,512503,0
512510,566,-1869,376,-94,-25,-316,6412,-233,-177,-489,-280,35790,-12,33,127,0,0,2171,-43,0,24433,11772,192,42342,-4,0,-7,0,512518,0
512520,588,-2032,345,-96,-128,-224,6309,-211,-179,-245,-112,35793,-18,33,127,0,0,2161,-82,0,24433,11772,192,42352,-4,0,-7,0,512518,0
512530,694,-1821,216,-139,-96,-596,6256,-93,83,-204,-112,35781,-36,33,127,0,0,2163,-98,0,24433,11772,192,42362,-4,0,-7,0,512518,0
512540,504,-1817,167,-172,-3,-772,6238,-29,164,-478,-232,35776,-64,33,127,0,0,2132,-236,0,24433,11772,192,42372,-4,0,-7,0,512518,0
512550,662,-1843,224,-164,11,-628,6182,-173,-22,-557,-328,35775,-90,33,127,0,0,2113,-208,0,24433,11772,192,42382,-4,0,-7,0,512534,0
512560,766,-1927,168,-132,-63,-560,6095,-190,-149,-432,-296,35784,-106,33,127,0,0,2098,-175,0,24433,11772,192,42392,-4,0,-7,0,512581,0
512570,656,-1857,152,-105,-101,-616,6006,-204,-51,-341,-272,35785,-93,33,127,0,0,2087,-137,0,24433,11772,192,42402,-4,0,-7,0,512581,0
512580,570,-1875,223,-85,-59,-696,5931,-143,27,-362,-248,35785,-73,33,127,0,0,2070,-186,0,24433,11772,192,42412,-4,0,-7,0,512581,0
512590,605,-1896,422,-102,-37,-573,5872,-152,61,-461,-248,35775,-57,33,127,0,0,2057,-115,0,24433,11772,192,42422,-4,0,-7,0,512581,0
512600,596,-1908,412,-139,-100,-419,5804,-151,-2,-380,-176,35774,-43,33,127,0,0,2057,38,0,24433,11772,192,42432,-4,0,-7,0,512612,0
512610,668,-1946,205,-165,-176,-390,5781,-15,75,-398,-168,35772,-27,33,127,0,0,2050,-76,0,24433,11772,192,42442,-4,0,-7,0,512612,0
512620,622,-1962,141,-149,-162,-461,5773,-15,117,-468,-128,35776,-14,33,127,0,0,2055,-5,0,24433,11772,192,42452,-4,0,-7,0,512612,0
512630,616,-2088,141,-111,-51,-552,5768,-13,24,-412,-160,35778,-7,33,127,0,0,2047,-60,0,24433,11772,192,42462,-4,0,-7,0,512612,0
512640,659,-2164,206,-106,-8,-527,5750,-37,-25,-432,-168,35777,-14,33,127,0,0,2043,-49,0,24433,11772,192,42472,-4,0,-7,0,512628,0
512650,507,-2213,261,-123,-34,-533,5734,-31,-17,-500,-176,35776,-27,33,127,0,0,2039,-32,0,24433,11772,192,42482,-4,0,-7,0,512628,0
512660,450,-2138,434,-180,-27,-560,5726,-22,20,-601,-200,35781,-24,33,127,0,0,2034,-21,0,24433,11772,192,42492,-4,0,-7,0,512675,0
512670,441,-2333,668,-322,-44,-596,5707,-48,-8,-485,-160,35794,-27,33,127,0,0,2034,-27,0,24433,11772,192,42502,-4,0,-7,0,512722,0
512680,401,-2272,720,-416,-61,-599,5679,-68,-36,-378,-128,35787,-29,33,127,0,0,2035,38,0,24433,11772,192,42512,-4,0,-7,0,512722,0
512690,74,-2044,463,-547,-136,-377,5673,10,24,-301,-16,35776,-26,33,127,0,0,2050,164,0,24433,11772,192,42522,-4,0,-21,0,512722,0
512700,562,-1806,334,-512,-147,-602,5703,92,120,161,128,35768,-40,33,127,0,0,2072,131,0,24433,11772,192,42532,-4,0,-24,0,512722,0
512710,446,-2238,286,-453,-390,-588,5763,165,125,255,168,35763,-39,33,127,0,0,2092,197,0,24433,11772,192,42542,-4,0,-25,0,512737,0
512720,320,-2230,380,-525,-430,-573,5847,182,102,253,224,35773,-45,33,127,0,0,2117,313,0,24433,11772,192,42552,-4,0,-26,0,512737,0
512730,173,-2051,384,-677,-428,-810,5928,182,23,391,280,35783,-23,33,127,0,0,2137,197,0,24433,11772,192,42562,-4,0,-27,0,512737,0
512740,118,-2152,275,-639,-350,-1063,6029,233,33,322,240,35789,-25,33,127,0,0,2152,115,0,24433,11772,192,42572,-4,0,-28,0,512737,0
512750,207,-2101,196,-531,-240,-1154,6116,169,6,267,168,35786,-37,33,127,0,0,2163,82,0,24433,11772,192,42582,-4,0,-29,0,512737,0
512760,435,-1988,210,-593,-260,-1126,6187,142,-89,239,168,35786,-62,33,127,0,0,2178,137,0,24433,11772,192,42592,-4,0,-29,0,512737,0
512770,508,-1879,163,-650,-341,-1136,6237,99,-73,420,192,35790,-80,33,127,0,0,2201,142,0,24433,11772,192,42602,-4,0,-30,0,512768,0
512780,406,-1942,126,-633,-309,-1142,6299,144,-1,475,280,35796,-82,33,127,0,0,2212,104,0,24433,11772,192,42612,-4,0,-30,0,512768,0
512790,462,-1917,183,-614,-240,-1190,6377,176,54,370,240,35793,-80,33,127,0,0,2235,181,0,24433,11772,192,42622,-4,0,-31,0,512768,0
512800,515,-1910,223,-648,-249,-1222,6449,150,14,407,256,35782,-62,33,127,0,0,2246,159,0,24433,11772,192,42632,-4,0,-31,0,512768,0
512810,449,-1982,299,-647,-321,-1316,6514,155,-30,422,240,35785,-60,33,127,0,0,2256,98,0,24433,11772,192,42642,-4,0,-32,0,512800,0
512820,359,-2021,321,-661,-367,-1344,6583,162,-2,342,200,35788,-51,33,127,0,0,2274,153,0,24433,11772,192,42652,-4,0,-32,0,512815,0
512830,271,-2051,411,-673,-475,-1456,6635,95,-21,405,216,35785,-21,33,127,0,0,2284,186,0,24433,11772,192,42662,-4,0,-33,0,512815,0
512840,171,-2109,441,-675,-580,-1602,6676,71,-65,502,232,35780,-12,33,127,0,0,2288,43,0,24433,11772,192,42672,-4,0,-33,0,512815,0
512850,34,-2154,450,-674,-681,-1908,6730,118,4,348,184,35787,-24,33,127,0,0,2298,87,0,24433,11772,192,42682,-4,0,-33,0,512909,0
512860,27,-2190,369,-707,-725,-2110,6783,110,25,255,96,35788,-44,33,127,0,0,2300,5,0,24433,11772,192,42692,-4,0,-34,0,512925,0
512870,-21,-2326,306,-755,-801,-2435,6787,-16,-100,370,112,35787,-61,33,127,0,0,2299,0,0,24433,11772,192,42702,-4,0,-34,0,512925,0
512880,-112,-2487,273,-799,-816,-2648,6786,6,-107,357,112,35784,-63,33,127,0,0,2299,0,0,24433,11772,192,42712,-4,0,-34,0,512925,0
512890,-183,-2675,293,-885,-790,-3047,6786,3,-4,349,112,35779,-72,33,127,0,0,2302,38,0,24433,11772,192,42722,-4,0,-34,0,512940,0
512900,-224,-2767,307,-926,-778,-3308,6786,-4,-5,356,112,35776,-62,33,127,0,0,2306,82,0,24433,11772,192,42732,-4,0,-34,0,512940,0
512910,-285,-2961,362,-1010,-809,-3608,6789,18,5,462,144,35772,-51,33,127,0,0,2313,98,0,24433,11772,192,42742,-4,0,-34,0,512940,0
512920,-111,-3047,459,-1037,-834,-3891,6801,45,10,657,296,35771,-50,33,127,0,0,2330,208,0,24433,11772,192,42752,-4,0,-34,0,512940,0
512930,-28,-3179,584,-944,-908,-4241,6859,158,103,569,352,35774,-57,33,127,0,0,2353,252,0,24433,11772,192,42762,-4,0,-33,0,512940,0
512940,243,-3012,582,-847,-1044,-4445,6946,199,143,507,456,35774,-62,33,127,0,0,2390,390,0,24433,11772,192,42772,-4,0,-33,0,512940,0
512950,469,-2754,392,-827,-1234,-4477,7057,263,87,601,552,35772,-67,33,127,0,0,2422,373,0,24433,11772,192,42782,-4,0,-32,0,512940,0
512960,748,-2486,290,-792,-1364,-4467,7192,332,99,579,776,35772,-56,33,127,0,0,2481,560,0,24433,11772,192,42792,-4,0,-31,0,512940,0
512970,1212,-2418,66,-703,-1343,-4695,7366,412,125,570,864,35784,-64,33,127,0,0,2524,373,0,24433,11772,192,42802,-4,0,-30,0,512940,0
512980,1230,-2274,271,-569,-1514,-4474,7553,417,95,509,896,35807,-47,33,127,0,0,2568,505,0,24433,11772,192,42812,-4,0,-29,0,512971,0
512990,1432,-2136,335,-531,-1602,-4231,7747,431,38,450,880,35814,-36,33,127,0,0,2611,439,0,24433,11772,192,42822,-4,0,-28,0,512987,0
513000,1095,-1938,499,-402,-1608,-3780,7946,430,23,448,784,35806,-42,33,127,0,0,2637,291,0,24433,11772,192,42832,-4,0,-28,0,512987,0
513010,208,-1374,491,-136,-1392,-2679,8128,394,-33,403,608,35790,-55,33,127,0,0,2654,192,0,24433,11772,192,42842,-4,0,-26,0,512987,0
513020,178,-1093,291,10,-1392,-2039,8287,316,-64,324,352,35787,-50,33,127,0,0,2651,-21,0,24433,11772,192,42852,-4,0,-25,0,513003,0
513030,-117,-1157,361,394,-1662,-1035,8399,193,-133,177,64,35792,-33,33,127,0,0,2637,-197,0,24433,11772,192,42862,-4,0,-23,0,513018,0
513040,-112,-1316,289,748,-1842,-268,8403,-88,-303,-234,-128,35787,-35,33,127,0,0,2624,-159,0,24433,11772,192,42872,-4,0,-22,0,513018,0
513050,-116,-1345,306,1255,-1870,774,8328,-188,-377,-200,-224,35785,-43,33,127,0,0,2591,-313,0,24433,11772,192,42882,-4,0,-20,0,513034,0
513060,-75,-1391,344,1603,-1806,1475,8236,-211,-182,-321,-280,35785,-66,33,127,0,0,2565,-307,0,24433,11772,192,42892,-4,0,-18,0,513050,0
513070,-106,-1416,301,2011,-1693,2480,8125,-245,-68,-308,-352,35785,-55,33,127,0,0,2541,-307,0,24433,11772,192,42902,-4,0,-15,0,513050,0
513080,-126,-1474,269,2284,-1607,3080,8012,-251,-34,-360,-392,35783,-28,33,127,0,0,2509,-296,0,24433,11772,192,42912,-4,0,-13,0,513081,0
513090,-21,-1599,209,2674,-1392,3893,7884,-286,-37,-347,-376,35782,-10,33,127,0,0,2479,-296,0,24433,11772,192,42922,-4,0,-10,0,513081,0
513100,67,-1723,218,2921,-1216,4369,7749,-294,-44,-317,-376,35786,-17,33,127,0,0,2454,-247,0,24433,11772,192,42932,-4,0,-8,0,513081,0
513110,115,-1913,285,3260,-990,4994,7622,-276,7,-335,-328,35788,-55,33,127,0,0,2429,-258,0,24433,11772,192,42942,-4,0,-4,0,513096,0
513120,180,-1999,313,3453,-855,5324,7503,-253,30,-307,-336,35782,-60,33,127,0,0,2409,-203,0,24433,11772,192,42952,-4,0,-2,0,513096,0
513130,265,-2111,362,3666,-719,5755,7388,-258,17,-300,-288,35787,-62,33,127,0,0,2386,-219,0,24433,11772,192,42962,-4,0,1,0,513112,0
513140,322,-2169,373,3782,-629,5975,7278,-219,15,-271,-248,35795,-42,33,127,0,0,2366,-214,0,24433,11772,192,42972,-4,0,4,0,513112,0
513150,431,-2236,371,3905,-530,6234,7186,-207,53,-338,-240,35797,-43,33,127,0,0,2352,-159,0,24433,11772,192,42982,-4,0,8,0,513128,0
513160,418,-2269,400,3956,-484,6334,7095,-181,24,-300,-192,35792,-42,33,127,0,0,2333,-148,0,24433,11772,192,42992,-4,0,11,0,513159,0
513170,455,-2302,423,3980,-378,6401,7021,-158,37,-279,-192,35790,-46,33,127,0,0,2319,-181,0,24433,11772,192,43002,-4,0,15,0,513159,0
513180,477,-2316,399,3955,-293,6443,6946,-166,32,-299,-144,35793,-73,33,127,0,0,2311,-60,0,24433,11772,192,43012,-4,0,17,0,513159,0
513190,501,-2284,377,3886,-114,6459,6889,-119,26,-244,-104,35793,-90,33,127,0,0,2299,-32,0,24433,11772,192,43022,-4,0,21,0,513190,0
513200,506,-2242,358,3814,1,6471,6858,-52,83,-284,-104,35803,-102,33,127,0,0,2292,-54,0,24433,11772,192,43032,-4,0,24,0,513190,0
513210,572,-2185,362,3642,210,6459,6829,-52,55,-227,-80,35798,-88,33,127,0,0,2291,-43,0,24433,11772,192,43042,-4,0,28,0,513190,0
513220,576,-2125,328,3520,320,6437,6822,5,45,-215,-40,35797,-57,33,127,0,0,2293,32,0,24433,11772,192,43052,-4,0,30,0,513190,0
513230,608,-2003,265,3334,480,6357,6827,0,62,-208,-32,35796,-65,33,127,0,0,2289,-38,0,24433,11772,192,43062,-4,0,34,0,513206,0
513240,665,-1926,218,3203,582,6287,6823,-7,3,-244,-64,35801,-52,33,127,0,0,2298,38,0,24433,11772,192,43072,-4,0,36,0,513206,0
513250,717,-1857,129,2975,798,6176,6826,2,-4,-168,-48,35803,-51,33,127,0,0,2293,0,0,24433,11772,192,43082,-4,0,40,0,513253,0
513260,726,-1879,86,2789,933,6138,6827,13,7,-84,32,35800,-47,33,127,0,0,2306,109,0,24433,11772,192,43092,-4,0,42,0,513284,0
513270,802,-1931,95,2481,1089,5994,6849,47,42,200,152,35783,-54,33,127,0,0,2326,203,0,24433,11772,192,43102,-4,0,45,0,513284,0
513280,837,-1973,74,2279,1149,5708,6893,126,83,434,320,35785,-63,33,127,0,0,2352,252,0,24433,11772,192,43112,-4,0,47,0,513284,0
513290,877,-2062,-7,1976,1311,4983,6984,233,138,429,320,35780,-65,33,127,0,0,2371,115,0,24433,11772,192,43122,-4,0,49,31,513284,0
513300,883,-2123,-11,1754,1410,4491,7080,205,99,346,248,35777,-71,33,127,0,0,2388,164,0,24433,11772,192,43132,-4,0,51,30,513284,0
513310,965,-2169,-3,1331,1637,3774,7168,193,-8,297,232,35771,-74,33,127,0,0,2402,181,0,24433,11772,192,43142,-4,0,52,29,513284,0
513320,1020,-2164,-13,1046,1852,3277,7240,154,-44,342,240,35782,-66,33,127,0,0,2423,186,0,24433,11772,192,43152,-4,0,53,28,513300,0
513330,1045,-2066,-71,616,2222,2421,7317,203,-15,439,336,35796,-41,33,127,0,0,2453,269,0,24433,11772,192,43162,-4,0,55,27,513331,0
513340,1143,-1975,-126,325,2488,1804,7427,240,76,422,392,35800,-25,33,127,0,0,2478,258,0,24433,11772,192,43172,-4,0,55,27,513331,0
513350,1027,-3339,-297,-121,2727,871,7540,269,67,439,416,35793,-19,33,127,0,0,2514,340,0,24433,11772,192,43182,-4,0,56,26,513331,0
513360,2040,-4838,341,-406,2836,-157,7682,345,59,557,1104,35783,-35,33,127,0,0,2647,1417,0,24433,11772,192,43192,-4,0,56,26,513331,0
513370,2221,-1682,590,-426,2955,-2623,7949,706,282,1003,2016,35777,-51,33,127,0,0,2789,1334,0,6101,-248,193,6,1,0,55,25,513346,0
513380,1750,-462,-29,-755,2659,-3580,8347,918,506,609,1984,35787,-51,33,127,0,0,2832,302,0,6101,-248,193,16,1,0,54,25,513362,0
513390,746,-2408,630,-960,2682,-3377,8729,784,232,141,1056,35787,-35,33,127,0,0,2803,-302,0,6101,-248,193,26,1,0,53,25,513378,0
513400,-912,-2252,1401,-513,1770,-2698,9001,505,-253,-11,216,35797,-33,33,127,0,0,2791,-87,0,6101,-248,193,36,1,0,51,25,513378,0
513410,-1341,-2052,986,-896,173,-2128,9123,152,-507,-190,48,35787,-24,33,127,0,0,2812,274,0,6101,-248,193,46,1,0,49,25,513393,0
513420,-516,-1954,627,-1029,-324,-2040,9165,112,-458,526,512,35785,-42,33,127,0,0,2872,648,0,6101,-248,193,56,1,0,48,25,513409,0
513430,138,-1681,-192,-1158,-834,-2059,9287,336,23,738,920,35785,-23,33,127,0,0,2935,582,0,6101,-248,193,66,1,0,46,25,513409,0
513440,235,-1694,-158,-1154,-696,-1952,9484,467,311,637,1072,35781,-41,33,127,0,0,3000,560,0,6101,-248,193,76,1,0,45,25,513425,0
513450,-128,-1910,261,-1067,-481,-1819,9718,537,212,562,1312,35779,-45,33,127,0,0,3066,648,0,6101,-248,193,86,1,0,43,25,513440,0
513460,-55,-2041,421,-848,-375,-2010,9957,609,132,586,1440,35779,-30,33,127,0,0,3131,571,0,6101,-248,193,96,1,0,42,25,513440,0
513470,-328,-1890,256,-910,90,-2873,10252,646,119,312,1064,35773,-35,33,127,0,0,3133,-21,0,6101,-248,193,106,1,0,40,25,513440,0
513480,625,-2000,279,-881,639,-3169,10509,521,-30,140,336,35779,-30,33,127,0,0,3108,-379,0,6101,-248,193,116,1,0,39,0,513456,0
513490,460,-2109,447,-761,437,-3000,10647,142,-333,-688,-344,35791,-38,33,127,0,0,3062,-439,0,6101,-248,193,126,1,0,37,0,513471,0
513500,395,-2139,479,-736,99,-2953,10541,-317,-737,-469,-576,35794,-44,33,127,0,0,3013,-505,0,6101,-248,193,136,1,0,36,0,513503,0
513510,544,-2016,421,-787,-370,-2742,10372,-389,-545,-438,-728,35805,-14,33,127,0,0,2969,-455,0,6101,-248,193,146,1,0,33,0,513503,0
513520,451,-1808,356,-891,-479,-2621,10189,-394,-121,-369,-792,35790,-25,33,127,0,0,2922,-483,0,6101,-248,193,156,1,0,32,0,513503,0
513530,229,-1832,283,-786,-347,-2511,9997,-414,-34,-432,-872,35786,-46,33,127,0,0,2877,-433,0,6101,-248,193,166,1,0,30,0,513503,0
513540,349,-1903,336,-677,-222,-2510,9798,-447,-24,-442,-976,35781,-55,33,127,0,0,2817,-560,0,6101,-248,193,176,1,0,29,0,513534,0
513550,341,-1806,336,-515,88,-2488,9579,-500,-65,-507,-1192,35783,-44,33,127,0,0,2746,-681,0,6101,-248,193,186,1,0,28,0,513534,0
513560,539,-1926,512,-467,92,-2316,9329,-572,-106,-488,-1304,35777,-25,33,127,0,0,2680,-686,0,6101,-248,193,196,1,0,28,0,513534,0
513570,744,-1994,511,-460,-1,-1961,9055,-608,-100,-459,-1328,35778,-28,33,127,0,0,2619,-615,0,6101,-248,193,206,1,0,28,0,513581,0
513580,684,-2079,596,-425,-47,-1646,8771,-621,-59,-401,-1248,35781,-38,33,127,0,0,2566,-510,0,6101,-248,193,216,1,0,28,0,513596,0
513590,370,-2135,576,-382,-158,-1258,8495,-594,3,-350,-1128,35776,-36,33,127,0,0,2523,-466,0,6101,-248,193,226,1,0,28,0,513612,0
513600,249,-2045,503,-340,-133,-1121,8242,-545,63,-326,-952,35764,-27,33,127,0,0,2494,-340,0,6101,-248,193,236,1,0,28,0,513628,0
513610,125,-1973,320,-283,-38,-1046,8016,-463,95,-327,-808,35757,-34,33,127,0,0,2462,-280,0,6101,-248,193,246,1,0,28,0,513628,0
513620,153,-1936,269,-190,46,-939,7811,-435,96,-336,-704,35759,-49,33,127,0,0,2429,-302,0,6101,-248,193,256,1,0,28,0,513628,0
513630,325,-1810,207,-83,72,-843,7628,-388,76,-375,-568,35768,-50,33,127,0,0,2404,-230,0,6101,-248,193,266,1,0,28,0,513628,0
513640,317,-1936,283,-21,39,-727,7460,-345,69,-313,-456,35768,-59,33,127,0,0,2384,-241,0,6101,-248,193,276,1,0,28,0,513628,0
513650,243,-2055,508,106,-24,-516,7311,-322,72,-285,-336,35765,-62,33,127,0,0,2360,-181,0,6101,-248,193,286,1,0,28,0,513643,0
513660,205,-2081,570,118,-53,-474,7191,-245,91,-286,-232,35763,-48,33,127,0,0,2352,-153,0,6101,-248,193,296,1,0,28,0,513643,0
513670,170,-2075,615,98,-32,-500,7097,-175,109,-241,-160,35767,-44,33,127,0,0,2335,-153,0,6101,-248,193,306,1,0,28,0,513643,0
513680,283,-2041,592,90,-3,-452,7037,-134,111,-323,-176,35778,-38,33,127,0,0,2320,-153,0,6101,-248,193,316,1,0,28,0,513706,0
513690,360,-1961,595,69,-14,-377,6978,-136,47,-348,-160,35779,-51,33,127,0,0,2309,-142,0,6101,-248,193,326,1,0,28,0,513706,0
513700,346,-1965,597,52,-43,-302,6918,-124,-3,-342,-136,35781,-69,33,127,0,0,2298,-104,0,6101,-248,193,336,1,0,28,0,513706,0
513710,294,-1908,611,29,-52,-195,6873,-71,31,-297,-104,35767,-92,33,127,0,0,2298,-32,0,6101,-248,193,346,1,0,28,0,513706,0
513720,338,-1904,578,2,-48,-162,6847,-55,67,-234,-88,35764,-91,33,127,0,0,2290,-82,0,6101,-248,193,356,1,0,28,0,513706,0
513730,378,-1924,542,-24,-30,-186,6825,-33,39,-306,-104,35761,-77,33,127,0,0,2284,-76,0,6101,-248,193,366,1,0,28,0,513721,0
513740,451,-1948,559,-45,-33,-129,6810,-37,23,-364,-136,35761,-54,33,127,0,0,2280,-43,0,6101,-248,193,376,1,0,28,0,513721,0
513750,441,-1963,541,-97,-42,-109,6773,-111,-39,-284,-136,35780,-55,33,127,0,0,2271,-54,0,6101,-248,193,386,1,0,28,0,513721,0
513760,289,-2032,558,-99,-94,-113,6745,-32,-21,-292,-160,35792,-51,33,127,0,0,2266,-137,0,6101,-248,193,396,1,0,28,0,513753,0
513770,341,-2000,539,-122,-116,-83,6727,-53,58,-414,-144,35797,-51,33,127,0,0,2257,-54,0,6101,-248,193,406,1,0,28,0,513753,0
513780,323,-1975,526,-131,-160,-89,6695,-79,-31,-386,-136,35786,-57,33,127,0,0,2247,-76,0,6101,-248,193,416,1,0,28,0,513753,0
513790,395,-1910,466,-153,-244,-132,6668,-71,-17,-479,-184,35773,-63,33,127,0,0,2240,-93,0,6101,-248,193,426,1,0,28,0,513784,0
513800,393,-1898,464,-160,-217,-81,6611,-124,-48,-304,-128,35787,-56,33,127,0,0,2226,-120,0,6101,-248,193,436,1,0,28,0,513784,0
513810,298,-1914,479,-153,-130,-56,6559,-89,-46,-234,-120,35785,-28,33,127,0,0,2225,-137,0,6101,-248,193,446,1,0,28,0,513784,0
513820,227,-1991,543,-160,-119,-80,6552,1,101,-395,-144,35787,-14,33,127,0,0,2224,-60,0,6101,-248,193,456,1,0,28,0,513815,0
513830,243,-1992,587,-181,-139,-62,6543,-25,74,-430,-144,35790,-3,33,127,0,0,2219,-27,0,6101,-248,193,466,1,0,28,0,513831,0
513840,230,-1967,595,-183,-186,-68,6518,-63,-34,-281,-96,35785,-8,33,127,0,0,2222,-21,0,6101,-248,193,476,1,0,28,0,513831,0
513850,223,-1954,545,-208,-245,-129,6511,6,1,-251,-80,35790,-20,33,127,0,0,2219,-38,0,6101,-248,193,486,1,0,28,0,513831,0
513860,311,-1969,540,-242,-200,-146,6513,6,52,-262,-88,35773,-36,33,127,0,0,2222,-21,0,6101,-248,193,496,1,0,28,0,513862,0
513870,251,-1913,548,-266,-197,-209,6513,12,12,-241,-88,35779,-49,33,127,0,0,2219,-27,0,6101,-248,193,506,1,0,28,0,513862,0
513880,229,-1879,509,-319,-217,-249,6511,1,-1,-291,-80,35788,-49,33,127,0,0,2215,-71,0,6101,-248,193,516,1,0,28,0,513862,0
513890,258,-1916,472,-361,-230,-276,6511,6,3,-334,-104,35794,-38,33,127,0,0,2220,-10,0,6101,-248,193,526,1,0,28,0,513893,0
513900,319,-1929,467,-336,-228,-361,6510,2,0,-350,-120,35791,-31,33,127,0,0,2211,-82,0,6101,-248,193,536,1,0,28,0,513893,0
513910,130,-1998,449,-341,-209,-555,6499,-27,-20,-457,-160,35786,-30,33,127,0,0,2201,-87,0,6101,-248,193,546,1,0,28,0,513893,0
513920,126,-1970,503,-362,-188,-642,6474,-85,-45,-562,-288,35782,-23,33,127,0,0,2188,-120,0,6101,-248,193,556,1,0,28,0,513893,0
513930,146,-1954,484,-382,-198,-723,6398,-171,-125,-382,-256,35784,-25,33,127,0,0,2171,-137,0,6101,-248,193,566,1,0,28,0,513909,0
513940,198,-1956,500,-405,-210,-771,6320,-162,-100,-379,-256,35788,-12,33,127,0,0,2154,-175,0,6101,-248,193,576,1,0,28,0,514002,0
513950,292,-1944,487,-453,-226,-859,6252,-153,13,-419,-280,35792,-30,33,127,0,0,2133,-225,0,6101,-248,193,586,1,0,28,0,514002,0
513960,301,-1961,533,-467,-245,-868,6176,-190,-2,-463,-336,35782,-53,33,127,0,0,2111,-241,0,6101,-248,193,596,1,0,28,0,514002,0
513970,300,-1920,496,-484,-286,-942,6094,-183,-33,-472,-352,35772,-77,33,127,0,0,2095,-225,0,6101,-248,193,606,1,0,28,0,514018,0
513980,259,-1955,504,-512,-280,-983,5997,-219,-26,-398,-336,35769,-90,33,127,0,0,2072,-170,0,6101,-248,193,616,1,0,28,0,514018,0
513990,200,-1957,525,-536,-302,-1090,5906,-189,-21,-481,-400,35770,-79,33,127,0,0,2042,-296,0,6101,-248,193,626,1,0,28,0,514018,0
514000,198,-1977,517,-558,-285,-1173,5803,-235,-6,-510,-456,35778,-60,33,127,0,0,2013,-324,0,6101,-248,193,636,1,0,28,0,514018,0
514010,202,-1985,592,-579,-284,-1267,5698,-232,-28,-582,-544,35779,-33,33,127,0,0,1990,-280,0,6101,-248,193,646,1,0,28,0,514018,0
514020,258,-1916,539,-615,-303,-1341,5577,-278,-32,-541,-552,35781,-27,33,127,0,0,1954,-313,0,6101,-248,193,656,1,0,28,0,514018,0
514030,343,-1969,457,-685,-322,-1390,5454,-276,-39,-620,-600,35776,-19,33,127,0,0,1927,-258,0,6101,-248,193,666,1,0,28,0,514018,0
514040,383,-1926,465,-675,-350,-1414,5320,-295,-16,-585,-640,35778,-55,33,127,0,0,1887,-368,0,6101,-248,193,676,1,0,28,0,514018,0
514050,454,-1913,425,-709,-405,-1419,5176,-318,-35,-531,-640,35784,-68,33,127,0,0,1856,-324,0,6101,-248,193,686,1,0,28,0,514018,0
514060,426,-1928,389,-711,-439,-1426,5026,-338,-37,-538,-672,35800,-65,33,127,0,0,1821,-362,0,6101,-248,193,696,1,0,28,0,514049,0
514070,386,-1983,385,-745,-450,-1467,4873,-339,-11,-562,-696,35801,-33,33,127,0,0,1786,-362,0,6101,-248,193,706,1,0,28,0,514049,0
514080,366,-1966,416,-737,-439,-1511,4719,-342,-5,-531,-720,35789,-20,33,127,0,0,1756,-346,0,6101,-248,193,716,1,0,28,0,514065,0
514090,373,-1998,391,-755,-437,-1518,4562,-337,-19,-504,-768,35779,-35,33,127,0,0,1721,-346,0,6101,-248,193,726,1,0,28,0,514065,0
514100,442,-1995,401,-775,-429,-1502,4399,-349,-9,-513,-736,35787,-54,33,127,0,0,1689,-291,0,6101,-248,193,736,1,0,28,0,514081,0
514110,771,-2014,388,-841,-415,-1380,4238,-357,-3,-494,-728,35794,-51,33,127,0,0,1665,-274,0,6101,-248,193,746,1,0,28,0,514081,0
514120,816,-2162,457,-819,-641,-1134,4080,-357,3,-520,-576,35791,-32,33,127,0,0,1650,-76,0,6101,-248,193,756,1,0,28,0,514112,0
514130,602,-2155,462,-801,-740,-1031,3936,-297,36,-368,-376,35792,-35,33,127,0,0,1644,-126,0,6101,-248,193,766,1,0,28,0,514127,0
514140,595,-2110,523,-752,-715,-1042,3822,-217,80,-263,-168,35786,-36,33,127,0,0,1649,16,0,6101,-248,193,776,1,0,28,0,514127,0
514150,378,-2430,568,-754,-696,-1061,3761,-90,154,-90,-32,35785,-58,33,127,0,0,1641,-65,0,6101,-248,193,786,1,0,28,0,514127,0
514160,191,-2330,249,-794,-624,-1161,3760,11,223,-176,-24,35781,-72,33,127,0,0,1647,0,0,6101,-248,193,796,1,0,28,0,514159,0
514170,456,-2424,204,-898,-684,-1135,3770,34,132,18,96,35788,-80,33,127,0,0,1671,258,0,6101,-248,193,806,1,0,0,0,514159,0
514180,297,-2289,275,-836,-687,-1127,3815,120,86,358,280,35789,-65,33,127,0,0,1694,291,0,6101,-248,193,816,1,0,1,0,514159,0
514190,264,-2228,192,-1032,-736,-1127,3900,223,145,461,440,35787,-59,33,127,0,0,1731,362,0,6101,-248,193,826,1,0,1,0,514190,0
514200,240,-2256,247,-1036,-667,-1037,4026,296,156,488,576,35793,-47,33,127,0,0,1772,433,0,6101,-248,193,836,1,0,2,0,514190,0
514210,924,-2452,283,-1134,-706,-1365,4190,383,147,431,816,35790,-49,33,127,0,0,1823,543,0,6101,-248,193,846,1,0,3,0,514190,0
514220,278,-2318,373,-1173,-643,-1562,4378,424,120,426,864,35796,-42,33,127,0,0,1873,444,0,6101,-248,193,856,1,0,3,0,514190,0
514230,121,-2406,492,-1460,-675,-1224,4578,455,67,449,1032,35793,-21,33,127,0,0,1932,697,0,6101,-248,193,866,1,0,4,0,514221,0
514240,301,-2593,651,-1423,-576,-1498,4794,496,52,494,1224,35794,-8,33,127,0,0,1995,626,0,6101,-248,193,876,1,0,5,0,514221,0
514250,201,-2585,467,-1524,-663,-1975,5041,564,90,465,1288,35789,-19,33,127,0,0,2061,598,0,6101,-248,193,886,1,0,6,0,514221,0
514260,138,-2490,477,-1568,-722,-2192,5303,580,84,432,1320,35799,-32,33,127,0,0,2122,631,0,6101,-248,193,896,1,0,7,0,514252,0
514270,98,-2501,448,-1546,-697,-2329,5576,610,47,459,1488,35796,-43,33,127,0,0,2196,730,0,6101,-248,193,906,1,0,8,0,514252,0
514280,198,-2437,468,-1559,-768,-2483,5870,674,61,513,1640,35790,-43,33,127,0,0,2284,802,0,6101,-248,193,916,1,0,9,0,514252,0
514290,196,-2526,493,-1610,-867,-2597,6189,718,95,511,1720,35780,-39,33,127,0,0,2368,878,0,6101,-248,193,926,1,0,10,0,514268,0
514300,229,-2621,525,-1624,-849,-2690,6527,754,87,551,1872,35782,-35,33,127,0,0,2462,933,0,6101,-248,193,936,1,0,12,0,514377,0
514310,236,-2660,229,-1736,-758,-2587,6894,839,86,666,2128,35782,-24,33,127,0,0,2574,1153,0,6101,-248,193,946,1,0,13,0,514377,0
514320,182,-2509,96,-1782,-682,-2600,7311,964,146,757,2416,35779,-24,33,127,0,0,2692,1219,0,6101,-248,193,956,1,0,15,0,514377,0
514330,251,-2367,-42,-1771,-678,-2743,7784,1081,208,677,2688,35770,3,33,127,0,0,2828,1356,0,6101,-248,193,966,1,0,17,0,514377,0
514340,258,-2524,24,-1713,-818,-2796,8305,1194,206,690,3000,35765,-3,33,127,0,0,2972,1461,0,6101,-248,193,976,1,0,18,0,514377,0
514350,-139,-2778,354,-1512,-995,-2845,8884,1312,208,731,3448,35761,0,33,127,0,0,3144,1829,0,6101,-248,193,986,1,0,21,0,514393,0
514360,-145,-2997,352,-1524,-966,-2947,9547,1523,257,839,3960,35758,14,33,127,0,0,3327,1862,0,6101,-248,193,996,1,0,22,0,514393,0
514370,-277,-2913,683,-1623,-842,-3378,10304,1727,340,800,4336,35745,35,33,127,0,0,3501,1812,0,6101,-248,193,1006,1,0,25,0,514393,0
514380,19,-3005,561,-1766,-894,-3901,11131,1844,319,646,4480,35744,39,33,127,0,0,3668,1614,0,6101,-248,193,1016,1,0,27,0,514393,0
514390,-61,-3484,693,-1732,-1126,-4437,11974,1855,168,541,4384,35743,34,33,127,0,0,3821,1428,0,6101,-248,193,1026,1,0,30,0,514393,0
514400,159,-3552,812,-1700,-1422,-4734,12789,1774,-15,501,4312,35747,34,33,127,0,0,3961,1384,0,6101,-248,193,1036,1,0,33,0,514393,0
514410,206,-3527,999,-1677,-1762,-5204,13570,1697,-125,463,4112,35745,31,33,127,0,0,4086,1197,0,6101,-248,193,1046,1,0,36,0,514393,0
514420,160,-3505,1141,-1693,-1968,-5271,14313,1608,-135,398,3872,35754,20,33,127,0,0,4213,1274,0,6101,-248,193,1056,1,0,39,0,514393,0
514430,55,-3066,1201,-1704,-2369,-4911,15034,1565,-118,459,3752,35774,6,33,127,0,0,4343,1301,0,6101,-248,193,1066,1,0,42,0,514424,0
514440,-5,-2816,1132,-1663,-2690,-4437,15750,1578,-56,596,3880,35790,2,33,127,0,0,4503,1593,0,6101,-248,193,1076,1,0,45,0,514424,0
514450,-16,-2432,795,-1415,-3097,-3523,16491,1661,42,877,4216,35776,13,33,127,0,0,4681,1779,0,6101,-248,193,1086,1,0,50,0,514424,0
514460,117,-2024,605,-1144,-3237,-2862,17203,1771,153,1009,4624,35752,23,33,127,0,0,4869,1906,0,6101,-248,193,1096,1,0,53,0,514440,0
514470,140,-909,500,-456,-1662,-1734,18057,1925,229,963,5016,35744,60,33,127,0,0,5063,2005,0,6101,-248,193,1106,1,0,59,0,514456,0
514480,1056,-888,-514,-368,-135,-2623,18977,2039,256,481,4264,35749,71,33,127,0,0,5107,225,0,6101,-248,193,1116,1,0,62,0,514456,0
514490,451,-726,-115,128,1207,-2988,19806,1694,-89,-170,1912,35755,53,33,127,0,0,5002,-1170,0,6101,-248,193,1126,0,0,68,0,514487,0
514500,415,-935,286,640,1452,-2699,20317,790,-873,-2052,-952,35764,14,33,127,0,0,4818,-1895,0,6101,-248,193,1136,0,0,71,77,514502,0
514510,529,-1192,474,1021,1627,-1609,20098,-757,-2103,-1280,-2624,35768,-47,33,127,0,0,4610,-1988,0,6101,-248,193,1146,0,0,77,73,514502,0
514520,382,-1147,488,1093,1513,-677,19569,-1324,-1904,-1076,-3784,35770,-38,33,127,0,0,4398,-2109,0,6101,-248,193,1156,0,0,81,70,514502,0
514530,425,-1250,361,1281,1494,555,18839,-1700,-896,-824,-4320,35758,6,33,127,0,0,4220,-1790,0,6101,-248,193,1166,0,0,86,65,514518,0
514540,384,-1365,243,1489,1482,1286,18022,-1820,-510,-533,-4472,35754,42,33,127,0,0,4050,-1675,0,6101,-248,193,1176,0,0,90,61,514534,0
514550,405,-1438,152,1804,1539,2170,17176,-1861,-187,-389,-4432,35755,48,33,127,0,0,3893,-1571,0,6101,-248,193,1186,0,0,96,57,514534,0
514560,460,-1449,182,1972,1597,2732,16325,-1883,-50,-430,-4416,35759,29,33,127,0,0,3738,-1477,0,6101,-248,193,1196,0,0,100,53,514534,0
514570,591,-1439,233,2094,1632,3538,15469,-1871,-17,-330,-4320,35757,17,33,127,0,0,3587,-1505,0,6101,-248,193,1206,0,0,106,49,514549,0
514580,673,-1458,210,2118,1564,4087,14646,-1790,66,-396,-4128,35758,23,33,127,0,0,3446,-1406,0,6101,-248,193,1216,0,0,110,46,514565,0
514590,831,-1494,66,2132,1383,4873,13874,-1659,162,-363,-3880,35765,20,33,127,0,0,3325,-1181,0,6101,-248,193,1226,0,0,116,42,514565,0
514600,914,-1539,7,2183,1282,5349,13151,-1569,192,-357,-3728,35765,-2,33,127,0,0,3202,-1170,0,6101,-248,193,1236,0,0,121,39,514612,0
514610,918,-1629,2,2307,1098,6013,12452,-1532,132,-363,-3552,35775,-2,33,127,0,0,3084,-1170,0,6101,-248,193,1246,0,0,127,35,514612,0
514620,837,-1717,62,2423,925,6413,11776,-1467,84,-306,-3264,35775,-3,33,127,0,0,2984,-988,0,6101,-248,193,1256,0,0,131,33,514612,0
514630,757,-1884,143,2554,644,6927,11143,-1351,133,-244,-2784,35770,-14,33,127,0,0,2906,-697,0,6101,-248,193,1266,0,0,137,30,514612,0
514640,742,-2016,151,2635,520,7172,10582,-1172,229,-182,-2248,35767,-33,33,127,0,0,2845,-560,0,6101,-248,193,1276,0,0,142,28,514612,0
514650,752,-2192,120,2789,470,7437,10118,-951,326,-217,-1872,35776,-27,33,127,0,0,2794,-510,0,6101,-248,193,1286,0,0,148,26,514643,0
514660,716,-2242,75,2880,489,7563,9734,-801,334,-270,-1520,35789,-40,33,127,0,0,2747,-477,0,6101,-248,193,1296,0,0,152,24,514643,0
514670,1167,-3824,-623,2579,1624,7715,9410,-675,258,-290,-1240,35784,-26,33,127,0,0,2711,-357,0,6101,-248,193,1306,0,0,158,22,514659,0
514680,-612,-4662,-667,1647,3753,7729,9139,-554,210,-280,-824,35775,-52,33,127,0,0,2708,-32,0,6101,-248,193,1316,0,0,163,21,514659,0
514690,279,18,-390,2415,2021,6115,8938,-404,242,-315,-664,35770,-46,33,127,0,0,2668,-516,0,6101,-248,193,1326,0,0,169,19,514737,0
514700,1643,-1366,-784,1230,794,6770,8761,-405,162,-463,-864,35773,-27,33,127,0,0,2612,-532,0,6101,-248,193,1336,0,0,173,18,514737,0
514710,1466,-3050,541,1921,1296,7897,8564,-433,-14,-430,-696,35769,-11,33,127,0,0,2601,0,0,6101,-248,193,1346,0,0,179,17,514737,0
514720,456,-2640,176,2371,875,7801,8393,-346,16,-311,-328,35760,-24,33,127,0,0,2603,38,0,6101,-248,193,1356,0,0,183,17,514752,0
514730,467,-1996,612,2307,349,7395,8278,-200,174,-153,-104,35758,-52,33,127,0,0,2607,-43,0,6101,-248,193,1366,0,0,189,16,514752,0
514740,971,-1926,298,2249,-23,7311,8251,-4,278,-104,-48,35761,-63,33,127,0,0,2600,-71,0,6101,-248,193,1376,0,0,193,15,514752,0
514750,1099,-2173,48,2281,-256,7445,8256,-5,217,-246,-56,35768,-54,33,127,0,0,2607,16,0,6101,-248,193,1386,0,0,198,15,514752,0
514760,832,-2043,45,2438,-505,7470,8257,5,25,-151,-16,35766,-62,33,127,0,0,2611,65,0,6101,-248,193,1396,0,0,201,14,514752,0
514770,831,-1824,298,2623,-999,7379,8275,58,20,67,112,35770,-65,33,127,0,0,2629,181,0,6101,-248,193,1406,0,0,206,14,514752,0
514780,802,-1729,382,2630,-1349,7315,8332,134,110,269,240,35782,-60,33,127,0,0,2661,329,0,6101,-248,193,1416,0,0,209,14,514752,0
514790,893,-1670,197,2675,-1688,7081,8422,210,138,390,344,35790,-58,33,127,0,0,2692,313,0,6101,-248,193,1426,0,0,213,13,514768,0
514800,892,-1658,19,2749,-1760,6886,8537,270,107,327,344,35796,-56,33,127,0,0,2713,192,0,6101,-248,193,1436,0,0,216,13,514799,0
514810,718,-1675,-85,2863,-1703,6579,8661,251,64,281,240,35798,-79,33,127,0,0,2725,98,0,6101,-248,193,1446,0,0,220,13,514799,0
514820,642,-1765,-15,2899,-1567,6324,8766,219,-17,164,152,35783,-77,33,127,0,0,2738,115,0,6101,-248,193,1456,0,0,222,13,514799,0
514830,580,-1931,39,2834,-1213,5812,8830,122,-119,288,184,35770,-79,33,127,0,0,2756,153,0,6101,-248,193,1466,0,0,225,13,514799,0
514840,604,-2057,43,2678,-912,5365,8890,153,-87,329,208,35768,-58,33,127,0,0,2771,159,0,6101,-248,193,1476,0,0,227,12,514830,0
514850,767,-2275,-27,2326,-303,4593,8971,173,48,270,192,35779,-37,33,127,0,0,2790,208,0,6101,-248,193,1486,0,0,229,12,514830,0
514860,801,-2412,-73,2026,165,3948,9040,150,28,292,200,35782,-24,33,127,0,0,2805,181,0,6101,-248,193,1496,0,0,229,12,514830,0
514870,908,-2570,-110,1498,935,2767,9117,174,-2,329,256,35782,-16,33,127,0,0,2824,208,0,6101,-248,193,1506,0,0,229,12,514862,0
514880,1017,-2617,-102,1139,1522,1844,9209,199,44,316,264,35784,-18,33,127,0,0,2850,241,0,6101,-248,193,1516,0,0,229,12,514862,0
514890,1273,-2552,-152,551,2352,290,9306,218,32,322,280,35780,-39,33,127,0,0,2866,175,0,6101,-248,193,1526,0,0,229,12,514877,0
514900,1524,-2389,-161,149,2850,-829,9409,212,21,239,160,35785,-71,33,127,0,0,2871,38,0,6101,-248,193,1536,0,0,229,12,514877,0
514910,1782,-2185,-148,-371,3377,-2207,9476,121,-56,-6,0,35792,-80,33,127,0,0,2866,-21,0,6101,-248,193,1546,0,0,229,12,514909,0
514920,1899,-1984,-130,-627,3646,-3055,9470,-37,-199,-1,40,35798,-75,33,127,0,0,2868,-16,0,6101,-248,193,1556,0,0,229,12,514909,0
514930,2025,-1639,-148,-847,3828,-4243,9472,4,-126,-49,-32,35794,-59,33,127,0,0,2865,-27,0,6101,-248,193,1566,0,0,229,12,514909,0
514940,2082,-1899,-224,-953,3933,-4834,9461,-29,-7,-206,-160,35786,-54,33,127,0,0,2853,-126,0,6101,-248,193,1576,0,0,229,12,514940,0
514950,-346,-6523,2311,-684,4790,-3736,9435,-42,-61,109,640,35794,-47,33,127,0,0,2936,983,0,3066,411,194,6,1,1,229,12,514940,0
514960,210,-1154,2072,1106,3961,-4925,9623,614,365,1291,1928,35788,-41,33,127,0,0,2967,131,0,3066,411,194,16,1,1,229,12,514940,0
514970,-1313,-1332,-97,-787,780,-5103,9994,836,801,570,1912,35776,-22,33,127,0,0,2944,-192,0,3066,411,194,26,1,1,229,12,514940,0
514980,-497,-1745,14,-1481,669,-4744,10385,882,357,568,2264,35776,-34,33,127,0,0,2954,153,0,3066,411,194,36,1,1,229,12,514955,0
514990,-149,-1737,-924,-2267,457,-4443,10835,1041,138,714,2632,35779,-11,33,127,0,0,2980,214,0,3066,411,194,46,1,1,229,12,514987,0
515000,-17,-1954,-1123,-2088,171,-4280,11354,1182,250,757,3096,35785,-6,33,127,0,0,3036,571,0,3066,411,194,56,1,1,229,12,514987,0
515010,293,-1886,15,-1598,-55,-4499,11959,1390,295,794,3544,35774,14,33,127,0,0,3088,483,0,3066,411,194,66,1,1,229,12,514987,0
515020,381,-1878,380,-1517,-44,-4598,12623,1475,285,608,3512,35760,24,33,127,0,0,3091,60,0,3066,411,194,76,1,1,229,12,515002,0
515030,750,-1720,476,-1396,-46,-4297,13265,1383,81,357,2880,35767,25,33,127,0,0,3091,-16,0,3066,411,194,86,1,1,229,12,515002,0
515040,1122,-1573,209,-1185,189,-4078,13818,1125,-212,5,1752,35773,6,33,127,0,0,3086,-54,0,3066,411,194,96,1,1,229,12,515112,0
515050,1339,-1793,-8,-975,179,-4465,14239,832,-427,-149,440,35782,-23,33,127,0,0,3022,-719,0,3066,411,194,106,1,1,229,12,515112,0
515060,1397,-1951,-5,-887,-157,-4379,14389,-47,-744,-1773,-752,35785,-43,33,127,0,0,2935,-840,0,3066,411,194,116,1,1,229,12,515112,0
515070,623,-2356,409,-979,-552,-3767,14198,-498,-1237,-497,-248,35790,-36,33,127,0,0,2852,-845,600,3066,411,194,126,1,1,229,12,515112,0
515080,568,-2521,462,-1041,-688,-3025,14013,-353,-644,443,-8,35785,-34,33,127,0,0,2808,-357,800,3066,411,194,136,1,1,229,12,515112,0
515090,998,-2096,738,-708,-682,-2683,13862,-381,101,566,-120,35776,-49,33,127,0,0,2767,-373,1000,3066,411,194,146,1,1,229,12,515127,0
515100,707,-1627,187,-724,-876,-2833,13543,-858,-250,482,-1016,35768,-83,33,127,0,0,2714,-631,1200,3066,411,194,156,1,1,229,12,515127,0
515110,-185,-1466,-72,-523,118,-3396,13009,-1279,-760,602,-1696,35778,-92,33,127,0,0,2615,-1032,1400,3066,411,194,166,1,1,229,12,515127,0
515120,69,-1469,-297,-488,723,-3547,12378,-1405,-605,756,-1608,35784,-82,33,127,0,0,2494,-1175,1500,3066,411,194,176,1,1,229,12,515127,0
515130,889,-2062,181,-312,669,-3149,11786,-1232,-101,819,-936,35795,-91,33,127,0,0,2386,-1032,1500,3066,411,194,186,1,1,229,12,515127,0
515140,1053,-2316,547,-180,220,-2516,11344,-844,365,989,-64,35791,-107,33,127,0,0,2301,-752,1500,3066,411,194,196,1,1,229,12,515127,0
515150,816,-2399,587,-114,-445,-1525,11156,-217,768,1424,216,35795,-97,33,127,0,0,2262,-329,1500,3066,411,194,206,1,1,229,12,515127,0
515160,939,-2089,763,-59,-741,-1189,11093,-146,761,974,136,35803,-78,33,127,0,0,2247,-126,1500,3066,411,194,216,1,1,229,12,515127,0
515170,424,-1958,215,-97,-439,-1319,10971,-351,104,931,-48,35818,-72,33,127,0,0,2222,-280,1500,3066,411,194,226,1,1,229,12,515190,0
515180,7,-1855,169,13,-74,-1662,10717,-655,-382,755,-320,35822,-84,33,127,0,0,2177,-576,1500,3066,411,194,236,1,1,229,12,515205,0
515190,78,-1917,296,43,410,-2042,10356,-828,-468,743,-304,35814,-91,33,127,0,0,2103,-763,1500,3066,411,194,246,1,1,229,12,515205,0
515200,316,-2003,463,24,543,-1937,10015,-680,-169,1012,-48,35804,-94,33,127,0,0,2030,-752,1500,3066,411,194,256,1,1,229,12,515205,0
515210,924,-2030,572,-26,63,-1288,9840,-263,374,1262,144,35793,-93,33,127,0,0,1989,-401,1500,3066,411,194,266,1,1,229,12,515205,0
