state_time,accelx,accely,accelz,gyrox,gyroy,gyroz,mot_ang,mot_vel,mot_acc,mot_cur,mot_volt,batt_volt,batt_curr,temperature,status_mn,status_ex,status_re,ank_ang,ank_vel,ank_torque,peak_ank_torque,step_energy,step_count,step_time,gait_state,movement,speed,incline,sys_time,eventFlags
131646,147,-2076,143,-89,37,85,11914,3,3,-352,-104,35212,42,35,127,0,0,3351,27,0,18431,6603,65,6886,-4,0,16,0,131647,0
131657,140,-2075,134,-87,32,87,11913,-13,0,-405,-96,35218,43,35,127,0,0,3348,10,0,18431,6603,65,6897,-4,0,16,0,131647,0
131667,146,-2078,140,-88,29,91,11912,-6,-10,-400,-128,35222,47,35,127,0,0,3348,0,0,18431,6603,65,6907,-4,0,16,0,131647,0
131677,139,-2082,141,-82,32,104,11913,1,-1,-424,-152,35227,43,35,127,0,0,3344,-43,0,18431,6603,65,6917,-4,0,16,0,131647,0
131687,138,-2085,145,-86,31,97,11909,1,-4,-452,-176,35230,49,35,127,0,0,3346,10,0,18431,6603,65,6927,-4,0,16,0,131678,0
131697,156,-2078,148,-91,32,106,11906,-5,0,-437,-136,35218,59,35,127,0,0,3344,0,0,18431,6603,65,6937,-4,0,16,0,131678,0
131707,143,-2083,148,-96,27,108,11905,-6,4,-485,-120,35213,52,35,127,0,0,3344,10,0,18431,6603,65,6947,-4,0,16,0,131678,0
131717,151,-2080,139,-88,30,109,11901,-6,-5,-457,-128,35219,51,35,127,0,0,3344,21,0,18431,6603,65,6957,-4,0,16,0,131694,0
131727,142,-2084,141,-91,39,114,11896,-16,-2,-435,-152,35222,66,35,127,0,0,3342,0,0,18431,6603,65,6967,-4,0,16,0,131709,0
131737,140,-2079,144,-91,39,117,11882,-36,-21,-350,-88,35222,73,35,127,0,0,3342,0,0,18431,6603,65,6977,-4,0,16,0,131709,0
131747,140,-2076,142,-90,35,116,11865,-34,-22,-267,-80,35220,82,35,127,0,0,3344,21,0,18431,6603,65,6987,-4,0,16,0,131725,0
131757,166,-2076,141,-93,35,118,11863,0,35,-254,-40,35219,47,34,127,0,0,3344,32,0,18431,6603,65,6997,-4,0,16,0,131725,0
131767,144,-2081,137,-91,31,119,11862,-3,36,-231,-80,35227,31,35,127,0,0,3342,0,0,18431,6603,65,7007,-4,0,16,0,131741,0
131777,122,-2092,145,-90,33,123,11863,4,-1,-218,-48,35221,19,35,127,0,0,3344,0,0,18431,6603,65,7017,-4,0,16,0,131756,0
131787,125,-2083,151,-91,33,116,11864,-1,2,-227,-56,35218,3,35,127,0,0,3342,0,0,18431,6603,65,7027,-4,0,16,0,131772,0
131797,133,-2087,146,-90,40,126,11862,0,-5,-249,-48,35225,24,35,127,0,0,3344,21,0,18431,6603,65,7037,-4,0,16,0,131772,0
131807,129,-2085,153,-90,33,126,11863,1,1,-214,-48,35227,20,35,127,0,0,3344,0,0,18431,6603,65,7047,-4,0,16,0,131772,0
131817,139,-2091,143,-93,39,126,11862,-2,-2,-214,-48,35225,28,35,127,0,0,3344,10,0,18431,6603,65,7057,-4,0,16,0,131803,0
131827,146,-2085,143,-92,39,126,11862,0,3,-193,-48,35211,19,35,127,0,0,3344,0,0,18431,6603,65,7067,-4,0,16,0,131803,0
131837,132,-2079,137,-91,38,130,11862,-3,-3,-251,-40,35212,17,35,127,0,0,3344,32,0,18431,6603,65,7077,-4,0,16,0,131803,0
131847,132,-2073,144,-94,41,126,11862,-3,1,-213,-48,35227,2,35,127,0,0,3342,-21,0,18431,6603,65,7087,-4,0,16,0,131819,0
131857,123,-2090,140,-93,39,126,11862,0,4,-235,-48,35236,0,35,127,0,0,3344,0,0,18431,6603,65,7097,-4,0,16,0,131834,0
131867,130,-2076,140,-96,37,130,11863,3,-2,-209,-48,35233,-6,35,127,0,0,3344,0,0,18431,6603,65,7107,-4,0,16,0,131881,0
131877,131,-2080,150,-94,35,126,11862,9,3,-208,-48,35222,14,35,127,0,0,3344,-10,0,18431,6603,65,7117,-4,0,16,0,131881,0
131887,121,-2088,149,-94,35,126,11863,5,5,-222,-48,35215,24,35,127,0,0,3342,-10,0,18431,6603,65,7127,-4,0,16,0,131897,0
131897,128,-2088,141,-99,33,117,11862,1,1,-209,-48,35216,27,35,127,0,0,3346,21,0,18431,6603,65,7137,-4,0,16,0,131897,0
131907,119,-2088,142,-95,34,125,11863,0,1,-151,-48,35222,23,35,127,0,0,3344,-10,0,18431,6603,65,7147,-4,0,16,0,131897,0
131917,138,-2082,147,-102,37,123,11863,-1,-1,-155,-48,35219,11,35,127,0,0,3346,10,0,18431,6603,65,7157,-4,0,16,0,131928,0
131928,144,-2084,148,-106,36,122,11863,-2,-1,-98,-24,35219,-16,35,127,0,0,3343,-32,0,18431,6603,65,7168,-4,0,16,0,131928,0
131938,125,-2093,144,-106,36,116,11865,4,-3,-152,-32,35230,-13,35,127,0,0,3343,-27,0,18431,6603,65,7178,-4,0,16,0,131944,0
131948,115,-2085,140,-98,29,122,11865,-1,-4,-210,-56,35233,3,35,127,0,0,3344,0,0,18431,6603,65,7188,-4,0,16,0,131944,0
131958,135,-2091,135,-106,35,118,11863,0,1,-213,-24,35231,14,35,127,0,0,3343,5,0,18431,6603,65,7198,-4,0,16,0,131944,0
131968,150,-2080,137,-101,36,121,11862,-8,-1,-208,-48,35222,20,35,127,0,0,3350,65,0,18431,6603,65,7208,-4,0,16,0,131944,0
131978,161,-2077,143,-102,38,121,11864,-6,3,-127,-56,35227,9,35,127,0,0,3344,5,0,18431,6603,65,7218,-4,0,16,0,131944,0
131988,138,-2086,142,-99,38,121,11863,-4,0,-179,-48,35246,1,35,127,0,0,3344,-27,0,18431,6603,65,7228,-4,0,16,0,131975,0
131998,138,-2077,150,-105,30,123,11864,2,1,-216,-56,35250,-2,34,127,0,0,3340,-32,0,18431,6603,65,7238,-4,0,16,0,131975,0
132008,143,-2081,144,-107,32,121,11862,0,-2,-231,-48,35240,-9,34,127,0,0,3344,-10,0,18431,6603,65,7248,-4,0,16,0,131975,0
132018,120,-2078,137,-101,30,126,11863,0,3,-180,-48,35235,6,35,127,0,0,3344,-27,0,18431,6603,65,7258,-4,0,16,0,131991,0
132028,130,-2082,129,-100,33,122,11864,0,0,-177,-32,35230,19,34,127,0,0,3343,-5,0,18431,6603,65,7268,-4,0,16,0,132006,0
132038,111,-2087,146,-98,34,120,11863,0,-5,-210,-48,35231,27,35,127,0,0,3347,32,0,18431,6603,65,7278,-4,0,16,0,132006,0
132048,111,-2086,143,-103,38,123,11865,1,-1,-180,-8,35226,28,35,127,0,0,3342,21,0,18431,6603,65,7288,-4,0,16,0,132022,0
132058,144,-2080,143,-103,38,113,11863,-4,1,-215,-48,35222,28,35,127,0,0,3344,0,0,18431,6603,65,7298,-4,0,16,0,132053,0
132068,126,-2087,135,-102,44,117,11865,4,-5,-211,-56,35226,21,34,127,0,0,3344,0,0,18431,6603,65,7308,-4,0,16,0,132053,0
132078,137,-2085,132,-96,35,121,11863,0,-3,-216,-48,35230,20,35,127,0,0,3344,0,0,18431,6603,65,7318,-4,0,16,0,132053,0
132088,137,-2081,132,-104,47,116,11864,12,3,-155,-8,35225,24,35,127,0,0,3342,-32,0,18431,6603,65,7328,-4,0,16,0,132069,0
132098,153,-2081,132,-98,40,113,11864,2,-4,-144,-56,35238,28,35,127,0,0,3344,-27,0,18431,6603,65,7338,-4,0,16,0,132069,0
132108,129,-2087,132,-98,40,113,11863,1,-7,-175,-48,35237,30,35,127,0,0,3344,-16,0,18431,6603,65,7348,-4,0,16,0,132084,0
132118,124,-2084,140,-100,36,126,11862,-7,0,-214,-48,35233,35,35,127,0,0,3344,0,0,18431,6603,65,7358,-4,0,16,0,132100,0
132128,140,-2077,137,-99,40,129,11863,-1,-1,-216,-8,35227,34,34,127,0,0,3345,43,0,18431,6603,65,7368,-4,0,16,0,132100,0
132138,153,-2076,134,-101,37,122,11864,0,2,-134,-32,35221,29,34,127,0,0,3346,27,0,18431,6603,65,7378,-4,0,16,0,132131,0
132148,134,-2081,131,-98,41,125,11863,-1,-5,-185,-24,35236,22,35,127,0,0,3343,16,0,18431,6603,65,7388,-4,0,16,0,132131,0
132158,124,-2082,140,-97,41,125,11863,0,-3,-172,-48,35228,26,35,127,0,0,3344,-10,0,18431,6603,65,7398,-4,0,16,0,132131,0
132169,130,-2079,133,-95,41,132,11864,2,3,-178,-64,35231,19,35,127,0,0,3344,0,0,18431,6603,65,7409,-4,0,16,0,132147,0
132179,137,-2077,129,-92,45,124,11864,5,2,-137,-56,35235,20,35,127,0,0,3346,-10,0,18431,6603,65,7419,-4,0,16,0,132147,0
132189,160,-2078,132,-95,41,124,11863,-2,1,-158,-48,35236,3,35,127,0,0,3344,10,0,18431,6603,65,7429,-4,0,16,0,132162,0
132199,162,-2084,128,-93,46,120,11865,5,3,-184,-24,35241,6,35,127,0,0,3346,32,0,18431,6603,65,7439,-4,0,16,0,132194,0
132209,113,-2078,139,-90,39,132,11863,-6,1,-113,-56,35237,16,35,127,0,0,3344,-43,0,18431,6603,65,7449,-4,0,16,0,132194,0
132219,137,-2081,133,-88,42,131,11864,11,2,-126,-72,35231,10,35,127,0,0,3346,-21,0,18431,6603,65,7459,-4,0,16,0,132209,0
132229,126,-2081,130,-90,39,137,11864,0,-1,-145,-48,35225,11,35,127,0,0,3346,10,0,18431,6603,65,7469,-4,0,16,0,132209,0
132239,136,-2090,133,-91,39,139,11864,1,3,-104,-64,35215,1,35,127,0,0,3348,10,0,18431,6603,65,7479,-4,0,16,0,132209,0
132249,158,-2082,133,-85,34,135,11864,-4,4,-123,-64,35214,35,35,127,0,0,3346,21,0,18431,6603,65,7489,-4,0,16,0,132225,0
132259,146,-2080,129,-81,36,139,11865,2,0,-67,-40,35218,33,35,127,0,0,3346,-21,0,18431,6603,65,7499,-4,0,16,0,132256,0
132269,124,-2084,138,-83,36,140,11864,8,3,-81,-8,35219,35,35,127,0,0,3348,32,0,18431,6603,65,7509,-4,0,16,0,132272,0
132279,132,-2081,129,-81,45,140,11865,0,4,-43,-8,35225,13,35,127,0,0,3348,21,0,18431,6603,65,7519,-4,0,16,0,132272,0
132289,126,-2093,135,-79,42,141,11864,-10,-7,-26,-8,35229,7,35,127,0,0,3348,0,0,18431,6603,65,7529,-4,0,16,0,132272,0
132299,121,-2083,137,-78,38,140,11865,-1,2,-2,-8,35227,8,35,127,0,0,3350,21,0,18431,6603,65,7539,-4,0,16,0,132272,0
132309,134,-2079,131,-79,34,138,11865,-5,0,-5,-8,35223,21,35,127,0,0,3350,43,0,18431,6603,65,7549,-4,0,16,0,132272,0
132319,130,-2084,122,-74,32,141,11867,-4,0,47,56,35222,16,35,127,0,0,3348,0,0,18431,6603,65,7559,-4,0,16,0,132319,0
132329,110,-2080,145,-74,42,123,11868,0,-6,36,48,35221,20,35,127,0,0,3350,0,0,18431,6603,65,7569,-4,0,16,0,132319,0
132339,126,-2090,148,-74,46,124,11868,0,-11,55,32,35219,18,35,127,0,0,3350,21,0,18431,6603,65,7579,-4,0,16,0,132319,0
132349,107,-2084,147,-81,32,132,11868,-4,-6,84,40,35218,7,35,127,0,0,3353,10,0,18431,6603,65,7589,-4,0,16,0,132334,0
132359,131,-2083,137,-84,40,125,11869,-2,-2,82,40,35214,19,35,127,0,0,3355,21,0,18431,6603,65,7599,-4,0,16,0,132334,0
132369,137,-2082,140,-84,32,135,11870,-4,0,113,24,35226,8,35,127,0,0,3353,21,0,18431,6603,65,7609,-4,0,16,0,132350,0
132379,124,-2080,136,-83,34,126,11871,2,2,127,24,35227,-4,35,127,0,0,3353,0,0,18431,6603,65,7619,-4,0,16,0,132366,0
132389,135,-2080,142,-87,33,124,11871,-3,6,148,24,35229,-2,35,127,0,0,3350,-32,0,18431,6603,65,7629,-4,0,16,0,132366,0
132399,154,-2082,139,-85,40,124,11871,4,-2,126,24,35224,8,35,127,0,0,3355,21,0,18431,6603,65,7639,-4,0,16,0,132381,0
132410,152,-2078,131,-82,38,124,11873,-13,-6,134,72,35220,11,35,127,0,0,3354,49,0,18431,6603,65,7650,-4,0,16,0,132381,0
132420,153,-2080,139,-80,38,132,11873,-5,-3,172,72,35210,17,35,127,0,0,3357,54,0,18431,6603,65,7660,-4,0,16,0,132397,0
132430,144,-2078,143,-84,36,124,11875,0,-4,246,64,35208,29,35,127,0,0,3357,27,0,18431,6603,65,7670,-4,0,16,0,132412,0
132440,129,-2083,146,-86,39,126,11875,-3,0,265,40,35214,44,34,127,0,0,3355,-32,0,18431,6603,65,7680,-4,0,16,0,132412,0
132450,125,-2091,139,-90,40,128,11876,0,0,263,16,35216,31,34,127,0,0,3359,-21,0,18431,6603,65,7690,-4,0,16,0,132444,0
132460,110,-2087,137,-90,39,129,11876,0,7,253,64,35219,22,35,127,0,0,3357,5,0,18431,6603,65,7700,-4,0,16,0,132444,0
132470,131,-2084,143,-88,43,120,11878,5,-3,282,64,35213,17,35,127,0,0,3357,0,0,18431,6603,65,7710,-4,0,16,0,132444,0
132480,122,-2082,134,-89,38,124,11877,2,0,238,64,35214,16,35,127,0,0,3357,16,0,18431,6603,65,7720,-4,0,16,0,132475,0
132490,126,-2085,137,-88,38,119,11877,0,-3,273,64,35219,-3,35,127,0,0,3357,0,0,18431,6603,65,7730,-4,0,16,0,132475,0
132500,129,-2085,135,-91,41,122,11876,-8,-3,270,64,35222,-1,35,127,0,0,3357,0,0,18431,6603,65,7740,-4,0,16,0,132475,0
132510,126,-2085,128,-84,40,119,11877,3,0,301,64,35220,5,35,127,0,0,3360,16,0,18431,6603,65,7750,-4,0,16,0,132475,0
132520,124,-2076,133,-85,40,126,11877,-7,-1,293,64,35218,15,35,127,0,0,3360,38,0,18431,6603,65,7760,-4,0,16,0,132506,0
132530,125,-2079,128,-86,36,125,11878,2,-1,294,80,35225,47,34,127,0,0,3356,-10,0,18431,6603,65,7770,-4,0,16,0,132506,0
132540,143,-2089,133,-83,49,128,11879,1,-1,249,56,35229,41,34,127,0,0,3357,-5,0,18431,6603,65,7780,-4,0,16,0,132506,0
132550,115,-2086,144,-79,36,126,11878,5,-4,207,80,35229,43,35,127,0,0,3356,21,0,18431,6603,65,7790,-4,0,16,0,132553,0
132560,146,-2082,142,-87,34,125,11878,-7,0,285,56,35227,42,34,127,0,0,3357,-21,0,18431,6603,65,7800,-4,0,16,0,132553,0
132570,113,-2088,132,-82,36,131,11880,2,0,245,56,35219,36,34,127,0,0,3357,-5,0,18431,6603,65,7810,-4,0,16,0,132553,0
132580,120,-2085,128,-81,40,130,11880,-1,-2,224,80,35217,29,35,127,0,0,3359,38,0,18431,6603,65,7820,-4,0,16,0,132553,0
132590,122,-2081,137,-79,37,126,11880,1,0,315,80,35212,24,35,127,0,0,3359,5,0,18431,6603,65,7830,-4,0,16,0,132569,0
132600,126,-2092,145,-82,33,132,11881,5,1,335,96,35222,13,34,127,0,0,3358,5,0,18431,6603,65,7840,-4,0,16,0,132569,0
132610,115,-2094,141,-84,34,128,11883,13,1,333,96,35225,11,34,127,0,0,3358,-49,0,18431,6603,65,7850,-4,0,16,0,132662,0
132620,121,-2083,137,-82,34,126,11884,7,0,304,72,35231,17,35,127,0,0,3359,-16,0,18431,6603,65,7860,-4,0,16,0,132662,0
132630,139,-2082,142,-88,36,125,11884,-2,1,296,96,35223,35,35,127,0,0,3361,49,0,18431,6603,65,7870,-4,0,16,0,132662,0
132640,132,-2082,144,-82,36,142,11884,0,-4,337,96,35217,34,35,127,0,0,3358,-10,0,18431,6603,65,7880,-4,0,16,0,132678,0
132650,131,-2076,132,-81,38,137,11887,3,1,322,64,35216,39,35,127,0,0,3366,16,0,18431,6603,65,7890,-4,0,16,0,132678,0
132660,114,-2075,137,-86,42,139,11892,18,12,370,56,35211,34,35,127,0,0,3366,5,0,18431,6603,65,7900,-4,0,16,0,132678,0
132670,108,-2086,134,-81,35,142,11896,14,6,344,88,35212,31,35,127,0,0,3364,16,0,18431,6603,65,7910,-4,0,16,0,132678,0
132680,119,-2081,133,-81,36,141,11910,40,19,258,64,35213,18,35,127,0,0,3364,5,0,18431,6603,65,7920,-4,0,16,0,132678,0
132690,120,-2085,141,-78,28,144,11923,9,16,130,64,35217,33,35,127,0,0,3366,54,0,18431,6603,65,7930,-4,0,16,0,132678,0
132701,115,-2085,142,-79,41,133,11923,-5,-36,207,24,35222,38,35,127,0,0,3366,0,0,18431,6603,65,7941,-4,0,16,0,132678,0
132711,121,-2082,141,-79,40,139,11924,0,-22,249,48,35223,42,35,127,0,0,3366,-10,0,18431,6603,65,7951,-4,0,16,0,132678,0
132721,130,-2089,139,-81,33,135,11926,8,-2,257,32,35242,48,35,127,0,0,3368,10,0,18431,6603,65,7961,-4,0,16,0,132709,0
132731,125,-2087,142,-84,30,136,11927,-5,0,266,40,35241,58,35,127,0,0,3366,-21,0,18431,6603,65,7971,-4,0,16,0,132725,0
132741,116,-2083,134,-82,32,136,11928,4,0,261,64,35239,59,35,127,0,0,3368,10,0,18431,6603,65,7981,-4,0,16,0,132725,0
132751,120,-2088,136,-83,35,134,11930,2,4,252,72,35220,44,34,127,0,0,3370,10,0,18431,6603,65,7991,-4,0,16,0,132725,0
132761,123,-2089,142,-82,35,138,11931,7,0,295,64,35228,44,34,127,0,0,3370,0,0,18431,6603,65,8001,-4,0,16,0,132725,0
132771,116,-2089,136,-89,35,138,11933,7,4,282,64,35240,22,34,127,0,0,3368,-10,0,18431,6603,65,8011,-4,0,16,0,132756,0
132781,121,-2089,130,-88,32,136,11932,6,-3,301,56,35241,27,34,127,0,0,3372,21,0,18431,6603,65,8021,-4,0,16,0,132756,0
132791,116,-2083,121,-83,39,141,11932,0,1,338,88,35231,16,35,127,0,0,3370,10,0,18431,6603,65,8031,-4,0,16,0,132756,0
132801,135,-2082,137,-80,32,136,11933,0,-4,317,88,35215,33,35,127,0,0,3375,65,0,18431,6603,65,8041,-4,0,16,0,132803,0
132811,112,-2086,132,-74,35,144,11935,9,1,376,104,35218,46,35,127,0,0,3372,21,0,18431,6603,65,8051,-4,0,16,0,132803,0
132821,126,-2079,129,-76,26,138,11934,-3,3,324,88,35229,52,35,127,0,0,3370,32,0,18431,6603,65,8061,-4,0,16,0,132803,0
132831,123,-2079,134,-76,37,136,11935,5,-1,353,144,35236,54,35,127,0,0,3370,0,0,18431,6603,65,8071,-4,0,16,0,132803,0
132841,105,-2080,138,-76,37,136,11936,-3,6,343,104,35231,46,35,127,0,0,3372,32,0,18431,6603,65,8081,-4,0,16,0,132819,0
132851,122,-2077,136,-73,35,134,11936,-2,-2,425,96,35225,63,35,127,0,0,3372,-32,0,18431,6603,65,8091,-4,0,16,0,132819,0
132861,108,-2089,142,-77,36,134,11938,2,-1,398,136,35229,59,35,127,0,0,3375,0,0,18431,6603,65,8101,-4,0,16,0,132834,0
132871,106,-2083,143,-79,36,130,11939,7,2,390,96,35240,59,35,127,0,0,3375,10,0,18431,6603,65,8111,-4,0,16,0,132865,0
132881,121,-2092,146,-79,36,122,11939,6,6,413,96,35235,45,35,127,0,0,3377,32,0,18431,6603,65,8121,-4,0,16,0,132865,0
132891,118,-2085,141,-85,34,117,11940,2,0,430,88,35234,46,35,127,0,0,3372,-21,0,18431,6603,65,8131,-4,0,16,0,132865,0
132902,113,-2085,141,-86,36,113,11941,3,-6,377,96,35232,37,35,127,0,0,3372,-27,0,18431,6603,65,8142,-4,0,16,0,132865,0
132912,125,-2079,140,-86,36,107,11939,3,0,401,96,35243,63,35,127,0,0,3372,-21,0,18431,6603,65,8152,-4,0,16,0,132897,0
132922,104,-2090,141,-90,30,115,11941,10,3,429,144,35241,64,35,127,0,0,3373,-38,0,18431,6603,65,8162,-4,0,16,0,132897,0
132932,113,-2082,139,-91,33,115,11941,2,0,365,144,35234,59,35,127,0,0,3377,87,0,18431,6603,65,8172,-4,0,16,0,132897,0
132942,130,-2084,146,-87,36,109,11943,4,0,397,136,35239,64,35,127,0,0,3377,65,0,18431,6603,65,8182,-4,0,16,0,132928,0
132952,133,-2079,147,-93,34,114,11941,-7,4,392,120,35234,43,34,127,0,0,3375,38,0,18431,6603,65,8192,-4,0,16,0,132928,0
132962,108,-2084,142,-88,28,111,11943,0,-3,383,136,35238,63,35,127,0,0,3373,5,0,18431,6603,65,8202,-4,0,16,0,132944,0
132972,125,-2083,143,-93,30,108,11943,2,2,357,112,35229,63,35,127,0,0,3371,-10,0,18431,6603,65,8212,-4,0,16,0,132944,0
132982,111,-2082,133,-97,30,109,11944,0,1,350,88,35228,60,35,127,0,0,3372,-16,0,18431,6603,65,8222,-4,0,16,0,132990,0
132992,111,-2080,138,-97,33,106,11945,8,-3,332,112,35228,49,35,127,0,0,3371,5,0,18431,6603,65,8232,-4,0,16,0,132990,0
133002,110,-2080,138,-96,36,107,11944,6,1,360,88,35229,44,35,127,0,0,3372,-32,0,18431,6603,65,8242,-4,0,16,0,133006,0
133012,113,-2092,141,-94,34,109,11943,-4,2,356,88,35230,34,35,127,0,0,3376,10,0,18431,6603,65,8252,-4,0,16,0,133006,0
133022,128,-2088,147,-94,33,105,11943,-5,-1,356,88,35233,41,35,127,0,0,3372,5,0,18431,6603,65,8262,-4,0,16,0,133006,0
133032,115,-2086,144,-98,31,107,11944,1,-1,331,88,35232,29,35,127,0,0,3372,0,0,18431,6603,65,8272,-4,0,16,0,133006,0
133042,124,-2092,129,-98,33,110,11942,1,5,334,88,35230,24,35,127,0,0,3372,0,0,18431,6603,65,8282,-4,0,16,0,133022,0
133052,124,-2088,128,-95,27,111,11943,-3,-2,331,88,35234,57,35,127,0,0,3372,0,0,18431,6603,65,8292,-4,0,16,0,133053,0
133062,121,-2075,136,-98,38,112,11942,-2,0,355,88,35227,65,35,127,0,0,3372,-21,0,18431,6603,65,8302,-4,0,16,0,133053,0
133072,116,-2086,143,-96,34,115,11942,3,2,316,112,35228,67,35,127,0,0,3371,10,0,18431,6603,65,8312,-4,0,16,0,133053,0
133082,126,-2081,130,-101,35,108,11943,-3,-1,355,88,35225,37,35,127,0,0,3372,-21,0,18431,6603,65,8322,-4,0,16,0,133068,0
133092,112,-2090,129,-96,34,113,11943,1,3,334,88,35228,22,35,127,0,0,3372,0,0,18431,6603,65,8332,-4,0,16,0,133068,0
133102,126,-2072,135,-102,37,111,11944,2,2,344,88,35224,29,35,127,0,0,3372,-5,0,18431,6603,65,8342,-4,0,16,0,133084,0
133112,116,-2084,142,-100,36,115,11942,0,1,360,72,35227,37,35,127,0,0,3373,-49,0,18431,6603,65,8352,-4,0,16,0,133084,0
133122,130,-2077,146,-96,32,115,11943,-2,4,312,88,35233,38,35,127,0,0,3376,49,0,18431,6603,65,8362,-4,0,16,0,133084,0
133132,124,-2088,137,-91,38,114,11943,-1,0,347,88,35245,73,35,127,0,0,3372,10,0,18431,6603,65,8372,-4,0,16,0,133115,0
133142,105,-2085,131,-101,37,119,11943,6,-2,369,88,35237,74,35,127,0,0,3376,-10,0,18431,6603,65,8382,-4,0,16,0,133115,0
133153,116,-2070,130,-99,36,115,11942,1,6,374,80,35237,85,35,127,0,0,3372,-21,0,18431,6603,65,8393,-4,0,16,0,133115,0
133163,126,-2085,124,-94,31,114,11942,-3,2,322,136,35237,68,35,127,0,0,3375,32,0,18431,6603,65,8403,-4,0,16,0,133147,0
133173,117,-2082,137,-95,31,113,11943,1,-2,367,88,35239,65,35,127,0,0,3375,0,0,18431,6603,65,8413,-4,0,16,0,133147,0
133183,108,-2090,142,-93,37,117,11942,-11,0,309,104,35235,51,35,127,0,0,3372,32,0,18431,6603,65,8423,-4,0,16,0,133162,0
133193,108,-2079,137,-98,33,115,11942,3,-5,333,88,35222,29,35,127,0,0,3372,0,0,18431,6603,65,8433,-4,0,16,0,133178,0
133203,118,-2084,136,-96,37,110,11944,11,0,348,56,35225,24,35,127,0,0,3372,-21,0,18431,6603,65,8443,-4,0,16,0,133193,0
133213,126,-2084,130,-91,30,114,11944,7,-6,338,88,35227,33,35,127,0,0,3372,0,0,18431,6603,65,8453,-4,0,16,0,133193,0
133223,115,-2082,131,-90,35,115,11941,-7,-2,330,88,35229,36,35,127,0,0,3375,21,0,18431,6603,65,8463,-4,0,16,0,133193,0
133233,128,-2079,129,-91,34,114,11944,0,-1,354,88,35226,45,35,127,0,0,3372,0,0,18431,6603,65,8473,-4,0,16,0,133209,0
133243,124,-2087,126,-84,36,115,11942,-1,0,333,88,35234,44,35,127,0,0,3370,-21,0,18431,6603,65,8483,-4,0,16,0,133240,0
133253,112,-2081,126,-78,39,114,11944,6,-2,334,112,35238,46,35,127,0,0,3372,-10,0,18431,6603,65,8493,-4,0,16,0,133240,0
133263,110,-2085,124,-83,38,116,11942,-6,-2,331,88,35231,41,35,127,0,0,3372,0,0,18431,6603,65,8503,-4,0,16,0,133240,0
133273,134,-2086,116,-82,38,115,11942,-6,0,332,48,35220,42,35,127,0,0,3372,10,0,18431,6603,65,8513,-4,0,16,0,133240,0
133283,109,-2086,120,-68,43,117,11942,-1,2,351,88,35227,35,35,127,0,0,3372,-21,0,18431,6603,65,8523,-4,0,16,0,133256,0
133293,120,-2086,122,-65,45,116,11943,0,1,329,56,35233,29,35,127,0,0,3372,0,0,18431,6603,65,8533,-4,0,16,0,133272,0
133303,130,-2086,117,-57,44,119,11942,0,2,361,80,35239,40,35,127,0,0,3370,-54,0,18431,6603,65,8543,-4,0,16,0,133272,0
133313,106,-2094,113,-50,45,126,11944,12,2,320,128,35229,37,35,127,0,0,3375,21,0,18431,6603,65,8553,-4,0,16,0,133287,0
133323,106,-2080,105,-42,50,126,11942,-2,-2,341,104,35231,36,35,127,0,0,3372,-10,0,18431,6603,65,8563,-4,0,16,0,133318,0
133333,129,-2081,111,-30,50,123,11942,-4,3,329,88,35234,38,35,127,0,0,3372,0,0,18431,6603,65,8573,-4,0,16,0,133334,0
133343,139,-2081,116,-21,51,132,11942,-3,-2,331,88,35232,31,34,127,0,0,3372,0,0,18431,6603,65,8583,-4,0,16,0,133334,0
133353,134,-2083,123,-18,49,139,11943,0,0,347,80,35230,44,35,127,0,0,3372,-10,0,18431,6603,65,8593,-4,0,16,0,133334,0
133363,125,-2079,126,-6,52,146,11942,-4,-2,316,128,35218,48,34,127,0,0,3372,21,0,18431,6603,65,8603,-4,0,16,0,133350,0
133373,107,-2080,121,3,54,145,11942,-4,1,335,88,35219,54,34,127,0,0,3375,21,0,18431,6603,65,8613,-4,0,16,0,133365,0
133383,110,-2086,121,9,57,149,11944,1,2,381,144,35220,40,35,127,0,0,3377,10,0,18431,6603,65,8623,-4,0,16,0,133381,0
133393,114,-2092,140,7,58,151,11945,6,6,443,136,35220,58,35,127,0,0,3377,-10,0,18431,6603,65,8633,-4,0,16,0,133381,0
133403,113,-2097,154,10,54,151,11945,0,3,452,128,35218,59,35,127,0,0,3379,21,0,18431,6603,65,8643,-4,0,16,0,133381,0
133414,130,-2091,160,5,48,160,11945,-2,-4,473,136,35219,66,35,127,0,0,3377,5,0,18431,6603,65,8654,-4,0,16,0,133381,0
133424,123,-2092,162,1,41,160,11945,0,2,461,152,35228,44,35,127,0,0,3379,16,0,18431,6603,65,8664,-4,0,16,0,133397,0
133434,116,-2089,159,0,41,156,11947,0,-5,459,152,35235,35,35,127,0,0,3382,60,0,18431,6603,65,8674,-4,0,16,0,133428,0
133444,107,-2087,162,-10,43,159,11951,17,4,530,192,35236,35,35,127,0,0,3380,21,0,18431,6603,65,8684,-4,0,16,0,133428,0
133454,111,-2076,159,-12,33,153,11966,42,29,480,168,35229,28,35,127,0,0,3380,-10,0,18431,6603,65,8694,-4,0,16,0,133428,0
133464,109,-2075,151,-17,40,154,11998,76,53,326,104,35223,32,35,127,0,0,3383,-54,0,18431,6603,65,8704,-4,0,16,0,133428,0
133474,118,-2079,160,-18,37,147,12005,2,-15,340,104,35223,18,35,127,0,0,3385,0,0,18431,6603,65,8714,-4,0,16,0,133459,0
133484,98,-2076,161,-29,36,137,12004,-4,-69,378,80,35223,20,35,127,0,0,3387,-32,0,18431,6603,65,8724,-4,0,16,0,133475,0
133494,107,-2081,163,-29,40,134,12005,4,-8,396,104,35224,12,35,127,0,0,3385,-43,0,18431,6603,65,8734,-4,0,16,0,133475,0
133504,109,-2087,165,-36,32,137,12006,2,2,394,104,35218,14,35,127,0,0,3389,0,0,18431,6603,65,8744,-4,0,16,0,133475,0
133514,104,-2079,153,-36,29,133,12005,0,2,421,120,35222,7,35,127,0,0,3388,0,0,18431,6603,65,8754,-4,0,16,0,133490,0
133524,96,-2089,147,-37,33,126,12007,4,1,400,120,35220,7,35,127,0,0,3388,27,0,18431,6603,65,8764,-4,0,16,0,133506,0
133534,110,-2081,153,-35,38,123,12007,-3,-1,433,104,35218,9,35,127,0,0,3389,-21,0,18431,6603,65,8774,-4,0,16,0,133506,0
133544,104,-2089,157,-41,36,124,12010,11,4,464,136,35226,16,35,127,0,0,3387,-49,0,18431,6603,65,8784,-4,0,16,0,133522,0
133554,126,-2088,166,-48,35,122,12014,3,7,356,112,35225,16,35,127,0,0,3388,0,0,18431,6603,65,8794,-4,0,16,0,133537,0
133564,119,-2097,150,-54,30,128,12015,1,-5,411,152,35227,16,35,127,0,0,3389,21,0,18431,6603,65,8804,-4,0,16,0,133537,0
133574,126,-2089,153,-47,32,128,12021,18,8,347,120,35228,14,35,127,0,0,3387,-10,0,18431,6603,65,8814,-4,0,16,0,133568,0
133584,121,-2086,159,-49,31,128,12036,46,29,292,88,35222,18,35,127,0,0,3390,-32,0,18431,6603,65,8824,-4,0,16,0,133568,0
133594,129,-2082,156,-57,25,144,12054,34,23,227,48,35223,16,35,127,0,0,3387,-32,0,18431,6603,65,8834,-4,0,16,0,133568,0
133604,137,-2078,158,-54,30,136,12057,4,-29,263,88,35218,19,35,127,0,0,3394,-32,0,18431,6603,65,8844,-4,0,16,0,133568,0
133614,106,-2080,153,-51,46,136,12058,0,-31,262,88,35218,28,35,127,0,0,3394,60,0,18431,6603,65,8854,-4,0,16,0,133600,0
133624,126,-2081,146,-51,39,141,12058,7,1,294,88,35219,27,35,127,0,0,3394,27,0,18431,6603,65,8864,-4,0,16,0,133600,0
133634,128,-2073,148,-44,42,151,12060,6,7,293,80,35219,28,35,127,0,0,3394,27,0,18431,6603,65,8874,-4,0,16,0,133615,0
133644,122,-2076,152,-45,41,159,12060,6,4,338,80,35228,-2,35,127,0,0,3394,-43,0,18431,6603,65,8884,-4,0,16,0,133615,0
133655,115,-2086,153,-45,40,163,12060,-1,-5,329,72,35224,-3,35,127,0,0,3396,21,0,18431,6603,65,8895,-4,0,16,0,133631,0
133665,121,-2075,168,-46,41,161,12060,-1,-1,367,72,35220,-1,35,127,0,0,3399,32,0,18431,6603,65,8905,-4,0,16,0,133646,0
133675,117,-2080,160,-49,35,173,12063,13,-1,425,144,35226,-7,35,127,0,0,3399,-10,0,18431,6603,65,8915,-4,0,16,0,133662,0
133685,117,-2077,162,-55,33,178,12068,0,8,383,112,35225,-6,35,127,0,0,3399,10,0,18431,6603,65,8925,-4,0,16,0,133662,0
133695,101,-2088,164,-51,31,174,12069,7,-5,419,144,35228,-9,35,127,0,0,3401,10,0,18431,6603,65,8935,-4,0,16,0,133662,0
133705,90,-2086,165,-59,38,166,12071,9,4,458,160,35219,3,35,127,0,0,3405,43,0,18431,6603,65,8945,-4,0,16,0,133803,0
133715,101,-2086,167,-57,34,161,12082,38,21,504,152,35221,18,35,127,0,0,3407,21,0,18431,6603,65,8955,-4,0,16,0,133803,0
133725,95,-2093,173,-73,34,163,12108,67,51,361,96,35224,13,35,127,0,0,3405,10,0,18431,6603,65,8965,-4,0,16,0,133803,0
133735,115,-2088,174,-80,24,159,12122,6,1,309,104,35226,2,35,127,0,0,3407,21,0,18431,6603,65,8975,-4,0,16,0,133818,0
133745,92,-2083,161,-78,43,145,12123,3,-56,412,80,35225,-8,35,127,0,0,3410,-10,0,18431,6603,65,8985,-4,0,16,0,133818,0
133755,93,-2079,168,-79,36,141,12121,-1,-20,424,120,35222,-16,35,127,0,0,3410,-10,0,18431,6603,65,8995,-4,0,16,0,133834,0
133765,100,-2078,171,-84,33,144,12122,-1,-5,409,112,35222,-18,35,127,0,0,3407,-10,0,18431,6603,65,9005,-4,0,16,0,133834,0
133775,106,-2076,162,-88,34,135,12124,6,4,421,96,35224,-12,35,127,0,0,3410,-10,0,18431,6603,65,9015,-4,0,16,0,133834,0
133785,88,-2087,169,-96,40,130,12124,2,1,389,112,35219,-7,35,127,0,0,3407,-10,0,18431,6603,65,9025,-4,0,16,0,133834,0
133795,105,-2089,175,-98,39,119,12125,3,2,396,112,35219,-9,35,127,0,0,3410,0,0,18431,6603,65,9035,-4,0,16,0,133834,0
133805,97,-2090,167,-111,39,122,12123,-2,0,395,144,35221,-8,35,127,0,0,3410,10,0,18431,6603,65,9045,-4,0,16,0,133834,0
133815,109,-2084,166,-110,35,118,12125,4,2,460,128,35225,-5,35,127,0,0,3412,0,0,18431,6603,65,9055,-4,0,16,0,133834,0
133825,90,-2087,161,-111,32,119,12127,7,-4,483,96,35223,-5,35,127,0,0,3410,-32,0,18431,6603,65,9065,-4,0,16,0,133834,0
133835,98,-2084,163,-117,36,114,12126,-2,-5,396,136,35220,-1,35,127,0,0,3412,32,0,18431,6603,65,9075,-4,0,16,0,133834,0
133845,100,-2085,154,-118,34,106,12127,5,-6,440,96,35224,-3,35,127,0,0,3410,0,0,18431,6603,65,9085,-4,0,16,0,133834,0
133855,104,-2076,158,-120,36,110,12127,1,-5,433,128,35236,-9,35,127,0,0,3410,0,0,18431,6603,65,9095,-4,0,16,0,133834,0
133865,91,-2086,163,-120,34,113,12127,4,0,420,72,35250,-4,35,127,0,0,3412,0,0,18431,6603,65,9105,-4,0,16,0,133834,0
133875,95,-2083,166,-122,30,119,12126,-9,-4,404,104,35264,8,35,127,0,0,3410,21,0,18431,6603,65,9115,-4,0,16,0,133865,0
133885,106,-2075,166,-128,32,106,12127,3,1,389,104,35259,13,35,127,0,0,3410,0,0,18431,6603,65,9125,-4,0,16,0,133896,0
133895,101,-2084,160,-133,23,111,12125,0,-2,375,112,35250,9,35,127,0,0,3407,-10,0,18431,6603,65,9135,-4,0,16,0,133896,0
133905,89,-2089,160,-133,23,118,12126,5,1,363,72,35230,-5,35,127,0,0,3407,-21,0,18431,6603,65,9145,-4,0,16,0,133896,0
133916,91,-2079,160,-132,19,114,12126,3,3,350,88,35224,0,35,127,0,0,3407,-16,0,18431,6603,65,9156,-4,0,16,0,133912,0
133926,96,-2084,153,-128,24,111,12127,3,1,379,80,35225,0,35,127,0,0,3407,-49,0,18431,6603,65,9166,-4,0,16,0,133912,0
133936,102,-2081,149,-136,26,108,12126,5,2,362,104,35227,-11,35,127,0,0,3410,16,0,18431,6603,65,9176,-4,0,16,0,133912,0
133946,107,-2085,143,-128,26,108,12127,0,-2,391,128,35232,-8,35,127,0,0,3405,-27,0,18431,6603,65,9186,-4,0,16,0,133928,0
133956,130,-2079,137,-127,25,107,12126,0,-3,369,104,35245,-11,35,127,0,0,3406,-38,0,18431,6603,65,9196,-4,0,16,0,133928,0
133966,118,-2084,140,-121,27,112,12125,-5,-1,349,112,35249,-3,35,127,0,0,3410,10,0,18431,6603,65,9206,-4,0,16,0,133943,0
133976,133,-2078,144,-122,23,122,12127,0,-4,375,104,35251,6,34,127,0,0,3406,-5,0,18431,6603,65,9216,-4,0,16,0,133975,0
133986,103,-2081,146,-117,27,125,12127,10,0,363,104,35241,5,34,127,0,0,3406,-16,0,18431,6603,65,9226,-4,0,16,0,133975,0
133996,110,-2085,148,-110,28,126,12126,-3,-3,344,88,35237,7,35,127,0,0,3407,-16,0,18431,6603,65,9236,-4,0,16,0,133975,0
134006,123,-2084,145,-112,31,135,12124,-7,2,376,112,35235,14,35,127,0,0,3413,21,0,18431,6603,65,9246,-4,0,16,0,133990,0
134016,112,-2081,142,-104,29,139,12125,-9,0,383,88,35233,2,35,127,0,0,3411,27,0,18431,6603,65,9256,-4,0,16,0,133990,0
134026,126,-2075,137,-108,31,141,12127,2,-1,391,128,35239,-3,35,127,0,0,3412,49,0,18431,6603,65,9266,-4,0,16,0,133990,0
134036,114,-2081,138,-94,32,142,12127,-1,-3,440,104,35249,9,35,127,0,0,3413,21,0,18431,6603,65,9276,-4,0,16,0,134021,0
134046,106,-2086,136,-97,38,149,12127,0,-5,443,128,35242,25,35,127,0,0,3409,-16,0,18431,6603,65,9286,-4,0,16,0,134021,0
134056,119,-2083,141,-93,27,157,12127,-4,-2,418,128,35232,30,35,127,0,0,3412,5,0,18431,6603,65,9296,-4,0,16,0,134037,0
134066,114,-2089,144,-91,25,156,12127,-1,1,470,152,35231,6,35,127,0,0,3411,-10,0,18431,6603,65,9306,-4,0,16,0,134037,0
134076,102,-2089,144,-88,31,155,12128,5,4,460,144,35238,-14,35,127,0,0,3417,43,0,18431,6603,65,9316,-4,0,16,0,134131,0
134086,99,-2084,148,-89,26,156,12132,7,12,543,160,35239,2,35,127,0,0,3416,5,0,18431,6603,65,9326,-4,0,16,0,134131,0
134096,106,-2085,144,-82,30,160,12137,9,7,525,152,35244,15,35,127,0,0,3416,16,0,18431,6603,65,9336,-4,0,16,0,134146,0
134106,93,-2084,145,-86,18,159,12138,-2,-5,522,168,35240,21,35,127,0,0,3422,65,0,18431,6603,65,9346,-4,0,16,0,134146,0
134116,82,-2084,142,-83,29,153,12152,45,16,537,168,35243,7,35,127,0,0,3424,65,0,18431,6603,65,9356,-4,0,16,0,134146,0
134126,93,-2081,148,-84,35,150,12184,79,61,372,80,35239,0,35,127,0,0,3422,-27,0,18431,6603,65,9366,-4,0,16,0,134146,0
134136,119,-2090,154,-78,26,149,12193,-9,-7,279,80,35235,16,35,127,0,0,3427,109,0,18431,6603,65,9376,-4,0,16,0,134146,0
134146,101,-2079,149,-82,32,137,12195,-2,-75,374,128,35228,29,35,127,0,0,3425,87,0,18431,6603,65,9386,-4,0,16,0,134146,0
134156,94,-2087,142,-80,40,139,12195,0,-11,408,128,35223,33,35,127,0,0,3425,0,0,18431,6603,65,9396,-4,0,16,0,134146,0
134166,105,-2085,152,-79,34,139,12195,-6,2,412,128,35217,22,35,127,0,0,3425,0,0,18431,6603,65,9406,-4,0,16,0,134146,0
134177,99,-2076,152,-81,38,133,12198,7,-2,427,104,35218,20,35,127,0,0,3427,21,0,18431,6603,65,9417,-4,0,16,0,134162,0
134187,98,-2084,146,-82,34,135,12203,18,13,442,96,35232,11,35,127,0,0,3425,-32,0,18431,6603,65,9427,-4,0,16,0,134162,0
134197,78,-2080,144,-83,43,134,12220,44,23,356,96,35244,21,35,127,0,0,3427,-21,0,18431,6603,65,9437,-4,0,16,0,134178,0
134207,106,-2087,153,-80,40,132,12242,29,33,216,56,35247,33,35,127,0,0,3427,10,0,18431,6603,65,9447,-4,0,16,0,134193,0
134217,86,-2091,147,-82,40,133,12242,1,-32,236,56,35238,36,35,127,0,0,3427,10,0,18431,6603,65,9457,-4,0,16,0,134193,0
134227,96,-2088,141,-79,40,124,12241,-5,-39,233,56,35235,17,35,127,0,0,3427,0,0,18431,6603,65,9467,-4,0,16,0,134193,0
134237,89,-2082,146,-80,45,122,12241,-3,5,247,88,35234,7,35,127,0,0,3429,10,0,18431,6603,65,9477,-4,0,16,0,134224,0
134247,96,-2083,149,-83,44,118,12242,1,2,295,88,35236,21,35,127,0,0,3427,-10,0,18431,6603,65,9487,-4,0,16,0,134224,0
134257,92,-2088,151,-78,41,112,12241,-3,0,260,40,35234,24,35,127,0,0,3429,21,0,18431,6603,65,9497,-4,0,16,0,134224,0
134267,91,-2082,154,-83,41,119,12241,-6,-2,261,88,35228,30,35,127,0,0,3429,21,0,18431,6603,65,9507,-4,0,16,0,134240,0
134277,97,-2078,165,-87,41,118,12240,-1,0,272,8,35236,26,35,127,0,0,3427,0,0,18431,6603,65,9517,-4,0,16,0,134240,0
134287,100,-2080,162,-91,32,117,12242,4,-1,237,56,35245,18,35,127,0,0,3429,32,0,18431,6603,65,9527,-4,0,16,0,134287,0
134297,91,-2083,157,-92,36,109,12241,0,1,285,88,35246,21,35,127,0,0,3429,10,0,18431,6603,65,9537,-4,0,16,0,134287,0
134307,107,-2079,154,-99,40,107,12241,-7,4,293,80,35234,23,35,127,0,0,3429,21,0,18431,6603,65,9547,-4,0,16,0,134287,0
134317,82,-2082,151,-97,32,105,12242,3,-3,325,80,35227,26,35,127,0,0,3429,0,0,18431,6603,65,9557,-4,0,16,0,134303,0
134327,83,-2083,154,-103,29,103,12240,-7,-5,289,88,35226,18,35,127,0,0,3429,10,0,18431,6603,65,9567,-4,0,16,0,134303,0
134337,90,-2073,150,-102,32,95,12242,-2,-3,266,88,35232,10,35,127,0,0,3429,32,0,18431,6603,65,9577,-4,0,16,0,134318,0
134347,109,-2086,147,-103,29,90,12242,-2,-1,269,96,35229,24,35,127,0,0,3427,0,0,18431,6603,65,9587,-4,0,16,0,134318,0
134357,102,-2081,146,-110,31,85,12242,2,2,221,16,35226,32,35,127,0,0,3427,-10,0,18431,6603,65,9597,-4,0,16,0,134334,0
134367,92,-2086,149,-109,31,89,12242,3,1,244,80,35228,38,34,127,0,0,3429,21,0,18431,6603,65,9607,-4,0,16,0,134349,0
134377,95,-2083,148,-106,35,85,12240,-2,-6,263,56,35225,21,34,127,0,0,3429,10,0,18431,6603,65,9617,-4,0,16,0,134349,0
134387,87,-2086,146,-111,34,76,12240,-13,0,232,56,35231,9,35,127,0,0,3425,-10,0,18431,6603,65,9627,-4,0,16,0,134365,0
134397,89,-2088,153,-111,37,78,12240,0,-1,231,56,35241,27,35,127,0,0,3425,-54,0,18431,6603,65,9637,-4,0,16,0,134365,0
134408,96,-2083,152,-112,33,77,12239,3,5,177,32,35232,30,34,127,0,0,3425,-16,0,18431,6603,65,9648,-4,0,16,0,134381,0
134418,108,-2082,140,-111,31,71,12240,0,0,117,32,35231,56,35,127,0,0,3422,0,0,18431,6603,65,9658,-4,0,16,0,134428,0
134428,114,-2087,140,-106,29,75,12240,0,-2,106,16,35224,45,35,127,0,0,3423,-32,0,18431,6603,65,9668,-4,0,16,0,134443,0
134438,114,-2079,132,-104,35,75,12239,-9,-3,69,16,35222,38,35,127,0,0,3423,21,0,18431,6603,65,9678,-4,0,16,0,134443,0
134448,110,-2085,128,-94,33,77,12239,1,1,47,-8,35226,38,35,127,0,0,3417,-43,0,18431,6603,65,9688,-4,0,16,0,134474,0
134458,125,-2088,125,-87,43,78,12235,-9,-5,-74,-24,35219,24,35,127,0,0,3418,10,0,18431,6603,65,9698,-4,0,16,0,134474,0
134468,126,-2080,128,-85,44,86,12236,4,2,-62,-24,35222,14,35,127,0,0,3415,-32,0,18431,6603,65,9708,-4,0,16,0,134490,0
134478,123,-2090,138,-81,47,100,12235,-4,3,-119,-64,35217,10,35,127,0,0,3417,-38,0,18431,6603,65,9718,-4,0,16,0,134490,0
134488,133,-2091,144,-75,41,108,12234,0,2,-97,0,35220,10,35,127,0,0,3414,-21,0,18431,6603,65,9728,-4,0,16,0,134490,0
134498,113,-2102,138,-71,42,129,12233,-2,3,-158,-64,35230,14,35,127,0,0,3421,16,0,18431,6603,65,9738,-4,0,16,0,134490,0
134508,107,-2088,133,-68,36,135,12232,0,0,-146,-16,35232,16,35,127,0,0,3412,21,0,18431,6603,65,9748,-4,0,16,0,134490,0
134518,113,-2075,136,-67,44,124,12231,-8,-3,-190,-56,35229,35,34,127,0,0,3414,-21,0,18431,6603,65,9758,-4,0,16,0,134490,0
134528,103,-2081,136,-60,46,129,12232,8,2,-139,-40,35227,29,35,127,0,0,3420,-5,0,18431,6603,65,9768,-4,0,16,0,134506,0
134538,145,-2075,138,-64,41,142,12232,-5,5,-110,-40,35234,50,35,127,0,0,3420,38,0,18431,6603,65,9778,-4,0,16,0,134506,0
134548,109,-2079,129,-52,48,134,12234,8,2,-25,-24,35236,29,35,127,0,0,3418,0,0,18431,6603,65,9788,-4,0,16,0,134553,0
134558,98,-2087,137,-47,48,141,12231,0,-1,-105,-40,35229,37,35,127,0,0,3423,65,0,18431,6603,65,9798,-4,0,16,0,134553,0
134568,84,-2083,137,-40,50,138,12230,-5,-5,-85,-16,35225,25,35,127,0,0,3418,43,0,18431,6603,65,9808,-4,0,16,0,134553,0
134578,136,-2086,142,-45,51,128,12232,-3,-2,-27,-16,35220,9,35,127,0,0,3418,0,0,18431,6603,65,9818,-4,0,16,0,134553,0
134588,113,-2081,152,-48,49,134,12233,0,-5,3,-16,35218,19,35,127,0,0,3418,-21,0,18431,6603,65,9828,-4,0,16,0,134553,0
134598,89,-2086,166,-46,45,142,12234,5,1,1,-24,35227,19,35,127,0,0,3418,-54,0,18431,6603,65,9838,-4,0,16,0,134584,0
134608,102,-2083,167,-48,42,140,12233,1,1,-14,0,35228,12,35,127,0,0,3421,5,0,18431,6603,65,9848,-4,0,16,0,134584,0
134618,94,-2091,167,-55,40,142,12234,4,1,53,0,35231,13,35,127,0,0,3424,0,0,18431,6603,65,9858,-4,0,16,0,134584,0
134628,82,-2088,155,-52,42,140,12234,-5,-2,34,24,35228,4,35,127,0,0,3416,-16,0,18431,6603,65,9868,-4,0,16,0,134615,0
134638,79,-2086,144,-59,43,125,12235,5,-2,-18,24,35228,6,35,127,0,0,3416,-32,0,18431,6603,65,9878,-4,0,16,0,134615,0
134648,111,-2074,143,-57,45,121,12235,6,4,23,24,35230,11,35,127,0,0,3420,-21,0,18431,6603,65,9888,-4,0,16,0,134631,0
134659,79,-2087,146,-52,39,116,12234,-2,-4,-11,16,35225,5,35,127,0,0,3421,10,0,18431,6603,65,9899,-4,0,16,0,134631,0
134669,98,-2088,154,-54,47,112,12234,-1,-3,9,32,35228,16,35,127,0,0,3425,43,0,18431,6603,65,9909,-4,0,16,0,134646,0
134679,100,-2091,158,-57,41,115,12235,-3,1,63,0,35230,34,35,127,0,0,3421,0,0,18431,6603,65,9919,-4,0,16,0,134646,0
134689,104,-2088,173,-64,34,115,12237,6,1,33,-8,35232,36,35,127,0,0,3418,-32,0,18431,6603,65,9929,-4,0,16,0,134677,0
134699,118,-2088,184,-72,35,113,12236,0,1,35,0,35239,42,35,127,0,0,3421,-21,0,18431,6603,65,9939,-4,0,16,0,134677,0
134709,97,-2080,165,-80,40,115,12235,-3,2,3,0,35233,30,35,127,0,0,3418,-21,0,18431,6603,65,9949,-4,0,16,0,134677,0
134719,95,-2082,165,-84,30,110,12234,-6,-3,-22,16,35231,22,35,127,0,0,3418,0,0,18431,6603,65,9959,-4,0,16,0,134693,0
134729,83,-2077,154,-85,34,96,12234,1,-7,0,32,35228,25,35,127,0,0,3418,-10,0,18431,6603,65,9969,-4,0,16,0,134693,0
134739,76,-2080,150,-88,41,85,12234,-4,0,-47,-24,35228,26,35,127,0,0,3421,32,0,18431,6603,65,9979,-4,0,16,0,134724,0
134749,98,-2076,149,-92,38,89,12234,2,-2,-13,-24,35241,31,35,127,0,0,3423,32,0,18431,6603,65,9989,-4,0,16,0,134724,0
134759,59,-2085,156,-86,39,90,12234,4,2,-27,-24,35226,28,35,127,0,0,3416,-21,0,18431,6603,65,9999,-4,0,16,0,134724,0
134769,87,-2084,154,-91,30,79,12234,0,4,-69,-56,35232,53,34,127,0,0,3418,10,0,18431,6603,65,10009,-4,0,16,0,134756,0
134779,93,-2089,161,-96,32,78,12232,-2,0,-63,-8,35232,48,34,127,0,0,3418,10,0,18431,6603,65,10019,-4,0,16,0,134756,0
134789,100,-2095,171,-97,26,68,12233,0,0,-76,-40,35231,49,35,127,0,0,3414,-54,0,18431,6603,65,10029,-4,0,16,0,134756,0
134799,98,-2084,169,-106,34,58,12233,6,-2,-193,-72,35233,28,34,127,0,0,3412,-54,0,18431,6603,65,10039,-4,0,16,0,134849,0
134809,93,-2089,167,-108,38,43,12230,-4,-3,-241,-56,35230,47,35,127,0,0,3412,-21,0,18431,6603,65,10049,-4,0,16,0,134865,0
134819,91,-2086,167,-111,39,40,12229,-6,-2,-259,-88,35234,34,35,127,0,0,3412,-10,0,18431,6603,65,10059,-4,0,16,0,134865,0
134829,102,-2082,168,-121,31,37,12227,-10,-2,-349,-96,35238,24,35,127,0,0,3407,-10,0,18431,6603,65,10069,-4,0,16,0,134865,0
134839,80,-2089,166,-128,25,21,12220,-12,-11,-376,-104,35228,24,35,127,0,0,3407,-10,0,18431,6603,65,10079,-4,0,16,0,134865,0
134849,85,-2083,163,-132,36,15,12215,-18,-8,-415,-104,35222,32,35,127,0,0,3401,-65,0,18431,6603,65,10089,-4,0,16,0,134881,0
134859,92,-2081,159,-134,30,12,12198,-51,-16,-406,-128,35220,30,35,127,0,0,3401,0,0,18431,6603,65,10099,-4,0,16,0,134881,0
134869,95,-2077,147,-138,40,-6,12169,-54,-45,-246,-88,35220,30,35,127,0,0,3399,-32,0,18431,6603,65,10109,-4,0,16,0,134881,0
134879,109,-2071,150,-141,36,-4,12164,0,18,-335,-104,35225,16,35,127,0,0,3396,0,0,18431,6603,65,10119,-4,0,16,0,134881,0
134889,122,-2076,170,-149,29,0,12163,0,50,-419,-176,35228,2,35,127,0,0,3388,-54,0,18431,6603,65,10129,-4,0,16,0,134881,0
134900,107,-2075,175,-157,33,-4,12138,-64,-34,-362,-120,35233,3,35,127,0,0,3383,-76,0,18431,6603,65,10140,-4,0,16,0,134881,0
134910,116,-2082,158,-159,40,-24,12101,-64,-69,-241,-112,35244,18,35,127,0,0,3383,-60,0,18431,6603,65,10150,-4,0,16,0,134881,0
134920,114,-2084,154,-164,38,-8,12086,-32,22,-363,-104,35254,18,34,127,0,0,3378,10,0,18431,6603,65,10160,-4,0,16,0,134912,0
134930,107,-2081,153,-176,18,-12,12070,-50,40,-321,-120,35263,21,35,127,0,0,3373,-54,0,18431,6603,65,10170,-4,0,16,0,134912,0
134940,99,-2083,143,-179,32,-31,12048,-40,-17,-341,-120,35253,11,35,127,0,0,3372,-43,0,18431,6603,65,10180,-4,0,16,0,134912,0
134950,109,-2082,137,-173,35,-36,12043,-1,27,-461,-176,35240,24,35,127,0,0,3366,-38,0,18431,6603,65,10190,-4,0,16,0,134927,0
134960,132,-2078,139,-171,42,-42,12033,-36,25,-543,-208,35237,8,35,127,0,0,3358,-60,0,18431,6603,65,10200,-4,0,16,0,134959,0
134970,133,-2078,130,-162,31,-27,12001,-100,-51,-496,-184,35249,-1,35,127,0,0,3357,-71,0,18431,6603,65,10210,-4,0,16,0,134959,0
134980,107,-2081,121,-157,47,-42,11950,-101,-84,-301,-112,35246,-3,35,127,0,0,3348,-54,0,18431,6603,65,10220,-4,0,16,0,134959,0
134990,126,-2082,118,-146,53,-42,11912,-55,-7,-255,-104,35240,21,35,127,0,0,3348,-65,0,18431,6603,65,10230,-4,0,16,0,134959,0
135000,166,-2088,126,-149,37,-19,11913,3,98,-430,-152,35234,32,35,127,0,0,3344,-21,0,18431,6603,65,10240,-4,0,16,0,134990,0
135010,129,-2096,117,-141,25,-19,11906,-31,59,-545,-208,35242,43,35,127,0,0,3337,-27,0,18431,6603,65,10250,-4,0,16,0,134990,0
135020,130,-2094,104,-132,41,-18,11879,-80,-49,-492,-176,35245,45,34,127,0,0,3335,-10,0,18431,6603,65,10260,-4,0,16,0,134990,0
135030,123,-2083,99,-117,62,-20,11841,-55,-70,-359,-168,35245,47,35,127,0,0,3332,-27,0,18431,6603,65,10270,-4,0,16,0,135006,0
135040,200,-2083,117,-105,46,7,11829,-26,40,-518,-192,35243,43,35,127,0,0,3324,-27,0,18431,6603,65,10280,-4,0,16,0,135006,0
135050,173,-2089,112,-89,24,42,11806,-55,29,-402,-168,35240,15,35,127,0,0,3322,-87,0,18431,6603,65,10290,-4,0,16,0,135037,0
135060,163,-2093,109,-84,32,52,11792,-7,-1,-435,-144,35247,16,35,127,0,0,3322,0,0,18431,6603,65,10300,-4,0,16,0,135037,0
135070,194,-2090,105,-64,37,77,11792,-1,45,-516,-160,35240,27,35,127,0,0,3313,-54,0,18431,6603,65,10310,-4,0,16,0,135037,0
135080,207,-2081,100,-51,33,99,11785,-22,16,-622,-192,35237,33,35,127,0,0,3315,-32,0,18431,6603,65,10320,-4,0,16,0,135068,0
135090,186,-2081,57,-24,30,126,11779,-11,-24,-562,-160,35239,30,35,127,0,0,3317,16,0,18431,6603,65,10330,-4,0,16,0,135068,0
135100,198,-2068,41,4,49,149,11778,1,5,-545,-184,35238,9,35,127,0,0,3318,0,0,18431,6603,65,10340,-4,0,16,0,135068,0
135110,206,-2072,51,47,52,178,11776,-5,12,-549,-152,35236,15,35,127,0,0,3314,10,0,18431,6603,65,10350,-4,0,16,0,135084,0
135120,213,-2071,67,78,62,203,11776,-2,3,-545,-176,35235,20,35,127,0,0,3318,10,0,18431,6603,65,10360,-4,0,16,0,135115,0
135130,200,-2076,91,120,55,250,11775,2,2,-506,-152,35244,25,35,127,0,0,3317,-16,0,18431,6603,65,10370,-4,0,16,0,135115,0
135140,208,-2074,77,152,48,306,11775,2,1,-453,-104,35249,15,35,127,0,0,3325,65,0,18431,6603,65,10380,-4,0,16,0,135130,0
135150,218,-2079,84,178,37,358,11777,12,5,-304,-64,35243,16,35,127,0,0,3333,87,0,18431,6603,65,10390,-4,0,16,0,135130,0
135161,186,-2089,91,215,42,409,11788,53,24,-36,8,35231,35,35,127,0,0,3342,87,0,18431,6603,65,10401,-4,0,16,0,135130,0
135171,192,-2104,113,250,46,443,11811,40,52,117,32,35242,36,34,127,0,0,3348,87,0,18431,6603,65,10411,-4,0,16,0,135162,0
135181,135,-2090,109,260,59,466,11822,25,-3,345,120,35244,35,34,127,0,0,3357,98,0,18431,6603,65,10421,-4,0,16,0,135177,0
135191,155,-2094,159,275,74,479,11860,119,29,370,176,35241,18,35,127,0,0,3368,109,0,18431,6603,65,10431,-4,0,16,0,135177,0
135201,189,-2090,177,274,62,508,11915,114,90,336,192,35230,9,35,127,0,0,3379,98,0,18431,6603,65,10441,-4,0,16,0,135193,0
135211,151,-2083,173,267,45,545,11969,104,24,369,200,35226,5,35,127,0,0,3388,98,0,18431,6603,65,10451,-4,0,16,0,135193,0
135221,117,-2084,193,269,46,544,12018,106,-13,398,232,35232,11,35,127,0,0,3405,131,0,18431,6603,65,10461,-4,0,16,0,135209,0
135231,47,-2095,221,268,58,532,12082,155,14,370,216,35232,30,35,127,0,0,3414,120,0,18431,6603,65,10471,-4,0,16,0,135224,0
135241,63,-2086,247,236,41,535,12143,121,24,377,240,35234,31,35,127,0,0,3427,120,0,18431,6603,65,10481,-4,0,16,0,135224,0
135251,45,-2072,239,218,47,514,12200,135,-15,419,224,35233,23,35,127,0,0,3438,98,0,18431,6603,65,10491,-4,0,16,0,135224,0
135261,17,-2066,227,192,44,490,12264,135,11,372,240,35234,17,35,127,0,0,3451,131,0,18431,6603,65,10501,-4,0,16,0,135271,0
135271,30,-2074,231,183,53,457,12306,89,-31,507,264,35233,19,35,127,0,0,3460,109,0,18431,6603,65,10511,-4,0,16,0,135271,0
135281,47,-2070,241,162,57,413,12341,84,-54,612,272,35232,8,35,127,0,0,3471,120,0,18431,6603,65,10521,-4,0,16,0,135271,0
135291,5,-2064,240,145,49,418,12400,135,35,471,248,35228,12,35,127,0,0,3478,87,0,18431,6603,65,10531,-4,0,16,0,135271,0
135301,-5,-2073,239,122,33,373,12453,96,35,450,184,35226,13,35,127,0,0,3487,65,0,18431,6603,65,10541,-4,0,16,0,135271,0
135311,-28,-2082,240,109,55,313,12491,104,-43,481,216,35227,23,35,127,0,0,3493,32,0,18431,6603,65,10551,-4,0,16,0,135287,0
135321,22,-2087,246,86,63,261,12535,93,-11,440,184,35225,20,34,127,0,0,3500,32,0,18431,6603,65,10561,-4,0,16,0,135302,0
135331,17,-2079,256,66,45,263,12580,74,13,329,144,35226,47,34,127,0,0,3504,76,0,18431,6603,65,10571,-4,0,16,0,135302,0
135341,-14,-2093,255,38,49,217,12610,73,-32,348,136,35219,41,35,127,0,0,3506,21,0,18431,6603,65,10581,-4,0,16,0,135318,0
135351,43,-2101,246,22,45,193,12628,7,-43,287,80,35222,32,35,127,0,0,3506,32,0,18431,6603,65,10591,-4,0,16,0,135365,0
135361,15,-2098,258,-6,50,149,12627,-4,-72,391,128,35225,13,35,127,0,0,3511,43,0,18431,6603,65,10601,-4,0,16,0,135365,0
135371,42,-2108,262,-22,50,136,12628,3,-27,436,88,35237,18,35,127,0,0,3511,21,0,18431,6603,65,10611,-4,0,16,0,135365,0
135381,46,-2093,250,-49,41,124,12630,3,0,476,120,35239,20,35,127,0,0,3513,21,0,18431,6603,65,10621,-4,0,16,0,135380,0
135391,51,-2087,229,-53,42,125,12632,4,10,509,104,35233,21,35,127,0,0,3511,-32,0,18431,6603,65,10631,-4,0,16,0,135380,0
135401,59,-2081,202,-54,44,117,12635,9,0,468,104,35230,30,35,127,0,0,3513,0,0,18431,6603,65,10641,-4,0,16,0,135380,0
135412,68,-2066,198,-58,45,118,12634,-2,-4,511,152,35231,56,35,127,0,0,3509,-27,0,18431,6603,65,10652,-4,0,16,0,135380,0
135422,76,-2066,204,-50,43,124,12637,-1,1,449,152,35243,49,35,127,0,0,3512,-5,0,18431,6603,65,10662,-4,0,16,0,135412,0
135432,87,-2058,206,-48,43,134,12637,-1,-4,470,144,35246,46,35,127,0,0,3512,5,0,18431,6603,65,10672,-4,0,16,0,135412,0
135442,86,-2065,199,-44,38,144,12639,-2,-2,492,152,35233,24,35,127,0,0,3515,16,0,18431,6603,65,10682,-4,0,16,0,135412,0
135452,83,-2073,188,-47,44,157,12645,11,4,512,136,35226,37,35,127,0,0,3518,27,0,18431,6603,65,10692,-4,0,16,0,135427,0
135462,80,-2065,194,-32,40,173,12654,25,21,454,136,35222,27,35,127,0,0,3517,43,0,18431,6603,65,10702,-4,0,16,0,135443,0
135472,66,-2079,188,-23,34,181,12677,43,26,339,120,35223,26,35,127,0,0,3516,5,0,18431,6603,65,10712,-4,0,16,0,135443,0
135482,78,-2075,186,-10,34,181,12683,5,-4,382,120,35229,31,35,127,0,0,3522,-16,0,18431,6603,65,10722,-4,0,16,0,135474,0
135492,48,-2071,187,1,46,182,12684,0,-50,439,128,35230,41,35,127,0,0,3518,-32,0,18431,6603,65,10732,-4,0,16,0,135474,0
135502,43,-2082,206,11,45,173,12686,13,-8,455,144,35231,44,35,127,0,0,3521,-27,0,18431,6603,65,10742,-4,0,16,0,135474,0
135512,65,-2078,213,10,40,170,12687,0,1,450,160,35227,38,35,127,0,0,3526,54,0,18431,6603,65,10752,-4,0,16,0,135474,0
135522,23,-2072,216,9,43,163,12690,8,5,556,160,35235,36,35,127,0,0,3529,21,0,18431,6603,65,10762,-4,0,16,0,135505,0
135532,34,-2076,216,8,40,144,12697,9,11,546,184,35240,29,35,127,0,0,3524,-49,0,18431,6603,65,10772,-4,0,16,0,135505,0
135542,24,-2071,231,10,45,130,12699,11,-4,573,160,35243,33,35,127,0,0,3528,-43,0,18431,6603,65,10782,-4,0,16,0,135505,0
135552,42,-2080,235,-1,32,120,12702,5,-5,577,176,35242,43,35,127,0,0,3527,-43,0,18431,6603,65,10792,-4,0,16,0,135584,0
135562,28,-2081,229,-3,38,110,12702,1,-12,542,152,35240,42,35,127,0,0,3532,0,0,18431,6603,65,10802,-4,0,16,0,135584,0
135572,46,-2087,222,-9,33,111,12702,3,-3,516,152,35234,42,35,127,0,0,3532,76,0,18431,6603,65,10812,-4,0,16,0,135599,0
135582,62,-2081,229,-5,35,101,12703,4,3,532,152,35225,38,35,127,0,0,3525,-21,0,18431,6603,65,10822,-4,0,16,0,135599,0
135592,74,-2074,231,-9,31,101,12703,2,2,529,152,35218,49,35,127,0,0,3525,-87,0,18431,6603,65,10832,-4,0,16,0,135599,0
135602,53,-2070,220,-7,33,107,12704,6,0,519,176,35219,35,35,127,0,0,3531,10,0,18431,6603,65,10842,-4,0,16,0,135599,0
135612,63,-2076,201,-2,30,118,12706,2,5,538,168,35217,36,35,127,0,0,3527,16,0,18431,6603,65,10852,-4,0,16,0,135599,0
135622,71,-2077,219,6,35,118,12705,0,-3,537,128,35220,40,35,127,0,0,3526,-54,0,18431,6603,65,10862,-4,0,16,0,135599,0
135632,73,-2087,225,9,41,120,12705,5,-1,487,152,35225,45,35,127,0,0,3528,0,0,18431,6603,65,10872,-4,0,16,0,135615,0
135642,97,-2073,243,4,38,129,12707,6,0,546,144,35241,37,35,127,0,0,3532,10,0,18431,6603,65,10882,-4,0,16,0,135615,0
135653,77,-2084,245,-3,36,145,12708,2,1,524,112,35261,37,34,127,0,0,3528,10,0,18431,6603,65,10893,-4,0,16,0,135630,0
135663,76,-2075,239,-1,33,157,12711,7,2,543,160,35259,35,34,127,0,0,3528,-32,0,18431,6603,65,10903,-4,0,16,0,135662,0
135673,77,-2078,230,-10,32,163,12713,4,0,526,176,35245,40,35,127,0,0,3531,-10,0,18431,6603,65,10913,-4,0,16,0,135662,0
135683,66,-2055,225,-4,30,171,12729,35,24,427,144,35235,38,35,127,0,0,3533,21,0,18431,6603,65,10923,-4,0,16,0,135662,0
135693,45,-2065,234,-7,37,166,12748,47,32,372,104,35227,38,35,127,0,0,3533,-21,0,18431,6603,65,10933,-4,0,16,0,135662,0
135703,59,-2086,240,-10,45,157,12750,7,-23,432,144,35231,23,35,127,0,0,3535,-10,0,18431,6603,65,10943,-4,0,16,0,135677,0
135713,58,-2081,254,-19,44,155,12752,2,-34,452,136,35233,10,35,127,0,0,3535,-10,0,18431,6603,65,10953,-4,0,16,0,135724,0
135723,67,-2082,257,-22,37,160,12755,1,1,470,160,35241,6,35,127,0,0,3539,21,0,18431,6603,65,10963,-4,0,16,0,135724,0
135733,57,-2093,257,-34,35,159,12760,7,1,462,152,35237,21,35,127,0,0,3541,32,0,18431,6603,65,10973,-4,0,16,0,135724,0
135743,32,-2081,262,-40,36,155,12764,11,2,498,176,35231,33,35,127,0,0,3539,10,0,18431,6603,65,10983,-4,0,16,0,135724,0
135753,34,-2085,264,-57,32,140,12769,12,1,467,168,35225,28,35,127,0,0,3541,10,0,18431,6603,65,10993,-4,0,16,0,135740,0
135763,30,-2075,272,-66,33,128,12783,36,17,408,128,35230,15,35,127,0,0,3544,21,0,18431,6603,65,11003,-4,0,16,0,135740,0
135773,31,-2073,255,-77,31,122,12811,64,46,258,112,35238,-10,35,127,0,0,3541,-10,0,18431,6603,65,11013,-4,0,16,0,135740,0
135783,-8,-2086,251,-91,30,101,12810,-6,-30,264,72,35248,-20,34,127,0,0,3544,10,0,18431,6603,65,11023,-4,0,16,0,135771,0
135793,30,-2072,249,-89,40,76,12812,-3,-50,275,64,35245,-22,35,127,0,0,3541,0,0,18431,6603,65,11033,-4,0,16,0,135771,0
135803,57,-2072,245,-96,33,69,12811,4,-1,228,80,35237,-17,35,127,0,0,3539,-21,0,18431,6603,65,11043,-4,0,16,0,135787,0
135813,43,-2068,245,-100,29,65,12811,3,-1,182,48,35232,-9,35,127,0,0,3539,0,0,18431,6603,65,11053,-4,0,16,0,135787,0
135823,49,-2073,249,-106,37,58,12811,-3,-3,186,80,35239,-1,35,127,0,0,3539,0,0,18431,6603,65,11063,-4,0,16,0,135802,0
135833,61,-2073,269,-120,38,58,12811,6,1,182,48,35236,-2,35,127,0,0,3539,10,0,18431,6603,65,11073,-4,0,16,0,135818,0
135843,94,-2081,275,-126,44,57,12810,-4,1,195,64,35237,-12,35,127,0,0,3537,-32,0,18431,6603,65,11083,-4,0,16,0,135818,0
135853,92,-2077,252,-146,35,71,12810,-1,-1,132,24,35236,-13,35,127,0,0,3537,0,0,18431,6603,65,11093,-4,0,16,0,135833,0
135863,95,-2082,246,-146,28,91,12810,3,-3,136,-16,35244,-1,35,127,0,0,3537,10,0,18431,6603,65,11103,-4,0,16,0,135833,0
135873,129,-2077,215,-140,32,114,12807,-14,-2,94,32,35247,2,35,127,0,0,3535,21,0,18431,6603,65,11113,-4,0,16,0,135849,0
135883,143,-2077,204,-130,35,136,12806,-13,-4,18,24,35242,34,35,127,0,0,3535,21,0,18431,6603,65,11123,-4,0,16,0,135865,0
135893,109,-2086,201,-118,38,164,12806,6,-3,36,48,35244,21,35,127,0,0,3533,0,0,18431,6603,65,11133,-4,0,16,0,135865,0
135903,143,-2079,200,-108,49,181,12805,-5,-1,-1,56,35242,23,35,127,0,0,3535,32,0,18431,6603,65,11143,-4,0,16,0,135880,0
135914,103,-2087,215,-93,56,213,12806,4,-1,80,32,35239,-4,35,127,0,0,3537,43,0,18431,6603,65,11154,-4,0,16,0,135958,0
135924,119,-2088,229,-86,41,251,12808,3,5,184,56,35233,11,35,127,0,0,3539,16,0,18431,6603,65,11164,-4,0,16,0,135974,0
135934,138,-2088,232,-92,30,301,12809,5,1,243,72,35232,10,35,127,0,0,3545,43,0,18431,6603,65,11174,-4,0,16,0,135974,0
135944,91,-2082,226,-87,19,330,12811,4,-1,400,136,35231,4,35,127,0,0,3548,32,0,18431,6603,65,11184,-4,0,16,0,135974,0
135954,85,-2081,224,-84,37,349,12817,2,6,470,192,35232,-6,35,127,0,0,3555,60,0,18431,6603,65,11194,-4,0,16,0,135974,0
135964,55,-2076,233,-78,35,364,12828,26,14,607,216,35231,-6,35,127,0,0,3562,65,0,18431,6603,65,11204,-4,0,16,0,135974,0
135974,52,-2080,226,-75,34,374,12860,89,38,596,216,35234,-25,35,127,0,0,3572,43,0,18431,6603,65,11214,-4,0,16,0,135974,0
135984,87,-2072,235,-78,30,384,12902,80,69,523,240,35231,-16,35,127,0,0,3577,60,0,18431,6603,65,11224,-4,0,16,0,135974,0
135994,3,-2077,220,-76,30,394,12960,134,50,394,168,35229,-10,35,127,0,0,3588,43,0,18431,6603,65,11234,-4,0,16,0,135974,0
136004,9,-2079,220,-63,46,372,13012,90,23,346,160,35229,8,35,127,0,0,3593,109,0,18431,6603,65,11244,-4,0,16,0,135990,0
136014,20,-2073,227,-63,37,361,13024,21,-89,664,208,35237,16,35,127,0,0,3600,32,0,18431,6603,65,11254,-4,0,16,0,135990,0
136024,22,-2063,226,-64,43,366,13046,66,-60,629,256,35249,0,35,127,0,0,3605,54,0,18431,6603,65,11264,-4,0,16,0,135990,0
136034,44,-2065,243,-62,26,368,13086,80,54,597,272,35255,-4,35,127,0,0,3614,43,0,18431,6603,65,11274,-4,0,16,0,136021,0
136044,-4,-2064,235,-62,32,365,13143,134,58,464,208,35252,-7,35,127,0,0,3625,71,0,18431,6603,65,11284,-4,0,16,0,136021,0
136054,0,-2076,228,-62,40,355,13191,116,21,460,200,35241,-4,35,127,0,0,3630,60,0,18431,6603,65,11294,-4,0,16,0,136037,0
136064,65,-2084,234,-52,32,365,13222,57,-45,517,208,35240,17,35,127,0,0,3637,82,0,18431,6603,65,11304,-4,0,16,0,136037,0
136074,29,-2085,234,-59,33,384,13264,96,-13,393,224,35239,35,35,127,0,0,3643,98,0,18431,6603,65,11314,-4,0,16,0,136068,0
136084,25,-2082,241,-45,37,357,13300,91,16,482,200,35240,35,35,127,0,0,3650,38,0,18431,6603,65,11324,-4,0,16,0,136068,0
136094,49,-2085,229,-46,23,370,13345,91,1,468,224,35238,31,35,127,0,0,3661,104,0,18431,6603,65,11334,-4,0,16,0,136068,0
136104,-44,-2081,219,-38,24,396,13404,127,46,340,152,35236,16,35,127,0,0,3669,109,0,18431,6603,65,11344,-4,0,16,0,136068,0
136114,-48,-2086,221,-29,37,375,13445,81,-7,420,192,35235,21,35,127,0,0,3673,43,0,18431,6603,65,11354,-4,0,16,0,136099,0
136124,46,-2085,234,-25,33,373,13462,22,-83,608,224,35238,19,35,127,0,0,3680,38,0,18431,6603,65,11364,-4,0,16,0,136099,0
136134,7,-2071,235,-24,40,371,13481,53,-48,650,256,35237,23,35,127,0,0,3693,120,0,18431,6603,65,11374,-4,0,16,0,136115,0
136144,-42,-2084,235,-22,38,375,13529,110,63,511,280,35236,17,35,127,0,0,3697,104,0,18431,6603,65,11384,-4,0,16,0,136115,0
136155,-59,-2070,240,-27,26,377,13592,124,72,398,192,35243,10,34,127,0,0,3706,87,0,18431,6603,65,11395,-4,0,16,0,136146,0
136165,-95,-2079,241,-25,46,349,13618,68,-50,607,216,35247,2,35,127,0,0,3711,32,0,18431,6603,65,11405,-4,0,16,0,136146,0
136175,0,-2061,240,-29,50,344,13656,77,-34,529,216,35246,3,35,127,0,0,3717,43,0,18431,6603,65,11415,-4,0,16,0,136146,0
136185,-50,-2068,255,-35,37,334,13699,113,26,475,160,35237,7,35,127,0,0,3724,43,0,18431,6603,65,11425,-4,0,16,0,136162,0
136195,15,-2072,253,-33,29,315,13744,85,22,445,176,35239,0,35,127,0,0,3733,32,0,18431,6603,65,11435,-4,0,16,0,136177,0
136205,-5,-2077,251,-41,31,318,13777,50,-24,438,160,35241,10,35,127,0,0,3737,76,0,18431,6603,65,11445,-4,0,16,0,136193,0
136215,-71,-2078,246,-41,37,296,13782,9,-73,665,232,35237,15,35,127,0,0,3739,32,0,18431,6603,65,11455,-4,0,16,0,136193,0
136225,-35,-2074,253,-45,40,280,13795,44,-29,740,240,35233,13,35,127,0,0,3748,65,0,18431,6603,65,11465,-4,0,16,0,136208,0
136235,-38,-2083,256,-54,38,275,13836,117,69,566,216,35237,17,35,127,0,0,3750,32,0,18431,6603,65,11475,-4,0,16,0,136224,0
136245,-34,-2083,252,-61,22,260,13881,101,64,490,200,35240,5,34,127,0,0,3752,10,0,18431,6603,65,11485,-4,0,16,0,136224,0
136255,-52,-2067,244,-61,22,265,13917,36,-14,386,144,35236,3,35,127,0,0,3759,43,0,18431,6603,65,11495,-4,0,16,0,136224,0
136265,-89,-2072,242,-55,46,239,13923,16,-78,556,184,35226,13,34,127,0,0,3763,32,0,18431,6603,65,11505,-4,0,16,0,136255,0
136275,-37,-2080,248,-63,49,217,13943,62,-35,545,192,35224,21,34,127,0,0,3768,65,0,18431,6603,65,11515,-4,0,16,0,136255,0
136285,-12,-2070,266,-69,18,232,13976,55,59,422,160,35228,31,35,127,0,0,3770,43,0,18431,6603,65,11525,-4,0,16,0,136271,0
136295,-52,-2077,259,-69,17,218,13982,1,-33,499,144,35234,51,35,127,0,0,3770,0,0,18431,6603,65,11535,-4,0,16,0,136286,0
136305,-43,-2081,237,-65,45,203,13984,5,-71,542,168,35231,46,35,127,0,0,3774,32,0,18431,6603,65,11545,-4,0,16,0,136302,0
136315,-39,-2078,241,-63,42,197,13988,15,8,573,224,35228,51,35,127,0,0,3777,21,0,18431,6603,65,11555,-4,0,16,0,136302,0
136325,-30,-2083,258,-68,36,202,14011,65,38,517,160,35222,38,35,127,0,0,3779,10,0,18431,6603,65,11565,-4,0,16,0,136302,0
136335,-13,-2077,257,-69,24,209,14042,47,54,362,176,35225,24,35,127,0,0,3781,21,0,18431,6603,65,11575,-4,0,16,0,136318,0
136345,-71,-2074,239,-73,37,197,14043,0,-51,518,136,35234,48,35,127,0,0,3783,10,0,18431,6603,65,11585,-4,0,16,0,136318,0
136355,-72,-2072,246,-67,42,183,14049,20,-46,591,184,35235,46,35,127,0,0,3785,0,0,18431,6603,65,11595,-4,0,16,0,136380,0
136365,-39,-2079,259,-78,41,171,14059,21,19,539,184,35243,52,35,127,0,0,3788,21,0,18431,6603,65,11605,-4,0,16,0,136396,0
136375,-51,-2068,253,-80,40,175,14084,69,36,414,104,35233,48,35,127,0,0,3790,21,0,18431,6603,65,11615,-4,0,16,0,136396,0
136385,-39,-2075,251,-87,34,177,14111,44,36,365,144,35227,41,35,127,0,0,3794,54,0,18431,6603,65,11625,-4,0,16,0,136396,0
136395,-65,-2080,243,-84,36,169,14123,21,-31,401,128,35220,26,35,127,0,0,3794,32,0,18431,6603,65,11635,-4,0,16,0,136396,0
136405,-52,-2078,243,-87,48,151,14146,65,-3,306,88,35220,12,35,127,0,0,3794,0,0,18431,6603,65,11645,-4,0,16,0,136396,0
136415,-22,-2074,254,-87,32,154,14168,5,23,163,72,35224,-4,34,127,0,0,3796,21,0,18431,6603,65,11655,-4,0,16,0,136396,0
136426,-65,-2078,255,-88,34,151,14167,7,-69,259,64,35226,9,35,127,0,0,3793,-16,0,18431,6603,65,11666,-4,0,16,0,136411,0
136436,-50,-2072,247,-91,37,134,14164,0,-25,265,40,35233,32,35,127,0,0,3797,-43,0,18431,6603,65,11676,-4,0,16,0,136411,0
136446,-61,-2080,242,-95,47,131,14166,3,0,286,64,35241,40,34,127,0,0,3796,0,0,18431,6603,65,11686,-4,0,16,0,136411,0
136456,-61,-2076,245,-91,39,119,14167,12,1,316,40,35248,37,35,127,0,0,3797,-49,0,18431,6603,65,11696,-4,0,16,0,136443,0
136466,-85,-2073,255,-97,42,122,14166,9,4,307,56,35242,35,35,127,0,0,3796,-32,0,18431,6603,65,11706,-4,0,16,0,136443,0
136476,-73,-2074,253,-96,35,108,14167,5,1,302,64,35240,21,35,127,0,0,3796,-27,0,18431,6603,65,11716,-4,0,16,0,136458,0
136486,-46,-2074,261,-102,35,100,14168,7,5,303,64,35228,20,35,127,0,0,3796,-16,0,18431,6603,65,11726,-4,0,16,0,136458,0
136496,-63,-2079,246,-102,34,101,14167,2,0,284,64,35236,1,35,127,0,0,3796,0,0,18431,6603,65,11736,-4,0,16,0,136490,0
136506,-43,-2073,251,-103,32,96,14166,0,0,289,64,35240,13,35,127,0,0,3796,0,0,18431,6603,65,11746,-4,0,16,0,136490,0
136516,-46,-2070,244,-100,34,94,14165,-17,-2,204,40,35240,21,35,127,0,0,3797,43,0,18431,6603,65,11756,-4,0,16,0,136490,0
136526,-13,-2071,243,-104,37,93,14165,0,-2,235,40,35233,20,35,127,0,0,3797,27,0,18431,6603,65,11766,-4,0,16,0,136490,0
136536,-59,-2080,246,-105,33,96,14165,-1,3,211,40,35233,14,35,127,0,0,3797,43,0,18431,6603,65,11776,-4,0,16,0,136525,0
136546,-32,-2068,252,-106,33,85,14165,-6,-1,240,40,35239,8,35,127,0,0,3794,-5,0,18431,6603,65,11786,-4,0,16,0,136525,0
136556,-53,-2079,251,-110,36,82,14165,-1,3,181,40,35237,13,35,127,0,0,3794,0,0,18431,6603,65,11796,-4,0,16,0,136525,0
136566,-35,-2078,246,-110,37,85,14166,1,-1,183,40,35239,33,35,127,0,0,3794,0,0,18431,6603,65,11806,-4,0,16,0,136541,0
136576,-30,-2076,241,-114,35,77,14165,2,2,112,-8,35238,39,35,127,0,0,3790,-60,0,18431,6603,65,11816,-4,0,16,0,136556,0
136586,-58,-2073,238,-112,45,82,14159,0,-12,23,-16,35238,22,35,127,0,0,3791,-5,0,18431,6603,65,11826,-4,0,16,0,136572,0
136596,-41,-2092,238,-109,39,79,14161,5,11,-13,-40,35241,14,35,127,0,0,3789,-10,0,18431,6603,65,11836,-4,0,16,0,136572,0
136606,-47,-2083,239,-114,36,78,14159,2,5,-72,-16,35228,19,35,127,0,0,3784,-5,0,18431,6603,65,11846,-4,0,16,0,136572,0
136616,-27,-2070,239,-110,38,74,14158,4,2,-120,-40,35232,32,35,127,0,0,3785,-27,0,18431,6603,65,11856,-4,0,16,0,136603,0
136626,-36,-2077,235,-111,34,80,14156,3,4,-171,-56,35240,15,35,127,0,0,3783,-21,0,18431,6603,65,11866,-4,0,16,0,136697,0
136636,-29,-2077,243,-110,39,78,14155,1,-3,-185,-56,35237,11,35,127,0,0,3780,-60,0,18431,6603,65,11876,-4,0,16,0,136697,0
136647,-38,-2077,241,-107,31,75,14153,-3,-1,-224,-88,35238,14,35,127,0,0,3781,-32,0,18431,6603,65,11887,-4,0,16,0,136728,0
136657,-38,-2074,247,-106,34,80,14151,-6,-2,-265,-104,35239,11,35,127,0,0,3781,-10,0,18431,6603,65,11897,-4,0,16,0,136728,0
136667,-47,-2084,238,-106,37,76,14151,1,3,-302,-96,35246,14,34,127,0,0,3779,10,0,18431,6603,65,11907,-4,0,16,0,136728,0
136677,-35,-2078,242,-109,41,75,14148,-5,3,-299,-88,35252,14,35,127,0,0,3777,-54,0,18431,6603,65,11917,-4,0,16,0,136728,0
136687,-31,-2075,238,-116,43,74,14144,-6,-11,-368,-104,35247,27,35,127,0,0,3777,-10,0,18431,6603,65,11927,-4,0,16,0,136728,0
136697,-30,-2078,239,-117,44,67,14141,-1,-7,-383,-120,35239,24,35,127,0,0,3774,-21,0,18431,6603,65,11937,-4,0,16,0,136728,0
136707,-37,-2083,239,-116,39,69,14137,-3,0,-360,-184,35233,27,35,127,0,0,3774,-10,0,18431,6603,65,11947,-4,0,16,0,136728,0
136717,-48,-2078,246,-116,45,77,14128,-20,-7,-372,-120,35225,21,35,127,0,0,3772,-21,0,18431,6603,65,11957,-4,0,16,0,136728,0
136727,-31,-2077,248,-118,42,72,14102,-67,-45,-261,-56,35220,20,35,127,0,0,3772,0,0,18431,6603,65,11967,-4,0,16,0,136728,0
136737,-50,-2074,236,-123,42,64,14081,-13,-19,-151,-80,35217,20,35,127,0,0,3766,-76,0,18431,6603,65,11977,-4,0,16,0,136728,0
136747,-11,-2075,245,-121,38,64,14079,-10,59,-292,-104,35234,20,35,127,0,0,3766,-32,0,18431,6603,65,11987,-4,0,16,0,136744,0
136757,-31,-2081,245,-130,33,65,14072,-25,13,-318,-80,35254,21,34,127,0,0,3766,-10,0,18431,6603,65,11997,-4,0,16,0,136744,0
136767,-44,-2076,239,-127,42,63,14054,-47,-36,-224,-32,35277,22,35,127,0,0,3763,0,0,18431,6603,65,12007,-4,0,16,0,136744,0
136777,-20,-2077,238,-125,42,47,14028,-55,-34,-86,-80,35278,38,35,127,0,0,3759,-43,0,18431,6603,65,12017,-4,0,16,0,136744,0
136787,-29,-2078,232,-121,41,49,14020,1,27,-166,-40,35273,45,35,127,0,0,3757,-32,0,18431,6603,65,12027,-4,0,16,0,136791,0
136797,-20,-2077,231,-128,39,49,14019,0,51,-243,-104,35263,47,35,127,0,0,3755,-21,0,18431,6603,65,12037,-4,0,16,0,136791,0
136807,-35,-2082,230,-128,37,52,14014,-10,2,-296,-80,35247,35,35,127,0,0,3752,-21,0,18431,6603,65,12047,-4,0,16,0,136791,0
136817,-26,-2083,239,-126,45,40,14006,-19,-10,-291,-96,35231,33,35,127,0,0,3752,-21,0,18431,6603,65,12057,-4,0,16,0,136791,0
136827,-12,-2072,239,-124,36,42,13994,-39,-14,-317,-72,35225,29,35,127,0,0,3748,-21,0,18431,6603,65,12067,-4,0,16,0,136791,0
136837,-27,-2083,241,-127,41,30,13957,-80,-58,-120,-72,35240,26,34,127,0,0,3748,0,0,18431,6603,65,12077,-4,0,16,0,136822,0
136847,-44,-2084,238,-128,42,52,13951,8,11,-170,-32,35249,35,34,127,0,0,3744,10,0,18431,6603,65,12087,-4,0,16,0,136822,0
136857,-19,-2082,240,-126,32,42,13950,-7,75,-245,-72,35250,32,34,127,0,0,3741,-21,0,18431,6603,65,12097,-4,0,16,0,136822,0
136867,-11,-2083,226,-130,28,45,13948,-6,1,-306,-120,35248,57,34,127,0,0,3741,0,0,18431,6603,65,12107,-4,0,16,0,136869,0
136877,-28,-2087,225,-125,36,45,13944,-4,-8,-303,-104,35241,69,35,127,0,0,3739,-21,0,18431,6603,65,12117,-4,0,16,0,136869,0
136887,-12,-2082,229,-116,37,40,13931,-33,-14,-338,-128,35245,64,35,127,0,0,3737,0,0,18431,6603,65,12127,-4,0,16,0,136869,0
136897,-14,-2076,231,-111,32,45,13897,-94,-61,-187,-8,35241,44,35,127,0,0,3733,-21,0,18431,6603,65,12137,-4,0,16,0,136869,0
136908,-43,-2070,216,-106,44,47,13886,14,2,-165,-56,35239,24,35,127,0,0,3729,-60,0,18431,6603,65,12148,-4,0,16,0,136884,0
136918,-10,-2078,227,-106,33,47,13884,0,83,-253,-80,35250,10,35,127,0,0,3730,-27,0,18431,6603,65,12158,-4,0,16,0,136900,0
136928,-15,-2071,224,-109,43,57,13884,0,6,-302,-128,35263,-7,35,127,0,0,3726,-38,0,18431,6603,65,12168,-4,0,16,0,136916,0
136938,-29,-2072,224,-106,47,59,13872,-32,-17,-365,-128,35261,-8,35,127,0,0,3724,-16,0,18431,6603,65,12178,-4,0,16,0,136916,0
136948,-10,-2070,227,-104,40,53,13850,-57,-36,-287,-80,35246,-1,35,127,0,0,3721,-27,0,18431,6603,65,12188,-4,0,16,0,136931,0
136958,-30,-2080,221,-103,42,53,13824,-37,-33,-152,-48,35251,18,35,127,0,0,3718,-60,0,18431,6603,65,12198,-4,0,16,0,136931,0
136968,6,-2081,229,-101,36,59,13824,0,41,-259,-72,35250,6,35,127,0,0,3719,-27,0,18431,6603,65,12208,-4,0,16,0,136947,0
136978,-9,-2085,235,-98,28,69,13823,-3,53,-314,-96,35253,-2,35,127,0,0,3717,0,0,18431,6603,65,12218,-4,0,16,0,136947,0
136988,-12,-2082,222,-96,36,61,13817,-11,-10,-308,-112,35249,-17,35,127,0,0,3718,-16,0,18431,6603,65,12228,-4,0,16,0,137072,0
136998,4,-2080,219,-95,39,76,13813,-4,-5,-343,-80,35242,-9,35,127,0,0,3711,-16,0,18431,6603,65,12238,-4,0,16,0,137087,0
137008,3,-2079,220,-85,41,80,13804,-26,-13,-342,-104,35248,-14,35,127,0,0,3713,-43,0,18431,6603,65,12248,-4,0,16,0,137087,0
137018,4,-2085,222,-79,37,85,13774,-83,-45,-184,-72,35242,-3,35,127,0,0,3714,-5,0,18431,6603,65,12258,-4,0,16,0,137087,0
137028,-25,-2082,214,-78,46,73,13763,22,-14,-42,-48,35233,-4,35,127,0,0,3711,-32,0,18431,6603,65,12268,-4,0,16,0,137087,0
137038,-10,-2090,233,-72,35,96,13760,-8,67,-203,-64,35228,8,35,127,0,0,3712,16,0,18431,6603,65,12278,-4,0,16,0,137087,0
137048,-10,-2081,226,-77,32,100,13760,-5,21,-205,-40,35229,24,35,127,0,0,3711,21,0,18431,6603,65,12288,-4,0,16,0,137087,0
137058,11,-2066,227,-68,42,102,13759,-2,5,-195,-40,35228,13,35,127,0,0,3707,0,0,18431,6603,65,12298,-4,0,16,0,137087,0
137068,3,-2076,236,-70,35,105,13760,4,-4,-194,-64,35228,0,35,127,0,0,3705,-43,0,18431,6603,65,12308,-4,0,16,0,137087,0
137078,-19,-2085,234,-74,33,97,13755,-14,-12,-283,-80,35225,-1,35,127,0,0,3710,16,0,18431,6603,65,12318,-4,0,16,0,137087,0
137088,-16,-2076,232,-71,35,100,13757,-4,-2,-222,-80,35228,14,35,127,0,0,3710,-5,0,18431,6603,65,12328,-4,0,16,0,137103,0
137098,-18,-2078,232,-71,36,102,13757,6,10,-233,-32,35228,18,35,127,0,0,3704,-21,0,18431,6603,65,12338,-4,0,16,0,137103,0
137108,-3,-2079,243,-68,34,98,13756,0,1,-224,-80,35234,21,35,127,0,0,3703,-109,0,18431,6603,65,12348,-4,0,16,0,137103,0
137118,-26,-2087,229,-70,40,88,13754,6,3,-298,-80,35233,10,35,127,0,0,3706,-10,0,18431,6603,65,12358,-4,0,16,0,137103,0
137128,-10,-2082,228,-68,32,94,13755,-1,-1,-304,-80,35236,9,35,127,0,0,3706,5,0,18431,6603,65,12368,-4,0,16,0,137103,0
137139,-11,-2083,234,-69,31,89,13751,-7,-3,-320,-56,35253,20,35,127,0,0,3706,32,0,18431,6603,65,12379,-4,0,16,0,137103,0
137149,0,-2075,224,-69,35,88,13753,-1,-1,-309,-96,35264,18,34,127,0,0,3706,0,0,18431,6603,65,12389,-4,0,16,0,137150,0
137159,-13,-2082,231,-65,33,86,13752,1,-1,-323,-96,35265,22,34,127,0,0,3702,-21,0,18431,6603,65,12399,-4,0,16,0,137150,0
137169,-2,-2082,230,-64,32,84,13749,-8,-1,-379,-80,35248,22,35,127,0,0,3702,-21,0,18431,6603,65,12409,-4,0,16,0,137150,0
137179,-1,-2081,232,-66,35,92,13746,-14,-12,-394,-72,35237,11,35,127,0,0,3700,0,0,18431,6603,65,12419,-4,0,16,0,137150,0
137189,-7,-2081,217,-64,31,88,13742,-6,-5,-385,-64,35234,19,35,127,0,0,3702,-10,0,18431,6603,65,12429,-4,0,16,0,137166,0
137199,-3,-2081,224,-59,36,91,13738,-12,-2,-377,-128,35244,24,35,127,0,0,3702,21,0,18431,6603,65,12439,-4,0,16,0,137181,0
137209,5,-2069,232,-52,36,96,13732,-14,-5,-345,-104,35247,35,35,127,0,0,3700,0,0,18431,6603,65,12449,-4,0,16,0,137181,0
137219,2,-2063,229,-52,36,96,13717,-32,-21,-294,-72,35244,34,35,127,0,0,3700,0,0,18431,6603,65,12459,-4,0,16,0,137197,0
137229,-5,-2063,235,-56,35,94,13706,-3,-10,-213,-40,35237,17,35,127,0,0,3697,-21,0,18431,6603,65,12469,-4,0,16,0,137212,0
137239,22,-2071,232,-52,36,93,13706,-6,31,-277,-104,35242,27,35,127,0,0,3695,-10,0,18431,6603,65,12479,-4,0,16,0,137212,0
137249,622,-2287,57,-96,136,-146,13702,-6,13,-310,-88,35243,15,34,127,0,0,3695,10,0,18431,6603,65,12489,-4,0,16,0,137241,0
137259,875,-2099,21,-147,158,-446,13703,-5,-1,-306,-128,35250,20,35,127,0,0,3684,-131,0,18431,6603,65,12499,-4,0,16,0,137241,0
137269,58,-2093,377,-174,5,-193,13679,-93,-36,-619,-328,35239,19,35,127,0,0,3665,-175,0,18431,6603,65,12509,-4,0,16,0,137241,0
137279,-128,-2075,456,-142,-46,-26,13594,-218,-172,-384,-240,35234,10,35,127,0,0,3658,-65,0,18431,6603,65,12519,-4,0,16,0,137257,0
137289,234,-2102,33,-145,73,-169,13502,-174,-136,-215,-104,35244,17,35,127,0,0,3658,-32,0,18431,6603,65,12529,-4,0,16,0,137257,0
137299,484,-2082,-41,-164,129,-398,13463,-62,99,-189,-120,35238,14,35,127,0,0,3643,-153,0,18431,6603,65,12539,-4,0,16,0,137288,0
137309,295,-2002,211,-190,9,-482,13417,-102,92,-353,-232,35245,22,35,127,0,0,3625,-197,0,18431,6603,65,12549,-4,0,16,0,137288,0
137319,136,-2028,317,-217,-53,-348,13354,-158,-44,-464,-288,35234,42,35,127,0,0,3610,-120,0,18431,6603,65,12559,-4,0,16,0,137288,0
137329,210,-2127,197,-195,52,-377,13282,-167,-52,-455,-280,35227,36,35,127,0,0,3599,-65,0,18431,6603,65,12569,-4,0,16,0,137304,0
137339,380,-2074,26,-206,115,-519,13197,-188,-40,-351,-264,35231,45,35,127,0,0,3579,-164,0,18431,6603,65,12579,-4,0,16,0,137304,0
137349,475,-2043,92,-229,42,-590,13108,-199,-26,-336,-264,35234,44,35,127,0,0,3555,-241,0,18431,6603,65,12589,-4,0,16,0,137335,0
137359,385,-2076,219,-246,-17,-530,13013,-228,-24,-388,-296,35245,43,35,127,0,0,3539,-175,0,18431,6603,65,12599,-4,0,16,0,137335,0
137369,232,-2108,185,-210,16,-461,12916,-189,-16,-363,-320,35234,35,35,127,0,0,3522,-175,0,18431,6603,65,12609,-4,0,16,0,137335,0
137379,385,-2070,90,-182,62,-460,12833,-191,24,-366,-304,35232,18,35,127,0,0,3504,-186,0,18431,6603,65,12619,-4,0,16,0,137351,0
137389,475,-2061,70,-164,53,-446,12746,-184,12,-384,-240,35234,14,35,127,0,0,3491,-142,0,18431,6603,65,12629,-4,0,16,0,137351,0
137399,423,-2058,122,-162,17,-433,12657,-200,-5,-336,-296,35231,14,34,127,0,0,3476,-164,0,18431,6603,65,12639,-4,0,16,0,137398,0
137409,312,-2077,149,-150,37,-400,12581,-148,16,-360,-288,35239,26,34,127,0,0,3460,-164,0,18431,6603,65,12649,-4,0,16,0,137398,0
137419,302,-2086,126,-132,55,-398,12515,-130,51,-434,-272,35234,24,35,127,0,0,3447,-142,0,18431,6603,65,12659,-4,0,16,0,137398,0
137430,286,-2080,161,-118,57,-414,12440,-156,14,-405,-288,35231,14,35,127,0,0,3434,-148,0,18431,6603,65,12670,-4,0,16,0,137413,0
137440,267,-2062,182,-140,58,-450,12364,-161,-16,-374,-272,35232,12,35,127,0,0,3411,-181,0,18431,6603,65,12680,-4,0,16,0,137429,0
137450,203,-2071,224,-173,37,-501,12293,-171,4,-489,-312,35234,11,35,127,0,0,3400,-153,0,18431,6603,65,12690,-4,0,16,0,137429,0
137460,126,-2075,246,-180,47,-556,12208,-177,-29,-423,-312,35231,23,35,127,0,0,3379,-181,0,18431,6603,65,12700,-4,0,16,0,137460,0
137470,146,-2075,264,-225,66,-639,12133,-165,-7,-524,-376,35229,13,35,127,0,0,3356,-230,0,18431,6603,65,12710,-4,0,16,0,137460,0
137480,164,-2086,279,-258,65,-693,12039,-219,-19,-499,-448,35230,13,34,127,0,0,3338,-236,0,18431,6603,65,12720,-4,0,16,0,137460,0
137490,186,-2045,276,-309,41,-757,11930,-256,-69,-469,-440,35228,18,35,127,0,0,3309,-258,0,18431,6603,65,12730,-4,0,16,0,137460,0
137500,161,-2065,240,-343,35,-791,11815,-244,-42,-445,-488,35230,34,35,127,0,0,3292,-285,0,18431,6603,65,12740,-4,0,16,0,137491,0
137510,189,-2063,188,-354,37,-829,11703,-256,3,-513,-496,35227,36,35,127,0,0,3264,-241,0,18431,6603,65,12750,-4,0,16,0,137491,0
137520,191,-2058,159,-348,41,-862,11596,-257,-9,-483,-560,35228,53,35,127,0,0,3238,-324,0,18431,6603,65,12760,-4,0,16,0,137491,0
137530,270,-2040,142,-341,26,-859,11470,-286,-25,-525,-560,35230,37,35,127,0,0,3214,-241,0,18431,6603,65,12770,-4,0,16,0,137507,0
137540,253,-2068,123,-343,14,-884,11344,-283,-9,-510,-584,35229,23,35,127,0,0,3188,-247,0,18431,6603,65,12780,-4,0,16,0,137523,0
137550,239,-2050,149,-350,31,-894,11206,-318,-24,-484,-576,35233,24,35,127,0,0,3161,-241,0,18431,6603,65,12790,-4,0,16,0,137523,0
137560,268,-2046,125,-344,31,-896,11066,-301,-26,-466,-552,35229,25,35,127,0,0,3132,-307,0,18431,6603,65,12800,-4,0,16,0,137554,0
137570,282,-2004,64,-301,13,-836,10939,-289,27,-542,-528,35231,37,35,127,0,0,3108,-203,0,18431,6603,65,12810,-4,0,16,0,137554,0
137580,320,-1981,26,-273,29,-822,10809,-284,13,-499,-528,35237,44,35,127,0,0,3084,-230,0,18431,6603,65,12820,-4,0,16,0,137554,0
137590,316,-2027,64,-255,67,-777,10684,-270,3,-503,-528,35236,35,35,127,0,0,3065,-197,0,18431,6603,65,12830,-4,0,16,0,137569,0
137600,388,-2109,63,-272,98,-731,10568,-255,25,-514,-488,35239,30,35,127,0,0,3038,-175,0,18431,6603,65,12840,-4,0,16,0,137569,0
137610,325,-2074,116,-243,169,-613,10448,-262,11,-485,-464,35232,27,35,127,0,0,3020,-142,0,18431,6603,65,12850,-4,0,16,0,137585,0
137620,468,-2031,103,-206,126,-598,10329,-251,-1,-425,-352,35238,16,35,127,0,0,3000,-208,0,18431,6603,65,12860,-4,0,16,0,137648,0
137630,503,-2123,131,-156,96,-482,10239,-170,68,-499,-320,35240,25,35,127,0,0,2991,-115,0,18431,6603,65,12870,-4,0,16,0,137648,0
137640,460,-2113,179,-131,71,-401,10172,-163,98,-532,-272,35234,31,35,127,0,0,2982,-43,0,18431,6603,65,12880,-4,0,16,0,137663,0
137650,429,-2082,176,-121,84,-339,10102,-152,23,-427,-216,35237,41,35,127,0,0,2970,-104,0,18431,6603,65,12890,-4,0,16,0,137663,0
137660,420,-2092,182,-106,104,-298,10068,-61,63,-592,-232,35230,35,35,127,0,0,2965,-65,0,18431,6603,65,12900,-4,0,16,0,137663,0
137670,380,-2053,172,-88,111,-211,10026,-75,51,-474,-232,35232,16,35,127,0,0,2959,-43,0,18431,6603,65,12910,-4,0,16,0,137663,0
137680,367,-2058,134,-96,113,-181,9985,-103,-14,-423,-176,35224,10,35,127,0,0,2957,-32,0,18431,6603,65,12920,-4,0,16,0,137663,0
137691,334,-2026,139,-76,150,-209,9958,-20,32,-492,-152,35233,2,34,127,0,0,2950,-21,0,18431,6603,65,12931,-4,0,16,0,137663,0
137701,333,-2043,213,-91,137,-165,9948,-31,64,-594,-248,35250,0,34,127,0,0,2946,-21,0,18431,6603,65,12941,-4,0,16,0,137679,0
137711,419,-2122,225,-108,68,-172,9914,-93,-40,-450,-192,35258,2,35,127,0,0,2944,0,0,18431,6603,65,12951,-4,0,16,0,137710,0
137721,319,-2043,244,-104,75,-175,9898,1,-10,-471,-136,35247,14,35,127,0,0,2937,-54,0,18431,6603,65,12961,-4,0,16,0,137710,0
137731,291,-2058,253,-109,24,-112,9893,-16,71,-619,-184,35236,19,35,127,0,0,2939,32,0,18431,6603,65,12971,-4,0,16,0,137710,0
137741,350,-2179,253,-97,12,-126,9892,0,18,-551,-176,35231,23,35,127,0,0,2942,21,0,18431,6603,65,12981,-4,0,16,0,137710,0
137751,339,-2168,271,-113,-6,-161,9890,-1,5,-554,-176,35237,30,35,127,0,0,2937,-10,0,18431,6603,65,12991,-4,0,16,0,137726,0
137761,272,-2132,290,-175,-31,-171,9889,5,4,-533,-192,35248,30,35,127,0,0,2939,0,0,18431,6603,65,13001,-4,0,16,0,137741,0
137771,245,-2140,284,-186,-88,-137,9888,5,2,-457,-96,35253,53,35,127,0,0,2948,87,0,18431,6603,65,13011,-4,0,16,0,137757,0
137781,268,-2171,232,-182,-122,-150,9890,6,8,-277,-40,35251,45,35,127,0,0,2957,109,0,18431,6603,65,13021,-4,0,16,0,137772,0
137791,301,-2143,208,-201,-96,-209,9904,54,31,14,8,35245,41,35,127,0,0,2964,43,0,18431,6603,65,13031,-4,0,16,0,137772,0
137801,296,-2035,188,-262,-55,-245,9915,16,22,141,48,35231,25,35,127,0,0,2970,87,0,18431,6603,65,13041,-4,0,16,0,137772,0
137811,274,-2041,158,-283,-69,-230,9924,18,-17,340,152,35234,5,35,127,0,0,2979,98,0,18431,6603,65,13051,-4,0,16,0,137788,0
137821,289,-2117,142,-284,-56,-244,9945,64,20,457,160,35243,2,35,127,0,0,2986,43,0,18431,6603,65,13061,-4,0,16,0,137788,0
137831,310,-2114,134,-292,-34,-278,9990,113,79,319,144,35251,-13,34,127,0,0,2994,98,0,18431,6603,65,13071,-4,0,16,0,137819,0
137841,318,-2051,151,-330,5,-323,10023,71,30,417,216,35244,-5,34,127,0,0,3003,87,0,18431,6603,65,13081,-4,0,16,0,137835,0
137851,331,-2074,157,-343,-4,-300,10072,99,2,308,160,35240,-11,35,127,0,0,3012,98,0,18431,6603,65,13091,-4,0,16,0,137835,0
137861,324,-2085,185,-326,-9,-309,10123,126,34,284,168,35241,2,35,127,0,0,3019,65,0,18431,6603,65,13101,-4,0,16,0,137835,0
137871,415,-2058,155,-339,12,-347,10155,54,-26,344,176,35250,8,35,127,0,0,3030,98,0,18431,6603,65,13111,-4,0,16,0,137866,0
137881,444,-2027,147,-350,31,-355,10186,57,-46,386,168,35251,17,35,127,0,0,3038,98,0,18431,6603,65,13121,-4,0,16,0,137866,0
137891,442,-2000,192,-335,27,-364,10211,60,-16,516,200,35245,27,35,127,0,0,3047,98,0,18431,6603,65,13131,-4,0,16,0,137866,0
137901,462,-1987,168,-334,-18,-344,10272,151,53,323,152,35239,32,35,127,0,0,3054,87,0,18431,6603,65,13141,-4,0,16,0,137882,0
137912,460,-1993,164,-333,-36,-329,10335,86,67,225,104,35248,25,35,127,0,0,3058,49,0,18431,6603,65,13152,-4,0,16,0,137882,0
137922,451,-1993,136,-325,-23,-351,10350,25,-104,368,136,35260,34,35,127,0,0,3065,60,0,18431,6603,65,13162,-4,0,16,0,137913,0
137932,468,-2010,106,-313,-10,-380,10369,44,-73,377,144,35261,48,35,127,0,0,3069,27,0,18431,6603,65,13172,-4,0,16,0,137913,0
137942,489,-2020,86,-308,-19,-373,10384,10,1,416,176,35254,33,35,127,0,0,3072,60,0,18431,6603,65,13182,-4,0,16,0,137913,0
137952,456,-2032,89,-307,-15,-376,10392,25,-27,506,160,35257,37,34,127,0,0,3082,54,0,18431,6603,65,13192,-4,0,16,0,137929,0
137962,444,-2073,62,-289,-8,-378,10411,66,7,538,208,35263,40,34,127,0,0,3078,-5,0,18431,6603,65,13202,-4,0,16,0,137944,0
137972,435,-2064,43,-258,-16,-370,10454,83,71,283,120,35255,57,35,127,0,0,3084,-5,0,18431,6603,65,13212,-4,0,16,0,137944,0
137982,431,-2033,32,-235,-17,-390,10468,13,-18,403,160,35256,35,35,127,0,0,3091,43,0,18431,6603,65,13222,-4,0,16,0,137976,0
137992,418,-2011,22,-231,-4,-403,10485,42,-60,399,168,35246,17,34,127,0,0,3095,65,0,18431,6603,65,13232,-4,0,16,0,137976,0
138002,437,-2009,41,-223,14,-410,10515,53,34,362,152,35249,8,35,127,0,0,3100,76,0,18431,6603,65,13242,-4,0,16,0,137976,0
138012,450,-1990,66,-209,4,-432,10525,14,-20,466,168,35248,7,35,127,0,0,3104,49,0,18431,6603,65,13252,-4,0,16,0,137976,0
138022,454,-1995,74,-204,12,-483,10539,37,-39,495,184,35252,22,35,127,0,0,3109,27,0,18431,6603,65,13262,-4,0,16,0,138007,0
138032,453,-2006,97,-222,10,-501,10584,114,67,343,96,35252,7,35,127,0,0,3112,-5,0,18431,6603,65,13272,-4,0,16,0,138007,0
138042,478,-2015,152,-240,-2,-529,10608,30,20,302,112,35251,8,35,127,0,0,3115,65,0,18431,6603,65,13282,-4,0,16,0,138007,0
138052,439,-2031,172,-246,-24,-559,10633,54,-37,264,80,35245,9,35,127,0,0,3117,38,0,18431,6603,65,13292,-4,0,16,0,138038,0
138062,441,-2083,191,-259,-78,-588,10639,0,-24,299,72,35240,21,35,127,0,0,3121,0,0,18431,6603,65,13302,-4,0,16,0,138038,0
138072,407,-2065,194,-268,-122,-642,10641,1,-42,361,128,35246,17,35,127,0,0,3121,10,0,18431,6603,65,13312,-4,0,16,0,138038,0
138082,293,-1813,170,-431,-242,-760,10647,7,-2,390,96,35257,27,35,127,0,0,3122,-43,0,18431,6603,65,13322,-4,0,16,0,138069,0
138092,399,-2295,161,-425,-220,-804,10649,10,-2,386,112,35255,24,34,127,0,0,3124,21,0,18431,6603,65,13332,-4,0,16,0,138069,0
138102,377,-2387,261,-331,-136,-841,10647,1,-12,380,120,35248,32,35,127,0,0,3121,16,0,18431,6603,65,13342,-4,0,16,0,138069,0
138112,254,-2164,245,-360,-192,-857,10648,1,0,405,136,35237,18,34,127,0,0,3130,76,0,18431,6603,65,13352,-4,0,16,0,138085,0
138122,312,-2158,216,-467,-197,-942,10662,49,17,524,216,35249,32,34,127,0,0,3140,98,0,18431,6603,65,13362,-4,0,-22,0,138194,0
138132,323,-2204,206,-497,-208,-1014,10718,159,102,385,192,35259,40,35,127,0,0,3149,76,0,18431,6603,65,13372,-4,0,-24,0,138194,0
138142,354,-2154,171,-555,-244,-1160,10776,118,97,364,200,35256,35,35,127,0,0,3159,82,0,18431,6603,65,13382,-4,0,-24,0,138194,0
138152,323,-2073,178,-622,-284,-1242,10817,91,-34,475,208,35237,17,35,127,0,0,3171,93,0,18431,6603,65,13392,-4,0,-24,0,138194,0
138162,363,-2214,186,-664,-369,-1295,10869,120,-7,486,272,35228,5,35,127,0,0,3195,186,0,18431,6603,65,13402,-4,0,-23,0,138194,0
138172,341,-2143,54,-717,-265,-1358,10948,178,80,519,392,35235,15,35,127,0,0,3218,236,0,18431,6603,65,13412,-4,0,-23,0,138210,0
138182,-55,-2334,200,-771,-248,-1387,11044,234,77,424,288,35233,34,35,127,0,0,3227,148,0,18431,6603,65,13422,-4,0,-23,0,138210,0
138192,493,-2630,196,-813,-259,-1474,11148,223,52,388,456,35229,40,35,127,0,0,3262,357,0,18431,6603,65,13432,-4,0,-22,0,138210,0
138202,263,-2247,134,-831,-246,-1820,11267,271,45,456,520,35229,24,35,127,0,0,3292,263,0,18431,6603,65,13442,-4,0,-22,0,138210,0
138212,232,-2120,7,-967,-350,-1768,11400,297,53,467,560,35236,13,35,127,0,0,3321,362,0,18431,6603,65,13452,-4,0,-21,0,138210,0
138222,-23,-2201,107,-917,-464,-1751,11548,335,56,438,680,35237,29,35,127,0,0,3364,472,0,18431,6603,65,13462,-4,0,-20,0,138210,0
138233,220,-2335,-26,-960,-371,-2160,11727,382,54,490,848,35239,38,35,127,0,0,3414,461,0,18431,6603,65,13473,-4,0,-20,0,138210,0
138243,81,-2251,-24,-1029,-241,-2394,11917,439,87,452,928,35244,48,35,127,0,0,3454,362,0,18431,6603,65,13483,-4,0,-19,0,138210,0
138253,53,-2153,48,-1077,-356,-2421,12112,436,58,420,952,35258,37,35,127,0,0,3504,549,0,18431,6603,65,13493,-4,0,-18,0,138272,0
138263,18,-2140,69,-1007,-396,-2590,12317,463,32,520,1128,35253,41,35,127,0,0,3559,505,0,18431,6603,65,13503,-4,0,-18,0,138272,0
138273,291,-2263,-162,-962,-277,-2968,12540,500,51,536,1272,35244,44,35,127,0,0,3614,516,0,18431,6603,65,13513,-4,0,-17,0,138272,0
138283,169,-2266,-128,-942,-207,-3194,12788,544,81,451,1248,35221,34,35,127,0,0,3658,428,0,18431,6603,65,13523,-4,0,-16,0,138272,0
138293,230,-2416,-23,-835,-139,-3405,13035,540,48,426,1232,35216,40,35,127,0,0,3702,472,0,18431,6603,65,13533,-4,0,-15,0,138288,0
138303,362,-2451,-16,-803,-179,-3585,13275,531,-14,499,1272,35220,45,35,127,0,0,3750,461,0,18431,6603,65,13543,-4,0,-15,0,138288,0
138313,363,-2443,118,-655,-329,-3707,13526,549,15,418,1200,35225,43,35,127,0,0,3792,439,0,18431,6603,65,13553,-4,0,-13,0,138288,0
138323,475,-2504,100,-624,-357,-3847,13769,538,8,512,1248,35233,43,35,127,0,0,3843,483,0,18431,6603,65,13563,-4,0,-13,0,138319,0
138333,736,-2373,-23,-656,-460,-4200,14017,559,-8,557,1280,35241,42,35,127,0,0,3889,461,0,18431,6603,65,13573,-4,0,-11,0,138319,0
138343,686,-2277,122,-649,-656,-4362,14277,577,40,489,1160,35234,55,35,127,0,0,3933,395,0,18431,6603,65,13583,-4,0,-11,0,138319,0
138353,691,-2516,230,-611,-1218,-4446,14530,541,9,442,1144,35224,58,35,127,0,0,3970,395,0,18431,6603,65,13593,-4,0,-9,0,138335,0
138363,508,-2700,325,-550,-1562,-4402,14768,518,-47,490,1120,35218,40,35,127,0,0,4023,505,0,18431,6603,65,13603,-4,0,-9,0,138335,0
138373,431,-2650,159,-513,-1860,-4454,15014,561,-17,526,1240,35228,33,35,127,0,0,4084,615,0,18431,6603,65,13613,-4,0,-7,0,138350,0
138383,503,-2660,138,-507,-1884,-4537,15280,590,58,524,1424,35234,43,35,127,0,0,4157,725,0,18431,6603,65,13623,-4,0,-6,0,138350,0
138393,361,-2830,194,-486,-2003,-4522,15572,660,84,630,1584,35231,64,35,127,0,0,4234,780,0,18431,6603,65,13633,-4,0,-5,0,138366,0
138404,619,-2851,249,-516,-2044,-4385,15934,753,125,647,1920,35223,69,35,127,0,0,4338,983,0,18431,6603,65,13644,-4,0,-3,0,138397,0
138414,519,-2699,332,-451,-2535,-4052,16313,878,170,749,2296,35225,63,35,127,0,0,4449,1126,0,18431,6603,65,13654,-4,0,-2,0,138397,0
138424,668,-2647,358,-446,-2887,-3510,16755,1034,213,847,2720,35224,59,35,127,0,0,4585,1318,0,18431,6603,65,13664,-4,0,0,0,138397,0
138434,283,-2288,397,-422,-3195,-2602,17283,1232,287,995,3376,35215,68,35,127,0,0,4750,1702,0,18431,6603,65,13674,-4,0,1,0,138397,0
138444,256,-1957,369,-362,-3265,-1953,17931,1506,396,1035,4144,35211,96,35,127,0,0,4954,2109,0,18431,6603,65,13684,-4,0,3,0,138429,0
138454,1137,-1804,64,-302,-3013,-1470,18733,1847,521,1054,4712,35204,134,34,127,0,0,5140,1873,0,18431,6603,65,13694,-4,0,5,0,138444,0
138464,1183,-1833,-31,-307,-2615,-1333,19608,1912,446,569,4368,35205,151,35,127,0,0,5248,994,0,18431,6603,65,13704,-4,0,7,0,138444,0
138474,1391,-1390,-274,-291,-1797,-1044,20400,1649,-21,127,3240,35209,121,35,127,0,0,5264,43,0,18431,6603,65,13714,-4,0,9,0,138444,0
138484,1477,-1106,-391,-306,-1231,-748,21029,1265,-479,-142,1488,35226,80,35,127,0,0,5204,-670,0,18431,6603,65,13724,-4,0,12,0,138460,0
138494,878,-824,-325,-96,-686,-319,21420,632,-743,-1225,-568,35237,43,35,127,0,0,5073,-1329,0,18431,6603,65,13734,-4,0,14,0,138522,0
138504,956,-975,-303,-57,-473,29,21257,-550,-1521,-1082,-1840,35242,32,34,127,0,0,4917,-1538,0,18431,6603,65,13744,-4,0,16,0,138522,0
138514,631,-1052,-8,100,-473,750,20925,-967,-1468,-1067,-2872,35228,37,35,127,0,0,4759,-1576,0,18431,6603,65,13754,-4,0,18,0,138538,0
138524,680,-1146,2,117,-575,1378,20393,-1249,-712,-758,-3312,35217,67,35,127,0,0,4631,-1257,0,18431,6603,65,13764,-4,0,21,0,138538,0
138534,603,-1189,-121,180,-632,2290,19778,-1390,-464,-441,-3192,35204,84,35,127,0,0,4531,-933,0,18431,6603,65,13774,-4,0,23,0,138538,0
138544,567,-1213,-164,269,-538,2779,19154,-1350,-149,-180,-2752,35204,68,35,127,0,0,4461,-703,0,18431,6603,65,13784,-4,0,26,0,138554,0
138554,552,-1161,-242,429,-262,3412,18582,-1210,111,-111,-2320,35209,43,35,127,0,0,4400,-642,0,18431,6603,65,13794,-4,0,28,0,138554,0
138564,553,-1165,-220,516,-66,3835,18078,-1064,239,-88,-1888,35215,23,35,127,0,0,4341,-538,0,18431,6603,65,13804,-4,0,31,0,138554,0
138574,599,-1142,-248,686,279,4417,17651,-893,278,-105,-1560,35219,21,35,127,0,0,4301,-450,0,18431,6603,65,13814,-4,0,33,70,138554,0
138584,603,-1083,-291,768,493,4797,17292,-749,275,-157,-1304,35235,22,35,127,0,0,4253,-406,0,18431,6603,65,13824,-4,0,36,62,138554,0
138594,628,-1043,-300,873,788,5375,16986,-651,225,-204,-1152,35250,32,35,127,0,0,4206,-466,0,18431,6603,65,13834,-4,0,39,56,138600,0
138604,623,-1064,-285,946,952,5748,16713,-577,158,-232,-1016,35255,38,35,127,0,0,4173,-362,0,18431,6603,65,13844,-4,0,42,49,138600,0
138614,625,-1160,-241,1051,1150,6270,16469,-509,118,-280,-888,35240,45,35,127,0,0,4135,-390,0,18431,6603,65,13854,-4,0,44,45,138600,0
138624,620,-1241,-181,1140,1259,6609,16243,-489,85,-236,-768,35226,41,35,127,0,0,4098,-357,0,18431,6603,65,13864,-4,0,47,39,138600,0
138634,531,-1334,-88,1295,1371,7083,16033,-440,62,-283,-680,35226,46,35,127,0,0,4075,-291,0,18431,6603,65,13874,-4,0,50,36,138600,0
138644,499,-1393,-72,1415,1454,7365,15841,-418,72,-291,-584,35243,55,34,127,0,0,4050,-230,0,18431,6603,65,13884,-4,0,53,31,138632,0
138654,463,-1481,-58,1625,1585,7804,15665,-366,59,-276,-416,35245,48,35,127,0,0,4036,-87,0,18431,6603,65,13894,-4,0,56,28,138632,0
138665,453,-1564,-53,1875,1770,8221,15500,-311,82,-198,-224,35240,39,35,127,0,0,4020,-54,0,18431,6603,65,13905,-4,0,59,24,138632,0
138675,487,-1628,-61,2035,1890,8474,15394,-183,133,-8,-64,35239,14,35,127,0,0,4020,-10,0,18431,6603,65,13915,-4,0,62,21,138647,0
138685,457,-1758,-16,2275,2101,8752,15374,25,264,77,-24,35244,16,35,127,0,0,4020,0,0,18431,6603,65,13925,-4,0,65,18,138663,0
138695,448,-1858,2,2435,2278,8922,15377,-15,202,51,-40,35249,8,35,127,0,0,4023,10,0,18431,6603,65,13935,-4,0,68,16,138694,0
138705,369,-2022,52,2682,2540,9144,15381,17,17,96,-8,35245,13,35,127,0,0,4023,0,0,18431,6603,65,13945,-4,0,72,13,138694,0
138715,363,-2145,88,2843,2707,9299,15379,-5,-2,138,48,35241,16,35,127,0,0,4027,43,0,18431,6603,65,13955,-4,0,74,11,138694,0
138725,361,-2324,155,3069,2939,9497,15388,20,7,324,120,35239,9,35,127,0,0,4040,109,0,18431,6603,65,13965,-4,0,78,9,138694,0
138735,336,-2466,203,3202,3100,9572,15422,104,69,424,232,35237,10,35,127,0,0,4056,175,0,18431,6603,65,13975,-4,0,80,8,138710,0
138745,340,-2685,286,3327,3311,9589,15490,164,124,458,328,35249,30,35,127,0,0,4082,263,0,18431,6603,65,13985,-4,0,84,6,138725,0
138755,354,-2832,332,3348,3422,9534,15588,247,122,435,352,35255,31,35,127,0,0,4106,241,0,18431,6603,65,13995,-4,0,87,6,138725,0
138765,461,-3047,335,3272,3412,9376,15698,241,85,408,448,35257,48,34,127,0,0,4139,340,0,18431,6603,65,14005,-4,0,91,4,138757,0
138775,468,-3184,350,3182,3241,9218,15838,302,70,385,480,35246,57,35,127,0,0,4161,241,0,18431,6603,65,14015,-4,0,93,4,138772,0
138785,634,-3373,339,2940,2757,8903,15971,289,38,380,480,35230,60,35,127,0,0,4187,197,0,18431,6603,65,14025,-4,0,96,3,138772,0
138795,712,-3476,382,2702,2367,8694,16105,293,-13,416,512,35230,37,35,127,0,0,4220,285,0,18431,6603,65,14035,-4,0,99,3,138772,0
138805,872,-3632,387,2321,1826,8366,16247,306,18,434,512,35235,15,34,127,0,0,4251,274,0,18431,6603,65,14045,-4,0,102,3,138772,0
138815,964,-3566,415,2044,1362,8094,16389,319,13,415,488,35245,9,35,127,0,0,4273,230,0,18431,6603,65,14055,-4,0,104,3,138803,0
138825,963,-3379,471,1674,430,7242,16527,313,-19,373,384,35242,39,35,127,0,0,4284,98,0,18431,6603,65,14065,-4,0,106,3,138803,0
138835,1046,-3180,439,1690,-436,6578,16659,260,4,226,104,35231,46,35,127,0,0,4282,-65,0,18431,6603,65,14075,-4,0,108,3,138803,0
138845,1227,-2441,302,1969,-1661,5150,16716,31,-149,-142,-128,35232,44,35,127,0,0,4260,-241,0,18431,6603,65,14085,-4,0,109,4,138928,0
138855,1195,-1797,167,1886,-2477,4028,16652,-163,-387,-346,-272,35240,21,35,127,0,0,4229,-296,0,18431,6603,65,14095,-4,0,110,4,138928,0
138865,989,-1517,-52,1125,-3131,2249,16551,-248,-292,-403,-408,35243,35,35,127,0,0,4203,-318,0,18431,6603,65,14105,-4,0,111,4,138928,0
138875,638,-1838,-241,518,-3097,1031,16437,-253,-86,-432,-448,35240,24,35,127,0,0,4181,-197,0,18431,6603,65,14115,-4,0,112,4,138928,0
138885,354,-2794,-381,-132,-2395,-598,16306,-280,-59,-281,-288,35235,34,35,127,0,0,4172,-87,0,18431,6603,65,14125,-4,0,112,4,138944,0
138895,414,-3133,-398,-333,-1725,-1453,16193,-235,4,-156,-112,35233,16,35,127,0,0,4172,0,0,18431,6603,65,14135,-4,0,112,4,138944,0
138905,509,-2877,-389,-604,-684,-2292,16160,30,186,33,0,35231,29,35,127,0,0,4177,32,0,18431,6603,65,14145,-4,0,112,4,138944,0
138915,746,-2512,-357,-778,-50,-2702,16187,41,288,90,64,35222,20,35,127,0,0,4190,65,0,18431,6603,65,14155,-4,0,112,4,138944,0
138925,843,-2052,-300,-912,626,-3200,16200,27,81,323,104,35221,13,35,127,0,0,4194,54,0,18431,6603,65,14165,-4,0,112,4,138944,0
138935,962,-1892,-310,-933,860,-3401,16225,71,-3,288,72,35227,8,35,127,0,0,4194,0,0,18431,6603,65,14175,-4,0,112,4,138944,0
138945,-2706,-6414,-479,-1208,-508,-2007,16241,17,6,538,704,35233,-3,35,127,0,0,4236,505,0,2824,234,66,9,1,1,112,4,138944,0
138955,-817,-5072,403,-794,1161,-825,16438,691,289,1963,3088,35224,14,35,127,0,0,4396,1538,0,2824,234,66,19,1,1,112,4,138944,0
138965,-249,-1176,733,428,2654,-1332,17024,1430,1138,1194,3800,35210,69,35,127,0,0,4456,538,0,2824,234,66,29,1,1,112,4,138944,0
138976,-116,-410,480,464,304,-1189,17810,1592,915,606,3992,35212,99,35,127,0,0,4519,774,0,2824,234,66,40,1,1,112,4,138960,0
138986,289,-1625,514,353,424,-87,18578,1743,268,967,4744,35229,131,35,127,0,0,4650,1450,0,2824,234,66,50,1,1,112,4,138960,0
138996,-942,-2477,310,599,200,480,19486,2106,366,1240,5776,35237,126,35,127,0,0,4839,1950,0,2824,234,66,60,1,1,112,4,138991,0
139006,-1179,-2103,80,1195,55,137,20566,2483,607,1311,6824,35228,180,35,127,0,0,5025,1884,0,2824,234,66,70,1,1,112,4,138991,0
139016,-1043,-1958,-361,1039,762,-480,21805,2822,638,933,7176,35204,233,35,127,0,0,5159,1279,0,2824,234,66,80,1,1,112,4,138991,0
139026,-852,-1627,-384,394,1634,-1203,23130,2896,480,204,5936,35193,234,35,127,0,0,5260,950,0,2824,234,66,90,1,1,112,4,138991,0
139036,-899,-2281,-68,120,1508,-1550,24327,2497,-80,-143,4512,35205,158,35,127,0,0,5345,845,0,2824,234,66,100,1,1,112,4,139022,0
139046,-25,-3237,464,316,1003,-2232,25309,2022,-675,-210,3408,35229,75,35,127,0,0,5406,521,0,2824,234,66,110,1,1,112,4,139022,0
139056,-147,-2567,353,250,226,-2498,26095,1596,-790,-303,1936,35240,21,35,127,0,0,5405,-27,0,2824,234,66,120,1,1,112,4,139022,0
139066,41,-2219,170,-348,-489,-2496,26648,1049,-813,-401,704,35245,-11,35,127,0,0,5394,-164,0,2824,234,66,130,1,1,112,4,139053,0
139076,-498,-2241,111,-471,-560,-2657,26958,485,-900,-856,-256,35255,-13,35,127,0,0,5350,-384,0,2824,234,66,140,1,1,112,4,139053,0
139086,-854,-1930,-197,-179,421,-3642,26894,-276,-1193,-731,-992,35250,-17,35,127,0,0,5253,-1098,0,2824,234,66,150,1,1,112,4,139085,0
139096,-439,-1599,111,-72,569,-3406,26659,-611,-1042,-824,-576,35253,-3,35,127,0,0,5145,-983,580,2824,234,66,160,1,1,112,4,139085,0
139106,415,-1792,615,-163,275,-3030,26431,-383,-329,326,120,35243,15,35,127,0,0,5050,-961,780,2824,234,66,170,1,1,112,4,139085,0
139116,262,-1275,750,-171,-384,-1808,26383,-59,390,579,96,35251,30,35,127,0,0,5014,-236,980,2824,234,66,180,1,1,112,4,139085,0
139126,695,-2197,360,-131,-654,-1364,26288,-298,271,617,-88,35254,22,35,127,0,0,5002,-148,1180,2824,234,66,190,1,1,112,4,139116,0
139136,244,-2112,62,108,-964,-1460,26028,-694,-418,526,-472,35252,25,35,127,0,0,4971,-285,1380,2824,234,66,200,1,1,112,4,139116,0
139146,-372,-2076,-268,249,516,-1719,25631,-914,-608,577,-488,35250,9,35,127,0,0,4902,-692,1500,2824,234,66,210,1,1,112,4,139116,0
139157,-322,-2047,235,543,826,-1382,25241,-672,-147,940,8,35249,10,35,127,0,0,4822,-747,1500,2824,234,66,221,1,1,112,4,139132,0
139167,217,-1950,415,472,11,-859,25063,-261,447,1155,136,35258,7,35,127,0,0,4787,-296,1500,2824,234,66,231,1,1,112,4,139147,0
139177,195,-2152,309,548,-564,-331,25005,-105,577,884,152,35254,-1,35,127,0,0,4781,-65,1500,2824,234,66,241,1,1,112,4,139147,0
139187,-354,-2049,-16,583,-827,-343,24965,-72,256,849,160,35249,8,35,127,0,0,4783,32,1500,2824,234,66,251,1,1,112,4,139194,0
139197,-728,-1977,175,544,-232,-528,24902,-184,-6,881,56,35250,17,35,127,0,0,4781,-65,1500,2824,234,66,261,1,1,112,4,139225,0
139207,-821,-2085,614,496,32,-723,24772,-339,-174,835,-48,35244,23,35,127,0,0,4759,-241,1500,2824,234,66,271,1,1,112,4,139241,0
139217,-552,-1972,1040,349,346,-1068,24561,-510,-289,774,-120,35247,13,35,127,0,0,4717,-395,1500,2824,234,66,281,1,1,112,4,139257,0
139227,-498,-1955,1194,130,302,-1309,24286,-628,-270,721,-144,35242,-6,35,127,0,0,4664,-527,1500,2824,234,66,291,1,1,112,4,139257,0
139237,-604,-1883,1158,-182,106,-1412,24008,-590,-129,874,-72,35248,-5,35,127,0,0,4616,-494,1500,2824,234,66,301,1,1,112,4,139257,0
139247,-551,-1973,1125,-312,-121,-1441,23750,-558,35,895,-80,35257,-22,35,127,0,0,4572,-406,1500,2824,234,66,311,1,1,112,4,139257,0
139257,-394,-2040,782,-436,-204,-1653,23479,-620,14,809,-160,35253,-21,35,127,0,0,4530,-417,1500,2824,234,66,321,1,1,112,4,139257,0
139267,-229,-2064,612,-519,-91,-1822,23161,-734,-114,792,-280,35247,-36,35,127,0,0,4482,-527,1500,2824,234,66,331,1,1,112,4,139257,0
139277,-91,-2072,486,-645,100,-2006,22779,-874,-212,750,-464,35243,-25,35,127,0,0,4416,-681,1500,2824,234,66,341,1,1,112,4,139272,0
139287,-161,-2019,409,-696,158,-2025,22372,-887,-180,827,-408,35242,-8,35,127,0,0,4341,-758,1500,2824,234,66,351,1,1,112,4,139272,0
139297,-195,-2006,243,-705,60,-1934,21996,-793,7,909,-216,35253,-14,35,127,0,0,4271,-692,1500,2824,234,66,361,1,1,112,4,139272,0
139307,43,-1997,205,-695,-162,-1794,21701,-592,224,1035,-80,35257,-12,35,127,0,0,4216,-549,1500,2824,234,66,371,1,1,112,4,139272,0
139317,421,-2083,261,-666,-486,-1631,21460,-524,270,977,-88,35261,-30,35,127,0,0,4179,-384,1500,2824,234,66,381,1,1,112,4,139319,0
139327,-3,-2029,101,-632,-309,-1691,21179,-674,28,764,-304,35268,-24,35,127,0,0,4133,-494,1500,2824,234,66,391,1,1,112,4,139335,0
139337,-256,-2037,93,-531,181,-1978,20835,-796,-208,806,-408,35247,-11,35,127,0,0,4069,-692,1500,2824,234,66,401,1,1,112,4,139335,0
139347,-50,-2000,244,-488,340,-2079,20454,-844,-193,800,-384,35240,-15,35,127,0,0,3999,-736,1500,2824,234,66,411,1,1,112,4,139335,0
139357,245,-1996,556,-528,155,-1952,20087,-782,-46,907,-256,35227,-17,35,127,0,0,3928,-692,1500,2824,234,66,421,1,1,112,4,139335,0
139367,325,-1982,566,-585,-86,-1822,19757,-696,103,939,-152,35234,-26,35,127,0,0,3871,-582,1500,2824,234,66,431,1,1,112,4,139335,0
139377,150,-2020,450,-630,-205,-1671,19461,-632,139,931,-128,35247,-20,35,127,0,0,3818,-505,1500,2824,234,66,441,1,1,112,4,139366,0
139387,136,-1991,329,-622,-114,-1718,19173,-649,80,877,-160,35246,-15,35,127,0,0,3768,-527,1500,2824,234,66,451,1,1,112,4,139382,0
139397,90,-2003,277,-604,42,-1861,18848,-737,-62,831,-248,35239,-22,35,127,0,0,3713,-571,1500,2824,234,66,461,1,1,112,4,139382,0
139407,166,-2002,337,-608,85,-1923,18486,-822,-141,818,-344,35236,-9,35,127,0,0,3647,-637,1500,2824,234,66,471,1,1,112,4,139382,0
139418,82,-2018,373,-600,101,-1945,18076,-791,-94,866,-160,35239,-10,35,127,0,0,3571,-708,1500,2824,234,66,482,1,1,112,4,139413,0
139428,106,-2023,320,-594,5,-1854,17774,-603,125,1052,-88,35249,-7,35,127,0,0,3520,-560,1500,2824,234,66,492,1,1,112,4,139413,0
139438,331,-2043,284,-584,-225,-1692,17530,-519,258,1004,-64,35246,-16,35,127,0,0,3471,-461,1500,2824,234,66,502,1,1,112,4,139413,0
139448,273,-2038,224,-557,-212,-1708,17272,-609,81,838,-232,35245,-23,34,127,0,0,3427,-488,1500,2824,234,66,512,1,1,112,4,139413,0
139458,-36,-2018,157,-508,20,-1983,16941,-776,-174,773,-360,35255,-12,35,127,0,0,3366,-615,1500,2824,234,66,522,1,1,112,4,139444,0
139468,-36,-2017,244,-493,130,-2139,16573,-804,-217,803,-296,35251,-4,35,127,0,0,3298,-725,1500,2824,234,66,532,1,1,112,4,139444,0
139478,149,-2049,454,-530,29,-2119,16229,-727,-24,941,-184,35243,-3,35,127,0,0,3228,-670,1500,2824,234,66,542,1,1,112,4,139444,0
139488,138,-2035,507,-568,-217,-2039,15935,-605,153,955,-112,35234,-30,35,127,0,0,3175,-565,1500,2824,234,66,552,1,1,112,4,139460,0
139498,190,-1999,393,-631,-372,-2054,15688,-532,194,1030,-48,35247,-30,35,127,0,0,3131,-417,1650,2824,234,66,562,1,1,112,4,139491,0
139508,70,-1802,257,-714,-386,-2192,15425,-620,64,983,-104,35258,-8,35,127,0,0,3083,-505,1870,2824,234,66,572,1,1,112,4,139491,0
139518,-72,-2079,331,-769,-259,-2511,15125,-773,-175,1005,-200,35255,-4,35,127,0,0,3025,-609,2140,2824,234,66,582,1,1,112,4,139491,0
139528,-74,-2032,311,-805,-237,-2672,14765,-775,-191,1322,-112,35243,-13,35,127,0,0,2956,-626,2450,2824,234,66,592,1,1,112,4,139522,0
139538,185,-2306,455,-1028,-688,-2572,14491,-513,151,1787,48,35249,-25,35,127,0,0,2905,-560,2790,2824,234,66,602,1,1,112,4,139522,0
139548,426,-2878,915,-965,-1392,-2335,14385,-130,517,1862,312,35254,-26,35,127,0,0,2889,-197,3140,2824,234,66,612,1,1,112,4,139553,0
139558,-460,-3143,867,-845,-1102,-2255,14363,-10,475,1862,488,35239,0,35,127,0,0,2887,-5,3230,2824,234,66,622,1,1,112,4,139553,0
139568,-517,-2506,299,-949,-786,-2583,14370,13,186,1966,488,35223,5,35,127,0,0,2887,-16,3290,2824,234,66,632,1,1,112,4,139553,0
139578,-61,-2130,83,-1173,-609,-2927,14368,-3,29,1981,512,35213,24,35,127,0,0,2889,-21,3340,2824,234,66,642,1,1,112,4,139553,0
139588,35,-2275,122,-1304,-776,-3058,14369,2,-8,2019,496,35215,27,35,127,0,0,2889,-5,3380,2824,234,66,652,1,1,112,4,139553,0
139598,-216,-2622,123,-1368,-792,-3331,14376,18,16,2038,512,35227,37,35,127,0,0,2894,54,3410,2824,234,66,662,1,1,112,4,139569,0
139608,-322,-2667,174,-1361,-700,-3580,14395,52,39,1996,672,35234,42,35,127,0,0,2892,0,3430,2824,234,66,672,1,1,112,4,139600,0
139618,-253,-2785,280,-1440,-642,-3766,14459,189,121,1896,1120,35245,39,35,127,0,0,2912,120,3430,2824,234,66,682,1,1,112,4,139600,0
139628,-386,-2396,356,-1490,-408,-3974,14629,455,310,1931,1760,35234,48,35,127,0,0,2941,307,3430,2824,234,66,692,1,1,112,4,139631,0
139638,-177,-2518,362,-1485,-673,-3852,14908,678,422,2118,2328,35215,77,35,127,0,0,2992,532,3500,2824,234,66,702,1,1,112,4,139631,0
139648,-38,-2744,477,-1490,-892,-3855,15284,891,393,2194,2832,35201,131,35,127,0,0,3058,725,3680,2824,234,66,712,1,1,112,4,139631,0
139658,-203,-2681,198,-1430,-943,-4263,15754,1095,365,2265,3384,35197,163,34,127,0,0,3146,895,3900,2824,234,66,722,1,1,112,4,139631,0
139669,29,-2872,275,-1451,-1177,-4512,16349,1204,288,2455,3528,35190,210,35,127,0,0,3254,977,4200,2824,234,66,733,1,1,112,4,139647,0
139679,-380,-2863,484,-1201,-1199,-4537,16876,1149,69,2564,3504,35188,243,35,127,0,0,3350,966,4550,2824,234,66,743,1,1,112,4,139678,0
139689,-743,-2379,-9,-989,-1069,-5006,17410,1204,-12,2701,3872,35177,271,35,127,0,0,3454,1032,4920,2824,234,66,753,1,1,112,4,139694,0
139699,-357,-2516,-165,-888,-1039,-5364,18014,1388,168,2933,4256,35168,292,35,127,0,0,3561,1120,4950,2824,234,66,763,1,1,112,4,139694,0
139709,51,-2786,-69,-631,-1419,-5574,18684,1492,273,2990,4368,35146,321,35,127,0,0,3680,1186,4930,2824,234,66,773,1,1,112,4,139694,0
139719,295,-2791,67,-506,-1373,-5590,19354,1452,104,2905,4288,35134,359,35,127,0,0,3803,1241,5010,2824,234,66,783,1,1,112,4,139694,0
139729,241,-2587,-327,-618,-1610,-6088,20004,1433,-52,2993,4504,35123,391,35,127,0,0,3919,1197,5590,2824,234,66,793,1,1,112,4,139710,0
139739,568,-2535,38,-907,-2067,-6124,20679,1527,26,3316,5000,35116,392,34,127,0,0,4036,1230,6180,2824,234,66,803,1,1,112,4,139710,0
139749,490,-3238,506,-807,-2620,-5841,21448,1784,258,3653,5800,35115,422,35,127,0,0,4183,1461,6400,2824,234,66,813,1,1,112,4,139741,0
139759,182,-3446,527,-739,-3132,-5518,22383,2184,532,3724,6672,35112,479,35,127,0,0,4354,1801,6280,2824,234,66,823,1,1,112,4,139741,0
139769,249,-3581,493,-779,-3675,-5251,23523,2651,732,3626,7640,35080,582,35,127,0,0,4557,1999,6060,2824,234,66,833,1,1,112,4,139741,0
139779,-117,-3206,681,-743,-4096,-4871,24871,3093,800,3407,8776,35042,671,35,127,0,0,4785,2340,5750,2824,234,66,843,1,1,112,4,139756,0
139789,-433,-2781,879,-704,-4882,-3589,26426,3586,792,3145,9968,35029,750,35,127,0,0,5053,2746,4440,2824,234,66,853,1,1,112,4,139756,0
139799,-118,-2796,931,-632,-5174,-2815,28175,3866,769,1968,9504,35015,804,35,127,0,0,5359,3109,0,2824,234,66,863,1,1,112,4,139788,0
139809,502,-2421,829,-470,-5055,-1739,29448,1582,-741,-7123,-4608,35056,696,35,127,0,0,5673,3076,0,2824,234,66,873,1,1,112,4,139788,0
139819,242,-2339,586,-30,-5202,-938,28504,-3086,-5417,-4658,-6312,35054,656,35,127,0,0,5983,3142,0,2824,234,66,883,1,1,112,4,139788,0
139829,460,-2260,-291,-469,-4417,-875,27290,-2180,-4445,2601,-1320,35072,515,35,127,0,0,6178,1900,0,2824,234,66,893,1,1,112,4,139803,0
139839,1346,-2158,-412,-578,-3273,-312,26909,-210,1208,2911,992,35146,277,35,127,0,0,6292,1076,0,2824,234,66,903,1,1,112,4,139819,0
139849,1071,-859,-530,-336,-1131,264,27129,557,2838,495,928,35180,196,34,127,0,0,6292,-98,0,2824,234,66,913,0,1,112,4,139819,0
139859,1156,-503,-630,-301,74,314,27360,459,1134,2,-104,35263,-75,34,127,0,0,6202,-999,0,2824,234,66,923,0,1,112,4,139834,0
139869,817,-516,-340,-163,866,527,27320,-366,-491,-1499,-1656,35239,21,35,127,0,0,6024,-1834,0,2824,234,66,933,0,1,112,4,139850,0
139879,719,-699,-130,-47,1188,758,26964,-972,-1171,-1448,-3200,35242,24,35,127,0,0,5800,-2307,0,2824,234,66,943,0,1,112,4,139850,0
139889,713,-1000,6,52,1523,1482,26333,-1561,-1131,-1405,-4584,35233,62,35,127,0,0,5548,-2537,0,2824,234,66,953,0,1,112,4,139866,0
139899,687,-1118,90,114,1683,2038,25457,-2062,-996,-1255,-5496,35223,118,35,127,0,0,5288,-2581,0,2824,234,66,963,0,1,112,4,139866,0
139910,478,-1146,133,111,1739,2876,24319,-2356,-731,-860,-5864,35199,159,34,127,0,0,5040,-2263,0,2824,234,66,974,0,1,112,4,139897,0
139920,447,-1224,255,125,1598,3414,23213,-2444,-410,-520,-5696,35193,175,35,127,0,0,4846,-1900,0,2824,234,66,984,0,1,112,4,139897,0
139930,491,-1196,235,78,1208,4356,22138,-2306,-71,-302,-5264,35202,144,35,127,0,0,4687,-1532,0,2824,234,66,994,0,1,112,4,139897,0
139940,532,-1183,137,92,1055,4997,21169,-2054,268,-166,-4560,35211,110,35,127,0,0,4565,-1120,0,2824,234,66,1004,0,1,112,4,139913,0
139950,460,-1231,20,196,1058,5792,20312,-1829,416,-91,-3776,35225,86,35,127,0,0,4482,-807,0,2824,234,66,1014,0,1,112,4,139991,0
139960,406,-1218,-42,314,1166,6238,19553,-1599,401,-3,-2992,35234,67,35,127,0,0,4409,-714,0,2824,234,66,1024,0,1,112,4,139991,0
139970,483,-1255,-4,568,1485,6850,18906,-1341,399,31,-2264,35244,37,35,127,0,0,4349,-631,0,2824,234,66,1034,0,1,112,4,139991,0
139980,495,-1226,-34,724,1725,7230,18384,-1069,450,9,-1688,35243,33,35,127,0,0,4297,-499,0,2824,234,66,1044,0,1,112,4,139991,0
139990,501,-1196,-126,942,2090,7707,17973,-827,454,-46,-1296,35229,27,35,127,0,0,4247,-527,0,2824,234,66,1054,0,1,112,4,140006,0
140000,481,-1192,-130,1122,2308,8011,17655,-657,389,-137,-1056,35227,20,35,127,0,0,4198,-439,0,2824,234,66,1064,0,1,112,4,140006,0
140010,442,-1174,-54,1359,2547,8487,17397,-540,283,-278,-992,35231,21,35,127,0,0,4149,-417,0,2824,234,66,1074,0,1,112,4,140006,0
140020,432,-1184,11,1488,2661,8832,17174,-472,180,-337,-848,35237,26,35,127,0,0,4106,-384,0,2824,234,66,1084,0,1,112,4,140006,0
140030,400,-1191,55,1687,2796,9393,16966,-443,92,-277,-648,35231,49,35,127,0,0,4082,-247,0,2824,234,66,1094,0,1,112,4,140006,0
140040,395,-1261,51,1859,2850,9738,16787,-367,82,-220,-304,35243,44,35,127,0,0,4068,-137,0,2824,234,66,1104,0,1,112,4,140006,0
140050,472,-1416,38,2159,2949,10179,16664,-217,157,-64,0,35254,26,35,127,0,0,4070,5,0,2824,234,66,1114,0,1,112,4,140053,0
140060,434,-1513,52,2408,3017,10419,16658,60,335,236,120,35278,17,35,127,0,0,4070,-21,0,2824,234,66,1124,0,1,112,4,140053,0
140070,493,-1713,17,2762,3091,10893,16707,118,345,211,192,35267,42,35,127,0,0,4086,175,0,2824,234,66,1134,0,1,112,4,140053,0
140080,514,-1862,9,3009,3104,11150,16763,151,119,458,296,35252,46,35,127,0,0,4097,137,0,2824,234,66,1144,0,1,112,4,140053,0
140090,558,-2126,37,3452,3117,11405,16854,223,82,474,408,35236,46,35,127,0,0,4118,236,0,2824,234,66,1154,0,1,112,4,140069,0
140100,573,-2291,97,3758,3129,11486,16974,288,125,423,472,35248,14,35,127,0,0,4135,197,0,2824,234,66,1164,0,1,112,4,140069,0
140110,725,-2440,278,4002,3128,11465,17103,282,80,457,552,35250,11,35,127,0,0,4150,197,0,2824,234,66,1174,0,1,112,4,140084,0
140120,890,-2645,381,4007,3066,11332,17246,307,44,416,552,35246,14,35,127,0,0,4171,153,0,2824,234,66,1184,0,1,112,4,140116,0
140130,1244,-3030,367,3763,2786,11080,17399,339,42,379,520,35245,12,35,127,0,0,4186,131,0,2824,234,66,1194,0,1,112,4,140116,0
140140,1470,-3379,256,3454,2477,10850,17543,300,5,355,496,35241,12,35,127,0,0,4202,164,0,2824,234,66,1204,0,1,112,4,140131,0
140150,1619,-4095,203,2776,1952,10339,17680,292,-37,415,512,35245,18,34,127,0,0,4223,197,0,2824,234,66,1214,0,1,112,4,140131,0
140161,1768,-5115,385,2163,1851,9625,17836,306,-2,435,472,35227,22,35,127,0,0,4242,186,0,2824,234,66,1225,0,1,112,4,140147,0
140171,2061,-5358,723,2027,1473,8830,17980,319,16,403,536,35237,21,35,127,0,0,4256,153,0,2824,234,66,1235,0,1,112,4,140147,0
140181,2822,-4505,823,2014,16,6324,18140,365,30,273,312,35255,25,35,127,0,0,4245,-164,0,2824,234,66,1245,0,1,112,4,140209,0
140191,3048,-3362,717,1934,-1139,4043,18241,105,-66,-349,-288,35255,22,35,127,0,0,4185,-615,0,2824,234,66,1255,0,1,112,4,140225,0
140201,3160,-2168,155,691,-2513,918,18139,-304,-515,-617,-736,35237,31,35,127,0,0,4117,-648,0,2824,234,66,1265,0,1,112,4,140225,0
140211,2644,-2319,-69,-116,-2675,-1063,17970,-389,-531,-563,-872,35225,33,35,127,0,0,4067,-494,0,2824,234,66,1275,0,1,112,4,140225,0
140221,1878,-3397,-335,-1011,-2617,-3597,17774,-432,-166,-396,-752,35221,43,35,127,0,0,4047,-164,0,2824,234,66,1285,0,1,112,4,140225,0
140231,-4034,-10864,-2084,-2046,-3868,-3024,17585,-413,-40,-122,144,35221,33,35,127,0,0,4181,1647,0,2824,234,66,1295,0,1,112,4,140225,0
140241,-2303,-5506,1651,-355,-133,-2643,17692,568,561,1615,2192,35210,28,35,127,0,0,4438,2340,0,5313,2607,67,9,1,1,367,-1,140225,0
140251,-175,136,1131,795,1256,-3461,18154,1221,1322,1397,3048,35208,35,35,127,0,0,4475,120,0,5313,2607,67,19,1,1,367,-1,140225,0
140261,-77,-1804,1076,288,-3869,-1404,18718,1207,879,533,3056,35217,64,35,127,0,0,4572,1098,0,5313,2607,67,29,1,1,367,-1,140225,0
140271,253,-2056,424,339,-2771,-70,19353,1556,275,1569,4824,35227,74,35,127,0,0,4798,2329,0,5313,2607,67,39,1,1,367,-1,140256,0
140281,-1614,-716,-1362,-465,-3800,-601,20278,2231,718,1639,6536,35202,137,35,127,0,0,5060,2669,0,5313,2607,67,49,1,1,367,-1,140256,0
140291,-3552,-2098,-2820,-755,-1097,-1691,21486,2836,1107,1349,7384,35170,201,35,127,0,0,5260,1867,0,5313,2607,67,59,1,1,367,-1,140256,0
140301,-1527,-2264,-1144,31,1925,-3667,22862,3066,872,400,6888,35172,271,35,127,0,0,5359,900,0,5313,2607,67,69,1,1,367,-1,140272,0
140311,-803,-2220,202,270,2494,-4038,24184,2806,226,31,5616,35197,260,35,127,0,0,5403,351,0,5313,2607,67,79,1,1,367,-1,140288,0
140321,929,-3148,1685,-43,1087,-4113,25319,2352,-472,-197,3976,35233,180,35,127,0,0,5440,340,0,5313,2607,67,89,1,1,367,-1,140381,0
140331,1153,-2359,1123,-587,401,-4279,26223,1821,-804,-541,2160,35236,65,35,127,0,0,5425,-186,0,5313,2607,67,99,1,1,367,-1,140381,0
140341,2138,-3887,290,-1341,-97,-4629,26817,1085,-1029,-754,344,35241,0,35,127,0,0,5354,-780,0,5313,2607,67,109,1,1,367,-1,140381,0
140351,189,-1734,152,-1052,211,-4780,26919,-301,-1525,-2282,-1480,35234,-28,35,127,0,0,5200,-1516,0,5313,2607,67,119,1,1,367,-1,140397,0
140361,86,-1935,196,-680,703,-4384,26612,-731,-1848,-440,-560,35221,-16,35,127,0,0,5073,-1263,660,5313,2607,67,129,1,1,367,-1,140397,0
140371,1510,-1400,563,-681,155,-3243,26308,-687,-744,393,-376,35210,11,35,127,0,0,5000,-615,860,5313,2607,67,139,1,1,367,-1,140397,0
140381,1422,-2464,635,-552,-412,-2252,25905,-989,-161,493,-1120,35220,24,35,127,0,0,4930,-659,1060,5313,2607,67,149,1,1,367,-1,140397,0
140391,65,-2005,-50,-310,-183,-2234,25395,-1136,-425,487,-1120,35228,44,35,127,0,0,4847,-845,1260,5313,2607,67,159,1,1,367,-1,140397,0
140401,-169,-1922,-427,83,433,-2138,24934,-935,-107,655,-296,35234,19,35,127,0,0,4772,-780,1460,5313,2607,67,169,1,1,367,-1,140397,0
140411,147,-1972,50,135,40,-1455,24641,-505,420,1182,88,35222,11,35,127,0,0,4715,-516,1500,5313,2607,67,179,1,1,367,-1,140397,0
140422,148,-2065,144,84,-620,-621,24533,-168,700,984,136,35232,-12,35,127,0,0,4696,-170,1500,5313,2607,67,190,1,1,367,-1,140397,0
140432,-338,-2186,-168,190,-1026,-676,24470,-157,393,872,104,35240,4,35,127,0,0,4702,76,1500,5313,2607,67,200,1,1,367,-1,140397,0
140442,-610,-2127,-200,177,-205,-1058,24339,-369,-82,847,-64,35266,27,35,127,0,0,4686,-186,1500,5313,2607,67,210,1,1,367,-1,140412,0
140452,-737,-2095,466,168,151,-1361,24068,-707,-409,662,-424,35256,37,35,127,0,0,4639,-483,1500,5313,2607,67,220,1,1,367,-1,140475,0
140462,-874,-2016,980,-52,609,-1829,23649,-981,-563,651,-688,35243,26,35,127,0,0,4567,-802,1500,5313,2607,67,230,1,1,367,-1,140475,0
140472,-968,-1920,1127,-163,745,-2081,23207,-942,-344,767,-416,35232,8,35,127,0,0,4479,-840,1500,5313,2607,67,240,1,1,367,-1,140475,0
140482,-288,-1930,1498,-394,120,-2178,22828,-782,94,939,-232,35231,-8,34,127,0,0,4415,-703,1500,5313,2607,67,250,1,1,367,-1,140475,0
140492,-153,-1811,1416,-682,-259,-2061,22503,-708,234,966,-200,35237,-6,34,127,0,0,4351,-609,1500,5313,2607,67,260,1,1,367,-1,140475,0
140502,-272,-1844,1070,-1082,-825,-2333,22140,-854,35,817,-456,35241,-13,35,127,0,0,4302,-554,1500,5313,2607,67,270,1,1,367,-1,140491,0
140512,-269,-1959,567,-1265,-299,-2533,21707,-978,-220,801,-664,35253,-12,35,127,0,0,4233,-736,1500,5313,2607,67,280,1,1,367,-1,140491,0
140522,-363,-1927,337,-1376,25,-2838,21290,-1023,-190,879,-840,35272,-28,34,127,0,0,4149,-812,1500,5313,2607,67,290,1,1,367,-1,140491,0
140532,-33,-2039,361,-1393,65,-2905,20808,-1079,-91,878,-992,35272,-15,35,127,0,0,4051,-933,1500,5313,2607,67,300,1,1,367,-1,140537,0
140542,119,-2023,198,-1378,-39,-2921,20300,-1127,-91,850,-1024,35262,-23,35,127,0,0,3963,-955,1500,5313,2607,67,310,1,1,367,-1,140537,0
140552,80,-2058,-54,-1304,-41,-2923,19789,-1116,-54,858,-984,35246,-17,35,127,0,0,3870,-933,1500,5313,2607,67,320,1,1,367,-1,140537,0
140562,72,-2065,-203,-1114,39,-2900,19288,-1093,21,849,-832,35235,-22,35,127,0,0,3782,-922,1500,5313,2607,67,330,1,1,367,-1,140537,0
140572,200,-2035,-139,-1002,99,-2868,18803,-1053,49,850,-656,35244,-22,35,127,0,0,3697,-867,1500,5313,2607,67,340,1,1,367,-1,140537,0
140582,359,-1982,20,-912,54,-2734,18336,-1010,66,883,-528,35245,-11,35,127,0,0,3612,-840,1500,5313,2607,67,350,1,1,367,-1,140569,0
140592,416,-1980,96,-878,-9,-2632,17897,-936,95,915,-424,35249,-19,35,127,0,0,3535,-763,1500,5313,2607,67,360,1,1,367,-1,140569,0
140602,364,-1983,122,-820,-131,-2477,17497,-856,133,906,-328,35247,-25,35,127,0,0,3463,-741,1500,5313,2607,67,370,1,1,367,-1,140584,0
140612,298,-1984,152,-772,-179,-2391,17135,-766,144,965,-208,35248,-20,35,127,0,0,3393,-664,1500,5313,2607,67,380,1,1,367,-1,140584,0
140622,260,-1994,190,-676,-182,-2371,16795,-748,110,919,-224,35254,-15,35,127,0,0,3332,-675,1500,5313,2607,67,390,1,1,367,-1,140600,0
140632,164,-1831,138,-712,-214,-2448,16438,-805,-7,848,-312,35248,-13,35,127,0,0,3269,-631,1500,5313,2607,67,400,1,1,367,-1,140600,0
140642,42,-2091,179,-631,-128,-2611,16042,-901,-115,821,-416,35256,-29,35,127,0,0,3192,-719,1500,5313,2607,67,410,1,1,367,-1,140616,0
140653,9,-2079,328,-637,-250,-2767,15592,-885,-86,880,-312,35259,-33,34,127,0,0,3111,-780,1680,5313,2607,67,421,1,1,367,-1,140631,0
140663,17,-1988,553,-667,-768,-2855,15229,-739,90,1175,-96,35255,-38,35,127,0,0,3038,-736,2000,5313,2607,67,431,1,1,367,-1,140647,0
140673,-289,-3269,805,-854,-1233,-2458,15020,-321,414,1643,144,35255,-27,35,127,0,0,3003,-318,2340,5313,2607,67,441,1,1,367,-1,140647,0
140683,-798,-2901,804,-886,-1194,-2585,14970,-58,616,1468,400,35241,-2,34,127,0,0,2997,-43,2700,5313,2607,67,451,1,1,367,-1,140647,0
140693,-504,-2492,308,-1033,-924,-2982,14975,12,372,1698,488,35247,18,35,127,0,0,2997,10,3140,5313,2607,67,461,1,1,367,-1,140741,0
140703,-270,-2320,231,-1052,-951,-3258,14975,0,75,1976,576,35241,52,35,127,0,0,2997,10,3700,5313,2607,67,471,1,1,367,-1,140741,0
140713,-73,-2307,186,-1267,-1160,-3556,14984,23,6,2316,640,35231,59,35,127,0,0,2997,10,4110,5313,2607,67,481,1,1,367,-1,140741,0
140723,-90,-2582,69,-1336,-1149,-3735,14992,17,13,2538,712,35221,67,34,127,0,0,2999,21,4470,5313,2607,67,491,1,1,367,-1,140741,0
140733,-505,-2885,39,-1436,-895,-4042,15000,30,-1,2697,912,35210,80,35,127,0,0,3001,10,4880,5313,2607,67,501,1,1,367,-1,140741,0
140743,-653,-2883,114,-1530,-710,-4238,15069,194,127,2843,1480,35204,106,35,127,0,0,3014,153,5340,5313,2607,67,511,1,1,367,-1,140756,0
140753,-643,-2789,160,-1742,-578,-4393,15247,489,339,3107,2376,35190,148,35,127,0,0,3045,329,5890,5313,2607,67,521,1,1,367,-1,140756,0
140763,-636,-2916,193,-1900,-583,-4344,15603,918,574,3683,3680,35173,203,35,127,0,0,3113,725,6550,5313,2607,67,531,1,1,367,-1,140756,0
140773,-489,-2786,330,-2022,-626,-4373,16166,1364,750,4108,4752,35149,330,35,127,0,0,3214,1054,7420,5313,2607,67,541,1,1,367,-1,140756,0
140783,-387,-2571,283,-2108,-739,-4373,16905,1714,721,4623,5800,35117,507,35,127,0,0,3353,1406,8560,5313,2607,67,551,1,1,367,-1,140756,0
140793,-581,-2661,386,-2070,-1328,-4410,17781,2011,577,5293,6784,35070,713,35,127,0,0,3511,1647,10030,5313,2607,67,561,1,1,367,-1,140787,0
140803,-1330,-2585,393,-1762,-816,-4582,18836,2463,612,6218,8248,34999,945,35,127,0,0,3700,1933,11850,5313,2607,67,571,1,1,367,-1,140787,0
140813,-1533,-2788,-343,-1301,-862,-4671,20124,2965,813,7206,9600,34893,1300,35,127,0,0,3926,2307,13270,5313,2607,67,581,1,1,367,-1,140787,0
140823,-1179,-3604,-124,-1249,-1157,-4535,21558,3248,532,7987,10672,34752,1739,35,127,0,0,4190,2680,14830,5313,2607,67,591,1,1,367,-1,140787,0
140833,-1319,-3455,-295,-1108,-836,-5350,23186,3738,760,9002,11664,34599,2259,35,127,0,0,4480,2977,16590,5313,2607,67,601,1,1,367,-1,140850,0
140843,-832,-3286,-583,-1443,-847,-5678,24943,3861,960,9967,12520,34444,2737,35,127,0,0,4772,2900,18540,5313,2607,67,611,1,1,367,-1,140850,0
140853,-98,-3725,-334,-1700,-812,-6380,26660,3735,167,10577,11888,34319,3150,35,127,0,0,5066,2922,18290,5313,2607,67,621,1,1,367,-1,140850,0
140863,-269,-4359,413,-1619,-1004,-6854,28232,3297,-350,10263,10648,34258,3310,35,127,0,0,5334,2669,17530,5313,2607,67,631,1,1,367,-1,140850,0
140873,-215,-4891,1214,-1203,-1311,-7344,29566,2812,-759,9639,9384,34289,3164,35,127,0,0,5598,2581,16290,5313,2607,67,641,1,1,367,-1,140850,0
140883,-343,-4446,1247,-1160,-1968,-7252,30819,2773,-624,8864,8832,34383,2776,34,127,0,0,5831,2318,13740,5313,2607,67,651,1,1,367,-1,140866,0
140893,-546,-3693,1284,-1015,-3653,-6699,32098,2819,-84,7202,8160,34532,2308,35,127,0,0,6068,2373,10530,5313,2607,67,661,1,1,367,-1,140866,0
140904,-739,-2420,1428,-898,-5215,-5886,33457,2646,-29,5086,7240,34684,1840,35,127,0,0,6319,2334,6410,5313,2607,67,672,1,1,367,-1,140881,0
140914,-322,-2726,1057,-1090,-6571,-5110,34616,2487,-238,2673,5936,34848,1307,35,127,0,0,6556,2312,1420,5313,2607,67,682,1,1,367,-1,140881,0
140924,-360,-1922,2242,-689,-6954,-4343,35636,2135,-402,164,-2384,35001,761,35,127,0,0,6756,2005,0,5313,2607,67,692,1,1,367,-1,140912,0
140934,1935,-3999,-520,-713,-7240,-1189,35241,-1989,-2911,-4925,-6040,35056,547,35,127,0,0,7019,2664,0,5313,2607,67,702,1,1,367,-1,140912,0
140944,2067,-3851,-962,-1093,-4421,-1695,34092,-2588,-4418,-554,-4248,35114,366,34,127,0,0,7075,291,0,5313,2607,67,712,1,1,367,-1,140928,0
140954,604,-907,-446,-89,-1294,-1493,33098,-2004,-974,500,-3368,35137,283,34,127,0,0,6932,-1538,0,5313,2607,67,722,0,1,367,-1,140928,0
140964,864,-357,-679,220,-299,-1084,32293,-1715,717,-116,-4216,35192,99,34,127,0,0,6678,-2548,0,5313,2607,67,732,0,1,367,-1,140959,0
140974,775,-800,-158,352,914,-328,31424,-2092,248,-1358,-5808,35213,59,35,127,0,0,6367,-3169,0,5313,2607,67,742,0,1,367,-1,140959,0
140984,613,-1012,72,542,1301,340,30279,-2678,-689,-1368,-7072,35197,155,35,127,0,0,6052,-3169,0,5313,2607,67,752,0,1,367,-1,140959,0
140994,602,-990,60,775,1458,1545,28968,-2940,-863,-1021,-7752,35178,217,35,127,0,0,5757,-2949,0,5313,2607,67,762,0,1,367,-1,140959,0
141004,574,-908,125,863,1495,2386,27555,-3182,-502,-728,-7912,35162,240,35,127,0,0,5481,-2664,0,5313,2607,67,772,0,1,367,-1,140990,0
141014,505,-800,76,986,1436,3503,26079,-3225,-331,-445,-7536,35167,190,35,127,0,0,5251,-2301,0,5313,2607,67,782,0,1,367,-1,141006,0
141024,553,-754,126,1061,1245,4084,24686,-2992,37,-222,-6760,35177,157,35,127,0,0,5052,-1906,0,5313,2607,67,792,0,1,367,-1,141006,0
141034,559,-617,62,1076,923,5039,23389,-2790,349,-95,-5848,35196,107,35,127,0,0,4886,-1614,0,5313,2607,67,802,0,1,367,-1,141006,0
141044,509,-633,-81,1120,841,5682,22228,-2438,433,-8,-4936,35222,78,35,127,0,0,4760,-1224,0,5313,2607,67,812,0,1,367,-1,141022,0
141054,340,-718,-206,1304,930,6541,21251,-2027,617,40,-4136,35229,58,34,127,0,0,4651,-1010,0,5313,2607,67,822,0,1,367,-1,141022,0
141064,353,-728,-283,1468,1078,7053,20436,-1702,666,33,-3368,35235,39,35,127,0,0,4558,-895,0,5313,2607,67,832,0,1,367,-1,141069,0
141074,396,-749,-278,1689,1404,7767,19741,-1464,538,-1,-2768,35240,19,35,127,0,0,4478,-812,0,5313,2607,67,842,0,1,367,-1,141069,0
141084,373,-754,-238,1863,1674,8215,19148,-1246,422,-37,-2336,35234,11,35,127,0,0,4403,-769,0,5313,2607,67,852,0,1,367,-1,141084,0
141094,295,-808,-283,2082,1996,8803,18648,-1041,361,-126,-2016,35230,24,35,127,0,0,4328,-692,0,5313,2607,67,862,0,1,367,-1,141100,0
141104,233,-885,-286,2232,2145,9178,18221,-889,323,-175,-1728,35206,18,35,127,0,0,4268,-615,0,5313,2607,67,872,0,1,367,-1,141100,0
141114,218,-1006,-234,2450,2313,9755,17854,-770,256,-202,-1392,35216,24,35,127,0,0,4223,-455,0,5313,2607,67,882,0,1,367,-1,141100,0
141124,269,-1043,-197,2600,2462,10153,17542,-641,219,-167,-984,35227,25,35,127,0,0,4202,-208,0,5313,2607,67,892,0,1,367,-1,141100,0
141134,329,-1117,-163,2816,2678,10759,17299,-494,234,-184,-552,35237,30,35,127,0,0,4186,-82,0,5313,2607,67,902,0,1,367,-1,141115,0
141144,365,-1215,-134,2964,2805,11134,17121,-355,255,-90,-120,35234,24,35,127,0,0,4184,-16,0,5313,2607,67,912,0,1,367,-1,141115,0
141155,411,-1398,-82,3215,3018,11595,17065,24,366,272,72,35239,8,35,127,0,0,4187,21,0,5313,2607,67,923,0,1,367,-1,141162,0
141165,510,-1697,-75,3462,3154,12188,17118,108,448,185,104,35250,3,35,127,0,0,4192,54,0,5313,2607,67,933,0,1,367,-1,141178,0
141175,523,-1911,-56,3655,3192,12452,17174,129,175,348,216,35252,18,35,127,0,0,4203,65,0,5313,2607,67,943,0,1,367,-1,141178,0
141185,644,-2218,-11,3979,3136,12698,17236,158,22,466,384,35234,29,35,127,0,0,4216,153,0,5313,2607,67,953,0,1,367,-1,141178,0
141195,781,-2429,64,4110,3140,12781,17338,250,89,409,352,35212,43,35,127,0,0,4225,54,0,5313,2607,67,963,0,1,367,-1,141178,0
141205,1090,-2828,213,4052,3139,12827,17454,253,109,356,336,35216,26,35,127,0,0,4238,98,0,5313,2607,67,973,0,1,367,-1,141178,0
141215,1337,-3182,248,3887,3071,12781,17560,235,1,398,368,35229,25,35,127,0,0,4249,120,0,5313,2607,67,983,0,1,367,-1,141209,0
141225,1697,-3851,95,3510,2799,12573,17672,247,-6,435,456,35240,19,35,127,0,0,4267,164,0,5313,2607,67,993,0,1,367,-1,141209,0
141235,1789,-4408,28,3154,2547,12331,17798,281,40,434,520,35239,17,35,127,0,0,4295,307,0,5313,2607,67,1003,0,1,367,-1,141209,0
141245,1784,-5444,300,2547,2388,11540,17942,348,59,523,704,35237,-1,35,127,0,0,4326,296,0,5313,2607,67,1013,0,1,367,-1,141225,0
141255,1937,-5652,411,2396,2504,10581,18117,399,101,391,680,35242,7,35,127,0,0,4337,142,0,5313,2607,67,1023,0,1,367,-1,141240,0
