state_time,accelx,accely,accelz,gyrox,gyroy,gyroz,mot_ang,mot_vel,mot_acc,mot_cur,mot_volt,batt_volt,batt_curr,temperature,status_mn,status_ex,status_re,ank_ang,ank_vel,ank_torque,peak_ank_torque,step_energy,step_count,step_time,gait_state,movement,speed,incline,sys_time,eventFlags
513396,139,-2080,162,-87,37,122,12369,0,2,119,24,35055,63,36,127,0,0,3453,21,0,19553,7881,239,25644,-4,0,47,0,513365,0
513406,149,-2074,162,-93,33,121,12368,-3,-3,125,48,35060,58,35,127,0,0,3451,65,0,19553,7881,239,25654,-4,0,47,0,513365,0
513417,115,-2083,163,-87,42,115,12369,-6,3,170,40,35066,69,35,127,0,0,3447,-65,0,19553,7881,239,25665,-4,0,47,0,513396,0
513427,123,-2080,164,-90,36,110,12368,2,-7,105,48,35062,76,36,127,0,0,3447,-21,0,19553,7881,239,25675,-4,0,47,0,513396,0
513437,90,-2082,159,-92,37,120,12368,-14,-2,139,8,35057,55,36,127,0,0,3447,-65,0,19553,7881,239,25685,-4,0,47,0,513396,0
513447,104,-2077,157,-87,47,114,12367,-5,-2,38,32,35064,56,35,127,0,0,3449,0,0,19553,7881,239,25695,-4,0,47,0,513412,0
513457,135,-2078,160,-89,35,126,12368,6,2,60,64,35071,45,35,127,0,0,3451,32,0,19553,7881,239,25705,-4,0,47,0,513412,0
513467,148,-2083,160,-91,34,119,12371,14,8,177,40,35070,56,35,127,0,0,3451,0,0,19553,7881,239,25715,-4,0,47,0,513443,0
513477,128,-2083,163,-91,40,126,12369,0,1,189,40,35060,65,36,127,0,0,3447,-65,0,19553,7881,239,25725,-4,0,47,0,513443,0
513487,131,-2077,157,-84,38,116,12369,11,-4,152,32,35053,70,35,127,0,0,3451,-10,0,19553,7881,239,25735,-4,0,47,0,513443,0
513497,97,-2079,153,-86,38,130,12371,-8,6,176,8,35057,81,35,127,0,0,3451,0,0,19553,7881,239,25745,-4,0,47,0,513474,0
513507,107,-2082,166,-87,38,128,12370,0,1,112,64,35062,98,36,127,0,0,3451,43,0,19553,7881,239,25755,-4,0,47,0,513474,0
513517,158,-2086,165,-86,37,120,12370,1,5,165,8,35063,96,35,127,0,0,3451,0,0,19553,7881,239,25765,-4,0,47,0,513490,0
513527,123,-2087,164,-83,37,129,12371,10,3,201,40,35070,91,36,127,0,0,3451,0,0,19553,7881,239,25775,-4,0,47,0,513490,0
513537,124,-2081,166,-90,32,129,12371,-4,-4,228,24,35065,54,35,127,0,0,3451,-32,0,19553,7881,239,25785,-4,0,47,0,513490,0
513547,121,-2084,163,-96,40,125,12372,12,-1,182,16,35066,58,35,127,0,0,3451,-10,0,19553,7881,239,25795,-4,0,47,0,513506,0
513557,128,-2076,157,-90,35,133,12373,18,12,212,32,35047,57,36,127,0,0,3451,-21,0,19553,7881,239,25805,-4,0,47,0,513521,0
513567,112,-2086,155,-95,36,126,12372,13,6,240,56,35043,63,36,127,0,0,3454,0,0,19553,7881,239,25815,-4,0,47,0,513552,0
513577,119,-2083,158,-95,40,125,12371,-9,-1,221,64,35046,58,36,127,0,0,3451,0,0,19553,7881,239,25825,-4,0,47,0,513568,0
513587,147,-2083,158,-92,43,129,12372,-2,3,225,96,35048,50,35,127,0,0,3454,0,0,19553,7881,239,25835,-4,0,47,0,513568,0
513597,139,-2086,158,-88,42,137,12372,-6,4,233,56,35047,67,35,127,0,0,3454,0,0,19553,7881,239,25845,-4,0,47,0,513568,0
513607,142,-2084,161,-92,41,136,12372,-1,-3,234,56,35042,69,36,127,0,0,3454,0,0,19553,7881,239,25855,-4,0,47,0,513568,0
513617,119,-2085,163,-92,35,144,12372,-1,-4,235,56,35054,71,35,127,0,0,3454,0,0,19553,7881,239,25865,-4,0,47,0,513568,0
513627,130,-2078,160,-92,36,138,12373,5,1,245,56,35066,80,36,127,0,0,3456,21,0,19553,7881,239,25875,-4,0,47,0,513599,0
513637,113,-2087,162,-94,39,145,12375,10,6,284,56,35065,78,36,127,0,0,3458,43,0,19553,7881,239,25885,-4,0,47,0,513599,0
513647,115,-2084,161,-86,37,142,12379,18,12,377,88,35051,97,35,127,0,0,3458,-10,0,19553,7881,239,25895,-4,0,47,0,513615,0
513657,120,-2080,158,-92,48,139,12379,3,1,329,88,35041,90,36,127,0,0,3458,0,0,19553,7881,239,25905,-4,0,47,0,513615,0
513668,123,-2075,151,-86,41,139,12379,1,-12,335,88,35045,88,36,127,0,0,3461,32,0,19553,7881,239,25916,-4,0,47,0,513646,0
513678,121,-2085,144,-83,44,140,12378,0,1,358,88,35053,65,36,127,0,0,3451,-54,0,19553,7881,239,25926,-4,0,47,0,513646,0
513688,134,-2078,159,-77,42,140,12379,9,1,308,112,35050,64,35,127,0,0,3460,16,0,19553,7881,239,25936,-4,0,47,0,513646,0
513698,126,-2080,159,-82,44,143,12382,8,7,364,104,35054,48,36,127,0,0,3457,-10,0,19553,7881,239,25946,-4,0,47,0,513662,0
513708,128,-2080,165,-76,42,148,12382,5,6,375,104,35062,53,36,127,0,0,3460,-10,0,19553,7881,239,25956,-4,0,47,0,513662,0
513718,126,-2084,155,-80,41,148,12383,-2,0,390,104,35069,64,36,127,0,0,3460,0,0,19553,7881,239,25966,-4,0,47,0,513677,0
513728,128,-2078,152,-74,43,147,12384,4,0,410,120,35062,82,35,127,0,0,3462,21,0,19553,7881,239,25976,-4,0,47,0,513693,0
513738,125,-2084,150,-75,38,147,12388,7,10,398,112,35048,76,36,127,0,0,3462,43,0,19553,7881,239,25986,-4,0,47,0,513709,0
513748,121,-2080,151,-71,40,144,12394,16,11,440,104,35059,82,35,127,0,0,3462,-27,0,19553,7881,239,25996,-4,0,47,0,513724,0
513758,125,-2086,159,-66,43,144,12405,19,16,327,104,35054,91,35,127,0,0,3465,32,0,19553,7881,239,26006,-4,0,47,0,513724,0
513768,111,-2074,156,-73,38,150,12419,22,8,273,96,35057,88,36,127,0,0,3467,65,0,19553,7881,239,26016,-4,0,47,0,513740,0
513778,138,-2077,162,-66,29,146,12424,-6,-16,212,64,35046,75,36,127,0,0,3468,87,0,19553,7881,239,26026,-4,0,47,0,513740,0
513788,110,-2080,169,-72,34,139,12427,6,-31,302,64,35052,80,36,127,0,0,3468,-5,0,19553,7881,239,26036,-4,0,47,0,513740,0
513798,104,-2072,167,-71,33,132,12428,11,-3,339,80,35064,90,36,127,0,0,3467,-43,0,19553,7881,239,26046,-4,0,47,0,513771,0
513808,104,-2082,171,-71,36,128,12427,0,0,320,80,35059,79,36,127,0,0,3467,-27,0,19553,7881,239,26056,-4,0,47,0,513771,0
513818,106,-2083,170,-75,30,120,12430,10,2,361,96,35057,88,36,127,0,0,3469,-21,0,19553,7881,239,26066,-4,0,47,0,513787,0
513828,100,-2081,168,-76,37,117,12429,-1,2,344,104,35056,85,35,127,0,0,3466,-16,0,19553,7881,239,26076,-4,0,47,0,513787,0
513838,118,-2083,164,-83,36,106,12430,10,0,340,80,35055,84,35,127,0,0,3467,-49,0,19553,7881,239,26086,-4,0,47,0,513802,0
513848,108,-2087,161,-83,34,109,12429,3,3,345,104,35064,84,35,127,0,0,3466,-43,0,19553,7881,239,26096,-4,0,47,0,513818,0
513858,116,-2079,164,-85,28,113,12430,3,-2,300,96,35054,83,36,127,0,0,3466,5,0,19553,7881,239,26106,-4,0,47,0,513818,0
513868,126,-2082,165,-80,33,107,12430,4,1,323,96,35055,69,36,127,0,0,3469,16,0,19553,7881,239,26116,-4,0,47,0,513834,0
513878,105,-2083,161,-85,26,108,12430,-6,4,333,80,35055,60,35,127,0,0,3467,-16,0,19553,7881,239,26126,-4,0,47,0,513849,0
513888,119,-2077,161,-84,27,109,12431,9,0,317,72,35060,68,36,127,0,0,3467,-16,0,19553,7881,239,26136,-4,0,47,0,513849,0
513898,123,-2078,171,-87,32,103,12429,0,-3,316,80,35059,77,36,127,0,0,3470,27,0,19553,7881,239,26146,-4,0,47,0,513865,0
513908,120,-2088,165,-93,28,109,12431,11,-1,293,96,35050,91,36,127,0,0,3466,43,0,19553,7881,239,26156,-4,0,47,0,513865,0
513919,122,-2080,161,-86,36,105,12429,-7,-4,296,80,35058,82,36,127,0,0,3465,-21,0,19553,7881,239,26167,-4,0,47,0,513912,0
513929,118,-2082,162,-88,33,104,12430,9,-2,297,64,35063,90,36,127,0,0,3465,-32,0,19553,7881,239,26177,-4,0,47,0,513943,0
513939,118,-2078,161,-92,34,106,12429,-1,0,281,80,35069,72,35,127,0,0,3467,0,0,19553,7881,239,26187,-4,0,47,0,513959,0
513949,118,-2085,159,-88,33,113,12429,-2,-2,306,80,35063,70,35,127,0,0,3467,0,0,19553,7881,239,26197,-4,0,47,0,513959,0
513959,120,-2088,157,-90,31,114,12431,-6,2,296,72,35060,65,36,127,0,0,3467,0,0,19553,7881,239,26207,-4,0,47,0,513959,0
513969,132,-2076,155,-87,32,119,12430,4,-3,308,112,35064,89,35,127,0,0,3467,0,0,19553,7881,239,26217,-4,0,47,0,513959,0
513979,135,-2081,150,-87,37,119,12430,3,2,300,80,35061,89,35,127,0,0,3467,0,0,19553,7881,239,26227,-4,0,47,0,513959,0
513989,129,-2089,164,-84,40,124,12431,2,2,302,40,35056,88,36,127,0,0,3467,0,0,19553,7881,239,26237,-4,0,47,0,513959,0
513999,115,-2085,162,-84,40,123,12430,-1,0,304,80,35055,70,36,127,0,0,3467,0,0,19553,7881,239,26247,-4,0,47,0,513959,0
514009,131,-2079,165,-91,36,126,12430,0,-1,308,64,35063,73,36,127,0,0,3469,32,0,19553,7881,239,26257,-4,0,47,0,513974,0
514019,106,-2079,163,-83,46,122,12429,-7,-2,318,112,35076,81,36,127,0,0,3467,0,0,19553,7881,239,26267,-4,0,47,0,513990,0
514029,101,-2082,163,-89,40,123,12430,4,-4,308,80,35070,75,35,127,0,0,3469,0,0,19553,7881,239,26277,-4,0,47,0,514005,0
514039,105,-2078,166,-89,38,124,12430,-3,0,315,112,35068,65,36,127,0,0,3467,0,0,19553,7881,239,26287,-4,0,47,0,514005,0
514049,107,-2083,159,-94,44,118,12430,-4,-4,271,88,35065,61,35,127,0,0,3467,0,0,19553,7881,239,26297,-4,0,47,0,514005,0
514059,108,-2080,152,-87,45,117,12430,-2,4,283,80,35072,89,35,127,0,0,3467,0,0,19553,7881,239,26307,-4,0,47,0,514021,0
514069,120,-2081,163,-89,41,109,12430,2,1,306,80,35065,75,35,127,0,0,3469,21,0,19553,7881,239,26317,-4,0,47,0,514037,0
514079,111,-2083,163,-89,39,111,12430,0,-3,314,80,35067,65,36,127,0,0,3467,0,0,19553,7881,239,26327,-4,0,47,0,514037,0
514089,117,-2078,159,-85,34,116,12430,1,-2,306,80,35073,54,36,127,0,0,3469,21,0,19553,7881,239,26337,-4,0,47,0,514068,0
514099,120,-2092,156,-82,35,118,12429,-5,2,315,104,35078,65,36,127,0,0,3467,-10,0,19553,7881,239,26347,-4,0,47,0,514068,0
514109,114,-2079,174,-87,38,114,12430,5,-6,267,80,35071,71,36,127,0,0,3467,32,0,19553,7881,239,26357,-4,0,47,0,514068,0
514119,126,-2079,178,-91,39,116,12430,-2,-1,308,80,35065,88,36,127,0,0,3467,0,0,19553,7881,239,26367,-4,0,47,0,514084,0
514129,119,-2084,159,-95,37,118,12431,8,2,304,80,35070,91,36,127,0,0,3467,0,0,19553,7881,239,26377,-4,0,47,0,514099,0
514139,114,-2079,162,-93,36,114,12431,4,-1,327,72,35079,101,36,127,0,0,3467,-43,0,19553,7881,239,26387,-4,0,47,0,514099,0
514149,134,-2087,163,-92,35,110,12431,2,5,342,56,35081,96,35,127,0,0,3469,-10,0,19553,7881,239,26397,-4,0,47,0,514115,0
514159,102,-2085,163,-93,38,114,12430,2,-3,314,112,35068,103,35,127,0,0,3467,10,0,19553,7881,239,26407,-4,0,47,0,514115,0
514170,126,-2079,162,-95,37,106,12430,-5,-3,302,80,35068,90,36,127,0,0,3470,27,0,19553,7881,239,26418,-4,0,47,0,514130,0
514180,122,-2084,150,-98,43,108,12431,1,0,323,80,35074,78,36,127,0,0,3467,5,0,19553,7881,239,26428,-4,0,47,0,514162,0
514190,108,-2077,154,-91,37,107,12431,0,-1,297,80,35075,80,35,127,0,0,3470,32,0,19553,7881,239,26438,-4,0,47,0,514162,0
514200,112,-2079,155,-91,39,114,12431,0,1,315,80,35069,86,35,127,0,0,3467,10,0,19553,7881,239,26448,-4,0,47,0,514162,0
514210,133,-2081,159,-88,36,105,12431,-2,1,305,80,35068,75,36,127,0,0,3463,-32,0,19553,7881,239,26458,-4,0,47,0,514193,0
514220,134,-2076,155,-92,41,110,12431,0,0,257,56,35064,66,35,127,0,0,3468,-10,0,19553,7881,239,26468,-4,0,47,0,514193,0
514230,134,-2084,154,-84,36,115,12430,-1,-7,240,56,35063,77,35,127,0,0,3461,-10,0,19553,7881,239,26478,-4,0,47,0,514193,0
514240,149,-2085,152,-79,34,113,12430,6,1,239,80,35057,83,35,127,0,0,3467,5,0,19553,7881,239,26488,-4,0,47,0,514224,0
514250,114,-2082,157,-80,39,111,12431,5,3,315,56,35055,72,36,127,0,0,3465,-54,0,19553,7881,239,26498,-4,0,47,0,514224,0
514260,115,-2079,165,-78,39,112,12431,8,-1,278,96,35070,78,36,127,0,0,3466,-5,0,19553,7881,239,26508,-4,0,47,0,514240,0
514270,130,-2086,164,-79,37,118,12430,1,-2,277,80,35072,91,35,127,0,0,3467,0,0,19553,7881,239,26518,-4,0,47,0,514240,0
514280,137,-2082,161,-80,41,121,12429,-13,-3,290,80,35063,91,35,127,0,0,3467,0,0,19553,7881,239,26528,-4,0,47,0,514240,0
514290,112,-2078,157,-80,37,118,12431,-1,3,306,80,35054,109,36,127,0,0,3463,-32,0,19553,7881,239,26538,-4,0,47,0,514318,0
514300,133,-2078,162,-81,43,112,12431,8,2,309,72,35064,96,36,127,0,0,3467,-54,0,19553,7881,239,26548,-4,0,47,0,514333,0
514310,123,-2079,160,-78,37,123,12431,4,-1,264,56,35064,115,36,127,0,0,3471,71,0,19553,7881,239,26558,-4,0,47,0,514333,0
514320,118,-2084,164,-83,36,121,12430,-10,2,300,72,35057,101,36,127,0,0,3467,21,0,19553,7881,239,26568,-4,0,47,0,514333,0
514330,114,-2082,155,-81,38,121,12430,-6,3,297,56,35041,97,35,127,0,0,3471,5,0,19553,7881,239,26578,-4,0,47,0,514349,0
514340,87,-2089,150,-86,36,124,12430,-1,0,291,80,35047,91,35,127,0,0,3467,27,0,19553,7881,239,26588,-4,0,47,0,514349,0
514350,142,-2084,157,-69,40,113,12430,0,3,319,72,35056,82,36,127,0,0,3467,-16,0,19553,7881,239,26598,-4,0,47,0,514349,0
514360,133,-2084,151,-71,45,115,12431,2,1,328,72,35053,89,36,127,0,0,3467,-43,0,19553,7881,239,26608,-4,0,47,0,514349,0
514370,120,-2079,151,-69,41,124,12430,0,0,299,72,35049,82,36,127,0,0,3467,0,0,19553,7881,239,26618,-4,0,47,0,514349,0
514380,119,-2084,150,-67,36,122,12430,-3,0,306,56,35052,72,36,127,0,0,3465,-38,0,19553,7881,239,26628,-4,0,47,0,514349,0
514390,106,-2081,157,-63,37,126,12430,2,-2,273,80,35069,61,35,127,0,0,3463,-43,0,19553,7881,239,26638,-4,0,47,0,514349,0
514400,112,-2078,163,-65,34,115,12431,4,3,282,72,35082,82,35,127,0,0,3467,-32,0,19553,7881,239,26648,-4,0,47,0,514396,0
514410,134,-2080,161,-65,32,122,12430,2,-2,294,80,35076,107,35,127,0,0,3467,0,0,19553,7881,239,26658,-4,0,47,0,514396,0
514420,126,-2081,166,-69,35,119,12431,1,5,315,72,35067,100,36,127,0,0,3467,-5,0,19553,7881,239,26668,-4,0,47,0,514396,0
514430,107,-2087,169,-70,37,117,12430,0,0,274,80,35059,99,35,127,0,0,3467,16,0,19553,7881,239,26678,-4,0,47,0,514396,0
514441,115,-2083,167,-71,34,116,12430,2,2,305,80,35059,85,35,127,0,0,3465,-21,0,19553,7881,239,26689,-4,0,47,0,514396,0
514451,129,-2081,160,-73,36,115,12430,0,-1,279,112,35063,87,35,127,0,0,3469,43,0,19553,7881,239,26699,-4,0,47,0,514412,0
514461,133,-2083,168,-76,36,108,12430,-7,-2,302,80,35063,115,35,127,0,0,3467,0,0,19553,7881,239,26709,-4,0,47,0,514443,0
514471,143,-2073,166,-72,36,109,12431,0,-2,315,32,35069,102,36,127,0,0,3469,10,0,19553,7881,239,26719,-4,0,47,0,514443,0
514481,121,-2076,161,-76,33,117,12433,12,5,311,40,35064,102,35,127,0,0,3467,-21,0,19553,7881,239,26729,-4,0,47,0,514443,0
514491,106,-2081,157,-72,27,116,12432,7,2,310,72,35056,86,35,127,0,0,3467,-21,0,19553,7881,239,26739,-4,0,47,0,514458,0
514501,135,-2078,167,-74,42,107,12431,7,0,300,104,35050,100,36,127,0,0,3467,0,0,19553,7881,239,26749,-4,0,47,0,514474,0
514511,139,-2082,172,-77,35,106,12432,11,3,280,40,35051,89,36,127,0,0,3467,0,0,19553,7881,239,26759,-4,0,47,0,514474,0
514521,126,-2082,172,-81,30,115,12431,-1,6,304,72,35055,74,35,127,0,0,3467,10,0,19553,7881,239,26769,-4,0,47,0,514474,0
514531,139,-2081,163,-77,30,117,12429,-9,-1,293,80,35056,98,35,127,0,0,3467,0,0,19553,7881,239,26779,-4,0,47,0,514510,0
514541,111,-2080,166,-82,35,112,12431,-3,-1,308,40,35050,105,36,127,0,0,3467,-21,0,19553,7881,239,26789,-4,0,47,0,514514,0
514551,114,-2081,166,-82,37,122,12430,-5,2,294,80,35048,95,36,127,0,0,3465,-21,0,19553,7881,239,26799,-4,0,47,0,514514,0
514561,144,-2085,156,-82,35,107,12429,-5,-7,269,32,35058,88,36,127,0,0,3469,65,0,19553,7881,239,26809,-4,0,47,0,514545,0
514571,116,-2077,166,-84,45,119,12430,-11,-3,297,80,35062,90,35,127,0,0,3467,10,0,19553,7881,239,26819,-4,0,47,0,514545,0
514581,123,-2085,158,-79,32,121,12431,5,0,287,72,35056,109,35,127,0,0,3469,0,0,19553,7881,239,26829,-4,0,47,0,514545,0
514591,106,-2081,166,-77,41,126,12429,-6,-1,277,88,35049,96,35,127,0,0,3469,32,0,19553,7881,239,26839,-4,0,47,0,514545,0
514601,146,-2077,164,-83,38,118,12433,13,6,343,56,35047,71,36,127,0,0,3467,-32,0,19553,7881,239,26849,-4,0,47,0,514607,0
514611,106,-2088,162,-83,41,122,12432,9,1,295,72,35060,83,36,127,0,0,3467,0,0,19553,7881,239,26859,-4,0,47,0,514607,0
514621,128,-2080,161,-85,36,117,12431,0,-5,286,64,35057,88,35,127,0,0,3467,10,0,19553,7881,239,26869,-4,0,47,0,514607,0
514631,126,-2087,165,-83,41,115,12431,3,2,261,56,35045,87,36,127,0,0,3467,10,0,19553,7881,239,26879,-4,0,47,0,514607,0
514641,139,-2074,170,-86,42,121,12432,3,6,299,72,35042,73,36,127,0,0,3467,10,0,19553,7881,239,26889,-4,0,47,0,514607,0
514651,137,-2082,169,-80,32,126,12431,-4,3,281,72,35045,80,36,127,0,0,3467,10,0,19553,7881,239,26899,-4,0,47,0,514623,0
514662,111,-2087,163,-85,35,116,12431,-1,-1,290,96,35048,90,35,127,0,0,3469,49,0,19553,7881,239,26910,-4,0,47,0,514670,0
514672,107,-2077,164,-85,38,124,12431,-1,-4,302,72,35055,99,35,127,0,0,3467,10,0,19553,7881,239,26920,-4,0,47,0,514670,0
514682,123,-2082,167,-91,42,116,12432,0,3,344,96,35060,87,35,127,0,0,3469,-10,0,19553,7881,239,26930,-4,0,47,0,514670,0
514692,121,-2082,170,-92,31,117,12431,-2,3,359,96,35065,77,35,127,0,0,3469,0,0,19553,7881,239,26940,-4,0,47,0,514670,0
514702,129,-2083,164,-85,36,118,12432,5,-2,322,72,35057,75,35,127,0,0,3470,27,0,19553,7881,239,26950,-4,0,47,0,514685,0
514712,108,-2081,161,-86,34,119,12432,3,-1,310,72,35042,79,35,127,0,0,3467,-16,0,19553,7881,239,26960,-4,0,47,0,514685,0
514722,129,-2080,164,-89,32,114,12433,5,1,294,72,35047,74,35,127,0,0,3470,32,0,19553,7881,239,26970,-4,0,47,0,514685,0
514732,111,-2088,168,-94,32,117,12431,0,0,338,96,35062,66,35,127,0,0,3469,27,0,19553,7881,239,26980,-4,0,47,0,514717,0
514742,116,-2082,170,-91,38,114,12431,-2,-1,367,96,35072,74,35,127,0,0,3466,-32,0,19553,7881,239,26990,-4,0,47,0,514717,0
514752,131,-2085,166,-97,45,105,12430,-5,-2,292,80,35069,79,35,127,0,0,3470,5,0,19553,7881,239,27000,-4,0,47,0,514717,0
514762,149,-2079,164,-97,39,115,12431,0,5,303,96,35061,92,36,127,0,0,3466,16,0,19553,7881,239,27010,-4,0,47,0,514717,0
514772,156,-2079,162,-97,36,118,12432,4,3,290,72,35059,80,36,127,0,0,3470,32,0,19553,7881,239,27020,-4,0,47,0,514748,0
514782,123,-2075,161,-97,37,122,12431,1,0,305,72,35071,97,35,127,0,0,3467,0,0,19553,7881,239,27030,-4,0,47,0,514748,0
514792,134,-2086,157,-98,38,120,12431,-5,-2,279,72,35065,97,35,127,0,0,3467,0,0,19553,7881,239,27040,-4,0,47,0,514748,0
514802,132,-2080,163,-94,45,118,12431,2,-1,289,96,35064,104,36,127,0,0,3466,5,0,19553,7881,239,27050,-4,0,47,0,514764,0
514812,126,-2082,168,-93,38,125,12430,-6,3,285,80,35056,99,36,127,0,0,3467,0,0,19553,7881,239,27060,-4,0,47,0,514795,0
514822,106,-2079,165,-98,43,120,12431,7,0,265,56,35060,87,35,127,0,0,3468,5,0,19553,7881,239,27070,-4,0,47,0,514795,0
514832,80,-2080,164,-95,37,126,12431,7,6,288,72,35056,91,36,127,0,0,3467,0,0,19553,7881,239,27080,-4,0,47,0,514795,0
514842,141,-2082,163,-98,39,121,12431,0,0,271,72,35050,77,36,127,0,0,3467,27,0,19553,7881,239,27090,-4,0,47,0,514795,0
514852,139,-2083,164,-98,39,117,12432,3,-1,305,96,35047,78,36,127,0,0,3466,-21,0,19553,7881,239,27100,-4,0,47,0,514826,0
514862,119,-2081,159,-98,38,119,12432,2,0,298,72,35064,72,36,127,0,0,3467,0,0,19553,7881,239,27110,-4,0,47,0,514826,0
514872,119,-2084,158,-103,35,116,12430,-4,0,317,96,35065,76,36,127,0,0,3466,0,0,19553,7881,239,27120,-4,0,47,0,514826,0
514882,103,-2082,154,-95,41,116,12433,7,1,299,72,35059,77,36,127,0,0,3467,-27,0,19553,7881,239,27130,-4,0,47,0,514857,0
514892,112,-2079,161,-97,42,111,12431,0,-1,323,72,35052,65,35,127,0,0,3467,-32,0,19553,7881,239,27140,-4,0,47,0,514857,0
514902,106,-2084,164,-102,37,116,12431,-1,0,312,72,35060,65,36,127,0,0,3470,-21,0,19553,7881,239,27150,-4,0,47,0,514873,0
514913,143,-2084,163,-98,35,110,12432,-5,-2,292,72,35069,80,36,127,0,0,3469,32,0,19553,7881,239,27161,-4,0,47,0,514873,0
514923,141,-2083,156,-100,37,112,12431,-9,2,331,64,35062,91,36,127,0,0,3467,0,0,19553,7881,239,27171,-4,0,47,0,514889,0
514933,130,-2085,157,-99,35,111,12432,0,1,322,64,35061,117,36,127,0,0,3469,10,0,19553,7881,239,27181,-4,0,47,0,514889,0
514943,110,-2088,156,-97,37,120,12432,-1,2,297,72,35063,110,36,127,0,0,3469,21,0,19553,7881,239,27191,-4,0,47,0,514935,0
514953,146,-2083,153,-93,37,115,12432,0,1,322,72,35068,115,36,127,0,0,3467,-21,0,19553,7881,239,27201,-4,0,47,0,514935,0
514963,122,-2080,150,-97,37,119,12432,1,1,308,104,35062,91,36,127,0,0,3469,0,0,19553,7881,239,27211,-4,0,47,0,514935,0
514973,138,-2079,153,-88,38,120,12432,1,-1,299,72,35057,91,36,127,0,0,3467,0,0,19553,7881,239,27221,-4,0,47,0,514951,0
514983,124,-2080,149,-83,43,123,12431,-3,1,285,104,35057,82,36,127,0,0,3467,0,0,19553,7881,239,27231,-4,0,47,0,514951,0
514993,97,-2087,154,-84,33,126,12431,3,7,315,96,35059,65,36,127,0,0,3469,-10,0,19553,7881,239,27241,-4,0,47,0,514967,0
515003,95,-2079,159,-89,41,121,12432,3,-5,291,72,35070,84,35,127,0,0,3467,10,0,19553,7881,239,27251,-4,0,47,0,514967,0
515013,123,-2085,159,-86,34,119,12430,0,-1,304,80,35070,78,35,127,0,0,3467,-21,0,19553,7881,239,27261,-4,0,47,0,514967,0
515023,125,-2083,160,-89,40,122,12431,-1,-1,288,72,35071,87,36,127,0,0,3469,32,0,19553,7881,239,27271,-4,0,47,0,515014,0
515033,131,-2080,160,-83,28,121,12431,-6,-4,309,72,35079,73,35,127,0,0,3467,0,0,19553,7881,239,27281,-4,0,47,0,515029,0
515043,136,-2085,151,-84,31,122,12432,0,2,329,64,35077,76,35,127,0,0,3467,-32,0,19553,7881,239,27291,-4,0,47,0,515029,0
515053,114,-2079,156,-81,35,125,12432,8,-6,304,64,35072,87,36,127,0,0,3467,-10,0,19553,7881,239,27301,-4,0,47,0,515029,0
515063,114,-2083,161,-79,38,123,12430,-4,-7,292,64,35054,85,36,127,0,0,3467,0,0,19553,7881,239,27311,-4,0,47,0,515029,0
515073,113,-2077,154,-83,39,128,12432,0,5,305,72,35060,84,35,127,0,0,3467,-10,0,19553,7881,239,27321,-4,0,47,0,515045,0
515083,132,-2080,143,-72,29,125,12431,-7,0,316,64,35066,87,35,127,0,0,3469,21,0,19553,7881,239,27331,-4,0,47,0,515045,0
515093,126,-2080,161,-67,38,123,12432,5,-1,333,64,35074,91,35,127,0,0,3467,-10,0,19553,7881,239,27341,-4,0,47,0,515076,0
515103,108,-2082,172,-70,34,124,12431,3,5,297,72,35073,120,35,127,0,0,3469,32,0,19553,7881,239,27351,-4,0,47,0,515076,0
515113,133,-2079,170,-80,35,124,12433,3,3,368,96,35076,110,36,127,0,0,3467,-54,0,19553,7881,239,27361,-4,0,47,0,515076,0
515123,115,-2083,162,-75,43,114,12431,-1,-7,306,64,35069,106,36,127,0,0,3467,-32,0,19553,7881,239,27371,-4,0,47,0,515076,0
515133,102,-2081,162,-79,37,124,12431,3,-5,286,96,35060,89,36,127,0,0,3467,0,0,19553,7881,239,27381,-4,0,47,0,515107,0
515143,139,-2079,166,-80,34,116,12432,-1,1,329,96,35059,93,35,127,0,0,3467,-21,0,19553,7881,239,27391,-4,0,47,0,515107,0
515154,109,-2082,165,-79,37,118,12432,1,5,307,96,35062,88,35,127,0,0,3469,16,0,19553,7881,239,27402,-4,0,47,0,515107,0
515164,126,-2082,161,-85,41,122,12434,-4,2,349,96,35076,78,35,127,0,0,3469,0,0,19553,7881,239,27412,-4,0,47,0,515139,0
515174,121,-2082,159,-83,38,121,12432,-5,4,337,96,35077,89,35,127,0,0,3469,5,0,19553,7881,239,27422,-4,0,47,0,515139,0
515184,117,-2079,154,-84,39,126,12432,0,3,353,112,35071,91,35,127,0,0,3468,-5,0,19553,7881,239,27432,-4,0,47,0,515139,0
515194,155,-2084,155,-75,42,122,12431,-6,-3,299,96,35062,83,36,127,0,0,3472,65,0,19553,7881,239,27442,-4,0,47,0,515170,0
515204,139,-2085,160,-81,39,122,12433,-2,-1,371,88,35062,78,36,127,0,0,3472,16,0,19553,7881,239,27452,-4,0,47,0,515170,0
515214,145,-2079,160,-82,32,124,12432,-2,1,320,72,35069,81,36,127,0,0,3473,71,0,19553,7881,239,27462,-4,0,47,0,515170,0
515224,101,-2088,166,-82,35,132,12435,9,-7,344,96,35066,85,36,127,0,0,3469,38,0,19553,7881,239,27472,-4,0,47,0,515185,0
515234,113,-2082,163,-86,41,124,12434,4,4,358,88,35060,71,36,127,0,0,3469,0,0,19553,7881,239,27482,-4,0,47,0,515201,0
515244,112,-2085,164,-84,40,126,12433,0,2,368,112,35057,74,36,127,0,0,3468,-21,0,19553,7881,239,27492,-4,0,47,0,515217,0
515254,123,-2074,160,-89,36,124,12434,0,3,379,112,35069,87,36,127,0,0,3468,-38,0,19553,7881,239,27502,-4,0,47,0,515217,0
515264,117,-2081,160,-87,40,126,12434,1,-7,314,96,35061,86,36,127,0,0,3469,27,0,19553,7881,239,27512,-4,0,47,0,515232,0
515274,123,-2082,161,-85,44,123,12433,0,-4,345,112,35057,91,35,127,0,0,3468,5,0,19553,7881,239,27522,-4,0,47,0,515232,0
515284,131,-2079,166,-89,40,122,12433,-1,1,328,136,35063,86,36,127,0,0,3473,76,0,19553,7881,239,27532,-4,0,47,0,515263,0
515294,138,-2079,160,-81,42,119,12435,-9,3,400,128,35078,81,35,127,0,0,3470,16,0,19553,7881,239,27542,-4,0,47,0,515263,0
515304,128,-2082,166,-91,35,123,12435,-3,-2,330,88,35077,83,35,127,0,0,3472,43,0,19553,7881,239,27552,-4,0,47,0,515263,0
515314,132,-2078,163,-89,42,122,12434,-11,-6,370,112,35066,77,35,127,0,0,3468,5,0,19553,7881,239,27562,-4,0,47,0,515279,0
515324,156,-2079,158,-90,40,114,12432,-15,0,350,112,35053,75,36,127,0,0,3468,-27,0,19553,7881,239,27572,-4,0,47,0,515279,0
515334,113,-2078,160,-91,42,117,12433,-9,-6,297,112,35057,68,35,127,0,0,3471,54,0,19553,7881,239,27582,-4,0,47,0,515310,0
515344,136,-2079,158,-88,41,125,12434,-14,4,368,88,35067,76,35,127,0,0,3469,-43,0,19553,7881,239,27592,-4,0,47,0,515310,0
515354,119,-2085,158,-90,40,119,12435,3,2,329,88,35067,94,35,127,0,0,3472,27,0,19553,7881,239,27602,-4,0,47,0,515326,0
515364,122,-2076,160,-85,43,121,12435,3,0,369,112,35062,86,35,127,0,0,3471,5,0,19553,7881,239,27612,-4,0,47,0,515326,0
515374,128,-2083,161,-91,39,126,12435,-1,2,381,88,35061,82,35,127,0,0,3472,5,0,19553,7881,239,27622,-4,0,47,0,515420,0
515384,133,-2083,159,-84,38,117,12436,1,6,372,128,35064,78,35,127,0,0,3470,5,0,19553,7881,239,27632,-4,0,47,0,515435,0
515394,134,-2076,163,-83,37,118,12435,-9,3,364,136,35066,84,35,127,0,0,3470,32,0,19553,7881,239,27642,-4,0,47,0,515435,0
515404,138,-2080,163,-87,36,128,12435,-4,-6,349,112,35063,78,35,127,0,0,3471,16,0,19553,7881,239,27652,-4,0,47,0,515435,0
515414,129,-2082,158,-90,37,122,12435,-1,0,363,88,35056,79,36,127,0,0,3476,27,0,19553,7881,239,27662,-4,0,47,0,515435,0
515424,91,-2087,163,-92,37,124,12436,2,2,418,128,35054,87,36,127,0,0,3470,10,0,19553,7881,239,27672,-4,0,47,0,515451,0
515434,114,-2081,160,-92,30,116,12436,-4,2,423,112,35049,84,36,127,0,0,3474,0,0,19553,7881,239,27682,-4,0,47,0,515451,0
515444,117,-2077,162,-91,41,126,12436,1,-3,414,112,35044,89,36,127,0,0,3471,5,0,19553,7881,239,27692,-4,0,47,0,515451,0
515454,96,-2081,159,-91,27,120,12435,-3,-3,399,112,35050,86,36,127,0,0,3471,-27,0,19553,7881,239,27702,-4,0,47,0,515451,0
515464,108,-2079,159,-87,40,116,12437,0,7,415,128,35049,87,36,127,0,0,3473,5,0,19553,7881,239,27712,-4,0,47,0,515451,0
515474,131,-2085,162,-88,33,114,12436,-1,-2,437,88,35046,95,36,127,0,0,3476,16,0,19553,7881,239,27722,-4,0,47,0,515451,0
515485,128,-2086,168,-89,32,121,12436,-1,-4,384,120,35044,92,36,127,0,0,3473,43,0,19553,7881,239,27733,-4,0,47,0,515451,0
515495,134,-2076,161,-86,32,126,12437,1,6,379,152,35055,82,36,127,0,0,3471,43,0,19553,7881,239,27743,-4,0,47,0,515451,0
515505,140,-2086,161,-92,43,108,12437,0,4,406,96,35085,72,36,127,0,0,3473,10,0,19553,7881,239,27753,-4,0,47,0,515513,0
515515,120,-2082,159,-86,47,117,12436,0,-6,356,120,35093,80,35,127,0,0,3473,65,0,19553,7881,239,27763,-4,0,47,0,515513,0
515525,159,-2076,165,-87,39,111,12439,-1,4,422,88,35077,65,36,127,0,0,3473,10,0,19553,7881,239,27773,-4,0,47,0,515529,0
515535,120,-2084,164,-87,40,121,12438,9,0,428,128,35057,46,35,127,0,0,3469,-32,0,19553,7881,239,27783,-4,0,47,0,515529,0
515545,94,-2082,155,-87,37,118,12436,-4,-7,384,144,35064,54,36,127,0,0,3473,10,0,19553,7881,239,27793,-4,0,47,0,515529,0
515555,114,-2075,161,-88,31,117,12437,-10,0,394,104,35076,73,36,127,0,0,3473,32,0,19553,7881,239,27803,-4,0,47,0,515529,0
515565,141,-2078,158,-86,40,114,12437,-8,-2,386,152,35070,93,36,127,0,0,3473,43,0,19553,7881,239,27813,-4,0,47,0,515529,0
515575,143,-2080,161,-87,37,117,12437,-1,-3,422,128,35055,100,36,127,0,0,3471,0,0,19553,7881,239,27823,-4,0,47,0,515545,0
515585,96,-2082,159,-94,35,112,12439,5,1,399,104,35054,93,36,127,0,0,3473,0,0,19553,7881,239,27833,-4,0,47,0,515545,0
515595,93,-2076,163,-96,39,115,12437,6,-3,387,104,35075,90,36,127,0,0,3473,32,0,19553,7881,239,27843,-4,0,47,0,515576,0
515605,147,-2089,159,-94,36,107,12438,4,5,399,136,35085,90,36,127,0,0,3473,32,0,19553,7881,239,27853,-4,0,47,0,515576,0
515615,148,-2084,158,-94,43,108,12437,-8,1,429,96,35075,92,35,127,0,0,3471,-21,0,19553,7881,239,27863,-4,0,47,0,515576,0
515625,108,-2082,158,-97,36,118,12437,3,-5,406,144,35065,92,35,127,0,0,3473,0,0,19553,7881,239,27873,-4,0,47,0,515592,0
515635,110,-2082,158,-98,40,116,12437,-4,-4,404,104,35055,77,35,127,0,0,3473,0,0,19553,7881,239,27883,-4,0,47,0,515592,0
515645,133,-2085,160,-96,36,121,12438,3,-1,367,152,35060,81,35,127,0,0,3473,43,0,19553,7881,239,27893,-4,0,47,0,515607,0
515656,142,-2080,156,-95,33,113,12439,1,6,396,128,35065,76,35,127,0,0,3470,-10,0,19553,7881,239,27904,-4,0,47,0,515638,0
515666,120,-2083,158,-96,41,109,12436,-6,-6,339,112,35066,88,35,127,0,0,3471,21,0,19553,7881,239,27914,-4,0,47,0,515654,0
515676,129,-2083,157,-96,38,114,12437,6,2,331,104,35064,79,35,127,0,0,3468,-10,0,19553,7881,239,27924,-4,0,47,0,515654,0
515686,145,-2082,159,-99,37,103,12436,-3,0,302,88,35052,86,36,127,0,0,3476,65,0,19553,7881,239,27934,-4,0,47,0,515654,0
515696,117,-2086,154,-90,33,111,12437,-1,7,358,104,35046,88,35,127,0,0,3468,0,0,19553,7881,239,27944,-4,0,47,0,515654,0
515706,140,-2081,152,-96,38,110,12436,6,5,353,88,35059,80,35,127,0,0,3469,-49,0,19553,7881,239,27954,-4,0,47,0,515670,0
515716,126,-2082,157,-91,39,111,12438,12,-4,349,80,35076,78,35,127,0,0,3472,-16,0,19553,7881,239,27964,-4,0,47,0,515701,0
515726,116,-2080,151,-97,36,117,12436,0,0,359,112,35075,78,35,127,0,0,3471,27,0,19553,7881,239,27974,-4,0,47,0,515701,0
515736,126,-2079,150,-95,31,119,12436,-5,7,397,88,35063,80,35,127,0,0,3472,-38,0,19553,7881,239,27984,-4,0,47,0,515701,0
515746,117,-2083,150,-88,38,120,12436,0,-1,363,88,35051,75,36,127,0,0,3469,-10,0,19553,7881,239,27994,-4,0,47,0,515716,0
515756,110,-2084,152,-86,36,113,12436,0,-6,354,112,35061,74,35,127,0,0,3471,-10,0,19553,7881,239,28004,-4,0,47,0,515716,0
515766,116,-2080,164,-89,39,119,12438,4,1,368,80,35065,88,35,127,0,0,3472,-5,0,19553,7881,239,28014,-4,0,47,0,515795,0
515776,101,-2078,164,-96,36,117,12436,-4,3,336,112,35060,101,35,127,0,0,3471,21,0,19553,7881,239,28024,-4,0,47,0,515795,0
515786,149,-2083,161,-94,40,107,12437,11,6,367,104,35057,95,35,127,0,0,3471,21,0,19553,7881,239,28034,-4,0,47,0,515795,0
515796,144,-2081,155,-98,40,103,12437,0,3,354,104,35055,79,35,127,0,0,3471,27,0,19553,7881,239,28044,-4,0,47,0,515795,0
515806,105,-2084,166,-98,34,108,12435,-5,-5,347,112,35056,59,35,127,0,0,3471,32,0,19553,7881,239,28054,-4,0,47,0,515795,0
515816,113,-2083,152,-97,33,113,12437,2,-1,387,104,35050,76,35,127,0,0,3471,-16,0,19553,7881,239,28064,-4,0,47,0,515810,0
515826,109,-2087,155,-96,34,108,12436,2,1,357,112,35043,78,36,127,0,0,3471,27,0,19553,7881,239,28074,-4,0,47,0,515810,0
515836,118,-2084,152,-96,41,103,12436,-2,-1,383,112,35054,82,35,127,0,0,3471,-5,0,19553,7881,239,28084,-4,0,47,0,515810,0
515846,117,-2091,156,-97,33,108,12437,0,2,364,128,35064,83,35,127,0,0,3473,38,0,19553,7881,239,28094,-4,0,47,0,515810,0
515856,122,-2087,159,-94,33,105,12437,-8,-2,386,104,35076,89,36,127,0,0,3471,10,0,19553,7881,239,28104,-4,0,47,0,515841,0
515866,131,-2081,156,-98,39,107,12437,5,-1,364,104,35070,97,36,127,0,0,3471,0,0,19553,7881,239,28114,-4,0,47,0,515841,0
515876,122,-2082,156,-98,40,109,12437,3,2,385,104,35066,97,35,127,0,0,3474,27,0,19553,7881,239,28124,-4,0,47,0,515857,0
515886,121,-2087,161,-94,39,110,12436,-7,5,375,112,35068,91,35,127,0,0,3474,60,0,19553,7881,239,28134,-4,0,47,0,515873,0
515896,124,-2079,149,-92,37,106,12437,-2,-1,398,104,35063,87,36,127,0,0,3471,-16,0,19553,7881,239,28144,-4,0,47,0,515873,0
515906,122,-2086,149,-95,35,106,12437,-2,-1,350,104,35057,78,35,127,0,0,3471,5,0,19553,7881,239,28154,-4,0,47,0,515873,0
515917,125,-2085,151,-90,39,104,12438,-1,-2,351,104,35059,85,35,127,0,0,3471,-21,0,19553,7881,239,28165,-4,0,47,0,515873,0
515927,106,-2084,151,-91,42,102,12436,5,2,339,72,35066,79,36,127,0,0,3469,-21,0,19553,7881,239,28175,-4,0,47,0,515920,0
515937,114,-2087,156,-91,44,104,12439,2,0,363,104,35076,77,36,127,0,0,3471,0,0,19553,7881,239,28185,-4,0,47,0,515920,0
515947,118,-2086,150,-88,33,103,12435,-7,4,343,120,35070,83,36,127,0,0,3469,-10,0,19553,7881,239,28195,-4,0,47,0,515920,0
515957,116,-2079,160,-86,43,101,12436,-2,0,345,72,35057,75,36,127,0,0,3467,-54,0,19553,7881,239,28205,-4,0,47,0,515920,0
515967,119,-2076,156,-86,40,95,12436,1,-2,277,128,35061,73,36,127,0,0,3471,32,0,19553,7881,239,28215,-4,0,47,0,515920,0
515977,126,-2083,157,-89,39,92,12437,0,2,320,48,35072,90,36,127,0,0,3469,0,0,19553,7881,239,28225,-4,0,47,0,515951,0
515987,121,-2079,157,-97,39,93,12436,0,3,291,96,35076,104,35,127,0,0,3467,-21,0,19553,7881,239,28235,-4,0,47,0,515951,0
515997,114,-2082,159,-89,41,82,12435,-2,-2,243,64,35070,97,35,127,0,0,3465,-21,0,19553,7881,239,28245,-4,0,47,0,515982,0
516007,124,-2082,152,-94,40,77,12435,0,-1,252,64,35070,88,36,127,0,0,3465,-54,0,19553,7881,239,28255,-4,0,47,0,515982,0
516017,113,-2082,158,-93,38,77,12434,0,-4,210,48,35069,93,36,127,0,0,3465,-10,0,19553,7881,239,28265,-4,0,47,0,515982,0
516027,126,-2082,152,-91,37,78,12433,3,-3,162,48,35066,100,36,127,0,0,3462,-21,0,19553,7881,239,28275,-4,0,47,0,515998,0
516037,121,-2084,139,-90,41,73,12432,0,1,115,24,35060,84,36,127,0,0,3465,10,0,19553,7881,239,28285,-4,0,47,0,515998,0
516047,128,-2080,147,-84,45,72,12432,-1,6,99,8,35074,89,36,127,0,0,3462,0,0,19553,7881,239,28295,-4,0,47,0,516013,0
516057,133,-2079,149,-75,35,85,12431,3,10,66,-24,35090,102,36,127,0,0,3460,0,0,19553,7881,239,28305,-4,0,47,0,516029,0
516067,125,-2081,149,-75,33,89,12429,-2,1,24,-8,35089,107,36,127,0,0,3460,0,0,19553,7881,239,28315,-4,0,47,0,516029,0
516077,153,-2076,145,-71,35,105,12429,-1,0,-4,-8,35073,104,35,127,0,0,3460,32,0,19553,7881,239,28325,-4,0,47,0,516060,0
516087,149,-2078,142,-63,37,123,12428,-5,0,40,16,35068,92,35,127,0,0,3456,-32,0,19553,7881,239,28335,-4,0,47,0,516060,0
516097,124,-2085,140,-52,33,125,12429,3,-5,-39,-8,35066,90,35,127,0,0,3456,-21,0,19553,7881,239,28345,-4,0,47,0,516060,0
516107,145,-2078,150,-49,37,129,12426,-4,-8,-55,32,35066,95,36,127,0,0,3460,43,0,19553,7881,239,28355,-4,0,47,0,516060,0
516117,150,-2080,141,-44,39,141,12425,-17,-2,0,-16,35065,91,36,127,0,0,3458,0,0,19553,7881,239,28365,-4,0,47,0,516138,0
516127,147,-2084,139,-38,40,139,12428,16,-1,4,-8,35064,96,36,127,0,0,3458,-21,0,19553,7881,239,28375,-4,0,47,0,516138,0
516137,128,-2075,149,-28,39,151,12427,1,0,-1,-16,35069,86,36,127,0,0,3456,-10,0,19553,7881,239,28385,-4,0,47,0,516138,0
516147,148,-2086,152,-16,34,146,12427,5,-4,-6,32,35060,93,35,127,0,0,3458,-10,0,19553,7881,239,28395,-4,0,47,0,516138,0
516157,128,-2088,153,-14,42,147,12427,-8,3,20,-16,35055,83,35,127,0,0,3460,21,0,19553,7881,239,28405,-4,0,47,0,516138,0
516167,128,-2088,160,-12,45,153,12427,-3,0,47,16,35056,81,35,127,0,0,3460,0,0,19553,7881,239,28415,-4,0,47,0,516154,0
516177,126,-2083,150,-6,43,161,12428,1,7,81,32,35062,74,36,127,0,0,3462,21,0,19553,7881,239,28425,-4,0,47,0,516154,0
516188,146,-2082,152,-2,34,160,12429,-7,-1,171,56,35069,81,36,127,0,0,3468,71,0,19553,7881,239,28436,-4,0,47,0,516154,0
516198,114,-2080,153,8,38,163,12433,4,2,260,72,35070,88,36,127,0,0,3467,5,0,19553,7881,239,28446,-4,0,47,0,516154,0
516208,96,-2088,142,10,33,164,12432,0,-4,245,72,35081,103,35,127,0,0,3470,60,0,19553,7881,239,28456,-4,0,47,0,516201,0
516218,106,-2082,158,22,33,164,12433,-3,-3,300,72,35082,106,35,127,0,0,3467,-16,0,19553,7881,239,28466,-4,0,47,0,516201,0
516228,104,-2083,148,20,33,146,12433,4,2,300,72,35075,105,36,127,0,0,3467,-43,0,19553,7881,239,28476,-4,0,47,0,516216,0
516238,86,-2082,142,24,35,133,12435,16,1,336,88,35059,102,36,127,0,0,3469,-27,0,19553,7881,239,28486,-4,0,47,0,516216,0
516248,111,-2082,150,35,39,119,12435,2,-6,383,88,35048,97,36,127,0,0,3472,-5,0,19553,7881,239,28496,-4,0,47,0,516216,0
516258,90,-2083,156,40,34,120,12435,-1,5,381,104,35062,91,36,127,0,0,3468,-32,0,19553,7881,239,28506,-4,0,47,0,516216,0
516268,110,-2080,165,47,36,109,12436,0,-5,349,112,35072,79,36,127,0,0,3474,21,0,19553,7881,239,28516,-4,0,47,0,516248,0
516278,111,-2078,171,44,24,105,12436,-1,6,385,128,35076,89,35,127,0,0,3473,76,0,19553,7881,239,28526,-4,0,47,0,516248,0
516288,117,-2082,166,44,18,104,12436,-17,0,397,112,35060,92,35,127,0,0,3471,21,0,19553,7881,239,28536,-4,0,47,0,516248,0
516298,108,-2082,187,36,27,86,12437,7,-6,353,88,35053,90,35,127,0,0,3469,-32,0,19553,7881,239,28546,-4,0,47,0,516263,0
516308,94,-2080,197,39,18,75,12436,0,-3,316,88,35068,72,35,127,0,0,3469,-10,0,19553,7881,239,28556,-4,0,47,0,516279,0
516318,89,-2073,209,21,16,59,12437,5,3,341,64,35079,77,35,127,0,0,3467,-60,0,19553,7881,239,28566,-4,0,47,0,516279,0
516328,94,-2082,214,9,20,36,12434,-5,0,271,64,35081,86,35,127,0,0,3470,5,0,19553,7881,239,28576,-4,0,47,0,516294,0
516338,93,-2081,203,-7,12,2,12435,0,2,266,72,35063,97,35,127,0,0,3467,10,0,19553,7881,239,28586,-4,0,47,0,516310,0
516348,67,-2082,165,-12,18,-12,12432,-13,-2,155,24,35065,119,36,127,0,0,3459,-10,0,19553,7881,239,28596,-4,0,47,0,516326,0
516358,67,-2073,166,-6,30,-51,12429,-9,-7,30,-16,35070,125,36,127,0,0,3455,-65,0,19553,7881,239,28606,-4,0,47,0,516326,0
516368,99,-2079,179,-6,34,-78,12423,-18,-3,-118,-72,35062,113,36,127,0,0,3448,-115,0,19553,7881,239,28616,-4,0,47,0,516326,0
516378,104,-2076,186,-4,40,-106,12415,-26,-15,-290,-112,35055,97,35,127,0,0,3442,-87,0,19553,7881,239,28626,-4,0,47,0,516357,0
516388,78,-2069,197,-13,37,-120,12398,-49,-22,-343,-152,35060,98,36,127,0,0,3435,-104,0,19553,7881,239,28636,-4,0,47,0,516357,0
516398,101,-2072,195,-7,47,-168,12353,-105,-73,-263,-144,35070,94,36,127,0,0,3426,-98,0,19553,7881,239,28646,-4,0,47,0,516357,0
516409,136,-2074,224,-38,44,-195,12312,-99,-27,-363,-152,35069,93,36,127,0,0,3416,-109,0,19553,7881,239,28657,-4,0,47,0,516373,0
516419,26,-2077,239,-53,35,-223,12253,-138,-36,-298,-192,35066,73,35,127,0,0,3403,-142,0,19553,7881,239,28667,-4,0,47,0,516388,0
516429,8,-2073,214,-75,41,-290,12205,-74,-11,-371,-176,35064,86,35,127,0,0,3392,-131,0,19553,7881,239,28677,-4,0,47,0,516388,0
516439,139,-2067,226,-91,41,-335,12169,-92,49,-465,-232,35061,70,35,127,0,0,3377,-186,0,19553,7881,239,28687,-4,0,47,0,516404,0
516449,121,-2077,245,-114,24,-392,12118,-140,-25,-490,-296,35062,81,35,127,0,0,3364,-153,0,19553,7881,239,28697,-4,0,47,0,516419,0
516459,0,-2066,210,-127,25,-437,12043,-178,-76,-459,-344,35054,62,36,127,0,0,3346,-186,0,19553,7881,239,28707,-4,0,47,0,516419,0
516469,91,-2069,180,-139,50,-522,11960,-202,-61,-445,-360,35053,65,36,127,0,0,3326,-219,0,19553,7881,239,28717,-4,0,47,0,516435,0
516479,114,-2070,175,-139,55,-551,11862,-211,-51,-418,-384,35053,68,35,127,0,0,3309,-208,0,19553,7881,239,28727,-4,0,47,0,516451,0
516489,179,-2060,143,-124,63,-578,11771,-196,-5,-501,-384,35049,70,35,127,0,0,3287,-208,0,19553,7881,239,28737,-4,0,47,0,516451,0
516499,212,-2050,138,-110,52,-571,11670,-233,-6,-475,-416,35058,80,36,127,0,0,3260,-252,0,19553,7881,239,28747,-4,0,47,0,516560,0
516509,192,-2077,109,-82,52,-567,11562,-228,-36,-498,-464,35050,70,35,127,0,0,3238,-274,0,19553,7881,239,28757,-4,0,47,0,516560,0
516519,249,-2046,84,-45,61,-572,11444,-255,-25,-471,-472,35053,65,35,127,0,0,3218,-230,0,19553,7881,239,28767,-4,0,47,0,516560,0
516529,310,-2047,154,-27,65,-559,11329,-268,-14,-460,-472,35047,54,35,127,0,0,3197,-219,0,19553,7881,239,28777,-4,0,47,0,516560,0
516539,268,-2064,179,-17,70,-510,11209,-271,-7,-419,-480,35041,57,35,127,0,0,3172,-241,0,19553,7881,239,28787,-4,0,47,0,516560,0
516549,312,-2057,188,-9,63,-466,11090,-264,-6,-431,-424,35037,76,36,127,0,0,3153,-208,0,19553,7881,239,28797,-4,0,47,0,516576,0
516559,318,-2066,154,2,55,-428,10984,-216,28,-512,-392,35040,74,36,127,0,0,3135,-164,0,19553,7881,239,28807,-4,0,47,0,516576,0
516569,322,-2062,126,28,51,-378,10876,-242,25,-409,-352,35042,81,35,127,0,0,3120,-142,0,19553,7881,239,28817,-4,0,47,0,516576,0
516579,330,-2076,113,58,71,-333,10784,-186,18,-449,-360,35040,71,35,127,0,0,3100,-153,0,19553,7881,239,28827,-4,0,47,0,516576,0
516589,251,-2096,149,82,73,-292,10692,-193,35,-442,-336,35037,62,35,127,0,0,3084,-153,0,19553,7881,239,28837,-4,0,47,0,516576,0
516599,304,-2083,181,76,37,-256,10618,-162,33,-525,-336,35037,55,35,127,0,0,3071,-120,0,19553,7881,239,28847,-4,0,47,0,516576,0
516609,236,-2079,226,67,35,-252,10543,-159,25,-430,-280,35054,37,35,127,0,0,3056,-120,0,19553,7881,239,28857,-4,0,47,0,516576,0
516619,245,-2076,260,53,55,-263,10465,-173,-10,-431,-240,35069,46,36,127,0,0,3041,-131,0,19553,7881,239,28867,-4,0,47,0,516576,0
516629,237,-2071,267,27,92,-271,10392,-154,5,-418,-224,35069,67,35,127,0,0,3030,-131,0,19553,7881,239,28877,-4,0,47,0,516591,0
516639,280,-2077,270,1,82,-256,10321,-153,20,-400,-208,35061,74,35,127,0,0,3016,-98,0,19553,7881,239,28887,-4,0,47,0,516591,0
516649,322,-2091,299,-45,54,-197,10268,-77,43,-466,-256,35065,96,35,127,0,0,3005,-120,0,19553,7881,239,28897,-4,0,47,0,516607,0
516659,406,-2050,282,-74,29,-177,10231,-84,73,-558,-264,35072,85,35,127,0,0,3001,-54,0,19553,7881,239,28907,-4,0,47,0,516623,0
516670,351,-2059,215,-103,11,-96,10191,-93,10,-550,-272,35067,89,36,127,0,0,2990,-87,0,19553,7881,239,28918,-4,0,47,0,516623,0
516680,307,-2077,203,-97,29,-87,10131,-122,-46,-360,-168,35066,78,36,127,0,0,2984,-71,0,19553,7881,239,28928,-4,0,47,0,516638,0
516690,358,-2050,180,-97,30,-45,10096,-29,14,-350,-144,35068,85,36,127,0,0,2987,-5,0,19553,7881,239,28938,-4,0,47,0,516669,0
516700,398,-2058,182,-101,8,8,10097,-5,129,-440,-144,35076,87,36,127,0,0,2983,10,0,19553,7881,239,28948,-4,0,47,0,516685,0
516710,317,-2070,173,-95,-2,46,10097,-2,60,-476,-168,35062,86,36,127,0,0,2984,10,0,19553,7881,239,28958,-4,0,47,0,516685,0
516720,282,-2061,160,-74,5,52,10096,-10,-4,-499,-144,35048,98,36,127,0,0,2980,10,0,19553,7881,239,28968,-4,0,47,0,516685,0
516730,244,-2066,169,-62,-3,50,10097,0,-1,-487,-168,35044,92,36,127,0,0,2981,-32,0,19553,7881,239,28978,-4,0,47,0,516685,0
516740,228,-2053,156,-48,-4,30,10097,4,4,-473,-168,35065,83,35,127,0,0,2981,-49,0,19553,7881,239,28988,-4,0,47,0,516701,0
516750,195,-2045,190,-49,-8,-22,10096,0,2,-537,-168,35078,64,35,127,0,0,2981,0,0,19553,7881,239,28998,-4,0,47,0,516732,0
516760,190,-2050,215,-61,0,-71,10096,-1,3,-559,-168,35079,71,35,127,0,0,2981,5,0,19553,7881,239,29008,-4,0,47,0,516732,0
516770,205,-2054,222,-75,-12,-124,10094,-7,-1,-585,-200,35059,71,35,127,0,0,2973,-54,0,19553,7881,239,29018,-4,0,47,0,516732,0
516780,190,-2057,208,-80,-21,-164,10086,-19,-13,-611,-248,35063,72,35,127,0,0,2970,-115,0,19553,7881,239,29028,-4,0,47,0,516732,0
516790,160,-2045,229,-92,-28,-252,10059,-85,-42,-561,-216,35066,80,35,127,0,0,2968,-32,0,19553,7881,239,29038,-4,0,47,0,516779,0
516800,133,-2048,226,-105,-18,-323,10015,-83,-77,-414,-216,35063,88,35,127,0,0,2953,-115,0,19553,7881,239,29048,-4,0,47,0,516779,0
516810,200,-2041,277,-145,-1,-447,9964,-121,-42,-423,-200,35058,71,36,127,0,0,2944,-115,0,19553,7881,239,29058,-4,0,47,0,516779,0
516820,157,-2071,286,-173,5,-488,9915,-125,-10,-508,-264,35065,51,36,127,0,0,2930,-137,0,19553,7881,239,29068,-4,0,47,0,516779,0
516830,156,-2080,302,-224,-7,-591,9858,-120,-13,-521,-304,35075,45,36,127,0,0,2911,-214,0,19553,7881,239,29078,-4,0,47,0,516810,0
516840,238,-2048,327,-261,-9,-678,9795,-133,-23,-565,-344,35077,61,35,127,0,0,2893,-203,0,19553,7881,239,29088,-4,0,47,0,516810,0
516850,191,-2058,308,-308,-36,-770,9714,-197,-44,-553,-392,35063,57,35,127,0,0,2868,-203,0,19553,7881,239,29098,-4,0,47,0,516810,0
516860,172,-2044,310,-335,-3,-870,9611,-225,-81,-502,-480,35066,62,36,127,0,0,2844,-280,0,19553,7881,239,29108,-4,0,47,0,516872,0
516870,246,-2009,288,-391,-22,-989,9493,-272,-74,-493,-504,35068,71,35,127,0,0,2811,-307,0,19553,7881,239,29118,-4,0,47,0,516872,0
516880,212,-2046,248,-438,-73,-1042,9373,-271,-25,-559,-560,35066,82,35,127,0,0,2780,-313,0,19553,7881,239,29128,-4,0,47,0,516872,0
516890,112,-2047,225,-475,-96,-1169,9244,-294,-19,-530,-624,35053,97,36,127,0,0,2745,-357,0,19553,7881,239,29138,-4,0,47,0,516872,0
516900,122,-2012,221,-501,-85,-1296,9100,-339,-44,-562,-664,35049,73,36,127,0,0,2710,-313,0,19553,7881,239,29148,-4,0,47,0,516872,0
516910,150,-2031,226,-531,-13,-1492,8944,-351,-53,-486,-744,35051,68,35,127,0,0,2661,-439,0,19553,7881,239,29158,-4,0,47,0,516888,0
516921,243,-1993,216,-569,-47,-1663,8758,-389,-41,-552,-896,35054,63,35,127,0,0,2610,-483,0,19553,7881,239,29169,-4,0,47,0,516888,0
516931,228,-1980,231,-606,-93,-1764,8576,-416,-51,-572,-1024,35056,69,36,127,0,0,2555,-516,0,19553,7881,239,29179,-4,0,47,0,516888,0
516941,151,-1969,256,-665,-142,-1967,8371,-463,-79,-555,-1136,35057,66,35,127,0,0,2498,-582,0,19553,7881,239,29189,-4,0,47,0,516935,0
516951,84,-1955,251,-714,-155,-2132,8141,-520,-89,-512,-1248,35078,75,35,127,0,0,2432,-648,0,19553,7881,239,29199,-4,0,47,0,516935,0
516961,91,-1971,245,-758,-116,-2427,7886,-575,-95,-548,-1352,35075,79,35,127,0,0,2362,-714,0,19553,7881,239,29209,-4,0,47,0,516935,0
516971,166,-1931,215,-796,-122,-2602,7615,-615,-86,-560,-1456,35057,75,35,127,0,0,2287,-791,0,19553,7881,239,29219,-4,0,47,0,516935,0
516981,232,-1916,169,-854,-172,-2833,7322,-658,-74,-623,-1600,35045,80,36,127,0,0,2206,-812,0,19553,7881,239,29229,-4,0,47,0,516935,0
516991,297,-1892,169,-874,-204,-2968,7014,-676,-65,-784,-1784,35054,88,35,127,0,0,2107,-988,0,19553,7881,239,29239,-4,0,47,0,516951,0
517001,398,-1830,36,-905,-282,-3131,6671,-797,-99,-846,-1992,35065,95,36,127,0,0,2012,-955,0,19553,7881,239,29249,-4,0,47,0,516966,0
517011,352,-1866,-52,-935,-321,-3220,6297,-842,-131,-823,-2176,35068,109,36,127,0,0,1918,-966,0,19553,7881,239,29259,-4,0,47,0,516982,0
517021,286,-2025,-54,-982,-393,-3355,5897,-897,-105,-760,-2256,35051,127,36,127,0,0,1821,-933,0,19553,7881,239,29269,-4,0,47,0,516982,0
517031,248,-2007,-3,-981,-378,-3454,5484,-900,-78,-682,-2368,35052,120,36,127,0,0,1729,-944,0,19553,7881,239,29279,-4,0,47,0,516997,0
517041,375,-1758,55,-883,-480,-3641,5062,-940,-35,-706,-2432,35059,121,35,127,0,0,1641,-900,0,19553,7881,239,29289,-4,0,47,0,517013,0
517051,929,-1925,7,-813,-514,-3757,4634,-936,-31,-699,-2496,35057,117,35,127,0,0,1551,-933,0,19553,7881,239,29299,-4,0,47,0,517013,0
517061,927,-2098,28,-817,-689,-3597,4187,-1000,-41,-691,-2504,35054,127,35,127,0,0,1467,-780,0,19553,7881,239,29309,-4,0,47,0,517044,0
517071,825,-2218,70,-831,-679,-3535,3733,-1015,-52,-685,-2552,35053,146,36,127,0,0,1390,-736,0,19553,7881,239,29319,-4,0,47,0,517044,0
517081,645,-2322,77,-922,-616,-3508,3269,-1019,-39,-530,-2448,35056,131,35,127,0,0,1322,-659,0,19553,7881,239,29329,-4,0,0,0,517044,0
517091,572,-2392,130,-1013,-540,-3557,2819,-977,3,-457,-2176,35051,132,35,127,0,0,1267,-549,0,19553,7881,239,29339,-4,0,0,0,517060,0
517101,573,-2446,287,-1126,-512,-3622,2411,-864,106,-481,-1904,35043,112,35,127,0,0,1223,-428,0,19553,7881,239,29349,-4,0,1,0,517060,0
517111,728,-2230,317,-1162,-450,-3705,2047,-758,164,-372,-1544,35050,107,35,127,0,0,1190,-351,0,19553,7881,239,29359,-4,0,2,0,517091,0
517121,908,-1560,101,-1342,-621,-3870,1734,-661,183,-442,-1440,35072,91,35,127,0,0,1153,-362,0,19553,7881,239,29369,-4,0,3,0,517091,0
517131,1247,-1796,-86,-1291,-572,-3854,1455,-610,162,-457,-1312,35072,97,35,127,0,0,1118,-362,0,19553,7881,239,29379,-4,0,3,0,517091,0
517141,1467,-1758,-279,-1076,-605,-3644,1193,-562,86,-460,-1192,35072,93,36,127,0,0,1087,-274,0,19553,7881,239,29389,-4,0,4,0,517107,0
517151,1433,-1552,-248,-970,-716,-3523,956,-509,77,-471,-1024,35060,83,35,127,0,0,1063,-219,0,19553,7881,239,29399,-4,0,5,0,517122,0
517161,1263,-1626,-67,-822,-749,-3506,744,-461,95,-454,-824,35061,70,35,127,0,0,1043,-208,0,19553,7881,239,29409,-4,0,6,0,517138,0
517172,1204,-1719,-50,-804,-663,-3516,536,-411,85,-459,-768,35074,74,35,127,0,0,1016,-214,0,19553,7881,239,29420,-4,0,6,0,517154,0
517182,1287,-1671,-78,-907,-506,-3444,371,-357,76,-453,-688,35062,71,36,127,0,0,996,-219,0,19553,7881,239,29430,-4,0,7,0,517154,0
517192,1363,-1636,-154,-975,-410,-3386,216,-328,56,-429,-456,35060,67,36,127,0,0,979,-192,0,19553,7881,239,29440,-4,0,7,0,517154,0
517202,1458,-1591,-172,-1040,-306,-3259,100,-216,92,-330,-216,35059,74,36,127,0,0,967,-65,0,19553,7881,239,29450,-4,0,8,0,517154,0
517212,1477,-1571,-140,-1070,-278,-3168,41,-111,193,-260,-88,35076,84,36,127,0,0,956,-104,0,19553,7881,239,29460,-4,0,9,0,517216,0
517222,1450,-1562,-107,-1132,-272,-3051,30,3,195,-222,-56,35081,91,35,127,0,0,949,-65,0,19553,7881,239,29470,-4,0,9,0,517232,0
517232,1525,-1640,-55,-1178,-296,-3017,34,-2,113,-240,-64,35071,83,36,127,0,0,949,-21,0,19553,7881,239,29480,-4,0,10,0,517232,0
517242,1406,-1796,-56,-1218,-222,-2988,34,8,11,-223,-64,35057,71,36,127,0,0,949,0,0,19553,7881,239,29490,-4,0,10,0,517247,0
517252,1371,-1805,-108,-1243,-198,-3073,33,2,-2,-221,-64,35051,76,36,127,0,0,954,65,0,19553,7881,239,29500,-4,0,11,0,517247,0
517262,1469,-1763,-37,-1189,-245,-3100,33,-3,-1,-221,-64,35053,85,36,127,0,0,964,104,0,19553,7881,239,29510,-4,0,12,0,517247,0
517272,1561,-1875,67,-1143,-355,-3109,33,-5,-1,-221,-64,35053,88,35,127,0,0,972,76,0,19553,7881,239,29520,-4,0,12,0,517247,0
517282,1593,-1881,89,-1102,-469,-3084,33,-8,-3,-233,-64,35053,79,36,127,0,0,993,230,0,19553,7881,239,29530,-4,0,13,0,517263,0
517292,1425,-1750,35,-1106,-522,-3067,33,-3,0,-184,72,35067,73,36,127,0,0,1017,274,0,19553,7881,239,29540,-4,0,14,0,517263,0
517302,1304,-1656,-200,-1192,-560,-3076,81,142,88,377,360,35077,80,36,127,0,0,1049,346,0,19553,7881,239,29550,-4,0,15,0,517263,0
517312,1278,-1722,-278,-1217,-544,-3112,204,331,241,440,608,35075,97,36,127,0,0,1089,433,0,19553,7881,239,29560,-4,0,16,0,517294,0
517322,1251,-1820,-301,-1228,-410,-3181,369,380,239,426,816,35063,100,35,127,0,0,1131,477,0,19553,7881,239,29570,-4,0,16,0,517294,0
517332,1330,-1836,-254,-1248,-312,-3235,567,459,135,532,1048,35063,104,36,127,0,0,1179,417,0,19553,7881,239,29580,-4,0,18,0,517294,0
517342,1498,-1857,-125,-1270,-277,-3336,802,553,129,562,1288,35065,101,35,127,0,0,1240,527,0,19553,7881,239,29590,-4,0,19,0,517310,0
517352,1771,-2001,-121,-1306,-280,-3305,1075,616,151,465,1440,35059,107,35,127,0,0,1306,659,0,19553,7881,239,29600,-4,0,20,0,517341,0
517362,2051,-1724,-155,-1396,-207,-3271,1378,692,132,517,1632,35058,92,35,127,0,0,1371,664,0,19553,7881,239,29610,-4,0,21,0,517341,0
517372,2178,-1648,-236,-1448,-256,-3226,1709,751,112,506,1784,35058,77,35,127,0,0,1437,659,0,19553,7881,239,29620,-4,0,23,0,517341,0
517382,2176,-1980,-224,-1407,-404,-3037,2024,762,96,447,1760,35061,78,35,127,0,0,1510,725,0,19553,7881,239,29630,-4,0,24,0,517341,0
517392,1990,-2100,-99,-1328,-396,-2825,2381,802,45,518,1888,35055,83,35,127,0,0,1593,829,0,19553,7881,239,29640,-4,0,26,0,517372,0
517402,1827,-2111,-36,-1288,-371,-2466,2762,847,66,558,2104,35060,106,36,127,0,0,1690,972,0,19553,7881,239,29650,-4,0,27,0,517372,0
517412,1768,-2077,-25,-1325,-362,-2223,3173,928,102,642,2432,35060,95,35,127,0,0,1812,1230,0,19553,7881,239,29660,-4,0,29,0,517372,0
517423,1617,-2064,-92,-1371,-278,-1838,3682,1057,163,702,2776,35057,94,35,127,0,0,1962,1428,0,19553,7881,239,29671,-4,0,31,0,517388,0
517433,1491,-1955,-167,-1343,-218,-1403,4199,1171,201,710,3168,35056,115,35,127,0,0,2122,1647,0,19553,7881,239,29681,-4,0,33,0,517404,0
517443,1422,-1882,-187,-1275,-191,-1138,4784,1341,228,820,3600,35052,125,35,127,0,0,2304,1768,0,19553,7881,239,29691,-4,0,35,0,517404,0
517453,1458,-1697,-214,-1141,-111,-638,5455,1522,296,680,3968,35043,134,35,127,0,0,2493,1933,0,19553,7881,239,29701,-4,0,38,0,517404,0
517463,1533,-1599,-202,-1069,-87,-169,6203,1711,313,731,4336,35044,135,35,127,0,0,2702,2109,0,19553,7881,239,29711,-4,0,40,0,517435,0
517473,1778,-1349,-61,-1102,-163,787,7044,1922,338,781,4832,35046,148,35,127,0,0,2939,2351,0,19553,7881,239,29721,-4,0,43,0,517450,0
517483,1766,-875,297,-796,64,1288,7969,2083,341,833,5368,35039,174,36,127,0,0,3166,2252,0,19553,7881,239,29731,-4,0,45,0,517450,0
517493,738,699,669,134,800,1871,8944,2141,244,531,4944,35020,181,36,127,0,0,3282,1021,0,19553,7881,239,29741,-4,0,48,0,517450,0
517503,1516,1257,-649,-111,1189,1582,9870,1965,-29,13,3264,35016,168,36,127,0,0,3254,-461,0,19553,7881,239,29751,-4,0,50,0,517482,0
517513,1265,1073,-836,-268,429,2542,10610,1418,-501,-830,552,35046,128,36,127,0,0,3124,-1285,0,19553,7881,239,29761,-4,0,53,0,517482,0
517523,1122,428,-676,-31,-468,3922,10823,-101,-1472,-2188,-968,35060,64,36,127,0,0,3032,-845,0,19553,7881,239,29771,-4,0,55,0,517482,0
517533,153,-359,-212,481,-1423,5068,10612,-517,-1898,-431,-1024,35051,43,36,127,0,0,2997,-296,0,19553,7881,239,29781,-4,0,57,58,517497,0
517543,274,-643,119,807,-1569,5475,10379,-502,-680,-221,-600,35044,49,36,127,0,0,2992,-54,0,19553,7881,239,29791,-4,0,59,55,517513,0
517553,151,-871,94,1177,-1327,5846,10183,-380,63,-149,-304,35058,64,35,127,0,0,2981,-120,0,19553,7881,239,29801,-4,0,61,49,517513,0
517563,164,-726,-169,1364,-1144,6115,10049,-252,203,-159,-240,35060,72,35,127,0,0,2959,-208,0,19553,7881,239,29811,-4,0,62,46,517529,0
517573,75,-527,-374,1686,-856,6545,9950,-210,180,-274,-288,35057,75,35,127,0,0,2935,-219,0,19553,7881,239,29821,-4,0,65,40,517544,0
517583,88,-397,-483,1849,-672,6866,9860,-193,75,-340,-224,35038,54,35,127,0,0,2920,-131,0,19553,7881,239,29831,-4,0,67,37,517544,0
517593,61,-347,-478,2124,-369,7319,9786,-146,49,-312,-168,35049,34,35,127,0,0,2917,-54,0,19553,7881,239,29841,-4,0,69,31,517626,0
517603,54,-344,-437,2321,-119,7533,9744,-66,98,-219,-72,35058,37,35,127,0,0,2917,0,0,19553,7881,239,29851,-4,0,71,27,517626,0
517613,132,-374,-374,2582,130,7965,9718,-39,89,-22,-8,35055,41,36,127,0,0,2924,76,0,19553,7881,239,29861,-4,0,74,21,517626,0
517623,231,-384,-317,2735,151,8316,9733,40,111,215,160,35052,43,35,127,0,0,2948,241,0,19553,7881,239,29871,-4,0,76,18,517641,0
517633,341,-508,-255,2946,182,8823,9778,145,131,519,376,35054,40,36,127,0,0,2986,384,0,19553,7881,239,29881,-4,0,79,12,517641,0
517643,418,-572,-270,3103,177,9120,9900,302,219,445,600,35054,42,35,127,0,0,3041,571,0,19553,7881,239,29891,-4,0,81,8,517641,0
517653,547,-657,-291,3198,352,9376,10061,370,216,530,992,35049,50,35,127,0,0,3109,714,0,19553,7881,239,29901,-4,0,84,3,517641,0
517663,603,-762,-251,3188,571,9424,10269,488,159,587,1248,35041,57,36,127,0,0,3183,725,0,19553,7881,239,29911,-4,0,86,0,517641,0
517673,720,-972,-324,3166,1075,9358,10535,610,205,529,1480,35037,70,35,127,0,0,3258,736,0,19553,7881,239,29921,-4,0,89,-4,517641,0
517684,801,-1060,-375,3109,1517,9308,10870,688,91,522,1608,35046,96,35,127,0,0,3336,708,0,19553,7881,239,29932,-4,0,93,-8,517657,0
517694,948,-1170,-445,2897,2262,9260,11197,740,70,516,1808,35054,107,36,127,0,0,3417,840,0,19553,7881,239,29942,-4,0,95,-11,517657,0
517704,1058,-1284,-461,2680,2740,9196,11555,809,165,558,2008,35060,140,36,127,0,0,3517,966,0,19553,7881,239,29952,-4,0,98,-14,517688,0
517714,1123,-1604,-460,2387,3352,8991,11947,887,119,567,2288,35066,146,36,127,0,0,3623,1126,0,19553,7881,239,29962,-4,0,100,-17,517688,0
517724,1144,-1843,-482,2234,3685,8803,12382,996,145,690,2712,35062,133,35,127,0,0,3750,1296,0,19553,7881,239,29972,-4,0,103,-20,517688,0
517734,1220,-2198,-343,1848,3990,8529,12884,1167,207,803,3232,35053,132,35,127,0,0,3896,1516,0,19553,7881,239,29982,-4,0,105,-21,517688,0
517744,1410,-2406,-208,1554,4064,8308,13483,1394,310,885,3776,35040,130,35,127,0,0,4064,1691,0,19553,7881,239,29992,-4,0,108,-24,517719,0
517754,1332,-2911,114,1232,4177,7591,14189,1611,391,793,4008,35040,153,35,127,0,0,4234,1664,0,19553,7881,239,30002,-4,0,109,-25,517719,0
517764,1441,-3188,195,995,4187,7113,14971,1756,353,627,4184,35044,170,35,127,0,0,4391,1609,0,19553,7881,239,30012,-4,0,112,-27,517719,0
517774,1468,-3438,308,703,4026,6313,15784,1779,212,500,4128,35050,170,35,127,0,0,4530,1351,0,19553,7881,239,30022,-4,0,113,-28,517751,0
517784,1500,-3454,327,524,3796,5773,16567,1679,-4,350,3840,35042,162,35,127,0,0,4645,1120,0,19553,7881,239,30032,-4,0,114,-29,517751,0
517794,1518,-3230,267,242,3237,4945,17286,1542,-182,282,3368,35040,115,35,127,0,0,4735,862,0,19553,7881,239,30042,-4,0,115,-30,517813,0
517804,1584,-3071,251,144,2788,4359,17935,1372,-255,236,2880,35047,107,36,127,0,0,4799,604,0,19553,7881,239,30052,-4,0,116,-31,517813,0
517814,1498,-2733,158,35,1990,3503,18500,1169,-292,156,2192,35055,87,36,127,0,0,4828,269,0,19553,7881,239,30062,-4,0,116,-32,517829,0
517824,1424,-2490,173,-59,1340,3058,18953,920,-379,103,1544,35052,90,36,127,0,0,4852,208,0,19553,7881,239,30072,-4,0,116,-32,517829,0
517834,1244,-2167,133,-53,240,2518,19293,670,-429,148,1048,35055,81,36,127,0,0,4873,186,0,19553,7881,239,30082,-4,0,116,-32,517829,0
517844,1130,-1975,57,18,-566,2267,19548,508,-390,238,816,35049,72,36,127,0,0,4909,368,0,19553,7881,239,30092,-4,0,116,-32,517829,0
517854,983,-1767,42,162,-1736,1860,19744,433,-277,443,960,35059,78,35,127,0,0,4957,510,0,19553,7881,239,30102,-4,0,116,-32,517829,0
517864,866,-1683,25,253,-2468,1539,19943,459,-100,606,1192,35055,89,35,127,0,0,5026,653,0,19553,7881,239,30112,-4,0,116,-32,517829,0
517874,729,-1727,-58,282,-3334,952,20182,557,89,650,1496,35052,97,36,127,0,0,5097,752,0,19553,7881,239,30122,-4,0,116,-32,517829,0
517884,627,-1891,-53,253,-3775,556,20471,651,172,598,1688,35061,105,36,127,0,0,5170,719,0,19553,7881,239,30132,-4,0,116,-32,517860,0
517894,432,-2252,71,182,-4212,-45,20785,700,144,579,1776,35076,93,36,127,0,0,5238,675,0,19553,7881,239,30142,-4,0,116,-32,517860,0
517904,256,-2409,139,33,-4362,-378,21123,743,96,472,1768,35076,91,36,127,0,0,5295,554,0,19553,7881,239,30152,-4,0,116,-32,517860,0
517915,70,-2660,202,-170,-4417,-757,21494,727,34,413,1712,35064,86,36,127,0,0,5365,615,0,19553,7881,239,30163,-4,0,116,-32,517907,0
517925,-89,-2702,177,-347,-4269,-1033,21829,732,-14,435,1728,35047,89,36,127,0,0,5422,527,0,19553,7881,239,30173,-4,0,116,-32,517907,0
517935,-200,-2578,106,-491,-4131,-1166,22153,706,-23,435,1592,35055,85,35,127,0,0,5471,472,0,19553,7881,239,30183,-4,0,116,-32,517907,0
517945,-356,-2413,59,-600,-3821,-1322,22462,651,-48,224,328,35057,99,35,127,0,0,5519,472,0,19553,7881,239,30193,-4,0,116,-32,517907,0
517955,-395,-2352,65,-696,-3786,-1252,22510,-287,-504,-1792,-1072,35049,89,35,127,0,0,5574,560,0,2163,429,240,7,1,4,116,-32,518001,0
517965,-538,-2208,73,-680,-3386,-1570,22269,-601,-1149,-724,-1752,35054,87,36,127,0,0,5620,450,0,2163,429,240,17,1,4,116,-32,518001,0
517975,-426,-2133,-15,-690,-3188,-1660,21902,-905,-771,-930,-2704,35052,81,35,127,0,0,5671,472,0,2163,429,240,27,1,4,116,-32,518001,0
517985,-423,-2088,41,-643,-2729,-1982,21385,-1248,-531,-1148,-3768,35056,104,35,127,0,0,5710,417,0,2163,429,240,37,1,4,116,-32,518001,0
517995,-453,-2022,139,-662,-2361,-2266,20677,-1705,-648,-1345,-5064,35035,131,35,127,0,0,5734,230,0,2163,429,240,47,1,4,116,-32,518001,0
518005,-529,-1997,266,-804,-1902,-2552,19720,-2296,-839,-1472,-6600,35019,187,36,127,0,0,5750,164,0,2163,429,240,57,1,4,116,-32,518016,0
518015,-327,-2627,386,-861,-1464,-2783,18443,-3029,-1097,-1604,-7816,34998,251,36,127,0,0,5712,-439,0,2163,429,240,67,1,4,116,-32,518016,0
518025,-3453,-5031,-52,-682,2778,-7611,16915,-3590,-1090,-2151,-7664,34986,327,36,127,0,0,5150,-6130,0,2163,429,240,77,1,4,116,-32,518016,0
518035,-3588,-840,4116,144,2238,-6122,15731,-1361,-15,7790,3312,34969,381,36,127,0,0,4693,-4449,0,2163,429,240,87,1,4,116,-32,518016,0
518045,2165,-3581,697,-2127,1920,-4002,16418,1990,4491,2171,2560,34986,337,35,127,0,0,4379,-3087,0,2163,429,240,97,1,4,116,-32,518016,0
518055,266,-4504,1429,-1785,-672,-3246,16945,496,3402,-3600,-1584,34992,274,35,127,0,0,4106,-2625,0,2163,429,240,107,1,4,116,-32,518016,0
518065,-1433,-3946,720,-3,-2325,-3410,16603,-978,-2190,-1402,-3048,35049,134,35,127,0,0,3911,-1922,0,2163,429,240,117,1,4,116,-32,518094,0
518075,-1578,-2583,-302,104,-608,-3501,15993,-1484,-2157,-1087,-4040,35048,204,35,127,0,0,3700,-2131,0,2163,429,240,127,1,4,116,-32,518094,0
518085,-683,-2096,-1282,-343,379,-3557,15191,-1875,-868,-959,-4720,35075,143,36,127,0,0,3502,-1933,0,2163,429,240,137,1,4,116,-32,518110,0
518095,300,-2697,-1257,-329,1014,-3752,14279,-2035,-591,-655,-5000,35043,180,36,127,0,0,3284,-2197,0,2163,429,240,147,1,4,116,-32,518110,0
518105,583,-2097,-838,80,1009,-3363,13322,-2133,-288,-724,-5408,35039,186,36,127,0,0,3065,-2153,0,2163,429,240,157,1,4,116,-32,518110,0
518115,1307,-1354,-657,97,938,-2905,12339,-2165,-140,-496,-5256,35046,184,36,127,0,0,2887,-1702,0,2163,429,240,167,1,4,116,-32,518110,0
518125,1778,-1008,-403,238,753,-2507,11376,-2095,-13,-313,-4992,35048,180,36,127,0,0,2713,-1768,0,2163,429,240,177,1,4,116,-32,518110,0
518135,1867,-1990,-79,304,462,-2195,10444,-2026,102,-362,-4680,35035,153,36,127,0,0,2540,-1724,0,2163,429,240,187,1,4,116,-32,518110,0
518145,-1209,-7073,3151,1751,-341,129,9544,-1965,117,-316,-4344,35033,135,36,127,0,0,2449,-626,0,2163,429,240,197,1,4,116,-32,518110,0
518155,-78,382,1211,424,-32,-496,8738,-1653,230,82,-2600,35045,137,35,127,0,0,2443,-142,0,2163,429,240,207,1,4,116,-32,518126,0
518166,45,-3474,1294,-749,-547,-879,8066,-1210,579,190,-1536,35078,116,36,127,0,0,2410,-241,0,2163,429,240,218,1,4,116,-32,518141,0
518176,-206,-1912,-781,-227,-703,-864,7630,-845,668,132,-752,35082,99,36,127,0,0,2397,-27,0,2163,429,240,228,1,4,116,-32,518141,0
518186,509,-1692,-1479,-248,413,-1161,7351,-510,620,20,-440,35079,63,35,127,0,0,2353,-516,0,2163,429,240,238,1,4,116,-32,518157,0
518196,539,-2345,-845,198,872,-1080,7184,-324,527,-333,-584,35068,54,35,127,0,0,2301,-549,0,2163,429,240,248,1,4,116,-32,518157,0
518206,1202,-1888,182,464,337,-829,7049,-296,271,-657,-648,35066,68,36,127,0,0,2270,-296,0,2163,429,240,258,1,4,116,-32,518188,0
518216,1142,-2171,871,309,7,-499,6907,-324,44,-631,-616,35061,84,36,127,0,0,2248,-186,0,2163,429,240,268,1,4,116,-32,518188,0
518226,683,-2030,875,4,-231,-262,6770,-298,-11,-484,-440,35061,100,35,127,0,0,2234,-120,0,2163,429,240,278,1,4,116,-32,518188,0
518236,505,-2017,379,-117,-171,-269,6666,-192,68,-448,-336,35062,83,35,127,0,0,2228,-120,0,2163,429,240,288,1,4,116,-32,518204,0
518246,519,-1936,-160,-108,42,-321,6593,-137,125,-424,-264,35069,76,35,127,0,0,2212,-142,0,2163,429,240,298,1,4,116,-32,518204,0
518256,572,-1902,-159,-46,97,-321,6544,-86,108,-597,-296,35068,56,35,127,0,0,2193,-203,0,2163,429,240,308,1,4,116,-32,518235,0
518266,556,-1985,89,14,22,-337,6479,-157,18,-578,-312,35072,57,35,127,0,0,2178,-175,0,2163,429,240,318,1,4,116,-32,518235,0
518276,373,-2014,188,-9,-30,-374,6408,-140,-45,-561,-352,35073,60,35,127,0,0,2165,-197,0,2163,429,240,328,1,4,116,-32,518235,0
518286,215,-2012,234,-40,0,-565,6341,-140,0,-614,-384,35075,73,36,127,0,0,2144,-170,0,2163,429,240,338,1,4,116,-32,518250,0
518296,202,-2028,216,-71,49,-708,6267,-172,-2,-746,-480,35065,80,36,127,0,0,2114,-263,0,2163,429,240,348,1,4,116,-32,518266,0
518306,281,-1975,221,-87,71,-906,6163,-253,-64,-617,-560,35065,80,36,127,0,0,2087,-340,0,2163,429,240,358,1,4,116,-32,518266,0
518316,325,-1990,252,-123,25,-1044,6042,-273,-91,-631,-624,35065,84,36,127,0,0,2051,-318,0,2163,429,240,368,1,4,116,-32,518282,0
518326,221,-1986,293,-184,-81,-1262,5900,-308,-70,-584,-704,35064,95,36,127,0,0,2008,-455,0,2163,429,240,378,1,4,116,-32,518297,0
518336,124,-1983,325,-239,-148,-1457,5749,-348,-56,-559,-784,35058,89,36,127,0,0,1966,-433,0,2163,429,240,388,1,4,116,-32,518344,0
518346,9,-1969,277,-336,-213,-1809,5588,-363,-38,-660,-944,35061,79,36,127,0,0,1916,-499,0,2163,429,240,398,1,4,116,-32,518344,0
518356,67,-1993,257,-357,-174,-2088,5410,-414,-50,-739,-1096,35055,79,35,127,0,0,1853,-565,0,2163,429,240,408,1,4,116,-32,518344,0
518366,142,-1850,153,-331,-270,-2516,5193,-505,-110,-662,-1304,35051,90,35,127,0,0,1785,-664,0,2163,429,240,418,1,4,116,-32,518344,0
518376,50,-1875,62,-377,-424,-2753,4944,-575,-137,-750,-1616,35040,101,35,127,0,0,1709,-758,0,2163,429,240,428,1,4,116,-32,518344,0
518386,107,-2020,131,-572,-809,-3022,4683,-646,-151,-758,-1760,35027,93,36,127,0,0,1635,-730,0,2163,429,240,438,1,4,116,-32,518344,0
518396,-56,-2325,307,-644,-1057,-3213,4362,-717,-136,-634,-1824,35048,84,35,127,0,0,1567,-670,0,2163,429,240,448,1,4,116,-32,518360,0
518406,-90,-2973,556,-788,-1117,-3599,4032,-722,-75,-606,-1768,35065,78,36,127,0,0,1517,-543,0,2163,429,240,458,1,4,116,-32,518391,0
518417,-383,-3009,631,-1047,-749,-3958,3672,-733,-5,-552,-1744,35070,91,36,127,0,0,1454,-538,0,2163,429,240,469,1,4,116,-32,518422,0
518427,-271,-2648,477,-1193,-472,-4332,3353,-689,16,-503,-1568,35054,83,36,127,0,0,1412,-439,0,2163,429,240,479,1,4,116,-32,518422,0
518437,273,-2372,175,-1325,-223,-4762,3051,-658,54,-468,-1448,35043,80,35,127,0,0,1366,-439,0,2163,429,240,489,1,4,116,-32,518438,0
518447,484,-2255,-16,-1357,-64,-4904,2770,-597,74,-513,-1456,35051,72,35,127,0,0,1313,-549,0,2163,429,240,499,1,4,116,-32,518438,0
518457,961,-1941,-9,-1230,-527,-4910,2491,-614,41,-567,-1384,35052,90,35,127,0,0,1283,-318,0,2163,429,240,509,1,4,116,-32,518438,0
518467,1192,-1632,-116,-1214,-712,-4767,2227,-567,37,-404,-1064,35045,94,36,127,0,0,1265,-131,0,2163,429,240,519,1,4,116,-32,518438,0
518477,1270,-1431,-207,-1091,-933,-4644,1999,-451,109,-359,-784,35047,97,36,127,0,0,1252,-109,0,2163,429,240,529,1,4,116,-32,518438,0
518487,1438,-1432,-160,-921,-930,-4601,1819,-371,176,-393,-552,35056,89,36,127,0,0,1239,-131,0,2163,429,240,539,1,4,116,-32,518469,0
518497,1133,-1384,-283,-703,-893,-4610,1677,-287,157,-439,-520,35064,83,35,127,0,0,1221,-186,0,2163,429,240,549,1,4,116,-32,518469,0
518507,1251,-1442,-224,-679,-827,-4576,1557,-265,108,-480,-440,35061,99,35,127,0,0,1204,-164,0,2163,429,240,559,1,4,116,-32,518485,0
518517,1161,-1646,-214,-687,-729,-4561,1445,-229,46,-445,-384,35048,92,36,127,0,0,1186,-164,0,2163,429,240,569,1,4,116,-32,518485,0
518527,1228,-1776,-158,-706,-656,-4512,1334,-251,18,-463,-368,35049,71,36,127,0,0,1173,-120,0,2163,429,240,579,1,4,116,-32,518485,0
518537,1317,-1919,-119,-688,-534,-4469,1242,-184,36,-483,-288,35062,54,35,127,0,0,1166,-43,0,2163,429,240,589,1,4,116,-32,518516,0
518547,1258,-2097,-167,-728,-469,-4488,1168,-146,82,-409,-192,35065,32,35,127,0,0,1164,-21,0,2163,429,240,599,1,4,116,-32,518516,0
518557,955,-2492,-46,-807,-516,-4527,1141,-10,130,-415,-72,35057,40,35,127,0,0,1175,98,0,2163,429,240,609,1,4,116,-32,518516,0
518567,1092,-2838,112,-863,-569,-4580,1164,73,185,-32,232,35048,31,35,127,0,0,1206,329,0,2163,429,240,619,1,4,116,-32,518532,0
518577,685,-3203,434,-904,-599,-4673,1248,242,208,442,536,35060,37,35,127,0,0,1254,483,0,2163,429,240,629,1,4,116,-32,518563,0
518587,546,-3206,493,-962,-536,-4827,1402,381,266,479,920,35062,44,35,127,0,0,1324,681,0,2163,429,240,639,1,4,116,-32,518563,0
518597,567,-2932,427,-1012,-289,-5097,1620,530,257,590,1376,35055,56,36,127,0,0,1399,769,0,2163,429,240,649,1,4,116,-32,518563,0
518607,627,-2787,329,-942,-45,-5123,1910,676,259,558,1656,35043,88,36,127,0,0,1485,889,0,2163,429,240,659,1,4,116,-32,518563,0
518617,980,-2306,264,-836,316,-4915,2249,790,222,634,1944,35041,91,36,127,0,0,1577,933,0,2163,429,240,669,1,4,116,-32,518594,0
518627,1534,-2056,305,-820,136,-4544,2643,915,202,676,2376,35045,120,36,127,0,0,1707,1274,0,2163,429,240,679,1,4,116,-32,518594,0
518637,1583,-1669,213,-1011,6,-3520,3109,1088,249,842,3008,35038,121,36,127,0,0,1876,1757,0,2163,429,240,689,1,4,116,-32,518594,0
518647,1458,-1485,115,-1139,35,-2744,3679,1325,353,992,3736,35038,150,36,127,0,0,2091,2252,0,2163,429,240,699,1,4,116,-32,518610,0
518657,1216,-1154,-148,-1191,173,-1666,4376,1624,454,1090,4584,35035,175,36,127,0,0,2344,2526,0,2163,429,240,709,1,4,116,-32,518625,0
518668,1127,-969,-331,-1250,398,-982,5316,1991,540,987,5488,35033,213,36,127,0,0,2654,2900,0,2163,429,240,720,1,4,116,-32,518625,0
518678,1134,-932,-296,-1357,790,-44,6351,2418,627,1053,6272,35021,238,36,127,0,0,2980,3240,0,2163,429,240,730,1,4,116,-32,518641,0
518688,1129,-861,-235,-1460,1076,634,7570,2804,546,1150,7376,35007,253,36,127,0,0,3346,3784,0,2163,429,240,740,1,4,116,-32,518657,0
518698,1048,103,-208,-1595,1653,1491,8967,3188,783,1362,8440,35000,289,36,127,0,0,3716,3685,0,2163,429,240,750,1,4,116,-32,518750,0
518708,510,1350,-241,-1566,2367,2206,10552,3597,707,977,8624,34995,322,35,127,0,0,3991,2603,0,2163,429,240,760,1,4,116,-32,518750,0
518718,2453,245,-1017,-1703,4734,1976,12145,3417,402,174,7272,34987,287,35,127,0,0,4100,774,0,2163,429,240,770,1,4,116,-32,518750,0
518728,838,899,-460,-1734,5037,2213,13534,2852,-379,-934,3648,35013,154,36,127,0,0,3970,-1389,0,2163,429,240,780,0,4,116,-32,518750,0
518738,1339,957,94,-1849,3148,4058,14385,1424,-1402,-1782,304,35051,3,35,127,0,0,3821,-1439,0,2163,429,240,790,0,4,116,-32,518750,0
518748,1676,358,258,-1992,2156,5800,14505,-279,-2470,-2190,-1040,35070,-18,35,127,0,0,3734,-802,0,2163,429,240,800,0,4,116,-32,518766,0
518758,728,-403,462,-1657,235,7270,14261,-586,-2196,-370,-1136,35066,19,35,127,0,0,3695,-395,0,2163,429,240,810,0,4,116,-32,518766,0
518768,670,-716,435,-1328,-1022,7977,13990,-589,-706,-160,-736,35044,83,35,127,0,0,3689,-76,0,2163,429,240,820,0,4,116,-32,518766,0
518778,771,-721,389,-812,-2127,8706,13747,-503,13,-22,-296,35040,71,36,127,0,0,3678,-98,0,2163,429,240,830,0,4,116,-32,518766,0
518788,790,-609,250,-536,-2627,9185,13580,-319,204,65,-80,35054,69,35,127,0,0,3667,-120,0,2163,429,240,840,0,4,116,-32,518766,0
518798,779,-425,-94,77,-3279,9822,13500,-122,311,-28,-112,35060,60,35,127,0,0,3652,-170,0,2163,429,240,850,0,4,116,-32,518766,0
518808,840,-343,-253,500,-3676,10258,13448,-124,243,-230,-120,35069,69,36,127,0,0,3645,-76,0,2163,429,240,860,0,4,116,-32,518766,0
518818,875,-291,-335,1154,-4028,10857,13394,-101,37,-142,-16,35078,85,36,127,0,0,3645,54,0,2163,429,240,870,0,4,116,-32,518797,0
518828,675,-301,-353,1634,-4094,11069,13388,30,88,17,-24,35087,77,35,127,0,0,3646,16,0,2163,429,240,880,0,4,116,-32,518797,0
518838,588,-450,-352,2229,-3759,11188,13388,-19,115,-27,0,35076,69,35,127,0,0,3645,5,0,2163,429,240,890,0,4,116,-32,518797,0
518848,529,-636,-280,2574,-3399,11098,13389,6,4,-24,-8,35060,66,36,127,0,0,3648,32,0,2163,429,240,900,0,4,116,-32,518813,0
518858,533,-1026,-233,2975,-2718,10858,13393,17,8,106,32,35052,59,36,127,0,0,3662,148,0,2163,429,240,910,0,4,116,-32,518813,0
518868,617,-1273,-243,3053,-2170,10618,13416,88,39,464,344,35060,63,35,127,0,0,3692,390,0,2163,429,240,920,0,4,116,-32,518828,0
518878,648,-1698,-365,3115,-1113,10190,13510,244,183,641,792,35065,90,35,127,0,0,3761,714,0,2163,429,240,930,0,4,116,-32,518828,0
518888,582,-1936,-559,3152,-279,9803,13689,454,290,758,1440,35069,99,36,127,0,0,3872,1109,0,2163,429,240,940,0,4,116,-32,518860,0
518898,605,-2273,-742,3161,1106,9101,13985,753,386,1008,2272,35055,105,36,127,0,0,4023,1521,0,2163,429,240,950,0,4,116,-32,518860,0
518909,801,-2614,-742,2976,2634,8237,14501,1158,557,981,3120,35048,112,36,127,0,0,4207,1746,0,2163,429,240,961,0,4,116,-32,518875,0
518919,940,-2799,-568,2781,3553,7570,15126,1476,606,930,3800,35039,142,36,127,0,0,4398,1911,0,2163,429,240,971,0,4,116,-32,518891,0
518929,871,-2955,-166,2474,4553,6564,15878,1720,525,842,4264,35041,166,36,127,0,0,4579,1768,0,2163,429,240,981,0,4,116,-32,518907,0
518939,1301,-3023,84,2230,4938,5791,16691,1816,366,672,4464,35034,150,36,127,0,0,4746,1647,0,2163,429,240,991,0,4,116,-32,518907,0
518949,1487,-3007,348,1832,4655,4932,17526,1848,158,547,4384,35031,158,36,127,0,0,4891,1450,0,2163,429,240,1001,0,4,116,-32,518907,0
518959,1676,-2973,441,1454,4144,4502,18358,1812,35,446,4264,35055,152,35,127,0,0,5031,1384,0,2163,429,240,1011,0,4,116,-32,518938,0
518969,1764,-2781,347,766,2949,3935,19165,1752,-49,452,4032,35064,141,35,127,0,0,5170,1373,0,2163,429,240,1021,0,4,116,-32,518938,0
518979,1768,-2753,261,331,2070,3551,19929,1648,-128,441,3960,35064,136,35,127,0,0,5297,1285,0,2163,429,240,1031,0,4,116,-32,518953,0
518989,1512,-2678,44,-127,820,2888,20646,1554,-179,418,3768,35042,128,36,127,0,0,5414,1164,0,2163,429,240,1041,0,4,116,-32,518953,0
518999,1334,-2649,-16,-252,117,2401,21326,1470,-160,319,3400,35044,124,36,127,0,0,5490,747,0,2163,429,240,1051,0,4,116,-32,518953,0
519009,1050,-2520,-92,-262,-813,1725,21919,1169,-216,-529,120,35048,99,36,127,0,0,5532,384,0,2163,429,240,1061,0,4,116,-32,518985,0
519019,1057,-2381,-138,-267,-1500,1403,21928,-528,-1275,-2665,-1720,35053,103,36,127,0,0,5552,186,0,2163,429,240,1071,0,4,116,-32,518985,0
519029,682,-1911,-78,-203,-2234,745,21580,-844,-1930,-768,-2408,35044,101,36,127,0,0,5554,10,0,2163,429,240,1081,0,4,116,-32,518985,0
519039,602,-1797,-88,-242,-2723,413,21130,-1046,-826,-777,-2912,35051,110,36,127,0,0,5552,10,0,2163,429,240,1091,0,4,116,-32,519016,0
519049,203,-1799,-81,-246,-3317,-84,20594,-1232,-352,-719,-3296,35051,115,35,127,0,0,5554,43,0,2163,429,240,1101,0,4,116,-32,519016,0
519059,92,-2005,-36,-306,-3637,-284,19984,-1395,-310,-711,-3624,35054,128,35,127,0,0,5572,208,0,2163,429,240,1111,0,4,116,-32,519016,0
519069,-101,-2290,88,-431,-3868,-568,19279,-1637,-315,-830,-4320,35043,157,36,127,0,0,5611,406,0,2163,429,240,1121,0,4,116,-32,519032,0
519079,-199,-2448,85,-576,-3816,-771,18437,-1952,-443,-952,-5112,35043,174,36,127,0,0,5664,549,0,2163,429,240,1131,0,4,116,-32,519078,0
519089,-279,-2725,58,-750,-3436,-1132,17446,-2287,-552,-1094,-6200,35039,202,35,127,0,0,5726,637,0,2163,429,240,1141,0,4,116,-32,519078,0
519099,-288,-2878,-9,-845,-3004,-1420,16257,-2773,-657,-1319,-7584,35023,264,35,127,0,0,5785,549,0,2163,429,240,1151,0,4,116,-32,519078,0
519109,-247,-2920,-82,-879,-2134,-1971,14771,-3502,-946,-1624,-9032,34979,346,36,127,0,0,5827,395,0,1595,856,241,5,1,1,197,-29,519110,0
519119,-323,-2732,-27,-889,-1430,-2427,13122,-3525,-934,-270,-7976,34971,344,35,127,0,0,5829,0,0,1595,856,241,15,1,1,197,-29,519110,0
519129,-110,-2684,-24,-1066,-629,-2871,11633,-3203,38,-110,-7400,34994,291,35,127,0,0,5805,-285,0,1595,856,241,25,1,1,197,-29,519110,0
519139,-382,-2451,151,-1171,-261,-3061,10214,-3086,452,-302,-7264,35034,199,35,127,0,0,5767,-384,0,1595,856,241,35,1,1,197,-29,519125,0
519149,-333,-2144,70,-1379,278,-3226,8855,-2948,239,-459,-7136,35044,141,36,127,0,0,5730,-329,0,1595,856,241,45,1,1,197,-29,519125,0
519159,-444,-1856,-41,-1352,581,-3219,7519,-2954,162,-499,-7152,35040,147,36,127,0,0,5710,-175,0,1595,856,241,55,1,1,197,-29,519125,0
519170,3715,551,2236,-343,4284,-3850,6049,-2907,14,-712,-7424,35029,176,35,127,0,0,5587,-1433,0,1595,856,241,66,1,1,197,-29,519125,0
519180,-328,-4012,-2914,-1864,4919,-6982,4609,-3450,-181,-2134,-5488,35010,314,35,127,0,0,5077,-5443,0,1595,856,241,76,1,1,197,-29,519141,0
519190,836,-1832,1812,-157,2012,-5153,3836,-338,826,7536,3976,35040,215,35,127,0,0,4690,-3422,0,1595,856,241,86,1,1,197,-29,519157,0
519200,2115,-2740,630,-980,1953,-4651,4593,1997,4503,1987,6040,35002,314,36,127,0,0,4342,-3488,0,1595,856,241,96,1,1,197,-29,519203,0
519210,-209,-3757,860,-941,307,-3578,5740,2787,3609,1785,8016,35007,266,36,127,0,0,4055,-2867,0,1595,856,241,106,1,1,197,-29,519203,0
519220,-237,-4375,758,-261,-197,-3468,7321,3741,1545,1658,9776,34960,461,36,127,0,0,3785,-2587,0,1595,856,241,116,1,1,197,-29,519203,0
519230,-833,-3141,768,458,-38,-3581,9198,4272,1424,1284,8416,34961,472,36,127,0,0,3536,-2499,0,1595,856,241,126,1,1,197,-29,519219,0
519240,69,-2254,577,186,277,-3381,10770,2777,72,-3283,2600,34991,269,36,127,0,0,3289,-2433,0,1595,856,241,136,1,1,197,-29,519219,0
519250,234,-2366,1209,139,69,-3560,11321,524,-2623,-3643,-1480,35047,67,36,127,0,0,3019,-2817,0,1595,856,241,146,1,1,197,-29,519219,0
519260,1218,-2581,959,10,-178,-3378,10965,-1054,-3758,-1616,-3272,35087,-39,36,127,0,0,2780,-2318,0,1595,856,241,156,1,1,197,-29,519219,0
519270,811,-2847,49,-632,-516,-2500,10314,-1574,-2274,-1033,-4040,35085,49,35,127,0,0,2575,-2005,0,1595,856,241,166,1,1,197,-29,519250,0
519280,-1072,-8663,1030,-511,-789,-2175,9538,-1766,-783,-628,-4248,35052,186,35,127,0,0,2421,-1499,0,1595,856,241,176,1,1,197,-29,519250,0
519290,529,632,61,-578,-529,-1426,8763,-1622,-251,-66,-2760,35046,163,36,127,0,0,2429,54,0,1595,856,241,186,1,1,197,-29,519266,0
519300,-593,-2740,-900,-1337,6,-2164,8137,-1282,302,105,-2064,35045,134,35,127,0,0,2345,-878,0,1595,856,241,196,1,1,197,-29,519266,0
519310,784,-1967,-1149,-408,320,-2233,7633,-1026,526,0,-1696,35048,88,35,127,0,0,2274,-719,0,1595,856,241,206,1,1,197,-29,519266,0
519320,1120,-1432,-1422,-221,117,-2095,7235,-814,434,-130,-1552,35069,76,35,127,0,0,2206,-675,0,1595,856,241,216,1,1,197,-29,519297,0
519330,1364,-1996,-699,227,40,-1673,6916,-663,353,-406,-1496,35066,79,36,127,0,0,2140,-659,0,1595,856,241,226,1,1,197,-29,519297,0
519340,1022,-1981,-300,321,-5,-1378,6621,-639,205,-564,-1432,35058,83,35,127,0,0,2086,-527,0,1595,856,241,236,1,1,197,-29,519297,0
519350,890,-2101,355,351,144,-1184,6342,-594,67,-490,-1288,35049,77,35,127,0,0,2043,-417,0,1595,856,241,246,1,1,197,-29,519360,0
519360,1170,-2093,505,264,190,-976,6089,-544,83,-471,-1184,35049,67,36,127,0,0,2002,-379,0,1595,856,241,256,1,1,197,-29,519360,0
519370,1421,-1955,418,35,41,-491,5854,-511,81,-442,-1016,35051,70,36,127,0,0,1973,-280,0,1595,856,241,266,1,1,197,-29,519375,0
519380,1456,-1963,372,-109,-34,-134,5663,-447,76,-361,-752,35061,61,36,127,0,0,1962,-126,0,1595,856,241,276,1,1,197,-29,519375,0
519390,1224,-1966,314,-256,-66,322,5498,-324,152,-387,-440,35056,68,36,127,0,0,1959,-5,0,1595,856,241,286,1,1,197,-29,519375,0
519400,983,-1967,140,-316,-31,467,5382,-233,192,-281,-192,35053,75,36,127,0,0,1965,5,0,1595,856,241,296,1,1,197,-29,519375,0
519410,987,-1979,-62,-287,37,718,5326,-69,205,-84,8,35047,89,35,127,0,0,1974,115,0,1595,856,241,306,1,1,197,-29,519375,0
519421,905,-1970,-137,-198,-26,961,5357,74,277,110,160,35052,74,36,127,0,0,1997,197,0,1595,856,241,317,1,1,197,-29,519375,0
519431,655,-1980,-203,-142,-52,1045,5422,179,196,282,224,35079,61,35,127,0,0,2025,263,0,1595,856,241,327,1,1,197,-29,519469,0
519441,427,-1985,-201,-52,18,1004,5510,208,115,318,280,35078,76,35,127,0,0,2047,208,0,1595,856,241,337,1,1,197,-29,519469,0
519451,362,-2014,-142,-3,96,932,5633,289,108,226,280,35070,95,35,127,0,0,2074,241,0,1595,856,241,347,1,1,197,-29,519469,0
519461,370,-2021,-25,38,110,805,5752,253,53,201,248,35051,102,35,127,0,0,2093,230,0,1595,856,241,357,1,1,197,-29,519469,0
519471,401,-2038,80,41,89,714,5854,215,-45,273,216,35048,79,35,127,0,0,2115,164,0,1595,856,241,367,1,1,197,-29,519485,0
519481,328,-2024,171,12,47,586,5945,198,-52,283,184,35050,71,35,127,0,0,2133,186,0,1595,856,241,377,1,1,197,-29,519485,0
519491,279,-1999,140,-32,34,466,6039,197,-9,226,208,35048,65,36,127,0,0,2146,142,0,1595,856,241,387,1,1,197,-29,519485,0
519501,238,-1962,113,-105,14,238,6109,146,-45,240,96,35046,62,36,127,0,0,2153,54,0,1595,856,241,397,1,1,197,-29,519485,0
519511,208,-2019,125,-134,0,81,6167,105,-75,71,24,35045,56,36,127,0,0,2155,0,0,1595,856,241,407,1,1,197,-29,519485,0
519521,153,-2035,190,-167,-37,-166,6179,-22,-121,-19,0,35051,68,35,127,0,0,2155,0,0,1595,856,241,417,1,1,197,-29,519485,0
519531,46,-1966,171,-222,-77,-427,6177,0,-116,-94,-40,35064,71,35,127,0,0,2142,-120,0,1595,856,241,427,1,1,197,-29,519485,0
519541,-78,-2020,153,-269,-112,-824,6162,-48,-40,-401,-232,35073,71,35,127,0,0,2118,-252,0,1595,856,241,437,1,1,197,-29,519516,0
519551,-87,-1990,173,-332,-149,-1119,6110,-155,-108,-562,-440,35083,64,36,127,0,0,2087,-296,0,1595,856,241,447,1,1,197,-29,519516,0
519561,-202,-1977,287,-474,-204,-1650,6007,-265,-177,-528,-568,35071,55,35,127,0,0,2043,-461,0,1595,856,241,457,1,1,197,-29,519516,0
519571,-253,-1968,379,-584,-195,-2040,5871,-313,-157,-595,-736,35057,66,35,127,0,0,1984,-593,0,1595,856,241,467,1,1,197,-29,519547,0
519581,-115,-1941,401,-774,-206,-2630,5702,-399,-118,-636,-1120,35045,59,36,127,0,0,1911,-747,0,1595,856,241,477,1,1,197,-29,519547,0
519591,-9,-1933,359,-921,-273,-2944,5493,-484,-145,-795,-1432,35042,86,36,127,0,0,1828,-845,0,1595,856,241,487,1,1,197,-29,519547,0
519601,104,-2114,375,-1128,-421,-3347,5227,-626,-190,-784,-1768,35046,95,36,127,0,0,1735,-933,0,1595,856,241,497,1,4,197,-29,519594,0
519611,66,-2158,443,-1232,-510,-3588,4902,-755,-224,-782,-2120,35041,108,36,127,0,0,1636,-977,0,1595,856,241,507,1,4,197,-29,519594,0
519621,216,-2145,374,-1426,-796,-3965,4527,-859,-203,-813,-2368,35031,105,36,127,0,0,1540,-988,0,1595,856,241,517,1,4,197,-29,519594,0
519631,-4,-2400,265,-1748,-965,-4075,4100,-964,-195,-751,-2552,35029,107,35,127,0,0,1445,-933,0,1595,856,241,527,1,4,197,-29,519610,0
519641,-190,-2575,168,-2014,-1072,-4398,3641,-1024,-159,-615,-2512,35035,118,35,127,0,0,1362,-802,0,1595,856,241,537,1,4,197,-29,519610,0
519651,-244,-2623,27,-2123,-1030,-4716,3172,-1034,-79,-638,-2520,35054,111,35,127,0,0,1285,-758,0,1595,856,241,547,1,4,197,-29,519610,0
519662,-56,-2794,26,-2194,-894,-5204,2655,-1025,-12,-526,-2336,35070,113,35,127,0,0,1208,-681,0,1595,856,241,558,1,4,197,-29,519641,0
519672,199,-2835,43,-2273,-822,-5413,2207,-991,47,-546,-2248,35067,111,35,127,0,0,1152,-554,0,1595,856,241,568,1,4,197,-29,519641,0
519682,616,-2583,64,-2302,-717,-5548,1780,-917,162,-460,-2040,35057,104,35,127,0,0,1105,-466,0,1595,856,241,578,1,4,197,-29,519656,0
519692,965,-2125,15,-2217,-747,-5521,1389,-828,159,-394,-1736,35046,97,35,127,0,0,1074,-285,0,1595,856,241,588,1,4,197,-29,519656,0
519702,1493,-1302,-344,-1988,-824,-5404,1051,-700,68,-346,-1400,35048,86,35,127,0,0,1044,-236,0,1595,856,241,598,1,4,197,-29,519656,0
519712,1765,-849,-566,-1852,-932,-5218,771,-584,217,-381,-1176,35055,86,36,127,0,0,1025,-230,0,1595,856,241,608,1,4,197,-29,519719,0
519722,1836,-770,-735,-1814,-1065,-4752,532,-494,182,-373,-920,35064,77,36,127,0,0,1004,-186,0,1595,856,241,618,1,4,197,-29,519719,0
519732,1604,-1014,-661,-1835,-1035,-4478,334,-406,156,-356,-664,35064,75,35,127,0,0,993,-137,0,1595,856,241,628,1,4,197,-29,519719,0
519742,1238,-1394,-479,-1914,-746,-4321,177,-311,159,-352,-352,35052,79,35,127,0,0,979,-104,0,1595,856,241,638,1,4,197,-29,519719,0
519752,1138,-1631,-415,-2021,-475,-4316,80,-154,194,-332,-160,35043,72,36,127,0,0,966,-131,0,1595,856,241,648,1,4,197,-29,519719,0
519762,1201,-2197,-354,-2322,-269,-4284,39,-61,227,-227,-72,35041,84,36,127,0,0,958,-49,0,1595,856,241,658,1,4,197,-29,519719,0
519772,1201,-2664,-249,-2506,-173,-4307,39,12,183,-296,-72,35053,107,36,127,0,0,963,87,0,1595,856,241,668,1,4,197,-29,519735,0
519782,873,-3174,21,-2700,-80,-4275,38,2,83,-282,-72,35055,108,36,127,0,0,995,340,0,1595,856,241,678,1,4,197,-29,519750,0
519792,828,-3164,177,-2716,114,-4523,45,34,1,-32,248,35065,105,35,127,0,0,1039,466,0,1595,856,241,688,1,4,197,-29,519750,0
519802,863,-2726,164,-2675,308,-4944,136,283,168,574,712,35059,96,36,127,0,0,1089,538,0,1595,856,241,698,1,4,197,-29,519766,0
519812,1296,-2683,119,-2605,263,-5237,319,438,359,450,1000,35053,86,36,127,0,0,1143,510,0,1595,856,241,708,1,4,197,-29,519813,0
519822,1575,-2669,187,-2392,-135,-5017,542,511,248,553,1424,35053,86,35,127,0,0,1218,818,0,1595,856,241,718,1,4,197,-29,519813,0
519832,1805,-2461,158,-2330,-277,-4754,830,692,199,723,1872,35054,75,35,127,0,0,1312,977,0,1595,856,241,728,1,4,197,-29,519813,0
519842,1758,-2014,-19,-2220,-357,-4072,1206,888,297,742,2496,35046,80,36,127,0,0,1438,1307,0,1595,856,241,738,1,4,197,-29,519813,0
519852,1621,-1624,-157,-2182,-346,-3561,1689,1134,372,810,3040,35032,89,35,127,0,0,1594,1593,0,1595,856,241,748,1,4,197,-29,519813,0
519862,1368,-1324,-419,-2087,-263,-2777,2283,1372,420,870,3672,35034,113,35,127,0,0,1773,1845,0,1595,856,241,758,1,4,197,-29,519828,0
519872,1243,-1178,-569,-1975,-114,-2284,2993,1635,436,893,4216,35044,136,35,127,0,0,1988,2131,0,1595,856,241,768,1,4,197,-29,519859,0
519882,1231,-1034,-744,-1852,234,-1535,3788,1799,387,866,4816,35046,141,35,127,0,0,2235,2504,0,1595,856,241,778,1,4,197,-29,519859,0
519892,1303,-1053,-772,-1740,503,-1045,4669,1996,328,852,5240,35043,161,35,127,0,0,2482,2488,0,1595,856,241,788,1,4,197,-29,519859,0
519902,1244,-1141,-738,-1449,953,-214,5640,2213,338,813,5744,35028,180,35,127,0,0,2744,2647,0,1595,856,241,798,1,4,197,-29,519859,0
519913,1128,-1116,-598,-1163,1435,737,6845,2495,408,776,6232,35022,211,35,127,0,0,3069,3010,0,1595,856,241,809,1,4,197,-29,519875,0
519923,1129,-1040,-354,-898,2079,1310,8047,2712,417,982,6960,35024,219,36,127,0,0,3370,2999,0,1595,856,241,819,1,4,197,-29,519891,0
519933,1169,-876,-82,-325,3617,1992,9342,2914,372,941,7296,35024,256,36,127,0,0,3636,2581,0,1595,856,241,829,1,4,197,-29,519891,0
519943,1164,147,12,11,4558,2112,10698,2983,303,447,6880,35016,266,36,127,0,0,3823,1746,0,1595,856,241,839,1,4,197,-29,519906,0
519953,1730,2012,-173,513,4992,2319,11968,2678,-45,11,5328,35014,234,36,127,0,0,3880,461,0,1595,856,241,849,0,4,197,-29,519938,0
519963,2019,1981,-728,-425,4493,2494,13026,2155,-578,-498,2824,35036,168,36,127,0,0,3816,-736,0,1595,856,241,859,0,4,197,-29,519938,0
519973,1876,1471,-218,-544,2466,4423,13714,1213,-1105,-1075,512,35056,85,36,127,0,0,3728,-823,0,1595,856,241,869,0,4,197,-29,519938,0
519983,1357,935,-486,-161,1239,5719,13896,-72,-1677,-1760,-632,35070,26,36,127,0,0,3669,-560,0,1595,856,241,879,0,4,197,-29,519938,0
519993,603,123,-122,385,-479,6954,13715,-456,-1748,-321,-672,35067,18,35,127,0,0,3643,-219,0,1595,856,241,889,0,4,197,-29,519969,0
520003,614,-135,197,809,-1303,7502,13508,-445,-727,-97,-280,35074,28,35,127,0,0,3640,10,0,1595,856,241,899,0,4,197,-29,519969,0
520013,566,-378,374,1325,-2042,8082,13356,-268,51,197,-24,35064,40,36,127,0,0,3640,10,0,1595,856,241,909,0,4,197,-29,519969,0
520023,502,-522,227,1611,-2348,8465,13349,54,389,197,32,35066,47,35,127,0,0,3638,-32,0,1595,856,241,919,0,4,197,-29,519984,0
520033,393,-569,-92,2092,-2633,8897,13370,26,339,-123,-16,35056,47,35,127,0,0,3640,21,0,1595,856,241,929,0,4,197,-29,520000,0
520043,340,-528,-270,2418,-2737,9103,13368,-3,-8,-31,-8,35072,47,35,127,0,0,3640,0,0,1595,856,241,939,0,4,197,-29,520000,0
520053,407,-542,-320,2909,-2734,9422,13370,0,-39,-27,-16,35067,45,35,127,0,0,3640,-21,0,1595,856,241,949,0,4,197,-29,520016,0
520063,456,-581,-376,3221,-2641,9639,13369,4,3,-8,-24,35069,52,36,127,0,0,3645,32,0,1595,856,241,959,0,4,197,-29,520047,0
520073,418,-642,-411,3620,-2394,9901,13374,22,11,110,64,35071,61,35,127,0,0,3649,54,0,1595,856,241,969,0,4,197,-29,520047,0
520083,417,-747,-398,3846,-2141,10010,13389,28,34,237,104,35074,61,35,127,0,0,3660,109,0,1595,856,241,979,0,4,197,-29,520047,0
520093,516,-958,-359,4023,-1645,10136,13410,62,24,478,240,35070,67,35,127,0,0,3678,186,0,1595,856,241,989,0,4,197,-29,520047,0
520103,556,-1161,-283,4003,-1348,10179,13470,150,92,522,344,35060,83,36,127,0,0,3702,274,0,1595,856,241,999,0,4,197,-29,520094,0
520113,744,-1539,-237,3877,-948,10058,13561,227,133,597,656,35071,107,35,127,0,0,3746,439,0,1595,856,241,1009,0,4,197,-29,520094,0
520123,803,-1803,-279,3721,-581,9889,13704,334,157,612,888,35070,103,35,127,0,0,3803,571,0,1595,856,241,1019,0,4,197,-29,520094,0
520133,814,-2255,-419,3443,142,9505,13895,454,191,670,1208,35061,95,35,127,0,0,3871,714,0,1595,856,241,1029,0,4,197,-29,520109,0
520143,674,-2553,-538,3343,671,9198,14145,584,193,710,1536,35045,82,36,127,0,0,3955,856,0,1595,856,241,1039,0,4,197,-29,520109,0
520153,723,-2849,-627,3293,1569,8534,14467,754,249,702,1928,35051,84,36,127,0,0,4047,911,0,1595,856,241,1049,0,4,197,-29,520109,0
520164,835,-2901,-682,3249,2027,8131,14896,900,262,627,2232,35062,104,35,127,0,0,4163,1120,0,1595,856,241,1060,0,4,197,-29,520125,0
520174,946,-2816,-577,3077,2611,7481,15342,1010,218,651,2512,35071,106,35,127,0,0,4285,1170,0,1595,856,241,1070,0,4,197,-29,520219,0
520184,1000,-2723,-447,2904,2756,7021,15845,1157,212,707,2888,35070,110,35,127,0,0,4417,1296,0,1595,856,241,1080,0,4,197,-29,520219,0
520194,1099,-2781,-208,2489,2683,6339,16405,1275,224,736,3136,35067,106,36,127,0,0,4557,1301,0,1595,856,241,1090,0,4,197,-29,520219,0
520204,1114,-2868,-53,2116,2442,5920,17009,1348,198,664,3416,35054,120,35,127,0,0,4692,1417,0,1595,856,241,1100,0,4,197,-29,520219,0
520214,1198,-3079,95,1569,2023,5158,17658,1465,169,651,3584,35037,146,35,127,0,0,4825,1323,0,1595,856,241,1110,0,4,197,-29,520219,0
520224,1177,-3202,118,1197,1772,4612,18345,1524,162,539,3576,35025,134,36,127,0,0,4949,1219,0,1595,856,241,1120,0,4,197,-29,520234,0
520234,1119,-3298,118,800,1400,3744,19023,1484,62,441,3328,35024,139,36,127,0,0,5051,1027,0,1595,856,241,1130,0,4,197,-29,520234,0
520244,1031,-3129,47,575,1131,3164,19656,1349,-97,321,2944,35033,129,35,127,0,0,5124,697,0,1595,856,241,1140,0,4,197,-29,520234,0
520254,923,-2772,14,401,752,2332,20209,1161,-238,236,2448,35039,120,35,127,0,0,5180,472,0,1595,856,241,1150,0,4,197,-29,520234,0
520264,807,-2371,-79,314,465,1794,20677,973,-317,163,1912,35043,99,36,127,0,0,5209,274,0,1595,856,241,1160,0,4,197,-29,520234,0
520274,690,-1843,-166,213,-47,1107,21057,776,-333,143,1440,35054,87,36,127,0,0,5238,280,0,1595,856,241,1170,0,4,197,-29,520234,0
520284,629,-1552,-228,153,-456,710,21361,625,-306,170,1072,35067,79,36,127,0,0,5265,274,0,1595,856,241,1180,0,4,197,-29,520250,0
520294,556,-1350,-238,33,-1154,165,21605,518,-258,259,920,35071,82,36,127,0,0,5295,274,0,1595,856,241,1190,0,4,197,-29,520250,0
520304,520,-1413,-197,-59,-1618,-146,21817,447,-176,342,904,35067,83,36,127,0,0,5344,488,0,1595,856,241,1200,0,4,197,-29,520266,0
520314,448,-1780,-13,-155,-2259,-548,22016,464,-91,521,1128,35061,87,35,127,0,0,5407,659,0,1595,856,241,1210,0,4,197,-29,520297,0
520324,353,-1980,16,-251,-2625,-769,22246,531,46,604,1328,35059,88,35,127,0,0,5468,648,0,1595,856,241,1220,0,4,197,-29,520297,0
520334,179,-2209,54,-455,-2971,-1075,22509,574,130,348,344,35056,87,35,127,0,0,5540,697,0,1595,856,241,1230,0,4,197,-29,520297,0
520344,61,-2347,129,-603,-3157,-1154,22554,-263,-326,-1458,-992,35057,80,35,127,0,0,5609,736,0,1595,856,241,1240,0,4,197,-29,520312,0
520354,-130,-2526,137,-734,-3114,-1666,22320,-602,-1044,-759,-1824,35043,65,35,127,0,0,5662,499,0,1595,856,241,1250,0,4,197,-29,520312,0
520364,-42,-2609,82,-838,-3041,-1851,21940,-935,-799,-958,-2856,35051,67,36,127,0,0,5710,428,0,1699,1129,242,8,1,1,182,-29,520344,0
520374,-137,-2523,40,-1037,-2723,-2264,21382,-1364,-619,-1270,-4136,35047,104,35,127,0,0,5726,137,0,1699,1129,242,18,1,1,182,-29,520344,0
520384,-280,-2366,22,-1146,-2500,-2476,20688,-1833,-777,-1447,-5544,35034,167,35,127,0,0,5727,-60,0,1699,1129,242,28,1,1,182,-29,520344,0
520394,-267,-2107,-32,-1310,-2154,-2721,19663,-2467,-958,-1512,-7120,35004,213,35,127,0,0,5722,-120,0,1699,1129,242,38,1,1,182,-29,520359,0
520404,-578,-1795,-37,-1306,-1934,-2880,18304,-3226,-1184,-1473,-7952,34992,297,36,127,0,0,5718,-32,0,1699,1129,242,48,1,1,182,-29,520406,0
520415,-512,-1640,-153,-1211,-1262,-3223,16666,-3235,-786,-369,-7592,34992,330,36,127,0,0,5723,0,0,1699,1129,242,59,1,1,182,-29,520406,0
520425,-645,-1510,-221,-1070,-704,-3197,15203,-3214,-50,-255,-7096,35009,299,35,127,0,0,5741,208,0,1699,1129,242,69,1,1,182,-29,520422,0
520435,2775,-4271,65,632,8026,-4617,13814,-2946,190,-417,-7808,35017,218,35,127,0,0,5477,-3328,0,1699,1129,242,79,1,1,182,-29,520422,0
520445,-1472,-1654,2606,-283,6043,-8071,12434,-3025,167,570,-1352,35010,196,36,127,0,0,4886,-5877,0,1699,1129,242,89,1,1,182,-29,520422,0
520455,760,-1191,2796,-391,3541,-5411,12225,981,2481,7221,5792,35021,120,35,127,0,0,4482,-3768,0,1699,1129,242,99,1,1,182,-29,520422,0
520465,1179,-4772,1446,-1968,230,-4363,13256,2576,5006,1855,6552,34981,297,35,127,0,0,4144,-3416,0,1699,1129,242,109,1,1,182,-29,520422,0
520475,-279,-4629,1983,-840,-1302,-2496,14424,2280,2143,-1735,1264,34980,341,35,127,0,0,3906,-2175,0,1699,1129,242,119,1,1,182,-29,520453,0
520485,-1169,-2735,1199,-127,-1998,-3053,14821,177,-1547,-3187,-1552,35010,279,35,127,0,0,3700,-2076,0,1699,1129,242,129,1,1,182,-29,520453,0
520495,-1070,-1326,1,2,-747,-3496,14470,-1006,-3020,-1475,-3136,35049,144,35,127,0,0,3482,-2164,0,1699,1129,242,139,1,1,182,-29,520453,0
520505,508,-1379,-707,-185,1397,-4223,13844,-1526,-1783,-1241,-4696,35066,71,35,127,0,0,3192,-2977,0,1699,1129,242,149,1,1,182,-29,520484,0
520515,520,-1526,-785,-258,1035,-4142,12961,-2105,-991,-1407,-6104,35034,164,36,127,0,0,2880,-3098,0,1699,1129,242,159,1,1,182,-29,520484,0
520525,1818,-1502,-438,-196,198,-3417,11864,-2500,-892,-872,-6464,35007,219,36,127,0,0,2612,-2647,0,1699,1129,242,169,1,1,182,-29,520484,0
520535,-1593,-12756,1837,-223,-1357,-3057,10663,-2700,-568,-613,-6568,35007,235,36,127,0,0,2386,-2252,0,1699,1129,242,179,1,1,182,-29,520500,0
520545,1472,3051,594,-104,-442,-1166,9442,-2574,-197,62,-3960,34999,230,36,127,0,0,2430,516,0,1699,1129,242,189,1,1,182,-29,520563,0
520555,-2403,-4253,1111,-1725,-1360,-2275,8501,-1865,591,530,-2688,35022,169,36,127,0,0,2353,-812,0,1699,1129,242,199,1,1,182,-29,520563,0
520565,804,-1046,-888,-243,1090,-2596,7802,-1393,1025,279,-1760,35034,101,35,127,0,0,2300,-538,0,1699,1129,242,209,1,1,182,-29,520563,0
520575,422,-866,-2098,-898,1109,-2472,7296,-1001,808,86,-1672,35051,64,35,127,0,0,2190,-1098,0,1699,1129,242,219,1,1,182,-29,520563,0
520585,1728,-2221,-768,97,11,-1715,6925,-750,610,-344,-1696,35048,59,35,127,0,0,2113,-802,0,1699,1129,242,229,1,1,182,-29,520579,0
520595,1841,-1739,-225,182,-138,-1168,6595,-716,303,-494,-1528,35045,77,35,127,0,0,2069,-428,0,1699,1129,242,239,1,1,182,-29,520579,0
520605,792,-2080,493,178,-100,-780,6300,-622,124,-439,-1240,35033,89,36,127,0,0,2036,-296,0,1699,1129,242,249,1,1,182,-29,520579,0
520615,938,-2114,408,104,88,-716,6054,-504,170,-396,-1008,35028,101,36,127,0,0,2012,-274,0,1699,1129,242,259,1,1,182,-29,520579,0
520625,1387,-2055,-18,90,181,-294,5844,-438,165,-386,-824,35039,83,35,127,0,0,1990,-186,0,1699,1129,242,269,1,1,182,-29,520626,0
520635,1539,-1946,-104,169,74,91,5665,-372,127,-384,-560,35065,81,35,127,0,0,1981,-65,0,1699,1129,242,279,1,1,182,-29,520626,0
520645,1068,-1803,-10,194,42,466,5532,-251,146,-366,-272,35076,78,36,127,0,0,1988,76,0,1699,1129,242,289,1,1,182,-29,520626,0
520655,850,-1948,80,157,81,671,5464,-117,216,-282,-72,35065,74,36,127,0,0,1997,131,0,1699,1129,242,299,1,1,182,-29,520626,0
520665,867,-2123,83,164,169,826,5469,80,268,-1,96,35059,74,36,127,0,0,2010,109,0,1699,1129,242,309,1,1,182,-29,520641,0
520676,902,-2084,138,178,107,955,5516,104,203,212,152,35069,79,35,127,0,0,2037,230,0,1699,1129,242,320,1,1,182,-29,520641,0
520686,595,-2000,61,176,14,1059,5605,216,110,176,200,35075,83,35,127,0,0,2062,313,0,1699,1129,242,330,1,1,182,-29,520641,0
520696,407,-1905,-62,212,30,985,5704,221,112,253,264,35073,76,35,127,0,0,2087,274,0,1699,1129,242,340,1,1,182,-29,520657,0
520706,320,-1925,-177,270,162,806,5808,229,41,268,272,35077,79,36,127,0,0,2111,247,0,1699,1129,242,350,1,1,182,-29,520688,0
520716,295,-1991,-111,323,219,699,5908,211,4,276,216,35061,64,36,127,0,0,2126,175,0,1699,1129,242,360,1,1,182,-29,520688,0
520726,287,-2082,186,339,194,550,6005,222,-12,172,120,35052,62,35,127,0,0,2134,131,0,1699,1129,242,370,1,1,182,-29,520688,0
520736,288,-2067,373,295,137,448,6071,118,-63,222,112,35048,53,35,127,0,0,2147,93,0,1699,1129,242,380,1,1,182,-29,520704,0
520746,199,-2003,344,190,88,234,6113,110,-110,239,112,35060,56,35,127,0,0,2153,65,0,1699,1129,242,390,1,1,182,-29,520719,0
520756,233,-1934,215,141,84,94,6157,80,-27,130,24,35060,63,35,127,0,0,2156,10,0,1699,1129,242,400,1,1,182,-29,520719,0
520766,297,-1954,111,100,41,-93,6176,13,-40,-59,-40,35058,48,35,127,0,0,2154,-16,0,1699,1129,242,410,1,1,182,-29,520735,0
520776,240,-1962,149,104,25,-306,6172,10,-105,-60,-88,35052,48,35,127,0,0,2137,-192,0,1699,1129,242,420,1,1,182,-29,520751,0
520786,105,-2014,280,59,-2,-577,6156,-50,-55,-393,-200,35052,65,36,127,0,0,2119,-214,0,1699,1129,242,430,1,1,182,-29,520751,0
520796,-30,-2010,301,-19,-35,-815,6107,-146,-84,-519,-320,35052,70,35,127,0,0,2095,-236,0,1699,1129,242,440,1,1,182,-29,520766,0
520806,-145,-1957,302,-166,-90,-1286,6017,-240,-147,-529,-488,35048,73,36,127,0,0,2057,-357,0,1699,1129,242,450,1,1,182,-29,520766,0
520816,-262,-1931,284,-259,-107,-1664,5897,-271,-144,-558,-648,35048,68,36,127,0,0,2007,-538,0,1699,1129,242,460,1,1,182,-29,520782,0
520826,-320,-1936,369,-431,-160,-2283,5746,-350,-111,-583,-936,35059,73,35,127,0,0,1943,-659,0,1699,1129,242,470,1,1,182,-29,520798,0
520836,-356,-1975,450,-546,-185,-2729,5562,-432,-126,-762,-1232,35059,75,35,127,0,0,1856,-829,0,1699,1129,242,480,1,1,182,-29,520798,0
520846,-190,-1924,401,-710,-175,-3344,5326,-566,-161,-821,-1632,35062,82,35,127,0,0,1764,-972,0,1699,1129,242,490,1,1,182,-29,520829,0
520856,-80,-1806,276,-810,-227,-3702,5020,-718,-236,-878,-2096,35046,89,35,127,0,0,1658,-1093,0,1699,1129,242,500,1,4,182,-29,520844,0
520866,20,-1833,60,-943,-415,-4081,4642,-874,-271,-936,-2472,35038,100,35,127,0,0,1549,-1082,0,1699,1129,242,510,1,4,182,-29,520844,0
520876,35,-1868,-74,-1089,-617,-4293,4197,-1006,-268,-788,-2744,35038,120,36,127,0,0,1439,-1098,0,1699,1129,242,520,1,4,182,-29,520844,0
520886,17,-2302,120,-1326,-819,-4463,3704,-1122,-219,-752,-2904,35040,128,36,127,0,0,1340,-961,0,1699,1129,242,530,1,4,182,-29,520844,0
520896,581,-2377,372,-1231,-1154,-4663,3171,-1179,-173,-628,-2864,35053,139,35,127,0,0,1249,-862,0,1699,1129,242,540,1,4,182,-29,520860,0
520906,333,-3548,645,-1140,-1036,-4788,2634,-1175,-85,-562,-2872,35055,134,35,127,0,0,1163,-917,0,1699,1129,242,550,1,4,182,-29,520907,0
520917,387,-2729,586,-1251,-1038,-4850,2047,-1155,-1,-456,-2512,35060,132,36,127,0,0,1109,-461,0,1699,1129,242,561,1,4,182,-29,520923,0
520927,461,-2421,192,-1452,-1138,-4942,1569,-991,115,-336,-2096,35049,124,36,127,0,0,1070,-362,0,1699,1129,242,571,1,4,182,-29,520923,0
520937,698,-2340,-53,-1592,-1222,-5010,1165,-833,249,-298,-1664,35046,101,35,127,0,0,1048,-241,0,1699,1129,242,581,1,4,182,-29,520923,0
520947,801,-2170,-21,-1551,-1186,-5123,846,-641,299,-297,-1224,35042,88,35,127,0,0,1037,-131,0,1699,1129,242,591,1,4,182,-29,520923,0
520957,1109,-2069,-17,-1418,-886,-5158,594,-510,299,-286,-880,35038,78,35,127,0,0,1021,-142,0,1699,1129,242,601,1,4,182,-29,520923,0
520967,1264,-1679,-184,-1427,-693,-5027,405,-388,247,-350,-552,35051,79,35,127,0,0,1017,-32,0,1699,1129,242,611,1,4,182,-29,520923,0
520977,1379,-1050,-480,-1566,-614,-4773,261,-282,202,-325,-296,35063,71,35,127,0,0,1017,0,0,1699,1129,242,621,1,4,182,-29,520954,0
520987,1502,-995,-546,-1647,-537,-4551,174,-152,190,-178,-112,35070,72,35,127,0,0,1026,65,0,1699,1129,242,631,1,4,182,-29,520954,0
520997,1422,-1280,-561,-1613,-397,-4398,188,87,306,17,16,35070,80,35,127,0,0,1034,65,0,1699,1129,242,641,1,4,182,-29,520985,0
521007,1501,-1430,-323,-1560,-238,-4323,201,14,207,211,176,35075,79,35,127,0,0,1045,131,0,1699,1129,242,651,1,4,182,-29,520985,0
521017,1299,-1578,-79,-1483,-50,-4292,236,123,19,445,176,35068,87,36,127,0,0,1054,98,0,1699,1129,242,661,1,4,182,-29,520985,0
521027,1397,-1617,72,-1525,-44,-4309,313,183,139,262,216,35058,77,35,127,0,0,1067,109,0,1699,1129,242,671,1,4,182,-29,520985,0
521037,1410,-1701,202,-1558,-245,-4311,390,166,79,277,224,35062,85,35,127,0,0,1083,175,0,1699,1129,242,681,1,4,182,-29,521001,0
521047,1468,-1922,147,-1572,-431,-4316,471,192,-2,391,312,35070,69,35,127,0,0,1105,219,0,1699,1129,242,691,1,4,182,-29,521032,0
521057,1284,-2506,72,-1544,-586,-4406,580,260,67,401,464,35078,52,36,127,0,0,1138,351,0,1699,1129,242,701,1,4,182,-29,521032,0
521067,1085,-2676,21,-1513,-624,-4464,713,306,108,505,712,35076,53,35,127,0,0,1182,461,0,1699,1129,242,711,1,4,182,-29,521048,0
521077,1079,-2838,15,-1463,-489,-4690,895,427,133,524,1056,35064,78,35,127,0,0,1239,604,0,1699,1129,242,721,1,4,182,-29,521048,0
521087,1124,-2915,43,-1440,-369,-4716,1129,544,199,500,1288,35065,96,35,127,0,0,1302,659,0,1699,1129,242,731,1,4,182,-29,521063,0
521097,1438,-2721,183,-1376,-28,-4685,1406,644,183,570,1592,35072,101,36,127,0,0,1382,823,0,1699,1129,242,741,1,4,182,-29,521063,0
521107,1573,-2362,190,-1305,-86,-4423,1739,777,188,624,1952,35081,104,35,127,0,0,1476,977,0,1699,1129,242,751,1,4,182,-29,521063,0
521117,1796,-1822,145,-1285,-270,-3817,2131,900,218,731,2400,35082,112,35,127,0,0,1597,1219,0,1699,1129,242,761,1,4,182,-29,521094,0
521127,1705,-1619,112,-1238,-397,-3313,2606,1117,267,804,2888,35067,121,36,127,0,0,1749,1516,0,1699,1129,242,771,1,4,182,-29,521094,0
521137,1615,-1382,-14,-1064,-489,-2505,3174,1313,344,894,3512,35052,138,35,127,0,0,1927,1812,0,1699,1129,242,781,1,4,182,-29,521094,0
521147,1566,-1257,-128,-966,-511,-1985,3837,1509,363,851,4048,35045,145,35,127,0,0,2144,2197,0,1699,1129,242,791,1,4,182,-29,521110,0
521157,1412,-1204,-106,-845,-559,-1148,4588,1722,351,924,4680,35040,151,35,127,0,0,2373,2285,0,1699,1129,242,801,1,4,182,-29,521110,0
521168,1363,-1100,-64,-795,-644,-489,5539,1993,384,867,5312,35041,163,36,127,0,0,2659,2691,0,1699,1129,242,812,1,4,182,-29,521126,0
521178,1251,-567,-88,-714,-482,418,6555,2339,487,930,5904,35039,177,35,127,0,0,2943,2845,0,1699,1129,242,822,1,4,182,-29,521157,0
521188,687,203,43,-571,-237,1203,7704,2582,541,854,6416,35030,197,35,127,0,0,3231,2905,0,1699,1129,242,832,1,4,182,-29,521157,0
521198,698,872,-289,-207,514,2741,8909,2677,362,863,6696,35024,208,35,127,0,0,3473,2395,0,1699,1129,242,842,1,4,182,-29,521157,0
521208,1278,835,-526,-140,1187,2786,10153,2725,192,334,5896,35022,212,35,127,0,0,3588,1043,0,1699,1129,242,852,1,4,182,-29,521172,0
521218,894,913,-625,-171,1146,3449,11287,2354,-126,-144,3936,35040,173,35,127,0,0,3594,-10,0,1699,1129,242,862,0,4,182,-29,521172,0
521228,1228,1003,-552,-159,960,4283,12152,1680,-732,-672,1840,35055,96,35,127,0,0,3559,-395,0,1699,1129,242,872,0,4,182,-29,521204,0
521238,969,966,-451,-82,387,5616,12661,899,-1209,-654,264,35070,48,35,127,0,0,3511,-466,0,1699,1129,242,882,0,4,182,-29,521204,0
521248,528,502,-290,108,-176,6615,12779,-112,-1425,-1578,-440,35059,43,35,127,0,0,3483,-164,0,1699,1129,242,892,0,4,182,-29,521204,0
521258,205,-138,-21,502,-794,7455,12639,-339,-1312,-276,-352,35066,59,36,127,0,0,3469,-98,0,1699,1129,242,902,0,4,182,-29,521219,0
521268,227,-432,37,794,-1015,7871,12502,-268,-462,-71,-88,35057,68,36,127,0,0,3470,38,0,1699,1129,242,912,0,4,182,-29,521297,0
521278,295,-662,33,1186,-1087,8363,12458,-28,189,193,40,35063,61,35,127,0,0,3469,0,0,1699,1129,242,922,0,4,182,-29,521313,0
521288,307,-667,-57,1415,-1048,8709,12474,36,311,56,16,35056,67,35,127,0,0,3469,0,0,1699,1129,242,932,0,4,182,-29,521313,0
521298,362,-625,-178,1757,-1105,9244,12484,31,93,141,128,35059,79,35,127,0,0,3489,192,0,1699,1129,242,942,0,4,182,-29,521313,0
521308,479,-614,-252,2035,-1156,9590,12527,111,44,417,320,35054,91,35,127,0,0,3515,280,0,1699,1129,242,952,0,4,182,-29,521313,0
521318,603,-669,-260,2382,-1175,10016,12616,223,149,455,432,35054,71,35,127,0,0,3547,340,0,1699,1129,242,962,0,4,182,-29,521329,0
521328,627,-768,-234,2601,-1109,10219,12736,270,149,496,560,35049,63,35,127,0,0,3589,411,0,1699,1129,242,972,0,4,182,-29,521329,0
521338,635,-931,-190,2913,-867,10340,12876,324,90,522,656,35052,69,36,127,0,0,3617,296,0,1699,1129,242,982,0,4,182,-29,521329,0
521348,691,-1094,-212,3028,-580,10343,13033,357,76,461,696,35056,85,35,127,0,0,3650,313,0,1699,1129,242,992,0,4,182,-29,521329,0
521358,653,-1413,-250,3142,10,10226,13190,352,29,495,736,35054,92,35,127,0,0,3680,280,0,1699,1129,242,1002,0,4,182,-29,521329,0
521368,667,-1613,-357,3060,507,10110,13353,372,11,473,808,35055,82,36,127,0,0,3724,384,0,1699,1129,242,1012,0,4,182,-29,521329,0
521378,712,-2022,-377,2891,1337,9868,13516,397,50,492,984,35063,92,36,127,0,0,3778,549,0,1699,1129,242,1022,0,4,182,-29,521360,0
521388,695,-2320,-376,2814,1925,9619,13718,466,73,713,1360,35073,81,35,127,0,0,3860,780,0,1699,1129,242,1032,0,4,182,-29,521360,0
521398,789,-2723,-355,2702,2777,9151,13986,638,174,795,1800,35063,68,35,127,0,0,3956,1021,0,1699,1129,242,1042,0,4,182,-29,521360,0
521408,864,-2893,-312,2600,3301,8804,14342,852,305,807,2320,35055,83,36,127,0,0,4088,1340,0,1699,1129,242,1052,0,4,182,-29,521376,0
521419,1274,-3090,-137,2360,3970,8115,14855,1118,389,880,3008,35054,115,36,127,0,0,4260,1571,0,1699,1129,242,1063,0,4,182,-29,521376,0
521429,1172,-3013,-58,2180,4311,7247,15451,1381,441,829,3528,35055,137,36,127,0,0,4425,1680,0,1699,1129,242,1073,0,4,182,-29,521407,0
521439,1266,-3012,18,1982,4421,6596,16134,1545,393,761,3760,35049,139,36,127,0,0,4581,1516,0,1699,1129,242,1083,0,4,182,-29,521407,0
521449,1268,-2928,163,1718,4275,5622,16862,1619,236,587,3904,35037,136,36,127,0,0,4717,1351,0,1699,1129,242,1093,0,4,182,-29,521407,0
521459,1393,-2871,225,1516,4017,4966,17596,1613,82,476,3824,35037,133,36,127,0,0,4842,1208,0,1699,1129,242,1103,0,4,182,-29,521438,0
521469,1413,-2713,216,1157,3430,4051,18321,1574,-11,410,3560,35038,123,36,127,0,0,4952,1054,0,1699,1129,242,1113,0,4,182,-29,521438,0
521479,1395,-2655,177,886,2921,3505,19006,1474,-107,317,3224,35037,120,35,127,0,0,5044,922,0,1699,1129,242,1123,0,4,182,-29,521438,0
521489,1351,-2509,150,569,2068,2820,19624,1312,-210,311,2880,35037,107,35,127,0,0,5126,802,0,1699,1129,242,1133,0,4,182,-29,521454,0
521499,1307,-2435,124,436,1541,2351,20169,1154,-274,296,2552,35035,85,35,127,0,0,5196,692,0,1699,1129,242,1143,0,4,182,-29,521469,0
521509,1126,-2283,-8,385,766,1760,20647,1009,-266,297,2208,35044,91,35,127,0,0,5251,538,0,1699,1129,242,1153,0,4,182,-29,521469,0
521519,1062,-2111,-38,374,210,1426,21070,890,-236,275,1920,35048,85,35,127,0,0,5302,516,0,1699,1129,242,1163,0,4,182,-29,521469,0
521529,912,-1846,-1,342,-689,929,21445,790,-200,283,1712,35057,91,35,127,0,0,5354,527,0,1699,1129,242,1173,0,4,182,-29,521501,0
521539,848,-1778,5,316,-1247,591,21787,728,-154,344,1592,35049,75,36,127,0,0,5409,527,0,1699,1129,242,1183,0,4,182,-29,521501,0
521549,691,-1865,19,273,-2038,158,22107,693,-104,414,1536,35044,79,35,127,0,0,5464,538,0,1699,1129,242,1193,0,4,182,-29,521501,0
521559,584,-1995,39,289,-2491,-93,22417,684,-57,343,736,35042,104,36,127,0,0,5528,604,0,1699,1129,242,1203,0,4,182,-29,521532,0
521569,338,-2185,68,172,-3164,-316,22620,265,-244,-905,-664,35036,100,35,127,0,0,5600,758,0,1699,1129,242,1213,0,4,182,-29,521532,0
521579,348,-2335,70,100,-3404,-712,22477,-396,-934,-517,-976,35042,96,35,127,0,0,5675,736,0,1699,1129,242,1223,0,4,182,-29,521532,0
521589,252,-2449,201,-18,-3720,-1060,22251,-545,-763,-670,-1640,35048,80,35,127,0,0,5743,681,0,1699,1129,242,1233,0,4,182,-29,521563,0
521599,195,-2577,189,-132,-3751,-1317,21919,-803,-346,-901,-2440,35047,99,36,127,0,0,5796,505,0,1699,1129,242,1243,0,4,182,-29,521563,0
521609,44,-2658,189,-235,-3765,-1705,21445,-1143,-483,-1058,-3464,35044,125,35,127,0,0,5838,395,0,1699,1129,242,1253,0,4,182,-29,521563,0
521619,39,-2604,195,-337,-3690,-1927,20804,-1544,-605,-1289,-4672,35028,157,35,127,0,0,5851,98,0,1424,738,243,7,1,1,168,-31,521594,0
521629,-155,-2324,260,-526,-3599,-2018,19943,-2066,-763,-1369,-5912,35008,202,35,127,0,0,5853,21,0,1424,738,243,17,1,1,168,-31,521594,0
521639,-283,-2216,229,-570,-3524,-2045,18807,-2689,-968,-1426,-7344,34995,261,35,127,0,0,5851,0,0,1424,738,243,27,1,1,168,-31,521594,0
521649,-463,-1881,-17,-472,-3267,-2059,17387,-3299,-1076,-1504,-8992,34983,347,35,127,0,0,5853,21,0,1424,738,243,37,1,1,168,-31,521625,0
521659,-658,-1506,-121,-393,-3178,-1900,15700,-3873,-1051,-964,-8824,34959,399,35,127,0,0,5871,219,0,1424,738,243,47,1,1,168,-31,521657,0
521669,2453,-2397,2705,915,746,-2460,13971,-3684,-543,-9,-7680,34971,329,35,127,0,0,5816,-736,0,1424,738,243,57,1,1,168,-31,521672,0
521679,-196,-6832,-2275,-79,1625,-6457,12451,-3316,777,-1373,-10256,34984,292,35,127,0,0,5392,-4482,0,1424,738,243,67,1,1,168,-31,521688,0
521689,-432,-613,2013,22,1451,-5878,10795,-3358,192,2750,-536,35008,174,35,127,0,0,4897,-4790,0,1424,738,243,77,1,1,168,-31,521688,0
521699,-338,82,99,-1106,2230,-5105,10776,1408,2613,6618,5256,34993,260,35,127,0,0,4517,-3790,0,1424,738,243,87,1,1,168,-31,521688,0
521709,474,-4258,-621,-2349,561,-4232,11793,2449,5480,1689,7160,34974,328,35,127,0,0,4163,-3581,0,1424,738,243,97,1,1,168,-31,521688,0
521720,-943,-5459,249,-1161,-284,-3231,13195,2815,2000,-83,3432,34976,308,36,127,0,0,3861,-2587,0,1424,738,243,108,1,1,168,-31,521688,0
521730,-1066,-3524,875,-230,231,-3048,13990,1201,-438,-2506,-528,35003,202,36,127,0,0,3639,-2285,0,1424,738,243,118,1,1,168,-31,521688,0
521740,-642,-2291,745,-510,929,-3403,13865,-723,-2809,-1839,-2592,35048,113,36,127,0,0,3411,-2301,0,1424,738,243,128,1,1,168,-31,521704,0
521750,417,-2347,472,-583,2298,-3914,13337,-1338,-2557,-1372,-4224,35084,42,36,127,0,0,3138,-2823,0,1424,738,243,138,1,1,168,-31,521719,0
521760,983,-1965,680,-415,922,-3755,12534,-1944,-1230,-1360,-5400,35050,172,35,127,0,0,2875,-2521,0,1424,738,243,148,1,1,168,-31,521719,0
521770,1725,-1605,340,-642,322,-2958,11547,-2242,-894,-692,-5624,35016,212,35,127,0,0,2651,-2213,0,1424,738,243,158,1,1,168,-31,521766,0
521780,-244,-8845,2465,-292,-1054,-2407,10494,-2350,-475,-471,-5520,35001,223,35,127,0,0,2465,-1752,0,1424,738,243,168,1,1,168,-31,521782,0
521790,545,328,823,-759,-450,-372,9458,-2171,-101,1,-3640,35009,169,36,127,0,0,2481,280,0,1424,738,243,178,1,1,168,-31,521782,0
521800,-821,-1609,87,-2157,-755,-1336,8636,-1658,452,318,-2360,35031,93,35,127,0,0,2429,-620,0,1424,738,243,188,1,1,168,-31,521782,0
521810,70,-2450,-1189,-834,2,-1473,8026,-1215,822,255,-1368,35043,55,36,127,0,0,2404,-230,0,1424,738,243,198,1,1,168,-31,521782,0
521820,528,-1190,-2158,-903,841,-1620,7596,-837,748,127,-968,35052,50,36,127,0,0,2341,-681,0,1424,738,243,208,1,1,168,-31,521797,0
521830,1505,-2341,-1068,17,472,-1445,7301,-574,610,-130,-928,35051,66,36,127,0,0,2286,-521,0,1424,738,243,218,1,1,168,-31,521797,0
521840,1611,-1679,-617,235,177,-929,7082,-445,405,-394,-840,35061,47,35,127,0,0,2256,-313,0,1424,738,243,228,1,1,168,-31,521797,0
521850,1101,-2126,548,242,-70,-515,6911,-356,236,-488,-696,35077,73,35,127,0,0,2234,-219,0,1424,738,243,238,1,1,168,-31,521829,0
521860,913,-2170,817,90,-40,-324,6758,-338,123,-487,-504,35082,92,36,127,0,0,2221,-137,0,1424,738,243,248,1,1,168,-31,521829,0
521870,1092,-2125,390,-91,10,-63,6636,-250,90,-414,-336,35070,96,36,127,0,0,2219,-49,0,1424,738,243,258,1,1,168,-31,521844,0
521880,1186,-1977,119,-115,-42,159,6552,-140,123,-367,-192,35055,73,36,127,0,0,2217,10,0,1424,738,243,268,1,1,168,-31,521844,0
521890,828,-1871,-49,-78,-99,384,6513,-78,167,-354,-96,35062,60,36,127,0,0,2219,38,0,1424,738,243,278,1,1,168,-31,521860,0
521900,584,-1984,-52,-41,-84,467,6513,42,154,-224,-32,35069,44,36,127,0,0,2229,60,0,1424,738,243,288,1,1,168,-31,521860,0
521910,523,-1972,-8,-1,8,449,6523,23,98,30,64,35065,40,35,127,0,0,2239,98,0,1424,738,243,298,1,1,168,-31,521875,0
521921,420,-2085,65,17,57,378,6552,82,35,166,32,35063,41,35,127,0,0,2247,32,0,1424,738,243,309,1,1,168,-31,521891,0
521931,374,-2085,90,48,26,345,6596,81,71,-26,40,35058,51,35,127,0,0,2252,76,0,1424,738,243,319,1,1,168,-31,521891,0
521941,324,-1957,36,89,-39,191,6605,5,-37,76,64,35075,53,36,127,0,0,2258,76,0,1424,738,243,329,1,1,168,-31,521907,0
521951,285,-1950,30,104,-54,69,6620,51,-63,163,56,35075,65,35,127,0,0,2258,10,0,1424,738,243,339,1,1,168,-31,521907,0
521961,411,-2009,231,84,-148,-67,6641,31,24,35,-8,35073,56,36,127,0,0,2256,-21,0,1424,738,243,349,1,1,168,-31,521938,0
521971,474,-2039,389,47,-243,-163,6637,-15,-43,-20,-32,35069,42,36,127,0,0,2252,-65,0,1424,738,243,359,1,1,168,-31,521938,0
521981,318,-2058,420,-96,-334,-323,6633,-15,-45,-230,-96,35068,41,35,127,0,0,2243,-65,0,1424,738,243,369,1,1,168,-31,521938,0
521991,113,-1974,363,-198,-346,-484,6621,-26,-16,-413,-208,35067,26,36,127,0,0,2228,-120,0,1424,738,243,379,1,1,168,-31,521969,0
522001,-13,-1998,369,-297,-447,-840,6585,-101,-62,-518,-336,35069,25,36,127,0,0,2206,-230,0,1424,738,243,389,1,1,168,-31,521969,0
522011,-87,-2143,409,-345,-541,-1143,6522,-145,-96,-641,-408,35067,22,35,127,0,0,2173,-351,0,1424,738,243,399,1,1,168,-31,522016,0
522021,-317,-2223,351,-460,-726,-1590,6422,-245,-112,-668,-568,35063,51,36,127,0,0,2133,-384,0,1424,738,243,409,1,1,168,-31,522016,0
522031,-392,-2140,317,-519,-855,-1955,6303,-269,-114,-722,-712,35055,87,36,127,0,0,2091,-428,0,1424,738,243,419,1,1,168,-31,522016,0
522041,-436,-2159,100,-688,-802,-2552,6163,-327,-76,-626,-824,35052,98,36,127,0,0,2047,-472,0,1424,738,243,429,1,1,168,-31,522016,0
522051,-494,-2138,30,-779,-667,-2983,5999,-393,-81,-718,-1024,35057,108,36,127,0,0,1981,-670,0,1424,738,243,439,1,1,168,-31,522016,0
522061,-300,-2037,-77,-832,-282,-3583,5793,-483,-125,-734,-1344,35049,91,35,127,0,0,1902,-802,0,1424,738,243,449,1,1,168,-31,522016,0
522071,-73,-2053,-88,-966,-93,-3911,5536,-595,-179,-828,-1640,35050,98,36,127,0,0,1817,-889,0,1424,738,243,459,1,4,168,-31,522032,0
522081,-54,-2158,126,-1121,-110,-4236,5227,-722,-196,-807,-2064,35042,102,36,127,0,0,1711,-1054,0,1424,738,243,469,1,4,168,-31,522079,0
522091,305,-2380,242,-1206,-415,-4353,4854,-852,-224,-745,-2240,35052,107,35,127,0,0,1634,-780,0,1424,738,243,479,1,4,168,-31,522079,0
522101,179,-2556,480,-1456,-806,-4504,4464,-859,-157,-595,-2208,35050,117,35,127,0,0,1564,-714,0,1424,738,243,489,1,4,168,-31,522094,0
522111,80,-2610,548,-1543,-882,-4697,4075,-846,-26,-539,-2048,35049,106,35,127,0,0,1507,-571,0,1424,738,243,499,1,4,168,-31,522094,0
522121,220,-2350,362,-1541,-744,-5069,3711,-795,48,-478,-1832,35047,115,36,127,0,0,1458,-505,0,1424,738,243,509,1,4,168,-31,522094,0
522131,532,-1899,108,-1445,-576,-5296,3371,-729,87,-457,-1744,35050,100,35,127,0,0,1401,-604,0,1424,738,243,519,1,4,168,-31,522094,0
522141,1234,-1006,-318,-1301,-554,-5331,3044,-721,73,-560,-1736,35062,95,35,127,0,0,1340,-593,0,1424,738,243,529,1,4,168,-31,522094,0
522151,1733,-710,-597,-1235,-634,-5218,2706,-747,0,-601,-1728,35072,91,35,127,0,0,1274,-626,0,1424,738,243,539,1,4,168,-31,522110,0
522162,1780,-939,-818,-1261,-846,-4722,2322,-784,-42,-652,-1848,35087,110,36,127,0,0,1212,-538,0,1424,738,243,550,1,4,168,-31,522141,0
522172,1564,-1289,-717,-1231,-759,-4479,1964,-775,-41,-474,-1744,35083,108,36,127,0,0,1159,-516,0,1424,738,243,560,1,4,168,-31,522141,0
522182,1056,-1544,-242,-1275,-503,-4375,1628,-724,25,-497,-1632,35067,98,35,127,0,0,1115,-483,0,1424,738,243,570,1,4,168,-31,522141,0
522192,940,-1780,198,-1326,-308,-4491,1309,-709,74,-501,-1608,35057,107,35,127,0,0,1070,-477,0,1424,738,243,580,1,4,168,-31,522157,0
522202,1341,-2240,449,-1350,-164,-4596,1001,-674,54,-562,-1640,35043,127,36,127,0,0,1016,-538,0,1424,738,243,590,1,4,168,-31,522188,0
522212,1569,-2157,502,-1443,-378,-4498,689,-691,18,-546,-1440,35045,123,36,127,0,0,982,-335,0,1424,738,243,600,1,4,168,-31,522188,0
522222,1575,-2169,413,-1637,-768,-4318,409,-561,38,-260,-864,35044,103,36,127,0,0,953,-214,0,1424,738,243,610,1,4,168,-31,522188,0
522232,1460,-2307,246,-1764,-933,-4255,208,-386,224,-278,-448,35047,83,35,127,0,0,956,-21,0,1424,738,243,620,1,4,168,-31,522188,0
522242,1180,-2417,109,-1808,-975,-4391,85,-210,294,-274,-184,35057,78,36,127,0,0,960,43,0,1424,738,243,630,1,4,168,-31,522219,0
522252,988,-2577,107,-1831,-988,-4419,32,-82,281,-202,-64,35072,59,35,127,0,0,971,192,0,1424,738,243,640,1,4,168,-31,522219,0
522262,1070,-2818,53,-1942,-863,-4622,32,10,236,-245,-64,35073,70,35,127,0,0,997,291,0,1424,738,243,650,1,4,168,-31,522219,0
522272,905,-2692,43,-2051,-806,-4662,44,51,118,78,256,35067,73,35,127,0,0,1042,422,0,1424,738,243,660,1,4,168,-31,522235,0
522282,922,-2688,1,-2193,-780,-4834,146,307,184,633,784,35062,95,35,127,0,0,1100,582,0,1424,738,243,670,1,4,168,-31,522297,0
522292,1066,-2825,19,-2178,-733,-4963,349,487,381,526,1232,35063,85,35,127,0,0,1173,763,0,1424,738,243,680,1,4,168,-31,522297,0
522302,1135,-2781,34,-2082,-517,-5044,619,639,314,619,1672,35062,75,36,127,0,0,1250,856,0,1424,738,243,690,1,4,168,-31,522297,0
522312,1215,-2613,90,-2001,-417,-4830,957,786,253,629,2048,35043,75,36,127,0,0,1343,994,0,1424,738,243,700,1,4,168,-31,522297,0
522322,1394,-2115,82,-1995,-379,-4323,1372,974,279,744,2584,35036,92,35,127,0,0,1472,1246,0,1424,738,243,710,1,4,168,-31,522297,0
522332,1472,-1786,28,-2000,-358,-3817,1882,1195,334,798,3136,35036,125,35,127,0,0,1629,1604,0,1424,738,243,720,1,4,168,-31,522297,0
522342,1401,-1329,7,-1988,-283,-2932,2496,1431,388,882,3760,35030,142,36,127,0,0,1820,1950,0,1424,738,243,730,1,4,168,-31,522313,0
522352,1449,-1068,-202,-2028,-205,-2345,3227,1673,428,922,4384,35041,161,35,127,0,0,2042,2296,0,1424,738,243,740,1,4,168,-31,522313,0
522362,1339,-826,-364,-1953,-32,-1392,4050,1871,399,955,5040,35051,178,36,127,0,0,2296,2526,0,1424,738,243,750,1,4,168,-31,522328,0
522372,1279,-741,-587,-1901,168,-684,4970,2091,357,876,5616,35057,210,36,127,0,0,2569,2713,0,1424,738,243,760,1,4,168,-31,522407,0
522382,1082,-646,-738,-1868,735,352,5906,2380,431,940,6256,35053,207,35,127,0,0,2869,3037,0,1424,738,243,770,1,4,168,-31,522407,0
522392,966,-647,-712,-1809,1311,1040,7106,2750,572,934,6984,35034,226,35,127,0,0,3204,3334,0,1424,738,243,780,1,4,168,-31,522407,0
522402,822,-556,-565,-1560,2731,2203,8434,3011,565,1227,7872,35014,238,35,127,0,0,3543,3372,0,1424,738,243,790,1,4,168,-31,522407,0
522412,783,-350,-407,-1256,4047,2952,9893,3291,497,898,8184,34983,293,36,127,0,0,3843,2982,0,1424,738,243,800,1,4,168,-31,522422,0
522422,803,1410,701,-360,5343,3144,11420,3338,373,449,7496,34978,295,36,127,0,0,4012,1483,0,1424,738,243,810,1,4,168,-31,522422,0
522432,1803,1508,-691,-457,5681,2976,12819,2947,-176,-180,5320,34991,234,35,127,0,0,4030,-43,0,1424,738,243,820,0,4,168,-31,522422,0
522442,1744,1484,-402,-1696,4145,3739,13955,2221,-816,-1182,2240,35021,122,35,127,0,0,3932,-994,0,1424,738,243,830,0,4,168,-31,522422,0
522452,1805,1093,-23,-1401,3075,4990,14594,1055,-1540,-1327,-160,35055,21,35,127,0,0,3819,-1054,0,1424,738,243,840,0,4,168,-31,522422,0
522463,1410,355,-311,-1007,893,6670,14557,-448,-2271,-978,-1056,35070,6,36,127,0,0,3746,-615,0,1424,738,243,851,0,4,168,-31,522438,0
522473,828,-335,39,-477,-1147,8008,14298,-595,-1509,-274,-928,35077,22,36,127,0,0,3730,-98,0,1424,738,243,861,0,4,168,-31,522438,0
522483,828,-394,253,-41,-1900,8433,14048,-520,-204,-89,-392,35078,57,35,127,0,0,3730,-10,0,1424,738,243,871,0,4,168,-31,522438,0
522493,808,-575,64,581,-2659,9136,13861,-348,159,246,0,35087,73,36,127,0,0,3735,0,0,1424,738,243,881,0,4,168,-31,522469,0
522503,659,-606,-108,947,-2952,9487,13832,57,461,406,88,35078,67,36,127,0,0,3737,-10,0,1424,738,243,891,0,4,168,-31,522485,0
522513,528,-599,-307,1519,-3241,9962,13866,54,420,224,88,35064,42,36,127,0,0,3741,10,0,1424,738,243,901,0,4,168,-31,522485,0
522523,522,-601,-353,1932,-3339,10208,13887,47,42,171,72,35046,27,35,127,0,0,3746,43,0,1424,738,243,911,0,4,168,-31,522485,0
522533,602,-672,-391,2562,-3270,10535,13896,19,-40,255,64,35044,43,35,127,0,0,3748,21,0,1424,738,243,921,0,4,168,-31,522485,0
522543,582,-709,-395,2934,-3093,10688,13899,7,-34,324,80,35051,52,35,127,0,0,3750,21,0,1424,738,243,931,0,4,168,-31,522516,0
522553,523,-830,-344,3395,-2625,10756,13903,15,-6,351,72,35050,43,35,127,0,0,3752,21,0,1424,738,243,941,0,4,168,-31,522516,0
522563,494,-940,-273,3533,-2164,10672,13904,9,0,381,96,35047,34,36,127,0,0,3752,21,0,1424,738,243,951,0,4,168,-31,522516,0
522573,454,-1316,-118,3550,-1407,10577,13911,25,12,461,152,35050,38,35,127,0,0,3770,186,0,1424,738,243,961,0,4,168,-31,522547,0
522583,445,-1631,-106,3461,-812,10438,13951,144,88,742,520,35047,54,35,127,0,0,3814,461,0,1424,738,243,971,0,4,168,-31,522547,0
522593,468,-2154,-249,3271,264,10129,14080,330,259,610,952,35045,70,35,127,0,0,3889,780,0,1424,738,243,981,0,4,168,-31,522578,0
522603,446,-2463,-412,3229,1033,9754,14295,536,336,736,1552,35052,80,35,127,0,0,3996,1065,0,1424,738,243,991,0,4,168,-31,522594,0
522613,566,-2782,-689,3270,2292,9066,14618,793,376,831,2168,35044,97,35,127,0,0,4126,1329,0,1424,738,243,1001,0,4,168,-31,522594,0
522623,515,-2785,-698,3256,3071,8595,15055,1030,432,831,2728,35043,111,35,127,0,0,4273,1516,0,1424,738,243,1011,0,4,168,-31,522594,0
522633,843,-2688,-484,3186,4282,7632,15604,1285,427,900,3240,35034,128,35,127,0,0,4425,1461,0,1424,738,243,1021,0,4,168,-31,522594,0
522643,1092,-2603,-307,3008,4577,7092,16240,1431,376,699,3488,35032,132,36,127,0,0,4568,1395,0,1424,738,243,1031,0,4,168,-31,522594,0
522653,1335,-2600,78,2608,4648,6286,16909,1494,209,617,3656,35033,132,35,127,0,0,4704,1329,0,1424,738,243,1041,0,4,168,-31,522625,0
522664,1444,-2660,222,2239,4403,5716,17669,1533,95,545,3688,35034,142,35,127,0,0,4849,1274,0,1424,738,243,1052,0,4,168,-31,522625,0
522674,1498,-2825,366,1608,3811,4918,18373,1542,58,481,3560,35033,152,35,127,0,0,4960,1120,0,1424,738,243,1062,0,4,168,-31,522641,0
522684,1553,-2942,363,1221,3288,4397,19055,1477,-183,410,3384,35045,138,35,127,0,0,5069,988,0,1424,738,243,1072,0,4,168,-31,522641,0
522694,1536,-3062,323,734,2466,3656,19693,1367,-46,376,3128,35048,124,36,127,0,0,5162,873,0,1424,738,243,1082,0,4,168,-31,522672,0
522704,1502,-2957,244,479,1951,3179,20273,1228,-40,347,2816,35058,97,36,127,0,0,5240,736,0,1424,738,243,1092,0,4,168,-31,522672,0
522714,1354,-2585,139,143,1218,2503,20798,1112,-221,297,2440,35052,97,36,127,0,0,5300,538,0,1424,738,243,1102,0,4,168,-31,522672,0
522724,1258,-2370,92,63,762,2036,21260,977,-221,203,2000,35046,96,36,127,0,0,5347,450,0,1424,738,243,1112,0,4,168,-31,522703,0
522734,1129,-2034,-18,21,58,1453,21658,834,-229,179,1504,35044,88,36,127,0,0,5362,192,0,1424,738,243,1122,0,4,168,-31,522750,0
