state_time,accelx,accely,accelz,gyrox,gyroy,gyroz,mot_ang,mot_vel,mot_acc,mot_cur,mot_volt,batt_volt,batt_curr,temperature,status_mn,status_ex,status_re,ank_ang,ank_vel,ank_torque,peak_ank_torque,step_energy,step_count,step_time,gait_state,movement,speed,incline,sys_time,eventFlags
419573,370,-2009,91,-37,-7,-8,5097,12,-27,396,152,35316,-90,35,127,0,0,1935,10,0,21823,8437,191,33557,-4,0,0,0,419579,0
419583,382,-2015,93,-43,-10,-7,5096,-11,6,429,144,35322,-87,35,127,0,0,1935,21,0,21823,8437,191,33567,-4,0,0,0,419579,0
419593,383,-2021,80,-42,-10,-14,5099,0,-3,426,168,35316,-87,35,127,0,0,1937,32,0,21823,8437,191,33577,-4,0,0,0,419579,0
419603,381,-2019,75,-46,-9,-22,5101,-1,2,467,120,35324,-88,35,127,0,0,1937,0,0,21823,8437,191,33587,-4,0,0,0,419579,0
419613,379,-2022,69,-53,-8,-26,5103,7,1,486,144,35330,-78,35,127,0,0,1935,-21,0,21823,8437,191,33597,-4,0,0,0,419579,0
419623,377,-2015,71,-49,-9,-25,5101,-1,-11,448,120,35335,-69,35,127,0,0,1935,-10,0,21823,8437,191,33607,-4,0,0,0,419626,0
419633,380,-2012,65,-42,-10,-28,5102,0,1,440,152,35339,-91,35,127,0,0,1937,21,0,21823,8437,191,33617,-4,0,0,0,419626,0
419643,386,-2022,70,-45,-1,-29,5103,-4,2,462,144,35325,-94,35,127,0,0,1937,21,0,21823,8437,191,33627,-4,0,0,0,419626,0
419653,386,-2020,76,-41,-3,-30,5103,-2,-3,486,176,35325,-120,35,127,0,0,1937,0,0,21823,8437,191,33637,-4,0,0,0,419626,0
419663,399,-2022,71,-41,-1,-30,5105,1,-1,510,136,35316,-107,35,127,0,0,1937,-32,0,21823,8437,191,33647,-4,0,0,0,419641,0
419673,384,-2020,71,-41,-6,-21,5105,4,-1,527,136,35316,-93,35,127,0,0,1940,0,0,21823,8437,191,33657,-4,0,0,0,419641,0
419683,386,-2019,80,-36,-8,-15,5106,0,-3,503,160,35314,-82,35,127,0,0,1940,0,0,21823,8437,191,33667,-4,0,0,0,419673,0
419693,392,-2011,75,-38,-6,-14,5106,-3,-6,492,160,35316,-84,35,127,0,0,1942,21,0,21823,8437,191,33677,-4,0,0,0,419688,0
419703,374,-2012,68,-40,-6,-11,5107,3,2,536,152,35316,-94,35,127,0,0,1940,0,0,21823,8437,191,33687,-4,0,0,0,419688,0
419713,382,-2009,80,-32,-6,-18,5109,0,1,557,136,35322,-92,35,127,0,0,1942,10,0,21823,8437,191,33697,-4,0,0,0,419688,0
419723,380,-2016,81,-37,-12,-11,5110,7,4,559,208,35312,-89,35,127,0,0,1940,-10,0,21823,8437,191,33707,-4,0,0,0,419688,0
419733,375,-2006,79,-35,-3,-6,5115,0,0,529,240,35319,-84,35,127,0,0,1946,43,0,21823,8437,191,33717,-4,0,0,0,419719,0
419743,382,-2021,71,-39,0,-10,5121,22,8,595,160,35326,-102,35,127,0,0,1946,-10,0,21823,8437,191,33727,-4,0,0,0,419719,0
419753,374,-2015,77,-37,-3,-14,5135,27,20,494,168,35333,-104,35,127,0,0,1944,0,0,21823,8437,191,33737,-4,0,0,0,419813,0
419763,377,-2026,77,-40,-1,-17,5157,55,24,359,88,35321,-98,35,127,0,0,1948,32,0,21823,8437,191,33747,-4,0,0,0,419813,0
419773,386,-2016,82,-40,-4,-19,5166,-1,-10,392,96,35313,-73,35,127,0,0,1946,-10,0,21823,8437,191,33757,-4,0,0,0,419813,0
419783,371,-2023,81,-42,-4,-20,5165,12,-52,395,96,35317,-81,35,127,0,0,1948,21,0,21823,8437,191,33767,-4,0,0,0,419813,0
419793,391,-2022,80,-44,-15,-18,5164,-2,-10,415,128,35320,-83,35,127,0,0,1946,-10,0,21823,8437,191,33777,-4,0,0,0,419813,0
419803,382,-2019,76,-49,-9,-23,5167,10,-1,410,152,35320,-82,35,127,0,0,1948,-21,0,21823,8437,191,33787,-4,0,0,0,419829,0
419813,378,-2015,75,-44,-12,-20,5168,5,3,419,88,35318,-84,35,127,0,0,1946,-21,0,21823,8437,191,33797,-4,0,0,0,419829,0
419823,381,-2024,65,-36,-2,-23,5169,11,1,410,96,35319,-105,35,127,0,0,1951,21,0,21823,8437,191,33807,-4,0,0,0,419829,0
419833,390,-2027,73,-43,-13,-16,5169,4,0,470,168,35325,-108,35,127,0,0,1948,0,0,21823,8437,191,33817,-4,0,0,0,419829,0
419843,391,-2015,83,-34,-5,-19,5173,10,3,448,128,35325,-92,35,127,0,0,1953,0,0,21823,8437,191,33827,-4,0,0,0,419829,0
419853,377,-2019,75,-50,-11,-18,5173,-1,-5,458,104,35321,-93,35,127,0,0,1951,10,0,21823,8437,191,33837,-4,0,0,0,419829,0
419863,381,-2017,74,-46,-13,-23,5173,1,3,466,160,35331,-91,35,127,0,0,1953,10,0,21823,8437,191,33847,-4,0,0,0,419829,0
419873,376,-2021,80,-44,-10,-24,5177,5,5,478,176,35348,-80,35,127,0,0,1953,0,0,21823,8437,191,33857,-4,0,0,0,419860,0
419883,382,-2024,82,-47,-13,-19,5179,0,-2,453,168,35354,-68,35,127,0,0,1955,43,0,21823,8437,191,33867,-4,0,0,0,419860,0
419893,373,-2024,78,-47,-8,-16,5184,17,3,467,152,35334,-62,35,127,0,0,1955,-10,0,21823,8437,191,33877,-4,0,0,0,419860,0
419903,376,-2017,66,-42,-4,-20,5191,17,13,468,128,35319,-74,35,127,0,0,1955,-32,0,21823,8437,191,33887,-4,0,0,0,419891,0
419913,375,-2022,62,-34,-7,-16,5212,49,31,347,88,35334,-83,35,127,0,0,1955,-10,0,21823,8437,191,33897,-4,0,0,0,419907,0
419923,386,-2022,76,-33,-6,-14,5226,18,17,294,88,35346,-89,35,127,0,0,1957,0,0,21823,8437,191,33907,-4,0,0,0,419907,0
419933,357,-2021,70,-28,-5,-17,5226,1,-39,349,56,35342,-78,35,127,0,0,1957,0,0,21823,8437,191,33917,-4,0,0,0,419907,0
419943,366,-2017,63,-35,2,-17,5227,2,-23,362,104,35325,-71,35,127,0,0,1957,0,0,21823,8437,191,33927,-4,0,0,0,419938,0
419953,364,-2016,72,-29,-5,-25,5229,10,8,370,144,35336,-79,35,127,0,0,1964,43,0,21823,8437,191,33937,-4,0,0,0,419938,0
419963,367,-2020,75,-29,-1,-26,5236,26,12,443,112,35341,-68,35,127,0,0,1957,-54,0,21823,8437,191,33947,-4,0,0,0,419938,0
419973,353,-2019,77,-29,5,-28,5236,5,-1,424,128,35346,-61,35,127,0,0,1964,-21,0,21823,8437,191,33957,-4,0,0,0,419938,0
419983,367,-2016,94,-25,2,-25,5237,2,-13,424,96,35335,-46,35,127,0,0,1964,10,0,21823,8437,191,33967,-4,0,0,0,419969,0
419993,387,-2026,87,-28,-7,-23,5238,8,-3,452,128,35335,-69,35,127,0,0,1964,0,0,21823,8437,191,33977,-4,0,0,0,419969,0
420003,378,-2023,87,-31,-6,-18,5241,4,6,471,144,35342,-72,35,127,0,0,1966,10,0,21823,8437,191,33987,-4,0,0,0,420001,0
420013,382,-2017,77,-29,-8,-16,5249,19,6,454,128,35335,-45,35,127,0,0,1966,-10,0,21823,8437,191,33997,-4,0,0,0,420001,0
420023,378,-2021,92,-31,-4,-10,5255,10,12,368,88,35331,-34,35,127,0,0,1966,10,0,21823,8437,191,34007,-4,0,0,0,420001,0
420033,395,-2027,81,-35,-2,-11,5268,29,5,318,56,35328,-21,35,127,0,0,1966,21,0,21823,8437,191,34017,-4,0,0,0,420001,0
420043,376,-2014,79,-35,-5,-8,5280,23,5,268,32,35338,-44,35,127,0,0,1968,10,0,21823,8437,191,34027,-4,0,0,0,420032,0
420053,351,-2032,74,-40,-12,-7,5281,13,-27,337,88,35348,-38,35,127,0,0,1966,-10,0,21823,8437,191,34037,-4,0,0,0,420032,0
420063,366,-2017,87,-39,1,-15,5283,-3,-14,299,72,35343,-30,35,127,0,0,1968,-10,0,21823,8437,191,34047,-4,0,0,0,420032,0
420073,361,-2024,90,-39,1,-15,5284,0,-4,294,72,35333,-25,35,127,0,0,1968,10,0,21823,8437,191,34057,-4,0,0,0,420048,0
420083,377,-2023,90,-44,-3,-18,5283,-4,3,315,72,35332,-41,35,127,0,0,1968,0,0,21823,8437,191,34067,-4,0,0,0,420063,0
420093,363,-2022,82,-40,-4,-15,5284,4,3,339,96,35332,-41,35,127,0,0,1970,10,0,21823,8437,191,34077,-4,0,0,0,420063,0
420103,370,-2023,79,-45,-6,-17,5285,-6,1,343,136,35337,-26,35,127,0,0,1973,32,0,21823,8437,191,34087,-4,0,0,0,420094,0
420113,379,-2023,72,-47,-4,-12,5287,6,0,372,120,35330,-15,35,127,0,0,1973,10,0,21823,8437,191,34097,-4,0,0,0,420110,0
420123,378,-2023,70,-42,-5,-15,5286,-4,1,398,96,35336,-35,35,127,0,0,1973,21,0,21823,8437,191,34107,-4,0,0,0,420110,0
420133,367,-2023,77,-39,-4,-14,5289,-1,-1,394,144,35341,-38,35,127,0,0,1973,0,0,21823,8437,191,34117,-4,0,0,0,420110,0
420143,376,-2029,72,-42,-1,-17,5290,2,0,453,144,35339,-33,35,127,0,0,1975,-10,0,21823,8437,191,34127,-4,0,0,0,420110,0
420153,360,-2021,89,-33,0,-22,5292,-5,-4,420,88,35331,-19,35,127,0,0,1975,0,0,21823,8437,191,34137,-4,0,0,0,420126,0
420163,353,-2023,83,-41,1,-23,5294,11,1,453,120,35332,-19,35,127,0,0,1975,-21,0,21823,8437,191,34147,-4,0,0,0,420126,0
420173,349,-2026,79,-46,-2,-28,5293,7,-2,457,112,35341,-9,35,127,0,0,1975,-10,0,21823,8437,191,34157,-4,0,0,0,420157,0
420183,352,-2011,94,-39,-1,-30,5292,-4,-7,410,152,35334,6,35,127,0,0,1975,10,0,21823,8437,191,34167,-4,0,0,0,420157,0
420193,362,-2020,94,-43,-8,-33,5295,-1,4,453,136,35326,-5,35,127,0,0,1975,-32,0,21823,8437,191,34177,-4,0,0,0,420172,0
420203,359,-2020,81,-49,-2,-37,5295,2,-2,451,136,35329,-11,35,127,0,0,1977,0,0,21823,8437,191,34187,-4,0,0,0,420172,0
420213,375,-2020,76,-47,-9,-41,5295,-8,-6,459,136,35337,-41,35,127,0,0,1977,21,0,21823,8437,191,34197,-4,0,0,0,420188,0
420223,372,-2029,75,-36,0,-39,5296,10,4,442,144,35352,-39,35,127,0,0,1975,-21,0,21823,8437,191,34207,-4,0,0,0,420219,0
420233,363,-2027,73,-40,-7,-31,5295,7,-1,443,136,35345,-34,35,127,0,0,1977,-10,0,21823,8437,191,34217,-4,0,0,0,420235,0
420243,360,-2025,83,-35,-4,-28,5296,3,-1,461,104,35343,-41,35,127,0,0,1975,-32,0,21823,8437,191,34227,-4,0,0,0,420235,0
420253,354,-2021,75,-30,4,-30,5296,14,-1,455,136,35337,-35,35,127,0,0,1977,0,0,21823,8437,191,34237,-4,0,0,0,420235,0
420263,361,-2023,95,-31,-5,-27,5298,5,4,493,136,35335,-35,35,127,0,0,1977,-21,0,21823,8437,191,34247,-4,0,0,0,420235,0
420273,353,-2026,90,-35,-10,-30,5297,-1,-3,464,136,35334,-24,35,127,0,0,1979,32,0,21823,8437,191,34257,-4,0,0,0,420266,0
420283,350,-2023,83,-37,-5,-37,5299,-1,5,507,160,35334,-10,35,127,0,0,1979,10,0,21823,8437,191,34267,-4,0,0,0,420266,0
420293,353,-2015,84,-37,-4,-45,5301,9,2,555,136,35336,-23,35,127,0,0,1979,-10,0,21823,8437,191,34277,-4,0,0,0,420266,0
420303,355,-2025,90,-39,-10,-50,5301,0,-2,527,144,35333,-31,35,127,0,0,1979,-10,0,21823,8437,191,34287,-4,0,0,0,420282,0
420313,355,-2018,89,-42,-8,-52,5302,0,-6,488,144,35324,-28,35,127,0,0,1979,10,0,21823,8437,191,34297,-4,0,0,0,420297,0
420323,352,-2026,89,-38,-5,-53,5301,-3,2,514,128,35324,-18,35,127,0,0,1979,-10,0,21823,8437,191,34307,-4,0,0,0,420313,0
420333,353,-2029,82,-47,-11,-51,5302,2,4,527,112,35325,-15,35,127,0,0,1979,-21,0,21823,8437,191,34317,-4,0,0,0,420313,0
420343,364,-2022,78,-40,-10,-53,5302,-3,-3,518,144,35331,-30,35,127,0,0,1979,0,0,21823,8437,191,34327,-4,0,0,0,420313,0
420353,362,-2026,78,-37,-8,-50,5302,-1,2,511,136,35328,-18,35,127,0,0,1977,-21,0,21823,8437,191,34337,-4,0,0,0,420376,0
420363,377,-2021,83,-44,-13,-55,5301,-6,1,473,112,35321,-19,35,127,0,0,1977,0,0,21823,8437,191,34347,-4,0,0,0,420376,0
420373,361,-2022,97,-50,-11,-54,5305,5,0,495,128,35319,-16,35,127,0,0,1977,-32,0,21823,8437,191,34357,-4,0,0,0,420376,0
420383,349,-2021,105,-48,-15,-57,5304,9,2,489,144,35330,-27,35,127,0,0,1979,0,0,21823,8437,191,34367,-4,0,0,0,420376,0
420393,358,-2027,95,-50,-18,-56,5303,-4,7,476,144,35346,-27,35,127,0,0,1977,-43,0,21823,8437,191,34377,-4,0,0,0,420391,0
420403,358,-2034,90,-59,-18,-56,5302,4,-1,456,112,35345,-18,35,127,0,0,1977,-10,0,21823,8437,191,34387,-4,0,0,0,420391,0
420413,362,-2015,82,-50,-16,-61,5302,3,3,455,144,35335,-21,35,127,0,0,1979,21,0,21823,8437,191,34397,-4,0,0,0,420391,0
420423,373,-2015,81,-49,-14,-57,5303,-11,2,442,152,35335,-17,35,127,0,0,1977,0,0,21823,8437,191,34407,-4,0,0,0,420391,0
420433,356,-2019,75,-52,-10,-51,5304,8,-1,442,120,35343,-6,35,127,0,0,1977,-21,0,21823,8437,191,34417,-4,0,0,0,420422,0
420443,353,-2021,77,-48,-5,-56,5301,2,1,451,112,35344,-12,35,127,0,0,1977,0,0,21823,8437,191,34427,-4,0,0,0,420422,0
420453,367,-2017,85,-40,-10,-58,5303,0,0,470,112,35331,-5,35,127,0,0,1979,0,0,21823,8437,191,34437,-4,0,0,0,420422,0
420463,364,-2025,93,-43,-10,-54,5304,8,2,492,104,35322,-40,35,127,0,0,1979,-10,0,21823,8437,191,34447,-4,0,0,0,420438,0
420473,364,-2035,81,-49,-11,-49,5303,5,-3,461,152,35324,-13,35,127,0,0,1979,0,0,21823,8437,191,34457,-4,0,0,0,420454,0
420483,355,-2020,90,-49,-18,-52,5304,7,-2,481,112,35328,-15,35,127,0,0,1977,-32,0,21823,8437,191,34467,-4,0,0,0,420454,0
420493,355,-2017,81,-48,-17,-55,5303,1,-4,443,112,35324,-17,35,127,0,0,1977,-10,0,21823,8437,191,34477,-4,0,0,0,420469,0
420503,348,-2010,96,-51,-21,-58,5302,-13,-1,439,112,35318,-27,35,127,0,0,1977,0,0,21823,8437,191,34487,-4,0,0,0,420532,0
420513,368,-2022,88,-46,-9,-59,5301,-10,-1,414,120,35327,-45,35,127,0,0,1977,0,0,21823,8437,191,34497,-4,0,0,0,420532,0
420523,364,-2022,73,-42,-3,-54,5304,10,7,445,120,35330,-38,35,127,0,0,1979,0,0,21823,8437,191,34507,-4,0,0,0,420532,0
420533,381,-2024,68,-50,-13,-55,5302,-4,0,446,152,35323,-37,35,127,0,0,1977,0,0,21823,8437,191,34517,-4,0,0,0,420547,0
420543,396,-2022,78,-46,-9,-52,5301,-7,-6,406,120,35320,-33,35,127,0,0,1977,0,0,21823,8437,191,34527,-4,0,0,0,420547,0
420553,378,-2006,77,-43,-10,-52,5305,12,8,442,104,35323,-24,35,127,0,0,1977,-10,0,21823,8437,191,34537,-4,0,0,0,420547,0
420563,363,-2025,79,-38,-9,-44,5301,-6,-1,428,120,35329,-36,35,127,0,0,1977,0,0,21823,8437,191,34547,-4,0,0,0,420547,0
420573,352,-2025,88,-46,-15,-48,5302,-9,-4,407,120,35324,-35,35,127,0,0,1977,0,0,21823,8437,191,34557,-4,0,0,0,420547,0
420583,356,-2024,81,-42,-8,-53,5304,10,4,421,88,35322,-42,35,127,0,0,1977,-10,0,21823,8437,191,34567,-4,0,0,0,420547,0
420593,364,-2034,80,-47,-8,-57,5303,10,6,420,128,35331,-44,35,127,0,0,1975,-10,0,21823,8437,191,34577,-4,0,0,0,420594,0
420603,368,-2019,85,-50,-5,-60,5303,1,-3,427,88,35338,-22,35,127,0,0,1977,0,0,21823,8437,191,34587,-4,0,0,0,420594,0
420613,380,-2019,80,-46,-10,-56,5302,2,7,428,88,35334,-21,35,127,0,0,1977,0,0,21823,8437,191,34597,-4,0,0,0,420594,0
420623,370,-2022,86,-46,-9,-53,5303,11,2,441,120,35320,-3,35,127,0,0,1977,0,0,21823,8437,191,34607,-4,0,0,0,420594,0
420633,364,-2020,70,-54,-5,-44,5302,-3,-1,410,104,35315,-29,35,127,0,0,1977,0,0,21823,8437,191,34617,-4,0,0,0,420610,0
420643,370,-2023,68,-42,-2,-42,5303,5,1,423,120,35323,-47,35,127,0,0,1975,-32,0,21823,8437,191,34627,-4,0,0,0,420641,0
420653,358,-2025,76,-37,-3,-37,5303,9,-3,424,120,35335,-43,35,127,0,0,1975,-21,0,21823,8437,191,34637,-4,0,0,0,420641,0
420663,365,-2017,81,-38,-10,-41,5303,0,-5,414,120,35335,-50,35,127,0,0,1977,0,0,21823,8437,191,34647,-4,0,0,0,420641,0
420673,376,-2016,85,-37,-6,-41,5302,-2,0,418,88,35330,-33,35,127,0,0,1979,43,0,21823,8437,191,34657,-4,0,0,0,420641,0
420683,354,-2028,83,-34,-3,-36,5303,0,4,438,120,35329,-27,35,127,0,0,1977,-10,0,21823,8437,191,34667,-4,0,0,0,420672,0
420693,357,-2036,84,-40,-2,-42,5303,0,-3,436,88,35331,-21,35,127,0,0,1977,0,0,21823,8437,191,34677,-4,0,0,0,420672,0
420703,350,-2027,94,-37,-6,-41,5302,0,1,425,120,35325,-14,35,127,0,0,1977,0,0,21823,8437,191,34687,-4,0,0,0,420672,0
420713,355,-2019,91,-36,-9,-55,5301,-8,-3,414,96,35319,-12,35,127,0,0,1975,-32,0,21823,8437,191,34697,-4,0,0,0,420688,0
420723,346,-2018,89,-39,-8,-57,5304,12,1,398,96,35324,-46,35,127,0,0,1977,-10,0,21823,8437,191,34707,-4,0,0,0,420704,0
420733,370,-2031,84,-49,-6,-59,5304,12,-2,414,88,35334,-49,35,127,0,0,1975,-10,0,21823,8437,191,34717,-4,0,0,0,420704,0
420743,358,-2021,92,-46,-11,-59,5301,-3,1,414,96,35328,-39,35,127,0,0,1975,-21,0,21823,8437,191,34727,-4,0,0,0,420719,0
420753,369,-2019,80,-47,-10,-60,5301,-4,-1,401,136,35329,-27,35,127,0,0,1977,10,0,21823,8437,191,34737,-4,0,0,0,420735,0
420763,386,-2015,79,-46,-6,-53,5302,-7,-3,411,88,35340,-29,35,127,0,0,1977,21,0,21823,8437,191,34747,-4,0,0,0,420735,0
420773,393,-2018,65,-44,0,-47,5303,8,5,429,88,35346,-21,35,127,0,0,1975,-32,0,21823,8437,191,34757,-4,0,0,0,420766,0
420783,370,-2028,66,-35,-6,-45,5301,0,-2,400,136,35337,-11,35,127,0,0,1977,21,0,21823,8437,191,34767,-4,0,0,0,420782,0
420793,376,-2018,82,-37,-7,-33,5301,-6,1,369,144,35319,-6,35,127,0,0,1977,21,0,21823,8437,191,34777,-4,0,0,0,420782,0
420803,387,-2021,78,-37,0,-37,5304,9,5,424,120,35317,-22,35,127,0,0,1977,0,0,21823,8437,191,34787,-4,0,0,0,420782,0
420813,353,-2031,81,-31,-2,-34,5303,4,1,415,96,35325,-35,35,127,0,0,1977,10,0,21823,8437,191,34797,-4,0,0,0,420782,0
420823,363,-2030,82,-32,-6,-39,5302,-2,-5,405,88,35320,-16,35,127,0,0,1977,21,0,21823,8437,191,34807,-4,0,0,0,420813,0
420833,366,-2018,95,-42,-7,-45,5303,4,3,427,120,35315,-11,35,127,0,0,1975,-32,0,21823,8437,191,34817,-4,0,0,0,420813,0
420843,354,-2028,93,-40,-7,-51,5302,3,-6,396,104,35314,-8,35,127,0,0,1977,0,0,21823,8437,191,34827,-4,0,0,0,420813,0
420853,359,-2025,89,-44,-4,-51,5303,6,3,414,128,35317,-18,35,127,0,0,1975,-10,0,21823,8437,191,34837,-4,0,0,0,420829,0
420863,377,-2022,91,-50,-10,-55,5303,3,0,407,120,35333,-27,35,127,0,0,1977,21,0,21823,8437,191,34847,-4,0,0,0,420829,0
420873,365,-2017,90,-48,-11,-57,5302,-5,3,412,104,35324,-26,35,127,0,0,1977,10,0,21823,8437,191,34857,-4,0,0,0,420844,0
420883,365,-2024,76,-43,-9,-52,5304,1,-1,410,96,35324,-40,35,127,0,0,1977,21,0,21823,8437,191,34867,-4,0,0,0,420844,0
420893,366,-2029,76,-47,-10,-50,5303,13,-4,433,88,35322,-28,35,127,0,0,1977,-10,0,21823,8437,191,34877,-4,0,0,0,420875,0
420903,345,-2027,79,-47,-12,-52,5302,-4,-5,410,128,35328,-25,35,127,0,0,1977,10,0,21823,8437,191,34887,-4,0,0,0,420875,0
420913,363,-2024,90,-46,-11,-49,5301,-9,3,408,64,35328,-24,35,127,0,0,1977,21,0,21823,8437,191,34897,-4,0,0,0,420922,0
420923,348,-2033,83,-48,-9,-46,5303,0,8,422,120,35327,-19,35,127,0,0,1977,21,0,21823,8437,191,34907,-4,0,0,0,420922,0
420933,356,-2023,94,-47,-9,-48,5302,-2,2,398,104,35329,-30,35,127,0,0,1977,0,0,21823,8437,191,34917,-4,0,0,0,420922,0
420943,360,-2030,91,-49,-11,-59,5303,2,0,403,128,35328,-30,35,127,0,0,1975,10,0,21823,8437,191,34927,-4,0,0,0,420938,0
420953,341,-2027,99,-53,-17,-64,5302,2,3,405,104,35325,-33,35,127,0,0,1977,10,0,21823,8437,191,34937,-4,0,0,0,420938,0
420963,359,-2017,92,-56,-19,-67,5303,-1,3,420,88,35329,-26,35,127,0,0,1975,-32,0,21823,8437,191,34947,-4,0,0,0,420938,0
420973,361,-2030,83,-55,-18,-68,5303,6,5,400,96,35336,-34,35,127,0,0,1977,10,0,21823,8437,191,34957,-4,0,0,0,420985,0
420983,369,-2027,85,-61,-19,-65,5303,0,5,430,120,35344,-37,35,127,0,0,1975,0,0,21823,8437,191,34967,-4,0,0,0,420985,0
420993,369,-2019,78,-63,-13,-65,5303,3,-2,395,104,35337,-27,35,127,0,0,1975,0,0,21823,8437,191,34977,-4,0,0,0,420985,0
421003,380,-2021,74,-58,-12,-62,5302,3,-2,412,88,35328,-22,35,127,0,0,1975,-21,0,21823,8437,191,34987,-4,0,0,0,420985,0
421013,380,-2022,66,-47,-14,-57,5301,1,-5,355,104,35324,-29,35,127,0,0,1975,21,0,21823,8437,191,34997,-4,0,0,0,421000,0
421023,388,-2017,69,-48,-13,-52,5301,-3,4,371,104,35330,-36,35,127,0,0,1975,21,0,21823,8437,191,35007,-4,0,0,0,421000,0
421033,368,-2020,88,-50,-10,-52,5301,0,11,389,96,35333,-4,35,127,0,0,1975,0,0,21823,8437,191,35017,-4,0,0,0,421000,0
421043,361,-2029,85,-42,-7,-55,5301,-1,-6,396,128,35326,14,35,127,0,0,1975,0,0,21823,8437,191,35027,-4,0,0,0,421032,0
421053,358,-2017,100,-48,-9,-53,5303,7,1,401,88,35324,8,35,127,0,0,1975,-21,0,21823,8437,191,35037,-4,0,0,0,421032,0
421063,343,-2017,100,-57,-17,-64,5302,14,1,387,128,35328,-9,35,127,0,0,1975,-21,0,21823,8437,191,35047,-4,0,0,0,421032,0
421073,355,-2020,95,-54,-11,-64,5302,-5,-3,377,72,35334,-20,35,127,0,0,1975,-10,0,21823,8437,191,35057,-4,0,0,0,421047,0
421083,354,-2018,94,-60,-8,-60,5302,15,2,375,64,35345,-40,35,127,0,0,1975,0,0,21823,8437,191,35067,-4,0,0,0,421063,0
421093,379,-2024,82,-59,-14,-61,5303,8,2,394,104,35334,-29,35,127,0,0,1975,0,0,21823,8437,191,35077,-4,0,0,0,421063,0
421103,376,-2015,73,-58,-17,-57,5302,2,0,369,72,35338,-53,35,127,0,0,1975,21,0,21823,8437,191,35087,-4,0,0,0,421079,0
421113,390,-2013,73,-52,-11,-49,5302,3,1,367,104,35338,-42,35,127,0,0,1973,0,0,21823,8437,191,35097,-4,0,0,0,421094,0
421123,384,-2019,72,-54,-18,-48,5301,0,-2,342,112,35338,-39,35,127,0,0,1975,32,0,21823,8437,191,35107,-4,0,0,0,421094,0
421133,373,-2028,82,-51,-7,-45,5301,-2,-2,360,80,35336,-32,35,127,0,0,1973,-21,0,21823,8437,191,35117,-4,0,0,0,421094,0
421143,360,-2031,79,-51,-8,-41,5300,5,-5,335,88,35334,-25,35,127,0,0,1973,-10,0,21823,8437,191,35127,-4,0,0,0,421125,0
421153,356,-2023,87,-50,-18,-37,5300,3,-3,331,72,35345,-38,35,127,0,0,1973,0,0,21823,8437,191,35137,-4,0,0,0,421141,0
421163,372,-2023,90,-47,0,-40,5300,-8,6,343,88,35352,-16,35,127,0,0,1973,-10,0,21823,8437,191,35147,-4,0,0,0,421141,0
421173,360,-2022,81,-50,3,-45,5301,9,4,344,72,35342,-16,35,127,0,0,1973,0,0,21823,8437,191,35157,-4,0,0,0,421141,0
421183,372,-2027,89,-48,-9,-50,5300,-1,2,352,72,35339,-11,35,127,0,0,1975,10,0,21823,8437,191,35167,-4,0,0,0,421172,0
421193,392,-2021,79,-52,-12,-42,5300,0,-2,356,72,35342,-23,35,127,0,0,1975,10,0,21823,8437,191,35177,-4,0,0,0,421172,0
421203,362,-2024,77,-48,-7,-38,5300,-2,0,356,72,35344,-19,35,127,0,0,1975,10,0,21823,8437,191,35187,-4,0,0,0,421172,0
421213,371,-2020,79,-50,-13,-38,5302,6,1,358,80,35331,-27,35,127,0,0,1973,-10,0,21823,8437,191,35197,-4,0,0,0,421188,0
421223,377,-2022,76,-47,-12,-38,5301,0,-1,345,112,35325,-31,35,127,0,0,1975,0,0,21823,8437,191,35207,-4,0,0,0,421203,0
421233,358,-2024,90,-49,-7,-39,5301,4,1,372,104,35330,-34,35,127,0,0,1973,-32,0,21823,8437,191,35217,-4,0,0,0,421203,0
421243,363,-2020,84,-39,-5,-44,5299,-9,-4,305,88,35341,-27,35,127,0,0,1973,21,0,21823,8437,191,35227,-4,0,0,0,421203,0
421253,368,-2017,97,-43,-9,-43,5301,7,4,353,104,35334,-18,35,127,0,0,1975,-10,0,21823,8437,191,35237,-4,0,0,0,421235,0
421263,356,-2020,98,-46,-8,-43,5299,-7,4,338,88,35331,-11,35,127,0,0,1973,10,0,21823,8437,191,35247,-4,0,0,0,421266,0
421273,367,-2023,90,-40,-15,-47,5300,3,-1,360,72,35326,-24,35,127,0,0,1975,0,0,21823,8437,191,35257,-4,0,0,0,421266,0
421283,351,-2030,95,-55,-16,-45,5300,0,0,370,104,35338,-30,35,127,0,0,1973,0,0,21823,8437,191,35267,-4,0,0,0,421266,0
421293,358,-2022,95,-57,-11,-50,5299,-6,2,373,128,35338,-18,35,127,0,0,1977,21,0,21823,8437,191,35277,-4,0,0,0,421266,0
421303,361,-2021,91,-58,-13,-46,5301,-4,-2,372,72,35330,-23,35,127,0,0,1977,43,0,21823,8437,191,35287,-4,0,0,0,421266,0
421313,386,-2023,76,-56,-10,-46,5301,6,2,389,64,35334,-30,35,127,0,0,1975,-10,0,21823,8437,191,35297,-4,0,0,0,421313,0
421323,352,-2022,85,-57,-10,-45,5299,-6,-3,368,104,35348,-38,35,127,0,0,1975,21,0,21823,8437,191,35307,-4,0,0,0,421328,0
421333,364,-2021,94,-53,-13,-50,5300,-5,1,389,104,35352,-14,35,127,0,0,1975,-32,0,21823,8437,191,35317,-4,0,0,0,421328,0
421343,355,-2016,91,-54,-10,-50,5301,7,1,373,72,35336,-12,35,127,0,0,1975,-10,0,21823,8437,191,35327,-4,0,0,0,421328,0
421353,360,-2030,100,-71,-17,-56,5301,3,3,380,72,35321,-19,35,127,0,0,1975,0,0,21823,8437,191,35337,-4,0,0,0,421328,0
421363,359,-2028,103,-69,-21,-54,5301,0,5,390,72,35330,-30,35,127,0,0,1973,-32,0,21823,8437,191,35347,-4,0,0,0,421344,0
421373,349,-2045,96,-78,-24,-59,5301,6,-2,339,120,35345,-36,35,127,0,0,1975,0,0,21823,8437,191,35357,-4,0,0,0,421344,0
421383,360,-2028,98,-82,-27,-60,5300,1,-4,352,104,35341,-30,35,127,0,0,1970,-32,0,21823,8437,191,35367,-4,0,0,0,421360,0
421393,345,-2031,83,-80,-28,-69,5299,-4,-1,317,104,35331,-26,35,127,0,0,1975,21,0,21823,8437,191,35377,-4,0,0,0,421360,0
421403,368,-2027,80,-72,-20,-73,5302,-1,0,390,96,35324,-25,35,127,0,0,1973,-65,0,21823,8437,191,35387,-4,0,0,0,421375,0
421413,361,-2046,64,-70,-21,-69,5299,7,-5,355,72,35326,-24,35,127,0,0,1975,-10,0,21823,8437,191,35397,-4,0,0,0,421407,0
421423,374,-2020,67,-60,-23,-66,5301,1,1,384,104,35331,-18,35,127,0,0,1977,21,0,21823,8437,191,35407,-4,0,0,0,421407,0
421433,398,-2013,58,-55,-11,-59,5302,7,10,439,88,35325,-14,35,127,0,0,1975,-32,0,21823,8437,191,35417,-4,0,0,0,421422,0
421443,390,-1996,47,-46,-14,-47,5300,-8,-6,378,80,35321,-18,35,127,0,0,1973,-10,0,21823,8437,191,35427,-4,0,0,0,421422,0
421453,382,-1985,58,-31,-3,-33,5301,0,1,348,72,35324,-40,35,127,0,0,1975,21,0,21823,8437,191,35437,-4,0,0,0,421422,0
421463,375,-1980,66,-28,-5,-21,5303,5,11,387,72,35337,-34,35,127,0,0,1975,0,0,21823,8437,191,35447,-4,0,0,0,421453,0
421473,386,-2000,81,-27,-3,-11,5301,1,1,392,104,35332,-38,35,127,0,0,1975,0,0,21823,8437,191,35457,-4,0,0,0,421453,0
421483,362,-2015,76,-26,-7,-7,5301,4,-1,401,104,35335,-35,35,127,0,0,1975,-21,0,21823,8437,191,35467,-4,0,0,0,421453,0
421493,366,-2022,68,-18,-3,-8,5301,0,0,394,104,35325,-54,35,127,0,0,1975,0,0,21823,8437,191,35477,-4,0,0,0,421485,0
421503,350,-2025,72,-12,3,-15,5302,0,1,412,88,35334,-52,35,127,0,0,1975,0,0,21823,8437,191,35487,-4,0,0,0,421485,0
421513,352,-2049,86,-19,0,-21,5301,3,-3,397,104,35328,-44,35,127,0,0,1975,0,0,21823,8437,191,35497,-4,0,0,0,421485,0
421523,358,-2044,88,-14,9,-29,5302,2,1,406,88,35330,-42,35,127,0,0,1975,-10,0,21823,8437,191,35507,-4,0,0,0,421485,0
421533,386,-2041,78,-10,3,-28,5301,0,-1,399,136,35330,-35,35,127,0,0,1977,21,0,21823,8437,191,35517,-4,0,0,0,421516,0
421543,401,-2026,84,-2,4,-25,5302,-2,1,404,104,35340,-19,35,127,0,0,1975,-21,0,21823,8437,191,35527,-4,0,0,0,421516,0
421553,392,-2042,105,-5,5,-8,5300,-7,-1,395,104,35338,-5,35,127,0,0,1975,10,0,21823,8437,191,35537,-4,0,0,0,421547,0
421563,394,-2031,87,1,3,-9,5301,-8,-3,422,96,35328,3,35,127,0,0,1975,-32,0,21823,8437,191,35547,-4,0,0,0,421547,0
421573,368,-2027,73,2,2,0,5302,7,-1,398,128,35330,-12,35,127,0,0,1977,21,0,21823,8437,191,35557,-4,0,0,0,421547,0
421583,342,-2015,75,7,4,1,5302,-2,-3,402,160,35334,-13,35,127,0,0,1977,32,0,21823,8437,191,35567,-4,0,0,0,421563,0
421593,339,-2014,107,-5,8,-3,5303,1,2,419,120,35324,-4,35,127,0,0,1977,0,0,21823,8437,191,35577,-4,0,0,0,421656,0
421603,336,-2016,102,-9,-5,-2,5303,6,2,438,120,35315,-6,35,127,0,0,1981,54,0,21823,8437,191,35587,-4,0,0,0,421656,0
421613,340,-2026,100,-19,-4,-14,5304,11,4,504,136,35309,-21,35,127,0,0,1979,-21,0,21823,8437,191,35597,-4,0,0,0,421672,0
421623,345,-2013,108,-27,-2,-29,5305,0,5,487,168,35312,-30,35,127,0,0,1981,10,0,21823,8437,191,35607,-4,0,0,0,421672,0
421633,339,-2012,113,-29,-6,-41,5307,3,1,497,152,35314,-35,35,127,0,0,1979,-32,0,21823,8437,191,35617,-4,0,0,0,421672,0
421643,346,-2011,111,-37,-14,-49,5307,4,2,498,184,35310,-32,35,127,0,0,1981,0,0,21823,8437,191,35627,-4,0,0,0,421672,0
421653,345,-2013,100,-46,-14,-54,5309,6,2,492,152,35308,-37,35,127,0,0,1979,-32,0,21823,8437,191,35637,-4,0,0,0,421672,0
421663,350,-2022,95,-44,-11,-59,5307,-1,-1,465,160,35316,-47,35,127,0,0,1981,10,0,21823,8437,191,35647,-4,0,0,0,421672,0
421673,361,-2027,85,-54,-8,-57,5309,-1,-1,492,152,35327,-41,35,127,0,0,1981,0,0,21823,8437,191,35657,-4,0,0,0,421672,0
421683,365,-2033,87,-53,-7,-58,5309,3,-2,498,152,35325,-28,35,127,0,0,1981,0,0,21823,8437,191,35667,-4,0,0,0,421672,0
421693,361,-2033,86,-56,-4,-60,5310,2,-3,498,144,35328,-30,35,127,0,0,1981,-10,0,21823,8437,191,35677,-4,0,0,0,421688,0
421703,351,-2041,101,-49,-13,-62,5309,5,-11,486,152,35327,-25,35,127,0,0,1981,0,0,21823,8437,191,35687,-4,0,0,0,421688,0
421713,373,-2032,108,-59,-12,-67,5309,-3,-2,464,160,35338,-26,35,127,0,0,1981,32,0,21823,8437,191,35697,-4,0,0,0,421688,0
421723,359,-2032,106,-65,-11,-68,5310,0,-2,489,112,35340,-20,35,127,0,0,1979,-32,0,21823,8437,191,35707,-4,0,0,0,421735,0
421733,346,-2035,96,-65,-10,-70,5310,5,-5,476,160,35335,-2,35,127,0,0,1979,-21,0,21823,8437,191,35717,-4,0,0,0,421735,0
421743,347,-2019,99,-69,-21,-72,5308,-7,-1,460,152,35330,-16,35,127,0,0,1979,-10,0,21823,8437,191,35727,-4,0,0,0,421735,0
421753,336,-2019,99,-73,-10,-84,5309,-1,4,465,120,35326,-31,35,127,0,0,1979,-32,0,21823,8437,191,35737,-4,0,0,0,421735,0
421763,343,-2017,100,-72,-15,-86,5310,2,-2,461,144,35324,-45,35,127,0,0,1981,21,0,21823,8437,191,35747,-4,0,0,0,421735,0
421773,370,-2018,94,-76,-14,-95,5310,-6,0,454,128,35318,-36,35,127,0,0,1977,-21,0,21823,8437,191,35757,-4,0,0,0,421750,0
421783,377,-2015,79,-79,-15,-94,5310,10,0,417,104,35325,-31,35,127,0,0,1979,10,0,21823,8437,191,35767,-4,0,0,0,421750,0
421793,383,-2011,84,-75,-8,-86,5310,3,1,443,96,35341,-36,35,127,0,0,1977,-32,0,21823,8437,191,35777,-4,0,0,0,421781,0
421803,378,-2021,82,-80,-18,-78,5308,-1,2,420,96,35352,-1,35,127,0,0,1979,21,0,21823,8437,191,35787,-4,0,0,0,421781,0
421813,392,-2009,70,-75,-12,-70,5309,-7,-2,406,104,35336,-8,35,127,0,0,1977,0,0,21823,8437,191,35797,-4,0,0,0,421781,0
421823,386,-2012,75,-69,-19,-63,5309,9,-4,391,104,35325,-11,35,127,0,0,1977,10,0,21823,8437,191,35807,-4,0,0,0,421797,0
421833,370,-2009,82,-65,-12,-63,5310,1,-2,436,96,35330,-31,35,127,0,0,1979,-10,0,21823,8437,191,35817,-4,0,0,0,421813,0
421843,353,-2021,83,-59,-8,-58,5309,2,1,410,104,35345,-20,35,127,0,0,1979,21,0,21823,8437,191,35827,-4,0,0,0,421813,0
421853,376,-2019,89,-70,-12,-55,5310,9,-1,409,136,35333,-10,35,127,0,0,1977,0,0,21823,8437,191,35837,-4,0,0,0,421860,0
421863,367,-2019,91,-64,-5,-63,5309,6,3,391,104,35320,-9,35,127,0,0,1979,21,0,21823,8437,191,35847,-4,0,0,0,421875,0
421873,374,-2022,97,-76,-16,-59,5308,-7,-1,385,152,35314,-28,35,127,0,0,1977,21,0,21823,8437,191,35857,-4,0,0,0,421875,0
421883,375,-2030,88,-74,-10,-63,5310,4,8,414,96,35321,-22,35,127,0,0,1977,0,0,21823,8437,191,35867,-4,0,0,0,421875,0
421893,360,-2020,86,-72,-18,-68,5308,-7,-5,398,112,35328,-35,35,127,0,0,1979,21,0,21823,8437,191,35877,-4,0,0,0,421875,0
421903,360,-2029,83,-70,-16,-69,5310,4,3,400,144,35320,-28,35,127,0,0,1977,-10,0,21823,8437,191,35887,-4,0,0,0,421875,0
421913,364,-2024,75,-67,-10,-73,5306,-3,2,356,96,35327,-46,35,127,0,0,1977,32,0,21823,8437,191,35897,-4,0,0,0,421875,0
421923,374,-2025,75,-64,-2,-70,5309,8,3,391,80,35348,-31,35,127,0,0,1975,-32,0,21823,8437,191,35907,-4,0,0,0,421906,0
421933,376,-2022,87,-66,-11,-76,5305,-3,5,335,96,35349,-15,35,127,0,0,1975,10,0,21823,8437,191,35917,-4,0,0,0,421906,0
421943,383,-2025,85,-63,-7,-65,5306,2,-3,320,64,35340,-16,35,127,0,0,1973,-32,0,21823,8437,191,35927,-4,0,0,0,421922,0
421953,370,-2023,80,-66,-4,-68,5305,0,-2,302,72,35325,-19,35,127,0,0,1973,0,0,21823,8437,191,35937,-4,0,0,0,421953,0
421963,376,-2025,77,-61,-8,-64,5306,-5,-5,297,72,35334,-39,35,127,0,0,1973,0,0,21823,8437,191,35947,-4,0,0,0,421969,0
421973,377,-2019,91,-59,-9,-59,5305,-1,0,296,72,35339,-31,35,127,0,0,1975,32,0,21823,8437,191,35957,-4,0,0,0,422000,0
421983,378,-2022,83,-62,-12,-55,5306,-3,-2,284,80,35332,-30,35,127,0,0,1970,-10,0,21823,8437,191,35967,-4,0,0,0,422000,0
421993,360,-2017,89,-59,-8,-55,5305,0,0,280,72,35321,-30,35,127,0,0,1973,-32,0,21823,8437,191,35977,-4,0,0,0,422000,0
422003,355,-2019,106,-71,-18,-59,5304,2,-1,285,80,35332,-31,35,127,0,0,1970,-21,0,21823,8437,191,35987,-4,0,0,0,422000,0
422013,345,-2022,105,-78,-13,-67,5303,-4,1,251,88,35339,-30,35,127,0,0,1973,0,0,21823,8437,191,35997,-4,0,0,0,422000,0
422023,353,-2021,96,-76,-11,-72,5304,12,5,298,32,35338,-35,35,127,0,0,1970,-43,0,21823,8437,191,36007,-4,0,0,0,422000,0
422033,348,-2021,83,-79,-19,-94,5302,0,-7,236,56,35330,-30,35,127,0,0,1966,-54,0,21823,8437,191,36017,-4,0,0,0,422016,0
422043,361,-2018,81,-77,-12,-100,5296,-27,-6,88,56,35334,-36,35,127,0,0,1966,10,0,21823,8437,191,36027,-4,0,0,0,422016,0
422053,373,-2016,81,-75,-16,-110,5295,-11,5,103,32,35346,-22,35,127,0,0,1964,0,0,21823,8437,191,36037,-4,0,0,0,422047,0
422063,375,-2026,77,-84,-21,-112,5294,-15,3,41,16,35349,-16,35,127,0,0,1962,-21,0,21823,8437,191,36047,-4,0,0,0,422047,0
422073,375,-2021,86,-83,-21,-118,5291,-5,-11,14,-8,35342,0,35,127,0,0,1957,-54,0,21823,8437,191,36057,-4,0,0,0,422063,0
422083,395,-2020,81,-80,-22,-116,5287,-12,0,-81,-24,35330,-10,35,127,0,0,1957,-54,0,21823,8437,191,36067,-4,0,0,0,422063,0
422093,391,-2023,72,-70,-21,-108,5283,-7,-8,-116,-8,35330,-30,35,127,0,0,1957,-10,0,21823,8437,191,36077,-4,0,0,0,422063,0
422103,405,-2014,75,-70,-29,-100,5283,-12,4,-169,-16,35337,-11,35,127,0,0,1955,-21,0,21823,8437,191,36087,-4,0,0,0,422078,0
422113,383,-2019,71,-70,-26,-88,5281,-4,-2,-221,-48,35337,-37,35,127,0,0,1955,-10,0,21823,8437,191,36097,-4,0,0,0,422094,0
422123,370,-2023,57,-65,-16,-83,5280,-7,-4,-228,-40,35334,-31,35,127,0,0,1953,-10,0,21823,8437,191,36107,-4,0,0,0,422110,0
422133,376,-2019,74,-41,-16,-85,5278,-9,-1,-276,-88,35330,-50,35,127,0,0,1951,-21,0,21823,8437,191,36117,-4,0,0,0,422110,0
422143,370,-2025,69,-48,-11,-90,5278,8,0,-251,-24,35335,-20,35,127,0,0,1951,-32,0,21823,8437,191,36127,-4,0,0,0,422125,0
422153,360,-2011,78,-42,-12,-88,5276,-1,2,-274,-88,35327,-17,35,127,0,0,1948,-65,0,21823,8437,191,36137,-4,0,0,0,422141,0
422163,374,-2013,77,-37,-7,-88,5274,-5,-8,-340,-96,35327,-22,35,127,0,0,1948,-10,0,21823,8437,191,36147,-4,0,0,0,422141,0
422173,379,-2021,72,-46,-8,-87,5272,0,3,-324,-64,35331,-13,35,127,0,0,1948,-21,0,21823,8437,191,36157,-4,0,0,0,422141,0
422183,394,-2017,77,-43,-13,-86,5271,-8,1,-366,-72,35345,-41,35,127,0,0,1948,32,0,21823,8437,191,36167,-4,0,0,0,422203,0
422193,380,-2011,79,-36,-8,-77,5271,6,-2,-359,-72,35343,-33,35,127,0,0,1948,10,0,21823,8437,191,36177,-4,0,0,0,422219,0
422203,387,-2017,61,-32,-14,-76,5271,8,5,-334,-88,35335,-37,35,127,0,0,1946,-21,0,21823,8437,191,36187,-4,0,0,0,422219,0
422213,380,-2019,74,-34,-2,-75,5270,0,-1,-357,-112,35339,-36,35,127,0,0,1948,10,0,21823,8437,191,36197,-4,0,0,0,422219,0
422223,360,-2018,85,-28,-5,-80,5269,2,-4,-347,-104,35341,-27,35,127,0,0,1944,-43,0,21823,8437,191,36207,-4,0,0,0,422219,0
422233,363,-2022,82,-26,-4,-83,5267,-4,-5,-382,-96,35339,-26,35,127,0,0,1944,-21,0,21823,8437,191,36217,-4,0,0,0,422219,0
422243,374,-2015,86,-35,-4,-86,5263,-11,-10,-392,-152,35328,-22,35,127,0,0,1946,21,0,21823,8437,191,36227,-4,0,0,0,422219,0
422253,378,-2025,81,-29,-5,-87,5261,-1,-1,-339,-104,35325,-44,35,127,0,0,1944,-10,0,21823,8437,191,36237,-4,0,0,0,422219,0
422263,387,-2028,74,-28,-5,-88,5260,-1,1,-355,-136,35335,-51,35,127,0,0,1944,-32,0,21823,8437,191,36247,-4,0,0,0,422250,0
422273,386,-2027,76,-27,-9,-82,5252,-14,-13,-349,-96,35349,-52,35,127,0,0,1940,-43,0,21823,8437,191,36257,-4,0,0,0,422250,0
422283,403,-2030,74,-24,-5,-83,5237,-43,-24,-313,-56,35346,-57,35,127,0,0,1940,-21,0,21823,8437,191,36267,-4,0,0,0,422250,0
422293,379,-2013,71,-20,4,-87,5224,-17,-21,-199,-64,35339,-64,35,127,0,0,1944,10,0,21823,8437,191,36277,-4,0,0,0,422281,0
422303,395,-2019,88,-23,-1,-67,5226,-9,29,-228,-88,35342,-72,35,127,0,0,1940,-10,0,21823,8437,191,36287,-4,0,0,0,422281,0
422313,393,-2020,72,-23,-8,-62,5223,0,20,-270,-72,35348,-70,35,127,0,0,1940,0,0,21823,8437,191,36297,-4,0,0,0,422281,0
422323,402,-2016,71,-10,-3,-51,5223,-3,-2,-294,-56,35344,-65,35,127,0,0,1940,10,0,21823,8437,191,36307,-4,0,0,0,422297,0
422333,393,-2011,74,-2,-1,-51,5222,7,11,-271,-72,35337,-67,35,127,0,0,1940,-10,0,21823,8437,191,36317,-4,0,0,0,422313,0
422343,381,-2017,74,0,7,-43,5224,13,-4,-250,-80,35339,-67,35,127,0,0,1940,-10,0,21823,8437,191,36327,-4,0,0,0,422313,0
422353,380,-2013,80,3,0,-32,5222,0,-4,-233,-80,35345,-62,35,127,0,0,1942,-10,0,21823,8437,191,36337,-4,0,0,0,422328,0
422363,367,-2000,87,5,3,-32,5221,-7,1,-248,-104,35343,-56,35,127,0,0,1940,-10,0,21823,8437,191,36347,-4,0,0,0,422344,0
422373,375,-2023,73,3,3,-36,5221,1,1,-284,-56,35325,-41,35,127,0,0,1940,21,0,21823,8437,191,36357,-4,0,0,0,422359,0
422383,396,-2013,78,5,3,-45,5222,2,4,-234,-80,35326,-47,35,127,0,0,1940,0,0,21823,8437,191,36367,-4,0,0,0,422359,0
422393,390,-2012,91,9,-8,-40,5220,0,-1,-251,-72,35331,-48,35,127,0,0,1944,43,0,21823,8437,191,36377,-4,0,0,0,422375,0
422403,387,-2015,90,11,0,-28,5224,8,4,-213,-40,35335,-30,35,127,0,0,1940,-10,0,21823,8437,191,36387,-4,0,0,0,422375,0
422413,386,-2012,85,6,2,-31,5220,0,-4,-250,-40,35329,-13,35,127,0,0,1940,0,0,21823,8437,191,36397,-4,0,0,0,422375,0
422423,390,-2013,87,6,1,-29,5221,-1,-3,-269,-72,35329,-33,35,127,0,0,1940,10,0,21823,8437,191,36407,-4,0,0,0,422422,0
422433,377,-2019,96,7,5,-27,5221,-1,7,-224,-80,35334,-60,35,127,0,0,1942,-10,0,21823,8437,191,36417,-4,0,0,0,422422,0
422443,364,-2025,89,13,5,-21,5222,1,-4,-213,-80,35331,-54,35,127,0,0,1940,-32,0,21823,8437,191,36427,-4,0,0,0,422422,0
422453,373,-2021,83,8,12,-30,5221,9,-1,-256,-72,35321,-61,35,127,0,0,1940,21,0,21823,8437,191,36437,-4,0,0,0,422422,0
422463,395,-2028,99,-5,1,-34,5221,-14,0,-223,-80,35313,-68,35,127,0,0,1942,21,0,21823,8437,191,36447,-4,0,0,0,422438,0
422473,377,-2037,105,-8,5,-48,5221,0,-2,-219,-48,35331,-74,35,127,0,0,1942,10,0,21823,8437,191,36457,-4,0,0,0,422453,0
422483,351,-2034,111,-6,0,-51,5222,4,0,-218,-48,35348,-52,35,127,0,0,1940,-21,0,21823,8437,191,36467,-4,0,0,0,422453,0
422493,360,-2034,106,-6,2,-50,5222,4,2,-223,-40,35342,-43,35,127,0,0,1942,-10,0,21823,8437,191,36477,-4,0,0,0,422469,0
422503,380,-2012,98,-8,-4,-59,5223,6,2,-195,-80,35326,-57,35,127,0,0,1942,-32,0,21823,8437,191,36487,-4,0,0,0,422484,0
422513,389,-2020,84,-14,-3,-56,5222,4,0,-211,-80,35328,-61,35,127,0,0,1940,-32,0,21823,8437,191,36497,-4,0,0,0,422500,0
422523,386,-2016,91,-11,3,-57,5221,-2,0,-253,-72,35337,-57,35,127,0,0,1940,0,0,21823,8437,191,36507,-4,0,0,0,422500,0
422533,399,-2011,100,-13,-1,-49,5221,7,1,-244,-80,35338,-50,35,127,0,0,1940,-10,0,21823,8437,191,36517,-4,0,0,0,422500,0
422543,392,-2011,98,-10,2,-43,5220,0,2,-224,-48,35325,-61,35,127,0,0,1940,-32,0,21823,8437,191,36527,-4,0,0,0,422531,0
422553,380,-2020,92,-10,-3,-39,5220,4,-3,-261,-56,35330,-74,35,127,0,0,1942,21,0,21823,8437,191,36537,-4,0,0,0,422531,0
422563,389,-2008,100,-14,-1,-40,5222,4,3,-211,-48,35328,-70,35,127,0,0,1942,0,0,21823,8437,191,36547,-4,0,0,0,422531,0
422573,350,-2019,105,-16,3,-44,5223,8,7,-178,-80,35325,-61,35,127,0,0,1944,0,0,21823,8437,191,36557,-4,0,0,0,422547,0
422583,340,-2013,114,-23,-2,-47,5222,5,-4,-175,-48,35318,-68,35,127,0,0,1940,-32,0,21823,8437,191,36567,-4,0,0,0,422567,0
422593,340,-2029,114,-32,-10,-57,5220,3,-4,-222,-16,35317,-65,35,127,0,0,1942,0,0,21823,8437,191,36577,-4,0,0,0,422567,0
422603,383,-2015,107,-31,-14,-64,5221,-12,0,-228,-80,35322,-80,35,127,0,0,1940,0,0,21823,8437,191,36587,-4,0,0,0,422582,0
422613,387,-2014,112,-42,-11,-64,5223,12,-2,-225,-48,35323,-56,35,127,0,0,1944,32,0,21823,8437,191,36597,-4,0,0,0,422582,0
422623,392,-2023,95,-44,-16,-60,5220,-15,-2,-170,-48,35322,-55,35,127,0,0,1942,-10,0,21823,8437,191,36607,-4,0,0,0,422598,0
422633,390,-2024,86,-44,-9,-57,5221,4,-8,-234,-48,35324,-52,35,127,0,0,1942,21,0,21823,8437,191,36617,-4,0,0,0,422614,0
422643,389,-2019,86,-41,-19,-60,5221,-4,2,-238,-40,35332,-53,35,127,0,0,1944,65,0,21823,8437,191,36627,-4,0,0,0,422629,0
422653,415,-2007,82,-34,-4,-63,5222,-4,6,-170,-56,35330,-59,35,127,0,0,1940,-10,0,21823,8437,191,36637,-4,0,0,0,422629,0
422663,375,-2021,85,-29,0,-57,5219,-1,-5,-222,-72,35321,-46,35,127,0,0,1940,-21,0,21823,8437,191,36647,-4,0,0,0,422661,0
422673,395,-2019,94,-32,2,-56,5219,-8,-11,-253,-64,35318,-65,35,127,0,0,1942,21,0,21823,8437,191,36657,-4,0,0,0,422661,0
422683,380,-2013,95,-29,5,-57,5220,-1,7,-243,-64,35323,-74,35,127,0,0,1940,-10,0,21823,8437,191,36667,-4,0,0,0,422661,0
422693,393,-2019,97,-27,4,-44,5219,0,1,-274,-56,35326,-77,35,127,0,0,1940,10,0,21823,8437,191,36677,-4,0,0,0,422661,0
422703,399,-2017,106,-30,-4,-46,5219,-4,1,-267,-64,35319,-64,35,127,0,0,1940,0,0,21823,8437,191,36687,-4,0,0,0,422676,0
422713,383,-2018,106,-32,-5,-45,5220,2,6,-267,-64,35317,-40,35,127,0,0,1940,-10,0,21823,8437,191,36697,-4,0,0,0,422754,0
422723,359,-2025,106,-36,-4,-46,5220,5,1,-270,-64,35320,-46,35,127,0,0,1937,-21,0,21823,8437,191,36707,-4,0,0,0,422754,0
422733,359,-2017,97,-36,-1,-50,5218,-6,-1,-254,-72,35327,-43,35,127,0,0,1940,-10,0,21823,8437,191,36717,-4,0,0,0,422754,0
422743,363,-2007,106,-34,-5,-49,5219,-8,0,-259,-64,35328,-39,35,127,0,0,1940,0,0,21823,8437,191,36727,-4,0,0,0,422754,0
422753,383,-2014,97,-35,-1,-52,5219,-3,5,-266,-64,35321,-55,35,127,0,0,1940,0,0,21823,8437,191,36737,-4,0,0,0,422754,0
422763,379,-2016,104,-33,0,-51,5219,-2,3,-267,-64,35320,-64,35,127,0,0,1937,-21,0,21823,8437,191,36747,-4,0,0,0,422770,0
422773,381,-2019,106,-36,-4,-52,5219,-1,-5,-294,-56,35324,-80,35,127,0,0,1940,0,0,21823,8437,191,36757,-4,0,0,0,422770,0
422783,389,-2028,108,-40,-4,-48,5219,2,6,-278,-64,35325,-69,35,127,0,0,1937,-21,0,21823,8437,191,36767,-4,0,0,0,422770,0
422793,386,-2014,107,-45,-6,-47,5218,-17,-1,-286,-64,35317,-66,35,127,0,0,1940,21,0,21823,8437,191,36777,-4,0,0,0,422770,0
422803,388,-2004,109,-44,-4,-46,5219,-4,2,-244,-72,35327,-65,35,127,0,0,1940,-10,0,21823,8437,191,36787,-4,0,0,0,422770,0
422813,389,-2027,99,-39,-8,-43,5219,0,3,-284,-56,35343,-58,35,127,0,0,1940,10,0,21823,8437,191,36797,-4,0,0,0,422801,0
422823,405,-2022,92,-47,-3,-43,5219,3,1,-266,-64,35356,-62,35,127,0,0,1940,0,0,21823,8437,191,36807,-4,0,0,0,422817,0
422833,386,-2015,96,-44,-10,-44,5219,-5,-4,-268,-96,35342,-56,35,127,0,0,1940,0,0,21823,8437,191,36817,-4,0,0,0,422832,0
422843,374,-2023,96,-45,-9,-41,5219,0,-1,-260,-64,35336,-66,35,127,0,0,1940,0,0,21823,8437,191,36827,-4,0,0,0,422832,0
422853,374,-2023,93,-48,-11,-39,5218,2,-1,-261,-32,35332,-62,35,127,0,0,1940,0,0,21823,8437,191,36837,-4,0,0,0,422832,0
422863,380,-2020,102,-42,-1,-49,5220,8,-1,-222,-48,35331,-61,35,127,0,0,1940,-32,0,21823,8437,191,36847,-4,0,0,0,422832,0
422873,375,-2024,100,-46,-10,-45,5219,2,-5,-263,-64,35326,-28,35,127,0,0,1942,43,0,21823,8437,191,36857,-4,0,0,0,422864,0
422883,405,-2016,94,-46,-10,-43,5220,-4,4,-225,-64,35319,-11,35,127,0,0,1940,10,0,21823,8437,191,36867,-4,0,0,0,422864,0
422893,392,-2011,94,-39,-5,-41,5219,-1,-7,-246,-64,35323,-30,35,127,0,0,1942,32,0,21823,8437,191,36877,-4,0,0,0,422864,0
422903,389,-2018,88,-35,-5,-45,5219,-5,0,-225,-64,35321,-61,35,127,0,0,1940,-21,0,21823,8437,191,36887,-4,0,0,0,422879,0
422913,381,-2030,101,-36,-10,-45,5221,9,-2,-218,-48,35328,-52,35,127,0,0,1942,-10,0,21823,8437,191,36897,-4,0,0,0,422910,0
422923,368,-2010,104,-30,-10,-50,5220,9,3,-168,-56,35320,-44,35,127,0,0,1940,-43,0,21823,8437,191,36907,-4,0,0,0,422926,0
422933,382,-2011,96,-35,-5,-41,5218,-15,-2,-232,-40,35320,-40,35,127,0,0,1942,21,0,21823,8437,191,36917,-4,0,0,0,422926,0
422943,399,-2009,100,-36,0,-36,5220,-7,6,-211,-80,35329,-61,35,127,0,0,1940,-32,0,21823,8437,191,36927,-4,0,0,0,422926,0
422953,396,-2027,100,-26,1,-24,5219,7,1,-241,-72,35343,-68,35,127,0,0,1940,-10,0,21823,8437,191,36937,-4,0,0,0,422926,0
422963,388,-2020,91,-19,8,-20,5219,-3,-3,-262,-64,35344,-60,35,127,0,0,1942,32,0,21823,8437,191,36947,-4,0,0,0,422942,0
422973,389,-2016,87,-13,9,-16,5222,13,13,-160,-88,35342,-57,35,127,0,0,1944,-21,0,21823,8437,191,36957,-4,0,0,0,422957,0
422983,353,-2029,85,-5,27,-18,5221,5,-1,-134,-56,35348,-58,35,127,0,0,1944,10,0,21823,8437,191,36967,-4,0,0,0,422973,0
422993,387,-2014,92,-7,33,-21,5222,4,-3,-113,8,35349,-56,35,127,0,0,1944,0,0,21823,8437,191,36977,-4,0,0,0,422973,0
423003,391,-2014,109,-12,31,-15,5221,-5,-1,-132,-24,35342,-44,35,127,0,0,1944,10,0,21823,8437,191,36987,-4,0,0,0,422973,0
423013,387,-2021,117,-11,20,-14,5221,-5,-3,-121,-32,35328,-29,35,127,0,0,1940,-32,0,21823,8437,191,36997,-4,0,0,0,422989,0
423023,381,-2024,126,-12,15,-15,5221,4,-3,-152,8,35331,-41,35,127,0,0,1946,43,0,21823,8437,191,37007,-4,0,0,0,422989,0
423033,369,-2018,149,-32,-7,-11,5225,5,-1,-57,-24,35334,-48,35,127,0,0,1948,0,0,21823,8437,191,37017,-4,0,0,0,423004,0
423043,349,-2015,136,-40,-15,-13,5222,-2,-7,-70,-8,35340,-58,35,127,0,0,1948,43,0,21823,8437,191,37027,-4,0,0,0,423004,0
423053,357,-2018,106,-45,-10,-31,5225,4,-2,-13,8,35334,-63,35,127,0,0,1951,32,0,21823,8437,191,37037,-4,0,0,0,423035,0
423063,348,-2036,99,-45,-9,-43,5228,3,6,63,-8,35335,-63,35,127,0,0,1951,0,0,21823,8437,191,37047,-4,0,0,0,423035,0
423073,374,-2024,121,-52,-8,-60,5227,-2,-5,49,-8,35336,-63,35,127,0,0,1951,32,0,21823,8437,191,37057,-4,0,0,0,423129,0
423083,386,-2021,118,-55,-11,-58,5228,-3,-1,57,24,35340,-50,35,127,0,0,1948,-32,0,21823,8437,191,37067,-4,0,0,0,423129,0
423093,361,-2018,101,-56,-8,-62,5228,6,-1,32,24,35328,-43,35,127,0,0,1948,-21,0,21823,8437,191,37077,-4,0,0,0,423145,0
423103,372,-2016,95,-56,-8,-63,5227,-2,-5,39,24,35326,-44,35,127,0,0,1951,10,0,21823,8437,191,37087,-4,0,0,0,423145,0
423113,376,-2004,105,-53,-8,-57,5227,-2,1,24,-8,35329,-51,35,127,0,0,1951,0,0,21823,8437,191,37097,-4,0,0,0,423145,0
423123,391,-2023,107,-58,-7,-61,5231,20,10,117,32,35339,-63,35,127,0,0,1948,-54,0,21823,8437,191,37107,-4,0,0,0,423145,0
423133,345,-2021,112,-53,-11,-57,5230,-15,-3,38,16,35335,-59,35,127,0,0,1948,-32,0,21823,8437,191,37117,-4,0,0,0,423145,0
423143,369,-2011,110,-59,-9,-64,5229,8,-4,10,16,35334,-66,35,127,0,0,1948,-32,0,21823,8437,191,37127,-4,0,0,0,423145,0
423153,374,-2020,113,-55,-5,-68,5228,-2,6,6,32,35340,-56,35,127,0,0,1953,54,0,21823,8437,191,37137,-4,0,0,0,423145,0
423163,365,-2018,115,-63,-12,-60,5232,0,2,56,16,35351,-63,35,127,0,0,1948,-32,0,21823,8437,191,37147,-4,0,0,0,423145,0
423173,370,-2023,108,-65,-7,-61,5228,3,2,6,32,35350,-58,35,127,0,0,1948,0,0,21823,8437,191,37157,-4,0,0,0,423145,0
423183,369,-2005,118,-71,-13,-73,5229,-1,-1,-1,32,35348,-48,35,127,0,0,1948,0,0,21823,8437,191,37167,-4,0,0,0,423145,0
423193,362,-2020,119,-75,-17,-70,5227,-6,6,-29,8,35363,-50,35,127,0,0,1948,0,0,21823,8437,191,37177,-4,0,0,0,423176,0
423203,393,-2034,107,-79,-22,-74,5228,-1,3,-27,40,35371,-53,35,127,0,0,1948,21,0,21823,8437,191,37187,-4,0,0,0,423192,0
423213,353,-2027,106,-77,-16,-75,5229,-6,-3,13,24,35364,-41,35,127,0,0,1948,-21,0,21823,8437,191,37197,-4,0,0,0,423192,0
423223,371,-2036,107,-75,-20,-81,5229,6,0,16,-40,35345,-31,35,127,0,0,1946,-32,0,21823,8437,191,37207,-4,0,0,0,423192,0
423233,383,-2023,103,-82,-18,-86,5227,-2,-2,-24,0,35332,-40,35,127,0,0,1948,0,0,21823,8437,191,37217,-4,0,0,0,423223,0
423243,396,-2012,104,-77,-16,-89,5229,0,5,0,0,35345,-46,35,127,0,0,1948,-10,0,21823,8437,191,37227,-4,0,0,0,423223,0
423253,386,-2016,102,-82,-26,-80,5228,1,-3,-21,0,35346,-46,35,127,0,0,1948,0,0,21823,8437,191,37237,-4,0,0,0,423223,0
423263,397,-2002,95,-77,-27,-82,5226,-12,4,-31,-24,35339,-45,35,127,0,0,1946,-21,0,21823,8437,191,37247,-4,0,0,0,423239,0
423273,414,-2015,83,-76,-14,-68,5227,4,-2,-121,-40,35329,-53,35,127,0,0,1946,32,0,21823,8437,191,37257,-4,0,0,0,423254,0
423283,403,-2021,84,-73,-17,-64,5227,4,5,-51,-32,35343,-46,35,127,0,0,1944,-32,0,21823,8437,191,37267,-4,0,0,0,423254,0
423293,389,-2013,98,-69,-17,-51,5224,-11,-3,-128,0,35346,-41,35,127,0,0,1942,-21,0,21823,8437,191,37277,-4,0,0,0,423270,0
423303,418,-2004,94,-68,-14,-51,5225,0,-1,-156,-32,35340,-45,35,127,0,0,1944,-21,0,21823,8437,191,37287,-4,0,0,0,423285,0
423313,401,-2006,99,-64,-19,-45,5225,1,8,-154,-32,35330,-69,35,127,0,0,1944,0,0,21823,8437,191,37297,-4,0,0,0,423285,0
423323,399,-2010,98,-66,-15,-39,5224,-2,0,-163,-32,35332,-65,35,127,0,0,1946,43,0,21823,8437,191,37307,-4,0,0,0,423332,0
423333,405,-2012,95,-62,-20,-31,5226,4,4,-108,-48,35340,-55,35,127,0,0,1946,10,0,21823,8437,191,37317,-4,0,0,0,423332,0
423343,368,-2021,93,-64,-20,-25,5225,5,2,-129,-64,35337,-42,35,127,0,0,1946,10,0,21823,8437,191,37327,-4,0,0,0,423332,0
423353,412,-2024,77,-65,-16,-31,5223,-1,-2,-162,-24,35332,-38,35,127,0,0,1944,32,0,21823,8437,191,37337,-4,0,0,0,423348,0
423363,390,-2020,87,-57,-10,-34,5224,1,3,-152,0,35330,-53,35,127,0,0,1944,0,0,21823,8437,191,37347,-4,0,0,0,423348,0
423373,373,-2022,99,-55,-8,-33,5224,-3,6,-121,-72,35334,-63,35,127,0,0,1946,10,0,21823,8437,191,37357,-4,0,0,0,423348,0
423383,361,-2024,100,-53,-19,-27,5224,-3,-3,-112,0,35340,-37,35,127,0,0,1944,-10,0,21823,8437,191,37367,-4,0,0,0,423348,0
423393,353,-2024,89,-46,-18,-36,5224,5,-6,-167,-64,35341,-29,35,127,0,0,1942,-21,0,21823,8437,191,37377,-4,0,0,0,423379,0
423403,368,-2010,86,-43,-19,-46,5223,-3,3,-152,-64,35330,-21,35,127,0,0,1944,10,0,21823,8437,191,37387,-4,0,0,0,423379,0
423413,349,-2017,96,-45,-15,-58,5225,5,7,-118,-64,35328,-40,35,127,0,0,1946,10,0,21823,8437,191,37397,-4,0,0,0,423395,0
423423,374,-2016,91,-40,-21,-57,5224,-11,3,-88,0,35319,-67,35,127,0,0,1942,-43,0,21823,8437,191,37407,-4,0,0,0,423395,0
423433,355,-2019,101,-53,-35,-66,5222,-7,-5,-164,-56,35324,-76,35,127,0,0,1942,-21,0,21823,8437,191,37417,-4,0,0,0,423410,0
423443,386,-2019,96,-51,-43,-64,5223,3,2,-164,-64,35317,-67,35,127,0,0,1944,0,0,21823,8437,191,37427,-4,0,0,0,423410,0
423453,412,-2038,94,-48,-33,-60,5224,-2,6,-149,-64,35324,-62,35,127,0,0,1946,21,0,21823,8437,191,37437,-4,0,0,0,423488,0
423463,412,-2034,106,-42,-27,-51,5224,2,0,-148,-88,35326,-60,35,127,0,0,1944,10,0,21823,8437,191,37447,-4,0,0,0,423488,0
423473,490,-2041,71,-37,-33,-23,5224,10,5,-159,-56,35327,-64,35,127,0,0,1940,-21,0,21823,8437,191,37457,-4,0,0,0,423488,0
423483,510,-2012,46,-23,-27,6,5222,2,-2,-216,-80,35327,-60,35,127,0,0,1940,-32,0,21823,8437,191,37467,-4,0,0,0,423504,0
423493,518,-1996,17,13,-7,64,5221,3,1,-225,-48,35329,-64,35,127,0,0,1944,21,0,21823,8437,191,37477,-4,0,0,0,423504,0
423503,503,-1986,20,36,3,118,5222,3,5,-168,-16,35326,-59,35,127,0,0,1942,-21,0,21823,8437,191,37487,-4,0,0,0,423504,0
423513,448,-1984,18,74,20,203,5222,5,-2,-136,-40,35321,-61,35,127,0,0,1946,21,0,21823,8437,191,37497,-4,0,0,0,423504,0
423523,467,-2063,33,86,-8,329,5225,2,5,-27,40,35315,-43,35,127,0,0,1955,109,0,21823,8437,191,37507,-4,0,0,0,423504,0
423533,449,-2010,41,151,4,373,5237,40,22,244,88,35318,-71,35,127,0,0,1968,142,0,21823,8437,191,37517,-4,0,0,0,423504,0
423543,389,-2021,31,164,19,425,5274,104,73,381,200,35334,-67,35,127,0,0,1979,120,0,21823,8437,191,37527,-4,0,0,0,423549,0
423553,421,-2009,72,197,56,451,5317,60,50,429,224,35338,-43,35,127,0,0,1997,175,0,21823,8437,191,37537,-4,0,0,0,423549,0
423563,336,-2043,47,216,65,459,5356,102,-7,557,272,35335,-28,35,127,0,0,2012,175,0,21823,8437,191,37547,-4,0,0,0,423549,0
423573,326,-2032,108,221,71,449,5406,128,31,643,344,35323,-42,35,127,0,0,2028,153,0,21823,8437,191,37557,-4,0,0,0,423549,0
423583,320,-2025,141,212,77,442,5482,178,76,514,336,35321,-88,35,127,0,0,2045,175,0,21823,8437,191,37567,-4,0,0,0,423549,0
423593,294,-2034,158,185,78,431,5560,170,48,505,336,35326,-95,35,127,0,0,2056,109,0,21823,8437,191,37577,-4,0,0,0,423564,0
423603,300,-2062,170,167,87,412,5638,179,-16,419,288,35329,-86,35,127,0,0,2074,142,0,21823,8437,191,37587,-4,0,0,0,423580,0
423613,323,-2027,190,143,75,383,5710,149,-15,496,288,35318,-97,35,127,0,0,2087,142,0,21823,8437,191,37597,-4,0,0,0,423580,0
423623,299,-2040,179,123,70,368,5774,130,-16,500,280,35322,-99,35,127,0,0,2100,120,0,21823,8437,191,37607,-4,0,0,0,423627,0
423633,266,-2012,221,92,73,325,5839,131,-15,458,280,35322,-106,35,127,0,0,2113,120,0,21823,8437,191,37617,-4,0,0,0,423627,0
423643,282,-2017,216,55,58,304,5888,88,-36,514,272,35325,-81,35,127,0,0,2124,120,0,21823,8437,191,37627,-4,0,0,0,423627,0
423653,268,-2029,212,7,46,261,5941,114,-32,528,304,35319,-69,35,127,0,0,2133,76,0,21823,8437,191,37637,-4,0,0,0,423627,0
423663,252,-2036,204,-18,20,237,6003,141,23,429,184,35319,-70,35,127,0,0,2144,65,0,21823,8437,191,37647,-4,0,0,0,423627,0
423673,250,-2038,187,-53,0,207,6058,109,16,396,184,35327,-64,35,127,0,0,2151,76,0,21823,8437,191,37657,-4,0,0,0,423642,0
423683,233,-2007,182,-77,-1,164,6090,62,-56,459,224,35333,-47,35,127,0,0,2157,65,0,21823,8437,191,37667,-4,0,0,0,423674,0
423693,245,-2027,179,-94,7,111,6117,41,-60,529,144,35329,-35,35,127,0,0,2164,43,0,21823,8437,191,37677,-4,0,0,0,423674,0
423703,231,-2031,174,-108,0,79,6130,27,-37,624,200,35325,-54,35,127,0,0,2170,65,0,21823,8437,191,37687,-4,0,0,0,423674,0
423713,236,-2032,168,-131,2,29,6162,89,13,499,176,35321,-82,35,127,0,0,2168,-21,0,21823,8437,191,37697,-4,0,0,0,423689,0
423723,277,-2023,177,-141,-11,6,6194,45,40,364,104,35320,-72,35,127,0,0,2170,0,0,21823,8437,191,37707,-4,0,0,0,423705,0
423733,235,-2034,169,-164,-25,-27,6210,41,-30,358,104,35320,-68,35,127,0,0,2173,0,0,21823,8437,191,37717,-4,0,0,0,423705,0
423743,255,-2030,158,-181,-37,-41,6222,5,-32,285,48,35319,-72,35,127,0,0,2170,0,0,21823,8437,191,37727,-4,0,0,0,423705,0
423753,257,-2045,163,-203,-53,-64,6219,-3,-35,291,56,35326,-86,35,127,0,0,2173,10,0,21823,8437,191,37737,-4,0,0,0,423736,0
423763,245,-2030,147,-199,-56,-73,6222,3,-18,307,48,35335,-111,35,127,0,0,2170,-21,0,21823,8437,191,37747,-4,0,0,0,423736,0
423773,269,-2040,109,-210,-60,-93,6222,9,3,312,48,35329,-95,35,127,0,0,2170,-32,0,21823,8437,191,37757,-4,0,0,0,423752,0
423783,278,-2021,101,-198,-59,-99,6221,2,-8,299,48,35325,-112,35,127,0,0,2170,-32,0,21823,8437,191,37767,-4,0,0,0,423752,0
423793,300,-2029,84,-186,-52,-92,6220,7,5,294,56,35325,-104,35,127,0,0,2170,-21,0,21823,8437,191,37777,-4,0,0,0,423783,0
423803,322,-2019,77,-167,-49,-88,6221,-3,2,281,64,35340,-99,35,127,0,0,2168,-43,0,21823,8437,191,37787,-4,0,0,0,423783,0
423813,306,-2025,64,-141,-35,-79,6220,-6,-5,221,64,35340,-84,35,127,0,0,2170,0,0,21823,8437,191,37797,-4,0,0,0,423783,0
423823,326,-2012,83,-127,-23,-74,6219,-8,-3,224,64,35331,-77,35,127,0,0,2170,32,0,21823,8437,191,37807,-4,0,0,0,423799,0
423833,327,-2017,93,-120,-24,-58,6221,-4,5,245,32,35328,-100,35,127,0,0,2168,-43,0,21823,8437,191,37817,-4,0,0,0,423799,0
423843,293,-2032,92,-118,-24,-58,6219,18,-8,214,32,35337,-96,35,127,0,0,2168,0,0,21823,8437,191,37827,-4,0,0,0,423830,0
423853,317,-2030,91,-99,-26,-49,6215,-33,1,133,64,35341,-84,35,127,0,0,2168,21,0,21823,8437,191,37837,-4,0,0,0,423830,0
423863,305,-2042,99,-101,-22,-42,6220,25,7,138,56,35333,-67,35,127,0,0,2168,10,0,21823,8437,191,37847,-4,0,0,0,423845,0
423873,319,-2040,97,-79,-25,-47,6216,-14,2,141,64,35329,-93,35,127,0,0,2166,10,0,21823,8437,191,37857,-4,0,0,0,423845,0
423883,320,-2034,82,-73,-16,-49,6219,-1,-10,178,32,35337,-107,35,127,0,0,2166,-21,0,21823,8437,191,37867,-4,0,0,0,423861,0
423893,268,-2030,102,-63,-19,-60,6218,-3,-1,177,80,35347,-109,35,127,0,0,2170,10,0,21823,8437,191,37877,-4,0,0,0,423892,0
423903,263,-2031,103,-58,-15,-65,6219,-1,1,195,32,35349,-83,35,127,0,0,2168,0,0,21823,8437,191,37887,-4,0,0,0,423892,0
423913,302,-2017,126,-64,-12,-93,6217,-12,-7,148,88,35337,-89,35,127,0,0,2166,0,0,21823,8437,191,37897,-4,0,0,0,423892,0
423923,303,-2034,132,-75,-4,-112,6219,0,-6,110,24,35339,-95,35,127,0,0,2164,-65,0,21823,8437,191,37907,-4,0,0,0,423892,0
423933,289,-2034,130,-86,-16,-102,6214,-9,-3,30,-8,35337,-100,35,127,0,0,2164,10,0,21823,8437,191,37917,-4,0,0,0,423908,0
423943,301,-2030,116,-84,-17,-102,6214,-1,-2,-7,-40,35344,-98,35,127,0,0,2159,-43,0,21823,8437,191,37927,-4,0,0,0,423939,0
423953,308,-2026,100,-82,-16,-114,6208,-1,0,-17,-32,35334,-95,35,127,0,0,2155,-87,0,21823,8437,191,37937,-4,0,0,0,423939,0
423963,323,-2030,108,-74,-16,-103,6204,-21,-10,-164,-16,35340,-98,35,127,0,0,2155,-32,0,21823,8437,191,37947,-4,0,0,0,423939,0
423973,325,-2031,90,-71,-7,-89,6196,-16,-12,-150,-64,35333,-98,35,127,0,0,2153,-32,0,21823,8437,191,37957,-4,0,0,0,423939,0
423983,335,-2022,93,-62,-15,-75,6184,-33,-8,-137,-32,35340,-103,35,127,0,0,2151,-21,0,21823,8437,191,37967,-4,0,0,0,423970,0
423993,336,-2025,89,-54,-8,-56,6177,-13,-3,-88,-40,35334,-96,35,127,0,0,2151,-21,0,21823,8437,191,37977,-4,0,0,0,423970,0
424003,347,-2020,88,-47,-5,-38,6176,6,24,-73,-16,35333,-118,35,127,0,0,2151,-21,0,21823,8437,191,37987,-4,0,0,0,423970,0
424013,318,-2022,113,-42,-10,-27,6173,-25,11,-140,16,35329,-99,35,127,0,0,2153,32,0,21823,8437,191,37997,-4,0,0,0,424002,0
424023,301,-2031,111,-48,-11,-20,6175,6,-5,-93,0,35339,-103,35,127,0,0,2151,-21,0,21823,8437,191,38007,-4,0,0,0,424002,0
424033,276,-2024,116,-55,-10,-32,6172,-1,2,-121,-24,35333,-80,35,127,0,0,2151,10,0,21823,8437,191,38017,-4,0,0,0,424002,0
424043,296,-2030,125,-54,-10,-40,6172,-7,-1,-83,-8,35334,-87,35,127,0,0,2151,-21,0,21823,8437,191,38027,-4,0,0,0,424033,0
424053,284,-2035,129,-61,-13,-56,6167,-29,-6,-189,-24,35343,-94,35,127,0,0,2148,32,0,21823,8437,191,38037,-4,0,0,0,424033,0
424063,285,-2036,121,-68,-2,-69,6169,2,-4,-185,-56,35345,-97,35,127,0,0,2146,-10,0,21823,8437,191,38047,-4,0,0,0,424033,0
424073,303,-2043,107,-70,-12,-75,6167,0,6,-165,-32,35337,-98,35,127,0,0,2148,0,0,21823,8437,191,38057,-4,0,0,0,424048,0
424083,322,-2031,102,-60,-15,-64,6166,-7,-3,-196,-48,35328,-99,35,127,0,0,2146,0,0,21823,8437,191,38067,-4,0,0,0,424064,0
424093,321,-2032,87,-58,-12,-57,6164,-1,-1,-225,-48,35341,-100,35,127,0,0,2146,-10,0,21823,8437,191,38077,-4,0,0,0,424080,0
424103,323,-2025,84,-50,-3,-55,6164,0,-3,-247,-48,35347,-101,35,127,0,0,2144,-10,0,21823,8437,191,38087,-4,0,0,0,424080,0
424113,320,-2029,108,-48,-10,-43,6161,-3,-1,-262,-40,35346,-93,35,127,0,0,2146,21,0,21823,8437,191,38097,-4,0,0,0,424111,0
424123,326,-2029,99,-48,-15,-39,6161,-8,1,-271,-64,35341,-111,35,127,0,0,2144,0,0,21823,8437,191,38107,-4,0,0,0,424111,0
424133,291,-2028,113,-50,-8,-33,6160,1,-2,-268,-48,35342,-112,35,127,0,0,2144,21,0,21823,8437,191,38117,-4,0,0,0,424111,0
424143,312,-2040,111,-52,-7,-45,6161,3,4,-222,-72,35342,-105,35,127,0,0,2146,10,0,21823,8437,191,38127,-4,0,0,0,424111,0
424153,283,-2034,126,-54,-11,-49,6160,0,-1,-225,-24,35339,-83,35,127,0,0,2144,-10,0,21823,8437,191,38137,-4,0,0,0,424142,0
424163,283,-2021,133,-61,-12,-65,6161,13,1,-221,-40,35332,-59,35,127,0,0,2144,-32,0,21823,8437,191,38147,-4,0,0,0,424142,0
424173,288,-2034,124,-64,-19,-69,6157,-21,-3,-267,-56,35334,-77,35,127,0,0,2142,-10,0,21823,8437,191,38157,-4,0,0,0,424158,0
424183,322,-2029,114,-66,-14,-74,6160,0,-1,-241,-56,35334,-69,35,127,0,0,2144,-21,0,21823,8437,191,38167,-4,0,0,0,424158,0
424193,325,-2037,102,-68,-16,-77,6159,9,-1,-223,-32,35339,-80,35,127,0,0,2144,21,0,21823,8437,191,38177,-4,0,0,0,424205,0
424203,325,-2025,104,-61,-21,-72,6157,-29,-6,-282,-40,35339,-63,35,127,0,0,2142,10,0,21823,8437,191,38187,-4,0,0,0,424205,0
424213,311,-2032,101,-61,-11,-70,6157,6,-5,-283,-72,35338,-74,35,127,0,0,2144,0,0,21823,8437,191,38197,-4,0,0,0,424205,0
424223,310,-2032,98,-58,-10,-68,6155,-2,4,-312,-64,35347,-88,35,127,0,0,2142,0,0,21823,8437,191,38207,-4,0,0,0,424205,0
424233,302,-2024,94,-58,-13,-70,6155,11,1,-307,-72,35347,-95,35,127,0,0,2140,-32,0,21823,8437,191,38217,-4,0,0,0,424205,0
424243,292,-2013,103,-62,-17,-79,6154,3,6,-337,-88,35338,-100,35,127,0,0,2137,-32,0,21823,8437,191,38227,-4,0,0,0,424205,0
424253,285,-2026,110,-61,-22,-87,6152,-1,-1,-372,-104,35334,-100,35,127,0,0,2140,0,0,21823,8437,191,38237,-4,0,0,0,424252,0
424263,270,-2037,113,-60,-13,-96,6146,-6,-4,-349,-128,35347,-106,35,127,0,0,2135,-54,0,21823,8437,191,38247,-4,0,0,0,424252,0
424273,288,-2027,119,-62,-7,-102,6139,-13,-5,-344,-80,35351,-111,35,127,0,0,2135,-32,0,21823,8437,191,38257,-4,0,0,0,424252,0
424283,308,-2025,123,-65,-15,-100,6124,-42,-16,-317,-40,35342,-98,35,127,0,0,2135,-10,0,21823,8437,191,38267,-4,0,0,0,424252,0
424293,330,-2025,115,-68,-13,-98,6102,-53,-35,-208,-48,35330,-73,35,127,0,0,2131,-21,0,21823,8437,191,38277,-4,0,0,0,424283,0
424303,324,-2034,100,-63,-16,-90,6099,13,15,-196,-32,35343,-55,35,127,0,0,2129,-32,0,21823,8437,191,38287,-4,0,0,0,424283,0
424313,313,-2027,109,-57,-25,-67,6097,-10,48,-261,-16,35347,-51,35,127,0,0,2129,-21,0,21823,8437,191,38297,-4,0,0,0,424298,0
424323,352,-2037,90,-61,-21,-63,6096,-10,6,-260,-88,35344,-46,35,127,0,0,2129,-32,0,21823,8437,191,38307,-4,0,0,0,424298,0
424333,336,-2025,78,-51,-7,-53,6095,4,0,-286,-72,35332,-33,35,127,0,0,2129,10,0,21823,8437,191,38317,-4,0,0,0,424314,0
424343,339,-2021,79,-47,-14,-47,6096,-1,0,-225,-88,35333,-40,35,127,0,0,2131,-21,0,21823,8437,191,38327,-4,0,0,0,424330,0
424353,319,-2039,92,-38,-12,-41,6095,0,-1,-250,-24,35340,-48,35,127,0,0,2129,0,0,21823,8437,191,38337,-4,0,0,0,424330,0
424363,331,-2018,114,-38,-3,-46,6096,0,2,-261,-80,35335,-37,35,127,0,0,2133,21,0,21823,8437,191,38347,-4,0,0,0,424345,0
424373,332,-2033,115,-41,-6,-40,6099,15,6,-185,-32,35331,-67,35,127,0,0,2133,0,0,21823,8437,191,38357,-4,0,0,0,424345,0
424383,319,-2034,122,-47,-14,-44,6096,0,1,-169,-32,35325,-62,35,127,0,0,2131,-21,0,21823,8437,191,38367,-4,0,0,0,424345,0
424393,297,-2026,129,-49,-15,-41,6096,6,-5,-189,-64,35336,-81,35,127,0,0,2131,-21,0,21823,8437,191,38377,-4,0,0,0,424377,0
424403,317,-2036,115,-55,-8,-42,6096,5,1,-216,-72,35343,-57,35,127,0,0,2131,0,0,21823,8437,191,38387,-4,0,0,0,424392,0
424413,322,-2029,108,-58,-11,-42,6097,8,5,-172,-64,35337,-66,35,127,0,0,2133,-10,0,21823,8437,191,38397,-4,0,0,0,424392,0
424423,285,-2028,96,-53,-11,-38,6096,7,3,-169,-32,35333,-69,35,127,0,0,2131,-21,0,21823,8437,191,38407,-4,0,0,0,424392,0
424433,295,-2023,97,-57,-14,-49,6095,-8,-4,-196,-64,35330,-73,35,127,0,0,2129,-21,0,21823,8437,191,38417,-4,0,0,0,424423,0
424443,317,-2026,109,-52,-6,-52,6095,2,-1,-219,-48,35346,-68,35,127,0,0,2133,10,0,21823,8437,191,38427,-4,0,0,0,424423,0
424453,329,-2035,115,-62,-9,-51,6096,-1,0,-170,-32,35337,-52,35,127,0,0,2133,-21,0,21823,8437,191,38437,-4,0,0,0,424439,0
424463,285,-2030,122,-58,-8,-44,6095,5,-5,-216,-24,35327,-45,35,127,0,0,2131,0,0,21823,8437,191,38447,-4,0,0,0,424439,0
424473,296,-2029,124,-66,-13,-47,6095,-5,0,-197,-32,35320,-58,35,127,0,0,2133,10,0,21823,8437,191,38457,-4,0,0,0,424455,0
424483,290,-2024,125,-65,-11,-49,6096,0,-2,-183,-32,35337,-43,35,127,0,0,2133,0,0,21823,8437,191,38467,-4,0,0,0,424455,0
424493,314,-2036,111,-70,-7,-48,6095,-5,-1,-215,-16,35335,-39,35,127,0,0,2133,10,0,21823,8437,191,38477,-4,0,0,0,424455,0
424503,313,-2029,97,-74,-14,-46,6096,-1,6,-201,-32,35325,-26,35,127,0,0,2133,-10,0,21823,8437,191,38487,-4,0,0,0,424486,0
424513,328,-2039,100,-71,-17,-44,6095,7,-4,-181,-32,35317,-46,35,127,0,0,2131,0,0,21823,8437,191,38497,-4,0,0,0,424486,0
424523,326,-2025,105,-75,-20,-47,6095,-9,-2,-176,-64,35326,-57,35,127,0,0,2133,0,0,21823,8437,191,38507,-4,0,0,0,424502,0
424533,338,-2030,100,-78,-13,-48,6096,1,0,-191,-96,35328,-50,35,127,0,0,2133,21,0,21823,8437,191,38517,-4,0,0,0,424517,0
424543,307,-2039,97,-80,-14,-40,6096,5,3,-171,-96,35329,-46,35,127,0,0,2133,0,0,21823,8437,191,38527,-4,0,0,0,424517,0
424553,328,-2046,99,-83,-14,-43,6096,7,-5,-156,-32,35324,-36,35,127,0,0,2133,-10,0,21823,8437,191,38537,-4,0,0,0,424533,0
424563,286,-2030,107,-74,-9,-43,6095,-7,-1,-212,-24,35326,-47,35,127,0,0,2131,10,0,21823,8437,191,38547,-4,0,0,0,424548,0
424573,285,-2022,106,-74,-11,-45,6097,2,3,-212,-24,35327,-45,35,127,0,0,2131,-10,0,21823,8437,191,38557,-4,0,0,0,424548,0
424583,324,-2024,102,-73,-11,-49,6095,3,1,-185,0,35329,-48,35,127,0,0,2133,0,0,21823,8437,191,38567,-4,0,0,0,424564,0
424593,298,-2025,109,-70,-20,-51,6096,-4,-2,-171,-32,35328,-51,35,127,0,0,2133,0,0,21823,8437,191,38577,-4,0,0,0,424564,0
424603,309,-2034,104,-73,-26,-45,6096,3,-4,-186,-32,35325,-50,35,127,0,0,2133,10,0,21823,8437,191,38587,-4,0,0,0,424580,0
424613,301,-2032,102,-79,-24,-50,6096,7,3,-183,-32,35326,-54,35,127,0,0,2133,0,0,21823,8437,191,38597,-4,0,0,0,424595,0
424623,306,-2025,90,-73,-16,-48,6095,-11,-3,-210,-48,35324,-51,35,127,0,0,2131,10,0,21823,8437,191,38607,-4,0,0,0,424595,0
424633,310,-2022,105,-81,-17,-58,6096,1,7,-191,-32,35324,-48,35,127,0,0,2131,0,0,21823,8437,191,38617,-4,0,0,0,424626,0
424643,298,-2033,106,-74,-19,-61,6095,-5,4,-183,-32,35334,-57,35,127,0,0,2129,-43,0,21823,8437,191,38627,-4,0,0,0,424626,0
424653,275,-2029,110,-72,-19,-65,6094,-11,-5,-246,-16,35337,-60,35,127,0,0,2133,32,0,21823,8437,191,38637,-4,0,0,0,424626,0
424663,314,-2031,108,-84,-19,-61,6097,0,0,-198,-32,35330,-57,35,127,0,0,2131,-10,0,21823,8437,191,38647,-4,0,0,0,424642,0
424673,294,-2036,113,-86,-24,-64,6095,2,2,-199,-32,35316,-38,35,127,0,0,2131,-32,0,21823,8437,191,38657,-4,0,0,0,424658,0
424683,304,-2027,116,-84,-22,-70,6096,0,-7,-195,-96,35322,-29,35,127,0,0,2129,-43,0,21823,8437,191,38667,-4,0,0,0,424673,0
424693,315,-2035,94,-88,-21,-64,6095,0,2,-205,-80,35334,-34,35,127,0,0,2133,10,0,21823,8437,191,38677,-4,0,0,0,424673,0
424703,331,-2041,97,-86,-24,-59,6097,7,3,-174,-64,35336,-27,35,127,0,0,2131,-10,0,21823,8437,191,38687,-4,0,0,0,424673,0
424713,317,-2033,75,-82,-24,-58,6097,12,-3,-218,-88,35331,-31,35,127,0,0,2131,-10,0,21823,8437,191,38697,-4,0,0,0,424705,0
424723,330,-2038,80,-74,-20,-52,6096,2,2,-198,-24,35318,-20,35,127,0,0,2131,-10,0,21823,8437,191,38707,-4,0,0,0,424705,0
424733,311,-2021,86,-68,-5,-54,6093,-7,0,-243,-80,35327,-27,35,127,0,0,2131,21,0,21823,8437,191,38717,-4,0,0,0,424705,0
424743,295,-2030,86,-68,-11,-57,6097,15,0,-218,-88,35326,-21,35,127,0,0,2133,10,0,21823,8437,191,38727,-4,0,0,0,424705,0
424753,325,-2040,86,-71,-8,-62,6096,8,0,-175,-24,35330,-57,35,127,0,0,2131,0,0,21823,8437,191,38737,-4,0,0,0,424767,0
424763,312,-2034,101,-65,-10,-69,6093,-3,-6,-250,-80,35322,-59,35,127,0,0,2131,21,0,21823,8437,191,38747,-4,0,0,0,424767,0
424773,314,-2035,113,-75,-11,-68,6094,-1,-2,-234,-80,35326,-60,35,127,0,0,2131,-10,0,21823,8437,191,38757,-4,0,0,0,424783,0
424783,292,-2046,114,-79,-10,-69,6094,5,-3,-208,-88,35325,-50,35,127,0,0,2129,-43,0,21823,8437,191,38767,-4,0,0,0,424783,0
424793,303,-2031,85,-71,-15,-56,6093,1,2,-239,-64,35321,-65,35,127,0,0,2131,-10,0,21823,8437,191,38777,-4,0,0,0,424783,0
424803,345,-2030,76,-65,-12,-51,6092,-5,-3,-264,-64,35312,-50,35,127,0,0,2129,10,0,21823,8437,191,38787,-4,0,0,0,424783,0
424813,352,-2020,66,-55,-8,-38,6092,-4,0,-298,-64,35315,-57,35,127,0,0,2131,54,0,21823,8437,191,38797,-4,0,0,0,424783,0
424823,341,-2023,59,-41,0,-22,6093,7,2,-253,-8,35332,-42,35,127,0,0,2131,10,0,21823,8437,191,38807,-4,0,0,0,424814,0
424833,337,-2025,78,-35,5,-18,6093,-3,-1,-264,-40,35338,-41,35,127,0,0,2129,0,0,21823,8437,191,38817,-4,0,0,0,424814,0
424843,321,-2034,80,-33,7,-11,6093,9,-4,-238,-24,35345,-27,35,127,0,0,2131,21,0,21823,8437,191,38827,-4,0,0,0,424814,0
424853,284,-2034,103,-27,0,-10,6094,-8,1,-203,-80,35338,-38,35,127,0,0,2133,10,0,21823,8437,191,38837,-4,0,0,0,424830,0
424863,292,-2059,103,-31,7,-8,6094,1,0,-170,-32,35344,-50,35,127,0,0,2133,21,0,21823,8437,191,38847,-4,0,0,0,424845,0
424873,276,-2028,115,-32,6,-21,6096,14,3,-154,-32,35343,-46,35,127,0,0,2135,21,0,21823,8437,191,38857,-4,0,0,0,424861,0
424883,284,-2032,126,-37,-4,-22,6096,-4,0,-98,-40,35335,-48,35,127,0,0,2137,32,0,21823,8437,191,38867,-4,0,0,0,424861,0
424893,294,-2038,104,-41,-7,-19,6101,33,13,-5,-32,35328,-50,35,127,0,0,2137,-21,0,21823,8437,191,38877,-4,0,0,0,424861,0
424903,288,-2023,108,-51,-12,-33,6098,-1,-3,-15,16,35334,-63,35,127,0,0,2140,54,0,21823,8437,191,38887,-4,0,0,0,424876,0
424913,305,-2040,88,-48,-11,-35,6102,8,2,39,-16,35348,-63,35,127,0,0,2140,0,0,21823,8437,191,38897,-4,0,0,0,424892,0
424923,306,-2036,71,-45,-11,-50,6100,-7,8,49,24,35343,-56,35,127,0,0,2137,0,0,21823,8437,191,38907,-4,0,0,0,424908,0
424933,747,-2225,-166,-93,42,-173,6102,0,-12,33,16,35333,-57,35,127,0,0,2142,32,0,21823,8437,191,38917,-4,0,0,0,424923,0
424943,911,-1907,-90,-69,98,-479,6104,18,12,139,56,35330,-64,35,127,0,0,2140,-43,0,21823,8437,191,38927,-4,0,0,0,424939,0
424953,870,-1702,91,-121,-11,-412,6102,-14,-3,50,-48,35336,-58,35,127,0,0,2133,-76,0,21823,8437,191,38937,-4,0,0,0,424939,0
424963,284,-2030,145,-126,-133,-138,6092,-36,-26,-243,-112,35336,-55,35,127,0,0,2126,-32,0,21823,8437,191,38947,-4,0,0,0,424939,0
424973,504,-2069,12,-88,-44,-272,6083,2,-17,-309,-88,35330,-39,35,127,0,0,2124,-21,0,21823,8437,191,38957,-4,0,0,0,424955,0
424983,899,-1834,-41,-127,19,-509,6083,0,26,-358,-120,35331,-54,35,127,0,0,2115,-109,0,21823,8437,191,38967,-4,0,0,0,424955,0
424993,741,-1784,53,-160,-79,-533,6067,-55,-8,-506,-216,35341,-46,35,127,0,0,2102,-142,0,21823,8437,191,38977,-4,0,0,0,424986,0
425003,523,-1862,36,-145,-114,-382,6017,-113,-99,-461,-240,35343,-28,35,127,0,0,2091,-98,0,21823,8437,191,38987,-4,0,0,0,424986,0
425013,652,-1912,-86,-96,-28,-459,5978,-93,-46,-514,-208,35337,-28,35,127,0,0,2087,-76,0,21823,8437,191,38997,-4,0,0,0,425001,0
425023,733,-1861,-65,-112,18,-626,5946,-51,27,-506,-256,35326,-44,35,127,0,0,2069,-208,0,21823,8437,191,39007,-4,0,0,0,425001,0
425033,772,-1805,124,-178,-33,-702,5892,-150,-13,-589,-312,35328,-72,35,127,0,0,2054,-153,0,21823,8437,191,39017,-4,0,0,0,425001,0
425043,651,-1913,89,-223,-112,-653,5814,-181,-105,-479,-352,35342,-66,35,127,0,0,2036,-153,0,21823,8437,191,39027,-4,0,0,0,425033,0
425053,501,-2029,42,-167,-105,-581,5737,-159,-48,-516,-336,35345,-65,35,127,0,0,2021,-142,0,21823,8437,191,39037,-4,0,0,0,425033,0
425063,543,-1971,59,-157,-63,-621,5664,-148,12,-458,-256,35342,-77,35,127,0,0,2010,-131,0,21823,8437,191,39047,-4,0,0,0,425033,0
425073,673,-1962,85,-206,-60,-668,5608,-108,46,-525,-248,35341,-93,35,127,0,0,1999,-120,0,21823,8437,191,39057,-4,0,0,0,425048,0
425083,645,-2011,105,-220,-87,-641,5561,-91,56,-552,-248,35346,-109,35,127,0,0,1992,-76,0,21823,8437,191,39067,-4,0,0,0,425064,0
425093,571,-1989,-30,-233,-78,-611,5509,-112,3,-402,-208,35346,-105,35,127,0,0,1986,-54,0,21823,8437,191,39077,-4,0,0,0,425064,0
425103,593,-1983,-54,-214,-87,-620,5464,-87,0,-317,-152,35340,-91,35,127,0,0,1979,-98,0,21823,8437,191,39087,-4,0,0,0,425095,0
425113,597,-2060,66,-203,-116,-668,5453,-2,83,-500,-144,35344,-98,35,127,0,0,1979,10,0,21823,8437,191,39097,-4,0,0,0,425095,0
425123,557,-2016,136,-208,-194,-694,5455,-1,90,-524,-144,35342,-98,35,127,0,0,1979,0,0,21823,8437,191,39107,-4,0,0,0,425095,0
425133,293,-2162,107,-269,-310,-782,5454,-3,5,-532,-136,35342,-98,35,127,0,0,1981,21,0,21823,8437,191,39117,-4,0,0,0,425095,0
425143,136,-2100,106,-301,-225,-887,5454,-5,-4,-461,-128,35334,-92,35,127,0,0,1979,-43,0,21823,8437,191,39127,-4,0,0,0,425126,0
425153,112,-1976,-36,-361,-247,-1069,5452,-10,-4,-510,-136,35335,-96,35,127,0,0,1984,54,0,21823,8437,191,39137,-4,0,0,0,425142,0
425163,244,-2120,-80,-446,-367,-1136,5457,15,2,-401,-88,35343,-105,35,127,0,0,1990,65,0,21823,8437,191,39147,-4,0,0,0,425142,0
425173,115,-2424,70,-554,-433,-1323,5462,12,18,-217,-8,35337,-95,35,127,0,0,2003,131,0,21823,8437,191,39157,-4,0,0,0,425142,0
425183,-167,-1860,-26,-819,-581,-1588,5480,40,27,27,104,35337,-106,35,127,0,0,2010,109,0,21823,8437,191,39167,-4,0,-38,0,425173,0
425193,39,-3267,-91,-935,-439,-1929,5496,32,23,275,112,35327,-87,35,127,0,0,2021,98,0,21823,8437,191,39177,-4,0,-38,0,425173,0
425203,68,-3938,51,-650,-224,-1963,5529,100,26,389,256,35331,-98,35,127,0,0,2047,263,0,21823,8437,191,39187,-4,0,-39,0,425173,0
425213,-75,-3251,415,-472,-304,-2147,5596,171,96,545,440,35328,-83,35,127,0,0,2089,450,0,21823,8437,191,39197,-4,0,-38,0,425189,0
425223,-316,-3181,317,-660,-483,-2184,5719,295,172,598,752,35332,-96,35,127,0,0,2157,703,0,21823,8437,191,39207,-4,0,-38,0,425204,0
425233,-239,-3384,235,-636,-388,-2469,5888,403,196,678,1184,35331,-76,35,127,0,0,2243,878,0,21823,8437,191,39217,-4,0,-37,0,425204,0
425243,-208,-3337,8,-606,-259,-2724,6120,563,209,765,1512,35331,-66,35,127,0,0,2333,889,0,21823,8437,191,39227,-4,0,-36,0,425204,0
425253,93,-3135,14,-559,-172,-3051,6412,672,239,729,1824,35331,-44,35,127,0,0,2432,1021,0,21823,8437,191,39237,-4,0,-35,0,425236,0
425263,-255,-2999,103,-445,-246,-3146,6755,781,210,754,2040,35332,-49,35,127,0,0,2533,1032,0,21823,8437,191,39247,-4,0,-34,0,425236,0
425273,-192,-3237,160,-404,-322,-3230,7145,891,192,817,2312,35326,-30,35,127,0,0,2649,1186,0,21823,8437,191,39257,-4,0,-32,0,425236,0
425283,-333,-3096,154,-340,-215,-3332,7591,1022,193,831,2632,35325,-57,35,127,0,0,2781,1307,0,21823,8437,191,39267,-4,0,-30,0,425329,0
425293,178,-2967,-94,-290,-98,-3531,8101,1172,222,820,3064,35328,-38,35,127,0,0,2935,1571,0,21823,8437,191,39277,-4,0,-28,0,425329,0
425303,-8,-2837,-154,-382,-376,-3628,8687,1333,277,830,3400,35326,-30,35,127,0,0,3102,1702,0,21823,8437,191,39287,-4,0,-26,0,425329,0
425313,190,-2808,96,-419,-550,-3753,9347,1503,288,884,3928,35316,0,35,127,0,0,3293,1922,0,21823,8437,191,39297,-4,0,-23,0,425329,0
425323,518,-3196,-197,-513,-378,-4079,10103,1726,323,871,4216,35299,0,35,127,0,0,3449,1549,0,21823,8437,191,39307,-4,0,-21,0,425345,0
425333,590,-3787,265,-546,-616,-3557,10901,1770,275,598,4264,35302,3,35,127,0,0,3616,1702,0,21823,8437,191,39317,-4,0,-17,0,425345,0
425343,773,-3285,476,-581,-745,-3298,11719,1820,112,814,4600,35299,16,35,127,0,0,3801,1867,0,21823,8437,191,39327,-4,0,-15,0,425345,0
425353,370,-2406,608,-677,-703,-2942,12583,1926,126,837,4816,35293,13,35,127,0,0,3979,1746,0,21823,8437,191,39337,-4,0,-11,0,425345,0
425363,17,-1693,677,-517,-592,-2486,13457,1915,110,726,4872,35290,16,35,127,0,0,4150,1658,0,21823,8437,191,39347,-4,0,-8,0,425345,0
425373,1091,-285,-187,-15,1190,-2425,14329,1926,14,528,4528,35293,16,35,127,0,0,4242,769,0,21823,8437,191,39357,-4,0,-4,0,425345,0
425383,25,42,-536,-173,1686,-2442,15141,1694,-106,-21,2504,35311,5,35,127,0,0,4170,-856,0,21823,8437,191,39367,-4,0,-1,0,425408,0
425393,498,-130,-96,-12,757,-1101,15721,1048,-546,-652,264,35319,-21,35,127,0,0,4078,-867,0,21823,8437,191,39377,-4,0,3,0,425408,0
425403,512,-474,236,161,-33,-133,15787,-320,-1436,-1934,-856,35334,-70,35,127,0,0,3992,-823,0,21823,8437,191,39387,-4,0,6,0,425408,0
425413,-147,-685,534,470,-1047,929,15568,-525,-1634,-539,-1352,35334,-95,35,127,0,0,3902,-922,0,21823,8437,191,39397,-4,0,11,0,425408,0
425423,-72,-816,462,630,-1578,1690,15274,-691,-646,-628,-1752,35330,-95,35,127,0,0,3812,-911,0,21823,8437,191,39407,-4,0,14,0,425408,0
425433,-227,-1002,318,921,-2072,2753,14922,-810,-253,-651,-2008,35315,-77,35,127,0,0,3722,-933,0,21823,8437,191,39417,-4,0,18,0,425408,0
425443,-265,-1008,257,1122,-2223,3417,14527,-898,-189,-617,-2224,35310,-55,35,127,0,0,3629,-900,0,21823,8437,191,39427,-4,0,22,0,425423,0
425453,-309,-873,154,1324,-2284,4334,14110,-925,-130,-565,-2312,35322,-44,35,127,0,0,3544,-867,0,21823,8437,191,39437,-4,0,27,0,425454,0
425463,-273,-878,44,1498,-2185,4862,13677,-953,-70,-509,-2288,35337,-54,35,127,0,0,3465,-780,0,21823,8437,191,39447,-4,0,30,0,425454,0
425473,-222,-949,-152,1716,-1868,5554,13246,-943,-20,-440,-2208,35338,-42,35,127,0,0,3388,-769,0,21823,8437,191,39457,-4,0,36,0,425486,0
425483,-169,-992,-144,1855,-1567,6018,12823,-931,14,-452,-2144,35322,-38,35,127,0,0,3311,-758,0,21823,8437,191,39467,-4,0,40,0,425486,0
425493,-135,-1058,-133,2009,-1058,6623,12404,-912,23,-423,-2056,35313,-48,35,127,0,0,3240,-681,0,21823,8437,191,39477,-4,0,46,0,425486,0
425503,-123,-1149,-168,2074,-664,6984,12035,-894,27,-400,-1880,35322,-60,35,127,0,0,3186,-560,0,21823,8437,191,39487,-4,0,50,0,425486,0
425513,-65,-1359,-238,2176,60,7373,11655,-806,75,-337,-1560,35336,-63,35,127,0,0,3142,-428,0,21823,8437,191,39497,-4,0,56,0,425486,0
425523,-15,-1508,-264,2215,615,7560,11323,-700,159,-288,-1320,35334,-61,35,127,0,0,3111,-307,0,21823,8437,191,39507,-4,0,60,0,425501,0
425533,101,-1707,-273,2248,1491,7723,11043,-570,198,-274,-944,35331,-77,35,127,0,0,3087,-230,0,21823,8437,191,39517,-4,0,67,0,425517,0
425543,205,-1843,-244,2225,2047,7791,10820,-453,214,-324,-672,35339,-103,35,127,0,0,3069,-153,0,21823,8437,191,39527,-4,0,71,0,425517,0
425553,372,-2034,-203,2113,2760,7775,10647,-342,200,-356,-472,35338,-90,35,127,0,0,3062,-76,0,21823,8437,191,39537,-4,0,78,37,425533,0
425563,537,-2151,-130,1967,3154,7714,10525,-245,186,-371,-272,35330,-80,35,127,0,0,3058,-21,0,21823,8437,191,39547,-4,0,82,33,425533,0
425573,742,-2374,-39,1670,3639,7432,10454,-103,195,-333,-128,35325,-53,35,127,0,0,3058,0,0,21823,8437,191,39557,-4,0,88,28,425548,0
425583,910,-2542,12,1413,3868,7141,10433,-28,203,-337,-80,35325,-67,35,127,0,0,3058,21,0,21823,8437,191,39567,-4,0,92,25,425564,0
425593,1147,-2807,77,970,4080,6559,10430,8,124,-312,-80,35339,-78,35,127,0,0,3060,21,0,21823,8437,191,39577,-4,0,98,22,425564,0
425603,1246,-2923,118,676,4123,6082,10433,16,42,-247,-64,35327,-99,35,127,0,0,3065,43,0,21823,8437,191,39587,-4,0,101,20,425579,0
425613,1523,-3003,260,227,4080,5199,10436,12,10,-76,48,35330,-92,35,127,0,0,3073,109,0,21823,8437,191,39597,-4,0,106,18,425595,0
425623,1637,-2950,343,-19,3997,4494,10474,117,69,88,80,35315,-98,35,127,0,0,3087,98,0,21823,8437,191,39607,-4,0,108,17,425611,0
425633,1783,-2657,410,-299,3780,3369,10528,98,102,29,56,35317,-86,35,127,0,0,3093,65,0,21823,8437,191,39617,-4,0,111,16,425611,0
425643,1744,-2585,389,-323,3568,2558,10551,19,-32,11,16,35306,-75,35,127,0,0,3093,0,0,21823,8437,191,39627,-4,0,113,15,425611,0
425653,1427,-5388,-201,-467,1351,1515,10547,2,-117,182,216,35310,-83,35,127,0,0,3164,823,0,21823,8437,191,39637,-4,0,114,15,425689,0
425663,3366,-2511,1423,149,1970,11,10655,416,136,1330,1792,35304,-69,35,127,0,0,3339,1691,0,21823,8437,191,39647,-4,0,114,15,425704,0
425673,3827,-1958,914,264,1277,-2710,11032,963,760,1029,2600,35310,-62,35,127,0,0,3465,1175,0,21823,8437,191,39657,-4,0,114,15,425704,0
425683,2089,-2827,427,197,1112,-3261,11525,1083,760,412,2096,35311,-35,35,127,0,0,3480,32,0,2393,337,192,3,1,0,114,15,425704,0
425693,-27,-2825,641,508,1139,-3582,11950,856,86,22,664,35306,-44,35,127,0,0,3399,-966,0,2393,337,192,13,1,0,114,15,425704,0
425703,-729,-2405,635,679,436,-2508,12145,85,-539,-1479,-680,35309,-75,35,127,0,0,3331,-571,0,2393,337,192,23,1,0,114,15,425704,0
425713,-1133,-1276,9,-145,-968,-1112,11974,-407,-1202,-336,-392,35313,-89,35,127,0,0,3348,274,0,2393,337,192,33,1,0,114,15,425704,0
425723,-308,-1771,-31,-462,-1220,-637,11870,-45,-590,776,672,35318,-107,35,127,0,0,3451,1098,0,2393,337,192,43,1,0,114,15,425704,0
425733,275,-2120,-613,-265,-558,-1440,12045,484,698,771,1400,35312,-98,35,127,0,0,3535,791,0,2393,337,192,53,1,0,114,15,425704,0
425743,-190,-1628,-1129,-384,196,-2136,12314,602,732,463,1144,35312,-89,35,127,0,0,3544,0,0,2393,337,192,63,1,0,114,15,425720,0
425753,61,-2073,-369,-288,937,-2783,12557,487,116,200,328,35325,-73,35,127,0,0,3491,-593,0,2393,337,192,73,1,0,114,15,425720,0
425763,1293,-1662,-107,-373,548,-2701,12646,-27,-336,-876,-536,35344,-62,35,127,0,0,3427,-714,0,2393,337,192,83,1,0,114,15,425751,0
425773,782,-1929,-186,-485,-167,-2013,12494,-405,-800,-521,-992,35346,-67,35,127,0,0,3355,-703,0,2393,337,192,93,1,0,114,15,425751,0
425783,445,-2322,-244,-284,-78,-1795,12279,-511,-589,-527,-1144,35331,-64,35,127,0,0,3300,-538,0,2393,337,192,103,1,0,114,15,425767,0
425793,-93,-2273,-165,81,111,-1698,12034,-553,-182,-496,-1200,35316,-68,35,127,0,0,3249,-527,0,2393,337,192,113,1,0,114,15,425767,0
425803,15,-2197,83,183,198,-1651,11778,-566,-69,-517,-1272,35315,-77,35,127,0,0,3197,-505,0,2393,337,192,123,1,0,114,15,425782,0
425813,274,-2101,292,204,79,-1381,11517,-582,-33,-490,-1200,35327,-70,35,127,0,0,3153,-417,0,2393,337,192,133,1,0,114,15,425782,0
425823,299,-2050,276,219,39,-1196,11261,-560,0,-417,-1064,35328,-70,35,127,0,0,3113,-384,0,2393,337,192,143,1,0,114,15,425814,0
425833,267,-2035,175,322,91,-983,11025,-501,36,-406,-944,35327,-68,35,127,0,0,3084,-285,0,2393,337,192,153,1,0,114,15,425814,0
425843,222,-1920,156,343,117,-843,10817,-431,101,-401,-848,35320,-85,35,127,0,0,3054,-296,0,2393,337,192,163,1,0,114,15,425814,0
425853,197,-1968,143,299,98,-593,10632,-381,96,-432,-712,35328,-81,35,127,0,0,3027,-241,0,2393,337,192,173,1,0,114,15,425829,0
425863,175,-1987,151,293,89,-457,10471,-347,99,-468,-536,35331,-74,35,127,0,0,3014,-164,0,2393,337,192,183,1,0,114,15,425829,0
425873,130,-2028,218,380,97,-380,10337,-278,83,-415,-384,35329,-67,35,127,0,0,3003,-87,0,2393,337,192,193,1,0,114,15,425845,0
425883,24,-1977,173,405,60,-351,10236,-179,121,-485,-312,35336,-92,35,127,0,0,2988,-120,0,2393,337,192,203,1,0,114,15,425845,0
425893,-59,-2086,208,405,-4,-214,10154,-177,119,-446,-296,35339,-111,35,127,0,0,2979,-87,0,2393,337,192,213,1,0,114,15,425876,0
425903,-78,-2146,209,428,8,-171,10102,-104,79,-515,-232,35348,-116,35,127,0,0,2975,-43,0,2393,337,192,223,1,0,114,15,425892,0
425913,-52,-2124,231,442,70,-217,10062,-61,75,-474,-176,35337,-99,35,127,0,0,2966,-76,0,2393,337,192,233,1,0,114,15,425892,0
425923,71,-2118,274,429,74,-239,10026,-93,32,-477,-208,35331,-94,35,127,0,0,2961,-87,0,2393,337,192,243,1,0,114,15,425892,0
425933,28,-2047,278,394,42,-246,9991,-67,-2,-445,-168,35329,-74,35,127,0,0,2955,-87,0,2393,337,192,253,1,0,114,15,425923,0
425943,41,-2028,275,347,32,-227,9954,-95,-2,-428,-152,35342,-54,35,127,0,0,2950,-32,0,2393,337,192,263,1,0,114,15,425923,0
425953,11,-2028,275,284,36,-225,9937,-12,26,-496,-176,35337,-31,35,127,0,0,2942,-76,0,2393,337,192,273,1,0,114,15,425923,0
425963,76,-1996,318,261,44,-249,9925,-43,50,-663,-232,35332,-20,35,127,0,0,2937,-54,0,2393,337,192,283,1,0,114,15,425939,0
425973,77,-1982,347,223,14,-243,9890,-89,-44,-488,-192,35330,-22,35,127,0,0,2931,-43,0,2393,337,192,293,1,0,114,15,425970,0
425983,33,-2016,321,232,-1,-232,9865,-36,-25,-566,-200,35344,-23,35,127,0,0,2924,-65,0,2393,337,192,303,1,0,114,15,425970,0
425993,52,-2011,285,201,5,-244,9836,-81,17,-568,-216,35346,-42,35,127,0,0,2920,-54,0,2393,337,192,313,1,0,114,15,425970,0
426003,15,-2009,283,186,-3,-255,9793,-88,-41,-479,-176,35340,-55,35,127,0,0,2911,-76,0,2393,337,192,323,1,0,114,15,425970,0
426013,79,-2005,253,156,-17,-324,9746,-106,-26,-419,-208,35337,-87,35,127,0,0,2904,-87,0,2393,337,192,333,1,0,114,15,426095,0
426023,51,-2016,249,124,-26,-340,9723,-43,33,-534,-176,35343,-90,35,127,0,0,2898,-76,0,2393,337,192,343,1,0,114,15,426095,0
426033,63,-2030,317,91,-23,-397,9696,-79,48,-580,-320,35339,-84,35,127,0,0,2885,-153,0,2393,337,192,353,1,0,114,15,426095,0
426043,77,-2018,318,60,-31,-419,9654,-95,-36,-629,-272,35333,-83,35,127,0,0,2876,-76,0,2393,337,192,363,1,0,114,15,426095,0
426053,105,-2013,290,15,-32,-476,9597,-121,-58,-495,-256,35331,-84,35,127,0,0,2865,-109,0,2393,337,192,373,1,0,114,15,426111,0
426063,135,-2007,289,-3,-31,-510,9539,-118,-25,-504,-280,35334,-113,35,127,0,0,2852,-142,0,2393,337,192,383,1,0,114,15,426111,0
426073,142,-2023,296,4,-28,-523,9487,-131,13,-579,-304,35331,-127,35,127,0,0,2838,-131,0,2393,337,192,393,1,0,114,15,426111,0
426083,109,-2034,292,3,-34,-536,9422,-169,-21,-542,-328,35325,-124,35,127,0,0,2823,-142,0,2393,337,192,403,1,0,114,15,426111,0
426093,117,-1997,264,-13,-28,-619,9350,-145,-38,-468,-336,35327,-123,35,127,0,0,2805,-197,0,2393,337,192,413,1,0,114,15,426111,0
426103,110,-1994,263,-33,-37,-622,9283,-155,3,-591,-368,35330,-101,35,127,0,0,2790,-164,0,2393,337,192,423,1,0,114,15,426111,0
426113,89,-1997,249,-59,-46,-679,9204,-182,-26,-533,-368,35330,-92,35,127,0,0,2768,-219,0,2393,337,192,433,1,0,114,15,426111,0
426123,84,-1979,242,-80,-40,-744,9117,-179,-47,-506,-360,35328,-57,35,127,0,0,2750,-197,0,2393,337,192,443,1,0,114,15,426111,0
426133,100,-1991,289,-105,-51,-816,9033,-190,1,-582,-440,35329,-48,35,127,0,0,2729,-241,0,2393,337,192,453,1,0,114,15,426111,0
426143,92,-2009,304,-118,-42,-891,8933,-221,-32,-489,-384,35340,-52,35,127,0,0,2707,-241,0,2393,337,192,463,1,0,114,15,426111,0
426153,115,-2008,326,-156,-47,-974,8838,-211,-13,-599,-488,35356,-54,35,127,0,0,2680,-285,0,2393,337,192,473,1,0,114,15,426126,0
426163,117,-2028,315,-179,-51,-1064,8730,-248,-16,-629,-464,35363,-77,35,127,0,0,2652,-296,0,2393,337,192,483,1,0,114,15,426142,0
426173,102,-2020,338,-224,-62,-1156,8613,-273,-45,-604,-552,35357,-74,35,127,0,0,2619,-318,0,2393,337,192,493,1,0,114,15,426142,0
426183,64,-2039,337,-266,-81,-1207,8483,-291,-39,-570,-592,35352,-88,35,127,0,0,2588,-329,0,2393,337,192,503,1,0,114,15,426157,0
426193,102,-2022,364,-317,-110,-1311,8340,-326,-51,-563,-600,35339,-69,35,127,0,0,2553,-329,0,2393,337,192,513,1,0,114,15,426173,0
426203,117,-2005,314,-360,-140,-1362,8197,-334,-22,-633,-648,35339,-61,35,127,0,0,2515,-362,0,2393,337,192,523,1,0,114,15,426189,0
426213,108,-1992,262,-396,-134,-1491,8041,-335,-29,-561,-704,35343,-56,35,127,0,0,2476,-384,0,2393,337,192,533,1,0,114,15,426204,0
426223,147,-1962,266,-416,-135,-1558,7887,-331,-14,-612,-776,35345,-61,35,127,0,0,2436,-428,0,2393,337,192,543,1,0,114,15,426204,0
426233,197,-1966,275,-421,-166,-1586,7718,-382,-16,-577,-864,35337,-74,35,127,0,0,2395,-406,0,2393,337,192,553,1,0,114,15,426204,0
426243,273,-1948,240,-414,-171,-1623,7536,-411,-53,-542,-880,35326,-82,35,127,0,0,2353,-395,0,2393,337,192,563,1,0,114,15,426235,0
426253,305,-1972,202,-431,-174,-1659,7352,-407,-33,-562,-904,35327,-36,35,127,0,0,2307,-439,0,2393,337,192,573,1,0,114,15,426235,0
426263,357,-1990,217,-416,-194,-1671,7169,-408,-1,-560,-936,35334,-44,35,127,0,0,2260,-494,0,2393,337,192,583,1,0,114,15,426235,0
426273,336,-2024,147,-417,-212,-1623,6977,-429,-22,-556,-952,35336,-53,35,127,0,0,2214,-483,0,2393,337,192,593,1,0,114,15,426235,0
426283,353,-2063,201,-387,-240,-1576,6777,-443,-32,-524,-1000,35336,-74,35,127,0,0,2170,-439,0,2393,337,192,603,1,0,114,15,426267,0
426293,384,-2022,168,-359,-269,-1544,6581,-431,-11,-525,-928,35336,-51,35,127,0,0,2131,-417,0,2393,337,192,613,1,0,114,15,426267,0
426303,366,-1980,149,-361,-289,-1520,6386,-418,10,-540,-904,35333,-49,35,127,0,0,2098,-318,0,2393,337,192,623,1,0,114,15,426282,0
426313,312,-1985,161,-348,-349,-1492,6203,-405,24,-476,-784,35339,-85,35,127,0,0,2065,-307,0,2393,337,192,633,1,0,114,15,426298,0
426323,243,-2078,168,-328,-441,-1446,6036,-361,44,-516,-792,35345,-95,35,127,0,0,2039,-252,0,2393,337,192,643,1,0,114,15,426298,0
426333,15,-2238,101,-342,-560,-1192,5886,-319,65,-556,-616,35343,-82,35,127,0,0,2025,-98,0,2393,337,192,653,1,0,114,15,426314,0
426343,622,-1970,290,-298,-1096,-1459,5755,-262,66,-455,-360,35341,-59,35,127,0,0,2025,21,0,2393,337,192,663,1,0,114,15,426329,0
426353,518,-3144,324,-336,-907,-1306,5677,-137,131,-395,-136,35346,-64,35,127,0,0,2025,0,0,2393,337,192,673,1,0,0,0,426329,0
426363,-459,-3092,475,-401,-840,-1008,5645,-20,188,-346,-16,35353,-105,35,127,0,0,2047,274,0,2393,337,192,683,1,0,0,0,426345,0
426373,12,-2642,228,-443,-433,-1250,5694,136,251,216,248,35346,-118,35,127,0,0,2087,373,0,2393,337,192,693,1,0,0,0,426345,0
426383,349,-2436,-12,-373,-394,-1553,5792,231,249,382,408,35333,-140,35,127,0,0,2126,406,0,2393,337,192,703,1,0,1,0,426439,0
426393,288,-2178,23,-517,-589,-1632,5910,260,127,451,576,35339,-114,35,127,0,0,2170,472,0,2393,337,192,713,1,0,2,0,426454,0
426403,-93,-2211,121,-685,-777,-1518,6052,346,74,563,720,35345,-79,35,127,0,0,2221,538,0,2393,337,192,723,1,0,2,0,426454,0
426413,103,-2856,358,-652,-752,-1650,6215,383,99,587,984,35342,-48,35,127,0,0,2287,681,0,2393,337,192,733,1,0,3,0,426454,0
426423,-3,-2947,447,-553,-605,-1851,6413,461,109,570,1144,35323,-37,35,127,0,0,2346,615,0,2393,337,192,743,1,0,4,0,426454,0
426433,-142,-2865,531,-798,-605,-1998,6635,509,114,622,1320,35317,-70,35,127,0,0,2416,725,0,2393,337,192,753,1,0,5,0,426454,0
426443,-437,-2822,642,-903,-754,-2156,6894,598,120,658,1512,35316,-82,35,127,0,0,2496,769,0,2393,337,192,763,1,0,6,0,426454,0
426453,-377,-2577,523,-948,-899,-2595,7190,680,144,668,1712,35315,-67,35,127,0,0,2583,845,0,2393,337,192,773,1,0,7,0,426454,0
426463,-450,-2562,371,-970,-848,-2983,7528,770,153,615,1840,35310,-51,35,127,0,0,2665,802,0,2393,337,192,783,1,0,8,0,426454,0
426473,-307,-2545,341,-1019,-802,-3533,7884,783,112,529,1864,35303,-48,35,127,0,0,2742,780,0,2393,337,192,793,1,0,10,0,426454,0
426483,-437,-2531,470,-981,-925,-3669,8251,800,54,465,1784,35310,-77,35,127,0,0,2821,812,0,2393,337,192,803,1,0,11,0,426454,0
426493,-353,-2959,284,-962,-922,-3879,8613,802,5,545,1904,35322,-50,35,127,0,0,2904,845,0,2393,337,192,813,1,0,13,0,426470,0
426503,-416,-2742,101,-921,-894,-4071,8952,828,24,525,2000,35329,-60,35,127,0,0,2999,955,0,2393,337,192,823,1,0,15,0,426501,0
426513,-346,-2455,1,-760,-902,-4494,9346,884,61,656,2248,35339,-51,35,127,0,0,3109,1098,0,2393,337,192,833,1,0,17,0,426501,0
426523,-17,-2390,-121,-704,-984,-4696,9782,984,122,624,2448,35340,-59,35,127,0,0,3223,1142,0,2393,337,192,843,1,0,19,0,426501,0
426533,113,-2699,-212,-646,-1050,-4995,10258,1079,163,676,2632,35334,-48,35,127,0,0,3328,1087,0,2393,337,192,853,1,0,21,0,426501,0
426543,108,-2538,-47,-551,-1147,-5067,10773,1146,152,563,2816,35316,-49,35,127,0,0,3445,1197,0,2393,337,192,863,1,0,23,0,426532,0
426553,603,-2779,-98,-791,-1334,-5618,11315,1213,120,564,2856,35314,-11,35,127,0,0,3539,900,0,2393,337,192,873,1,0,26,0,426532,0
426563,434,-3276,272,-613,-1459,-5454,11850,1155,30,398,2608,35314,-13,35,127,0,0,3629,955,0,2393,337,192,883,1,0,28,0,426532,0
426573,649,-3241,308,-374,-1831,-5148,12347,1092,-96,623,2776,35313,-16,35,127,0,0,3744,1153,0,2393,337,192,893,1,0,31,0,426548,0
426583,594,-3117,219,-307,-2137,-4867,12865,1160,-17,766,3056,35307,-34,35,127,0,0,3882,1395,0,2393,337,192,903,1,0,33,0,426564,0
426593,525,-2900,89,-86,-2653,-4458,13433,1303,153,949,3624,35308,-14,35,127,0,0,4040,1593,0,2393,337,192,913,1,0,36,0,426579,0
426603,335,-2801,132,-8,-2944,-4110,14083,1477,267,905,3960,35305,-4,35,127,0,0,4214,1735,0,2393,337,192,923,1,0,39,0,426579,0
426613,53,-2376,380,159,-3391,-3341,14813,1668,216,982,4544,35300,4,35,127,0,0,4409,2032,0,2393,337,192,933,1,0,43,0,426579,0
426623,427,-1867,577,331,-3443,-2765,15666,1952,445,1007,5056,35291,33,35,127,0,0,4609,1955,0,2393,337,192,943,1,0,45,0,426610,0
426633,890,-1525,-12,243,-2285,-3114,16599,2046,560,514,4312,35293,44,35,127,0,0,4660,318,0,2393,337,192,953,1,0,50,0,426610,0
426643,890,-1369,-142,301,-1732,-2856,17404,1619,-79,-81,2128,35294,26,35,127,0,0,4574,-955,0,2393,337,192,963,1,0,53,0,426610,0
426653,268,-1093,-178,493,-1470,-2269,17922,865,-789,-1413,-664,35304,-34,35,127,0,0,4387,-1922,0,2393,337,192,973,0,0,57,0,426642,0
426663,304,-1248,-66,514,-1475,-1860,17752,-676,-1883,-1404,-2408,35321,-67,35,127,0,0,4187,-2010,0,2393,337,192,983,0,0,60,0,426642,0
426673,16,-1446,22,464,-1814,-849,17268,-1210,-1929,-1096,-3304,35316,-53,35,127,0,0,4018,-1669,0,2393,337,192,993,0,0,65,0,426657,0
426683,1,-1589,27,413,-1964,-217,16630,-1464,-859,-598,-3384,35307,-11,35,127,0,0,3908,-1043,0,2393,337,192,1003,0,0,68,78,426673,0
426693,82,-1711,24,496,-1949,578,15975,-1419,-329,-237,-2856,35295,-2,35,127,0,0,3845,-604,0,2393,337,192,1013,0,0,73,74,426673,0
426703,290,-1741,-8,520,-1765,949,15396,-1208,107,-111,-2168,35305,-30,35,127,0,0,3801,-417,0,2393,337,192,1023,0,0,77,71,426673,0
426713,585,-1626,48,502,-1321,1374,14929,-950,372,-110,-1688,35315,-27,35,127,0,0,3755,-538,0,2393,337,192,1033,0,0,82,66,426704,0
426723,672,-1455,76,550,-989,1625,14564,-758,421,-292,-1736,35323,-67,35,127,0,0,3676,-845,0,2393,337,192,1043,0,0,86,63,426704,0
426733,614,-1158,-56,502,-650,2110,14221,-769,235,-675,-2136,35329,-73,35,127,0,0,3570,-1054,0,2393,337,192,1053,0,0,91,59,426720,0
426743,517,-1065,-111,474,-545,2481,13822,-917,-69,-718,-2456,35327,-82,35,127,0,0,3458,-1109,0,2393,337,192,1063,0,0,95,57,426720,0
426753,479,-1127,-191,488,-450,3142,13367,-1026,-223,-641,-2584,35311,-51,35,127,0,0,3361,-955,0,2393,337,192,1073,0,0,100,53,426813,0
426763,490,-1282,-162,572,-333,3545,12884,-1063,-162,-470,-2448,35309,-30,35,127,0,0,3293,-670,0,2393,337,192,1083,0,0,104,50,426813,0
426773,494,-1418,-208,738,34,4002,12420,-997,-20,-332,-2088,35311,-13,35,127,0,0,3238,-516,0,2393,337,192,1093,0,0,109,47,426813,0
426783,550,-1421,-190,820,348,4246,12003,-877,124,-293,-1728,35331,-27,35,127,0,0,3197,-417,0,2393,337,192,1103,0,0,113,45,426813,0
426793,617,-1428,-123,991,888,4513,11645,-746,209,-328,-1480,35330,-34,35,127,0,0,3146,-472,0,2393,337,192,1113,0,0,119,41,426813,0
426803,586,-1450,-108,1073,1201,4723,11331,-672,199,-390,-1400,35324,-61,35,127,0,0,3093,-527,0,2393,337,192,1123,0,0,123,39,426829,0
426813,584,-1508,-62,1179,1498,5080,11041,-630,127,-439,-1312,35311,-77,35,127,0,0,3045,-505,0,2393,337,192,1133,0,0,128,36,426829,0
426823,627,-1573,-54,1264,1644,5307,10773,-577,82,-437,-1160,35311,-90,35,127,0,0,3008,-351,0,2393,337,192,1143,0,0,132,34,426829,0
426833,700,-1707,-49,1374,1841,5581,10535,-499,105,-447,-992,35318,-76,35,127,0,0,2979,-296,0,2393,337,192,1153,0,0,138,32,426829,0
426843,735,-1771,-31,1430,1972,5705,10329,-430,130,-447,-816,35310,-74,35,127,0,0,2950,-274,0,2393,337,192,1163,0,0,141,30,426829,0
426853,793,-1829,9,1464,2069,5864,10156,-375,117,-502,-720,35307,-88,35,127,0,0,2928,-230,0,2393,337,192,1173,0,0,147,28,426829,0
426863,790,-1874,15,1473,2071,5968,10001,-341,92,-554,-664,35323,-84,35,127,0,0,2902,-219,0,2393,337,192,1183,0,0,151,26,426829,0
426873,831,-1926,15,1478,2010,6065,9849,-312,41,-449,-584,35346,-61,35,127,0,0,2885,-175,0,2393,337,192,1193,0,0,156,24,426860,0
426883,928,-1937,-6,1469,1938,6137,9713,-283,43,-436,-400,35356,-29,35,127,0,0,2871,-131,0,2393,337,192,1203,0,0,160,23,426876,0
426893,990,-1955,-13,1467,1780,6198,9610,-207,93,-449,-288,35340,-18,35,127,0,0,2865,-43,0,2393,337,192,1213,0,0,165,22,426876,0
426903,1018,-1968,-5,1468,1636,6200,9538,-129,117,-386,-192,35330,-72,35,127,0,0,2863,-32,0,2393,337,192,1223,0,0,169,21,426876,0
426913,1105,-1979,22,1473,1358,6201,9508,-60,138,-456,-112,35330,-111,35,127,0,0,2860,32,0,2393,337,192,1233,0,0,174,19,426892,0
426923,1106,-1999,22,1484,1144,6164,9497,-4,120,-433,-120,35345,-122,35,127,0,0,2863,32,0,2393,337,192,1243,0,0,177,19,426892,0
426933,1117,-1990,1,1495,818,6068,9499,-5,67,-411,-136,35342,-113,35,127,0,0,2863,0,0,2393,337,192,1253,0,0,181,18,426923,0
426943,1100,-1999,-21,1493,624,5961,9499,5,14,-431,-96,35341,-96,35,127,0,0,2863,10,0,2393,337,192,1263,0,0,184,17,426923,0
426953,1063,-2011,-46,1478,432,5756,9500,13,2,-408,-136,35334,-112,35,127,0,0,2863,10,0,2393,337,192,1273,0,0,188,16,426923,0
426963,1057,-2049,-70,1447,352,5598,9498,-5,7,-366,-48,35338,-111,35,127,0,0,2867,54,0,2393,337,192,1283,0,0,191,16,426938,0
426973,1113,-2067,-39,1399,377,5230,9505,16,7,-201,16,35336,-131,35,127,0,0,2880,120,0,2393,337,192,1293,0,0,194,15,426938,0
426983,1134,-2078,-60,1350,436,4939,9527,60,39,49,64,35328,-127,35,127,0,0,2889,76,0,2393,337,192,1303,0,0,196,15,426970,0
426993,1198,-2110,-84,1250,582,4405,9574,121,81,97,80,35338,-128,35,127,0,0,2900,98,0,2393,337,192,1313,0,0,199,14,426985,0
427003,1313,-2130,-77,1177,681,3982,9604,52,26,240,136,35334,-134,35,127,0,0,2906,54,0,2393,337,192,1323,0,0,201,14,426985,0
427013,1397,-2138,-51,1071,760,3372,9633,63,-34,238,104,35333,-134,35,127,0,0,2911,32,0,2393,337,192,1333,0,0,203,14,426985,0
427023,1475,-2113,-26,973,784,2961,9644,14,-35,358,144,35322,-140,35,127,0,0,2920,65,0,2393,337,192,1343,0,0,205,13,427001,0
427033,1555,-2199,-48,812,759,2332,9656,39,-36,464,168,35334,-120,35,127,0,0,2928,109,0,2393,337,192,1353,0,0,206,13,427017,0
427043,1716,-2279,-2,704,760,1837,9698,145,62,451,224,35343,-109,35,127,0,0,2942,142,0,2393,337,192,1363,0,0,207,13,427017,0
427053,2444,-4906,-299,237,316,1018,9774,176,134,339,368,35343,-91,35,127,0,0,2999,681,0,2393,337,192,1373,0,0,208,13,427032,0
427063,2570,-3037,448,326,743,-116,9899,360,146,862,1296,35334,-60,35,127,0,0,3117,1175,0,2393,337,192,1383,0,0,208,12,427032,0
427073,3021,-1437,-162,95,1229,-1918,10168,668,384,774,1672,35331,-57,35,127,0,0,3186,604,0,2393,337,192,1393,0,0,208,12,427063,0
427083,2986,-1353,-431,-308,1041,-2688,10494,709,394,315,1240,35338,-49,35,127,0,0,3199,54,0,2393,337,192,1403,0,0,208,12,427063,0
427093,2779,-1627,-491,-533,950,-3354,10777,578,23,122,624,35328,-55,35,127,0,0,3190,-76,0,2393,337,192,1413,0,0,206,12,427063,0
427103,2268,-2121,-432,-604,1121,-3778,10975,368,-245,42,176,35328,-56,35,127,0,0,3190,10,0,2393,337,192,1423,0,0,205,12,427173,0
427113,1112,-1880,268,-309,1319,-3899,11037,13,-418,-210,-152,35329,-62,35,127,0,0,3164,-296,0,2393,337,192,1433,0,0,203,12,427188,0
427123,849,-2064,363,-179,1178,-3933,10942,-254,-576,-370,-560,35342,-81,35,127,0,0,3093,-769,0,1634,329,193,7,1,0,201,12,427188,0
427133,921,-1619,757,-85,296,-3139,10783,-400,-420,-652,-1072,35349,-73,35,127,0,0,3012,-780,0,1634,329,193,17,1,0,199,12,427188,0
427143,1076,-924,-179,-893,-651,-2338,10558,-514,-259,-596,-1160,35340,-66,35,127,0,0,2975,-340,0,1634,329,193,27,1,0,197,12,427188,0
427153,534,-1808,-305,-1902,-687,-2873,10326,-496,-134,-495,-1160,35333,-50,35,127,0,0,2900,-823,0,1634,329,193,37,1,0,194,12,427188,0
427163,-92,-2344,-150,-1777,-377,-2645,10077,-586,-28,-783,-1512,35333,-70,35,127,0,0,2821,-736,0,1634,329,193,47,1,0,193,11,427188,0
427173,186,-2387,-424,-1679,97,-3019,9782,-662,-137,-661,-1712,35337,-69,35,127,0,0,2733,-900,0,1634,329,193,57,1,0,191,11,427188,0
427183,553,-2527,376,-1405,-3,-2782,9453,-746,-154,-681,-1840,35325,-61,35,127,0,0,2649,-878,0,1634,329,193,67,1,0,191,11,427188,0
427193,754,-2101,619,-1532,-311,-2258,9098,-794,-114,-612,-1848,35322,-34,35,127,0,0,2577,-692,0,1634,329,193,77,1,0,186,11,427188,0
427203,592,-1955,279,-1503,-394,-2067,8743,-772,-55,-535,-1720,35322,-21,35,127,0,0,2518,-626,0,1634,329,193,87,1,0,186,11,427204,0
427213,330,-1476,-592,-1255,-226,-1851,8407,-728,37,-487,-1568,35329,-44,35,127,0,0,2463,-538,0,1634,329,193,97,1,0,186,11,427204,0
427223,364,-1688,-890,-995,-59,-1787,8098,-660,96,-503,-1432,35330,-50,35,127,0,0,2410,-527,0,1634,329,193,107,1,0,180,11,427204,0
427233,500,-1826,-645,-646,4,-1546,7814,-601,100,-525,-1376,35330,-58,35,127,0,0,2362,-516,0,1634,329,193,117,1,0,178,11,427204,0
427243,516,-2035,-358,-467,-11,-1316,7546,-594,83,-486,-1208,35339,-63,35,127,0,0,2318,-439,0,1634,329,193,127,1,0,178,11,427235,0
427253,339,-2295,-170,-237,-14,-1213,7305,-515,80,-488,-1072,35357,-64,35,127,0,0,2280,-362,0,1634,329,193,137,1,0,178,11,427235,0
427263,257,-2353,-152,-110,47,-1266,7089,-452,100,-484,-984,35355,-63,35,127,0,0,2239,-439,0,1634,329,193,147,1,0,178,11,427251,0
427273,131,-2200,-70,36,67,-1228,6889,-433,82,-513,-1000,35344,-65,35,127,0,0,2199,-395,0,1634,329,193,157,1,0,178,11,427251,0
427283,251,-2034,8,68,79,-1159,6689,-431,33,-512,-904,35324,-59,35,127,0,0,2162,-329,0,1634,329,193,167,1,0,178,11,427251,0
427293,628,-1889,-101,86,109,-1129,6502,-400,18,-511,-848,35335,-66,35,127,0,0,2124,-351,0,1634,329,193,177,1,0,178,11,427298,0
427303,638,-1913,-33,142,112,-1000,6326,-373,48,-525,-792,35348,-67,35,127,0,0,2091,-329,0,1634,329,193,187,1,0,178,11,427313,0
427313,535,-1969,390,201,26,-654,6159,-359,31,-484,-688,35346,-81,35,127,0,0,2065,-230,0,1634,329,193,197,1,0,178,11,427313,0
427323,546,-2098,438,160,6,-471,6001,-337,32,-517,-608,35330,-95,35,127,0,0,2047,-164,0,1634,329,193,207,1,0,178,11,427313,0
427333,629,-2160,253,66,17,-382,5875,-264,81,-501,-488,35321,-72,35,127,0,0,2041,-109,0,1634,329,193,217,1,0,178,11,427313,0
427343,665,-2154,144,62,31,-356,5773,-204,102,-475,-312,35323,-61,35,127,0,0,2028,-98,0,1634,329,193,227,1,0,178,11,427313,0
427353,589,-2135,50,46,-33,-204,5704,-148,110,-533,-296,35330,-54,35,127,0,0,2021,-43,0,1634,329,193,237,1,0,178,11,427329,0
427363,461,-2224,104,48,-72,-90,5650,-118,93,-484,-232,35336,-83,35,127,0,0,2012,-87,0,1634,329,193,247,1,0,178,11,427360,0
427373,347,-2087,82,106,-37,-92,5627,-37,80,-609,-216,35347,-112,35,127,0,0,2012,-21,0,1634,329,193,257,1,0,178,11,427360,0
427383,316,-1975,-56,171,-23,-113,5607,-38,65,-556,-160,35345,-126,35,127,0,0,2010,-10,0,1634,329,193,267,1,0,178,11,427360,0
427393,249,-1879,-158,256,16,-86,5596,-9,18,-508,-144,35330,-139,35,127,0,0,2010,-32,0,1634,329,193,277,1,0,178,11,427360,0
427403,236,-1899,-124,301,62,-78,5597,11,43,-556,-144,35321,-117,35,127,0,0,2014,21,0,1634,329,193,287,1,0,178,11,427391,0
427413,366,-2012,46,330,116,-125,5596,-5,15,-505,-144,35330,-119,35,127,0,0,2010,-21,0,1634,329,193,297,1,0,178,11,427407,0
427423,473,-2021,199,314,88,-192,5597,0,-4,-518,-152,35344,-109,35,127,0,0,2010,-43,0,1634,329,193,307,1,0,178,11,427407,0
427433,364,-2042,365,243,-15,-157,5594,0,-4,-553,-128,35341,-101,35,127,0,0,2012,10,0,1634,329,193,317,1,0,178,11,427407,0
427443,297,-2032,349,203,-50,-151,5594,-7,0,-511,-136,35325,-108,35,127,0,0,2010,-43,0,1634,329,193,327,1,0,178,11,427438,0
427453,265,-2025,249,174,-30,-256,5594,-2,7,-535,-144,35325,-114,35,127,0,0,2014,43,0,1634,329,193,337,1,0,178,11,427438,0
427463,324,-2004,220,178,-47,-327,5595,-3,1,-487,-112,35336,-121,35,127,0,0,2012,0,0,1634,329,193,347,1,0,178,11,427438,0
427473,275,-1897,249,168,-145,-360,5597,10,2,-511,-136,35336,-120,35,127,0,0,2012,-21,0,1634,329,193,357,1,0,178,11,427454,0
427483,268,-1920,223,124,-138,-388,5594,3,10,-504,-152,35319,-110,35,127,0,0,2014,10,0,1634,329,193,367,1,0,178,11,427454,0
427493,276,-2084,155,123,-185,-500,5595,2,2,-498,-144,35317,-128,35,127,0,0,2014,21,0,1634,329,193,377,1,0,178,11,427532,0
427503,323,-2105,228,156,-321,-547,5596,0,3,-484,-120,35331,-91,35,127,0,0,2017,43,0,1634,329,193,387,1,0,178,11,427532,0
427513,317,-2422,401,181,-551,-435,5596,10,5,-386,-48,35335,-107,35,127,0,0,2025,109,0,1634,329,193,397,1,0,178,11,427532,0
427523,517,-2431,366,149,-747,-430,5610,39,26,-43,96,35329,-99,35,127,0,0,2050,241,0,1634,329,193,407,1,0,178,11,427548,0
427533,195,-2452,267,57,-725,-404,5659,145,96,311,240,35315,-112,35,127,0,0,2080,318,0,1634,329,193,417,1,0,178,11,427548,0
427543,126,-2387,158,47,-647,-507,5742,191,137,465,432,35316,-123,35,127,0,0,2118,373,0,1634,329,193,427,1,0,178,11,427548,0
427553,135,-2269,30,44,-636,-652,5852,259,111,534,568,35317,-119,35,127,0,0,2159,417,0,1634,329,193,437,1,0,178,11,427548,0
427563,182,-2246,59,38,-680,-744,5985,319,102,589,720,35315,-107,35,127,0,0,2210,483,0,1634,329,193,447,1,0,178,11,427548,0
427573,75,-2382,134,-58,-668,-870,6146,360,97,562,840,35309,-64,35,127,0,0,2256,472,0,1634,329,193,457,1,0,178,11,427548,0
427583,-104,-2398,219,-132,-650,-1001,6321,393,75,570,920,35310,-62,35,127,0,0,2307,538,0,1634,329,193,467,1,0,178,11,427548,0
427593,-118,-2424,318,-311,-612,-1244,6512,422,61,548,968,35337,-70,35,127,0,0,2355,483,0,1634,329,193,477,1,0,178,11,427579,0
427603,-155,-2403,448,-464,-666,-1430,6713,446,43,555,1080,35350,-69,35,127,0,0,2406,538,0,1634,329,193,487,1,0,178,11,427579,0
427613,-191,-2402,637,-644,-786,-1833,6923,469,-12,546,1112,35339,-69,35,127,0,0,2454,505,0,1634,329,193,497,1,0,178,11,427595,0
427623,-185,-2445,653,-756,-894,-2131,7148,507,66,514,1072,35313,-69,35,127,0,0,2504,505,0,1634,329,193,507,1,0,178,11,427595,0
427633,-197,-2611,682,-954,-999,-2449,7371,498,68,560,1096,35312,-80,35,127,0,0,2555,527,0,1634,329,193,517,1,0,178,11,427610,0
427643,-139,-2710,786,-1032,-1069,-2626,7603,516,11,514,1144,35326,-87,35,127,0,0,2610,582,0,1634,329,193,527,1,0,178,11,427610,0
427653,-81,-2712,645,-1188,-1210,-2842,7837,532,15,568,1280,35324,-73,35,127,0,0,2676,681,0,1634,329,193,537,1,0,178,11,427657,0
427663,-42,-2754,489,-1308,-1285,-2967,8096,580,58,546,1384,35322,-72,35,127,0,0,2750,780,0,1634,329,193,547,1,0,178,11,427657,0
427673,-356,-2856,305,-1427,-1258,-3132,8381,656,88,615,1624,35319,-45,35,127,0,0,2834,878,0,1634,329,193,557,1,0,178,11,427657,0
427683,-455,-2846,232,-1496,-1177,-3297,8702,724,119,636,1880,35322,-45,35,127,0,0,2935,1032,0,1634,329,193,567,1,0,178,11,427657,0
427693,-485,-2654,147,-1514,-1116,-3623,9073,845,165,678,2216,35312,-34,35,127,0,0,3056,1230,0,1634,329,193,577,1,0,178,11,427657,0
427703,-398,-2639,145,-1490,-1207,-3857,9508,1005,216,773,2680,35307,-19,35,127,0,0,3190,1351,0,1634,329,193,587,1,0,178,11,427688,0
427713,-667,-2762,229,-1489,-1449,-4084,10019,1175,264,810,3136,35316,-16,35,127,0,0,3339,1505,0,1634,329,193,597,1,0,178,11,427688,0
427723,-1251,-2760,405,-1375,-1752,-4196,10621,1383,320,764,3448,35317,6,35,127,0,0,3491,1527,0,1634,329,193,607,1,0,29,0,427704,0
427733,-739,-2741,350,-1428,-1511,-5119,11288,1509,304,756,3936,35307,18,35,127,0,0,3673,1834,0,1634,329,193,617,1,0,33,0,427704,0
427743,-1025,-2070,587,-1204,-1850,-5976,12041,1710,296,803,4168,35295,16,35,127,0,0,3827,1450,0,1634,329,193,627,1,0,36,0,427735,0
427753,-440,-2975,223,-1601,-2420,-5659,12816,1694,211,629,4240,35296,21,35,127,0,0,3988,1658,0,1634,329,193,637,1,0,41,0,427735,0
427763,1,-4317,197,-1717,-2245,-6368,13596,1728,41,651,4320,35301,16,35,127,0,0,4130,1395,0,1634,329,193,647,1,0,44,0,427751,0
427773,207,-4946,353,-1718,-2095,-7069,14372,1698,4,476,4200,35301,17,35,127,0,0,4275,1472,0,1634,329,193,657,1,0,49,0,427751,0
427783,568,-5031,352,-1962,-2278,-7306,15147,1719,-10,582,4136,35298,-8,35,127,0,0,4423,1450,0,1634,329,193,667,1,0,53,0,427766,0
427793,223,-5231,862,-1786,-2549,-6639,15930,1723,12,630,4160,35307,-8,35,127,0,0,4568,1483,0,1634,329,193,677,1,0,60,0,427766,0
427803,-868,-4494,1006,-1617,-3266,-6051,16705,1700,1,705,4240,35313,-7,35,127,0,0,4735,1691,0,1634,329,193,687,1,0,65,0,427782,0
427813,-1522,-3464,1145,-1263,-3784,-5001,17497,1782,9,1036,4680,35313,7,35,127,0,0,4939,2087,0,1634,329,193,697,1,0,73,0,427798,0
427823,-1502,-2932,932,-1085,-4279,-3979,18367,1987,184,1233,5448,35304,36,35,127,0,0,5196,2658,0,1634,329,193,707,1,0,80,0,427798,0
427833,-555,-2327,958,-652,-4352,-2249,19399,2416,452,1652,6896,35288,69,35,127,0,0,5578,3955,0,1634,329,193,717,1,0,90,0,427813,0
427843,1516,-2708,-293,-525,-2369,-3061,20624,2683,707,559,5648,35277,143,35,127,0,0,5853,2515,0,1634,329,193,727,1,0,98,0,427829,0
427853,1274,-1421,-579,88,778,-3911,21667,2060,40,-842,1792,35280,104,35,127,0,0,5855,-241,0,1634,329,193,737,1,0,109,0,427829,0
427863,954,-961,-564,463,2263,-3709,21975,-162,-1708,-4136,-3040,35301,1,35,127,0,0,5662,-2076,0,1634,329,193,747,0,0,116,86,427876,0
427873,295,-958,-25,823,3138,-3288,21295,-2001,-3420,-3259,-6392,35304,-34,35,127,0,0,5361,-3153,0,1634,329,193,757,0,0,127,80,427876,0
427883,284,-1199,32,761,3067,-2762,20270,-1895,-2664,2415,544,35282,26,35,127,0,0,5060,-2999,0,1634,329,193,767,0,0,134,77,427876,0
427893,243,-1575,-2,440,2629,-759,20295,438,1481,1204,-832,35281,51,35,127,0,0,4816,-2406,0,1634,329,193,777,0,0,145,72,427891,0
427903,706,-1972,-125,522,2731,-116,20084,-700,1691,-1373,-2392,35283,36,35,127,0,0,4645,-1724,0,1634,329,193,787,0,0,152,69,427891,0
427913,284,-1796,-253,942,2301,860,19613,-1170,-1088,-1019,-3160,35318,-64,35,127,0,0,4482,-1582,0,1634,329,193,797,0,0,163,64,427891,0
427923,446,-1706,-180,988,2273,1355,18997,-1426,-750,-793,-3632,35307,-9,35,127,0,0,4326,-1538,0,1634,329,193,807,0,0,170,61,427891,0
427933,452,-1589,-34,969,2348,2123,18309,-1546,-415,-620,-3824,35325,-14,35,127,0,0,4172,-1505,0,1634,329,193,817,0,0,181,56,427969,0
427943,504,-1471,-141,949,2311,2624,17585,-1611,-210,-546,-3936,35342,-9,35,127,0,0,4023,-1483,0,1634,329,193,827,0,0,188,54,427969,0
427953,468,-1326,-211,793,1961,3421,16836,-1655,-104,-465,-3888,35332,-1,35,127,0,0,3886,-1318,0,1634,329,193,837,0,0,199,50,427969,0
427963,497,-1346,-263,741,1663,4023,16088,-1643,-48,-361,-3696,35318,-10,35,127,0,0,3777,-1087,0,1634,329,193,847,0,0,207,47,427969,0
427973,549,-1351,-312,646,1251,4942,15384,-1495,81,-237,-3176,35304,-22,35,127,0,0,3700,-747,0,1634,329,193,857,0,0,218,44,427969,0
427983,578,-1373,-318,655,1044,5430,14774,-1267,266,-188,-2624,35307,-44,35,127,0,0,3645,-549,0,1634,329,193,867,0,0,225,42,427969,0
427993,648,-1334,-387,672,859,6042,14272,-1035,401,-218,-2152,35310,-58,35,127,0,0,3603,-439,0,1634,329,193,877,0,0,235,39,427969,0
428003,698,-1265,-388,678,851,6390,13857,-862,377,-267,-1840,35307,-72,35,127,0,0,3552,-483,0,1634,329,193,887,0,0,243,37,427969,0
428013,614,-1244,-349,694,875,6883,13507,-742,286,-339,-1632,35316,-72,35,127,0,0,3498,-582,0,1634,329,193,897,0,0,253,34,427985,0
428023,528,-1304,-303,725,871,7194,13185,-692,183,-452,-1592,35333,-83,35,127,0,0,3436,-615,0,1634,329,193,907,0,0,260,33,428048,0
428033,421,-1387,-242,785,856,7650,12875,-695,74,-542,-1584,35340,-83,35,127,0,0,3383,-494,0,1634,329,193,917,0,0,270,30,428048,0
428043,350,-1436,-236,848,881,7925,12567,-665,13,-452,-1456,35333,-81,35,127,0,0,3337,-439,0,1634,329,193,927,0,0,277,29,428048,0
428053,415,-1534,-282,939,1021,8301,12279,-612,47,-424,-1240,35324,-87,35,127,0,0,3309,-252,0,1634,329,193,937,0,0,287,27,428048,0
428063,470,-1608,-319,1023,1176,8487,12023,-528,96,-358,-1024,35324,-71,35,127,0,0,3280,-252,0,1634,329,193,947,0,0,294,25,428063,0
428073,517,-1689,-342,1184,1496,8721,11808,-438,141,-407,-840,35331,-77,35,127,0,0,3258,-241,0,1634,329,193,957,0,0,303,24,428063,0
428083,527,-1761,-355,1277,1716,8838,11627,-361,147,-430,-720,35340,-67,35,127,0,0,3232,-241,0,1634,329,193,967,0,0,310,23,428063,0
428093,607,-1914,-272,1350,2027,8993,11462,-348,101,-465,-584,35339,-60,35,127,0,0,3212,-186,0,1634,329,193,977,0,0,320,21,428063,0
428103,694,-2047,-198,1375,2256,9047,11312,-323,52,-405,-408,35347,-69,35,127,0,0,3205,-54,0,1634,329,193,987,0,0,326,20,428094,0
428113,864,-2216,-98,1324,2588,8999,11197,-214,91,-305,-208,35357,-58,35,127,0,0,3203,-21,0,1634,329,193,997,0,0,335,19,428094,0
428123,1034,-2313,-52,1252,2767,8899,11135,-103,169,-266,-96,35349,-83,35,127,0,0,3201,-32,0,1634,329,193,1007,0,0,341,18,428094,0
428133,1294,-2427,-17,1135,2868,8684,11139,32,221,-396,-96,35335,-109,35,127,0,0,3201,10,0,1634,329,193,1017,0,0,350,17,428110,0
428143,1465,-2493,-22,1077,2823,8486,11141,-7,135,-350,-104,35332,-136,35,127,0,0,3199,-65,0,1634,329,193,1027,0,0,355,17,428126,0
428153,1663,-2522,13,1029,2552,8097,11139,9,-14,-382,-56,35344,-155,35,127,0,0,3199,-54,0,1634,329,193,1037,0,0,362,16,428141,0
428163,1857,-2509,48,991,2265,7780,11137,-11,-1,-413,-24,35347,-155,35,127,0,0,3201,21,0,1634,329,193,1047,0,0,367,16,428141,0
428173,2104,-2548,109,909,1737,7263,11140,-1,-3,-367,-128,35340,-152,35,127,0,0,3203,0,0,1634,329,193,1057,0,0,373,15,428141,0
428183,2277,-2565,153,837,1346,6871,11139,0,-1,-375,-104,35340,-147,35,127,0,0,3201,0,0,1634,329,193,1067,0,0,377,15,428188,0
428193,2510,-2545,175,691,766,6146,11137,-11,-10,-426,-128,35349,-148,35,127,0,0,3201,54,0,1634,329,193,1077,0,0,381,15,428188,0
428203,2638,-2527,219,575,394,5575,11142,10,5,-387,-104,35348,-141,35,127,0,0,3199,-21,0,1634,329,193,1087,0,0,384,15,428188,0
428213,2782,-2545,277,413,-32,4570,11135,-7,-7,-450,-120,35335,-133,35,127,0,0,3197,-10,0,1634,329,193,1097,0,0,387,15,428188,0
428223,2874,-2575,291,311,-232,3831,11136,-10,-3,-466,-160,35320,-150,35,127,0,0,3197,-32,0,1634,329,193,1107,0,0,388,15,428204,0
428233,2982,-2500,258,162,-443,2569,11136,-1,-2,-502,-104,35330,-158,35,127,0,0,3194,-10,0,1634,329,193,1117,0,0,389,14,428219,0
428243,3076,-2356,212,29,-482,1652,11134,-12,-3,-530,-152,35341,-149,35,127,0,0,3197,10,0,1634,329,193,1127,0,0,389,14,428235,0
428253,3143,-4025,2,-175,-826,-122,11140,19,-1,-496,-88,35340,-153,35,127,0,0,3216,197,0,1634,329,193,1137,0,0,388,14,428235,0
428263,3756,-3355,61,-228,-752,-1263,11174,159,65,348,552,35337,-153,35,127,0,0,3300,911,0,1532,508,194,3,1,1,388,14,428251,0
428273,4148,-2701,151,-313,-273,-3607,11347,470,331,820,1704,35331,-152,35,127,0,0,3383,769,0,1532,508,194,13,1,1,388,14,428251,0
428283,4268,-2454,62,-213,-147,-5015,11725,984,657,1227,2800,35333,-118,35,127,0,0,3443,571,0,1532,508,194,23,1,1,388,14,428266,0
428293,2262,-1464,242,102,-571,-5165,12268,1254,732,830,3072,35325,-72,35,127,0,0,3443,-54,0,1532,508,194,33,1,1,388,14,428266,0
428303,891,-1930,-136,-241,-439,-4921,12833,1224,362,455,2584,35313,-36,35,127,0,0,3379,-703,0,1532,508,194,43,1,1,388,14,428266,0
428313,-155,-1212,314,-814,-652,-3058,13318,1003,-115,297,2360,35327,-6,35,127,0,0,3364,-76,0,1532,508,194,53,1,1,388,14,428297,0
428323,-1285,-1322,315,-1125,-1130,-2177,13770,1030,-231,802,2944,35334,-41,35,127,0,0,3421,626,0,1532,508,194,63,1,1,388,14,428313,0
428333,-1133,-2348,-386,-1004,-717,-2370,14346,1394,174,1246,4016,35330,-27,35,127,0,0,3531,1109,0,1532,508,194,73,1,1,388,14,428313,0
428343,-646,-3103,-556,-720,437,-2922,15115,1815,626,1081,4640,35301,2,35,127,0,0,3623,889,0,1532,508,194,83,1,1,388,14,428313,0
428353,316,-1930,-145,-619,1870,-4172,15967,1821,548,148,3232,35289,18,35,127,0,0,3616,-164,0,1532,508,194,93,1,1,388,14,428329,0
428363,1290,-2149,309,-699,1611,-4438,16657,1356,-158,-306,1160,35309,3,35,127,0,0,3544,-769,0,1532,508,194,103,1,1,388,14,428329,0
428373,2379,-1416,-562,-834,-278,-4246,16992,394,-965,-1602,-736,35323,-49,35,127,0,0,3421,-1318,0,1532,508,194,113,1,1,388,14,428360,0
428383,1448,-1554,-731,-985,-479,-3258,16806,-480,-1722,-303,-144,35339,-56,35,127,0,0,3320,-977,660,1532,508,194,123,1,1,388,14,428360,0
428393,880,-2627,-461,-468,-548,-2129,16621,-364,-973,487,-48,35327,-69,35,127,0,0,3265,-472,860,1532,508,194,133,1,1,388,14,428376,0
428403,286,-2242,-84,-187,-456,-1909,16408,-544,-8,523,-264,35329,-94,35,127,0,0,3225,-395,1060,1532,508,194,143,1,1,388,14,428376,0
428413,-313,-2023,65,1,309,-2368,16039,-908,-361,438,-784,35333,-113,35,127,0,0,3159,-714,1260,1532,508,194,153,1,1,388,14,428376,0
428423,302,-1937,-540,69,665,-2398,15583,-1000,-481,622,-592,35338,-120,35,127,0,0,3062,-944,1460,1532,508,194,163,1,1,388,14,428407,0
428433,560,-2217,-26,360,296,-1700,15202,-715,-27,921,48,35343,-107,35,127,0,0,2983,-725,1500,1532,508,194,173,1,1,388,14,428422,0
428443,409,-2281,356,369,-111,-954,15078,-98,643,1305,248,35340,-117,35,127,0,0,2957,-219,1500,1532,508,194,183,1,1,388,14,428422,0
428453,276,-2239,203,349,-613,-547,15080,-3,763,907,248,35338,-122,35,127,0,0,2961,43,1500,1532,508,194,193,1,1,388,14,428422,0
428463,-32,-2178,-184,395,-174,-592,15051,-91,163,939,144,35330,-109,35,127,0,0,2953,-87,1500,1532,508,194,203,1,1,388,14,428438,0
428473,261,-2166,123,641,390,-756,14954,-254,-198,897,64,35328,-120,35,127,0,0,2937,-197,1500,1532,508,194,213,1,1,388,14,428454,0
428483,393,-2006,381,723,421,-682,14808,-341,-226,858,32,35328,-127,35,127,0,0,2906,-329,1500,1532,508,194,223,1,1,388,14,428454,0
428493,272,-2109,459,635,207,-349,14686,-214,-58,912,128,35329,-129,35,127,0,0,2887,-252,1500,1532,508,194,233,1,1,388,14,428485,0
428503,274,-1994,362,558,48,-95,14666,12,250,877,280,35326,-109,35,127,0,0,2882,-32,1500,1532,508,194,243,1,1,388,14,428485,0
428513,226,-1959,278,413,-70,108,14688,56,286,881,320,35327,-69,35,127,0,0,2887,65,1500,1532,508,194,253,1,1,388,14,428485,0
428523,158,-2020,291,403,28,125,14710,37,71,914,280,35321,-63,35,127,0,0,2891,32,1500,1532,508,194,263,1,1,388,14,428485,0
428533,90,-1962,305,450,161,82,14710,-5,-48,907,248,35322,-44,35,127,0,0,2891,-43,1500,1532,508,194,273,1,1,388,14,428516,0
428543,184,-1982,336,452,114,117,14715,14,-27,893,280,35325,-58,35,127,0,0,2895,32,1500,1532,508,194,283,1,1,388,14,428516,0
428553,82,-1940,244,420,-52,183,14725,26,21,899,280,35323,-61,35,127,0,0,2898,43,1500,1532,508,194,293,1,1,388,14,428516,0
428563,-73,-1989,139,412,-115,232,14749,78,40,866,360,35316,-70,35,127,0,0,2904,54,1500,1532,508,194,303,1,1,388,14,428549,0
428573,-45,-2002,94,415,-88,186,14801,120,87,887,408,35324,-81,35,127,0,0,2913,65,1500,1532,508,194,313,1,1,388,14,428549,0
428583,88,-2014,188,398,-74,137,14853,103,48,906,368,35325,-77,35,127,0,0,2922,65,1500,1532,508,194,323,1,1,388,14,428549,0
428593,40,-2005,337,362,-48,-13,14875,31,-73,931,264,35324,-77,35,127,0,0,2928,43,1500,1532,508,194,333,1,1,388,14,428658,0
428603,12,-2008,353,284,-46,-48,14875,-4,-106,900,232,35315,-70,35,127,0,0,2931,43,1500,1532,508,194,343,1,1,388,14,428674,0
428613,101,-2036,412,152,-65,-42,14875,-3,-35,897,248,35312,-74,35,127,0,0,2928,0,1500,1532,508,194,353,1,1,388,14,428674,0
428623,114,-2020,450,105,-118,-57,14877,-9,-2,899,248,35316,-86,35,127,0,0,2928,-10,1500,1532,508,194,363,1,1,388,14,428674,0
428633,135,-1977,489,85,-179,-87,14875,-8,-5,896,256,35302,-91,35,127,0,0,2928,0,1500,1532,508,194,373,1,1,388,14,428690,0
428643,100,-1916,502,51,-229,-121,14875,0,-5,898,248,35303,-100,35,127,0,0,2926,-21,1500,1532,508,194,383,1,1,388,14,428690,0
428653,-40,-1951,446,0,-340,-167,14869,-14,-10,901,232,35302,-105,35,127,0,0,2922,-43,1500,1532,508,194,393,1,1,388,14,428690,0
428663,-111,-1989,355,-20,-349,-231,14853,-38,-24,903,208,35311,-110,35,127,0,0,2924,0,1500,1532,508,194,403,1,1,388,14,428690,0
428673,-197,-1937,150,-33,-368,-386,14831,-34,-33,891,224,35315,-118,35,127,0,0,2920,-32,1500,1532,508,194,413,1,1,388,14,428690,0
428683,-409,-1963,178,-127,-510,-502,14819,-22,11,894,232,35313,-104,35,127,0,0,2913,-54,1500,1532,508,194,423,1,1,388,14,428690,0
428693,-595,-2029,165,-159,-470,-881,14785,-118,-21,941,104,35312,-120,35,127,0,0,2906,-87,1500,1532,508,194,433,1,1,388,14,428690,0
428703,-604,-2044,132,-163,-350,-1322,14660,-348,-213,877,-32,35320,-120,35,127,0,0,2882,-263,1500,1532,508,194,443,1,1,388,14,428690,0
428713,-417,-1992,104,-186,-122,-2066,14411,-646,-415,739,-304,35329,-98,35,127,0,0,2834,-505,1500,1532,508,194,453,1,1,388,14,428690,0
428723,-450,-1976,222,-200,-61,-2446,14033,-898,-491,723,-568,35340,-105,35,127,0,0,2761,-747,1500,1532,508,194,463,1,1,388,14,428690,0
428733,-388,-2085,404,-222,-143,-2728,13609,-920,-342,831,-456,35347,-99,35,127,0,0,2687,-736,1500,1532,508,194,473,1,1,388,14,428721,0
428743,-346,-2127,529,-254,-276,-2775,13224,-810,-2,936,-232,35363,-129,35,127,0,0,2612,-714,1500,1532,508,194,483,1,1,388,14,428721,0
428753,89,-2195,572,-313,-634,-2766,12917,-626,220,1063,-96,35363,-103,35,127,0,0,2555,-549,1500,1532,508,194,493,1,1,388,14,428721,0
428763,239,-2062,644,-318,-848,-2841,12641,-614,223,973,-128,35352,-105,35,127,0,0,2502,-538,1580,1532,508,194,503,1,1,388,14,428752,0
428773,690,-1336,860,-4,-2109,-3058,12354,-633,34,987,-112,35331,-113,35,127,0,0,2445,-560,1900,1532,508,194,513,1,1,388,14,428752,0
428783,772,-3506,613,-478,-2527,-2706,12094,-524,18,1377,-8,35325,-124,35,127,0,0,2403,-384,2250,1532,508,194,523,1,1,388,14,428752,0
428793,-1177,-3530,856,-697,-1586,-2598,11968,-146,305,1583,336,35341,-133,35,127,0,0,2384,-164,2590,1532,508,194,533,1,1,388,14,428783,0
428803,-738,-3085,190,-955,-971,-2899,11994,103,565,1555,744,35338,-135,35,127,0,0,2388,43,3000,1532,508,194,543,1,1,388,14,428783,0
428813,-113,-2474,30,-823,-1053,-3180,12069,189,383,1910,1016,35329,-132,35,127,0,0,2399,131,3480,1532,508,194,553,1,1,388,14,428783,0
428823,38,-2493,189,-883,-1564,-3216,12184,276,165,2122,1336,35316,-103,35,127,0,0,2419,197,3730,1532,508,194,563,1,1,388,14,428799,0
428833,-389,-3162,414,-1049,-1816,-3385,12356,431,193,2280,1768,35304,-44,35,127,0,0,2454,362,4010,1532,508,194,573,1,1,388,14,428815,0
428843,-627,-3497,416,-1186,-1545,-3532,12604,602,250,2491,2400,35306,5,35,127,0,0,2500,494,4340,1532,508,194,583,1,1,388,14,428815,0
428853,-545,-3600,603,-1341,-1072,-3659,12971,888,375,2758,3208,35287,63,35,127,0,0,2568,725,4730,1532,508,194,593,1,1,388,14,428815,0
428863,-449,-2943,695,-1337,-1281,-3683,13484,1228,509,2970,4216,35265,104,35,127,0,0,2665,988,5210,1532,508,194,603,1,1,388,14,428846,0
428873,-159,-3004,358,-1483,-1820,-3436,14159,1587,590,3261,5272,35254,170,35,127,0,0,2788,1307,5830,1532,508,194,613,1,1,388,14,428846,0
428883,-419,-3333,313,-1366,-1928,-3474,15006,1993,635,3613,6320,35230,272,35,127,0,0,2948,1647,6620,1532,508,194,623,1,1,388,14,428846,0
428893,-1396,-3221,199,-1268,-1780,-3740,16076,2509,759,4177,7560,35192,396,35,127,0,0,3161,2197,7620,1532,508,194,633,1,1,388,14,428877,0
428903,-1551,-3121,233,-1399,-1622,-3502,17333,2861,798,4726,8432,35131,587,35,127,0,0,3396,2395,8740,1532,508,194,643,1,1,388,14,428893,0
428913,-1555,-3110,232,-1527,-1491,-3765,18733,3179,622,5351,9624,35066,782,35,127,0,0,3658,2625,9670,1532,508,194,653,1,1,388,14,428893,0
428923,-1098,-3064,122,-1618,-1528,-4299,20283,3483,563,5880,10512,34994,1041,35,127,0,0,3948,2900,10660,1532,508,194,663,1,1,388,14,428893,0
428933,-781,-2997,251,-1654,-1876,-4726,21880,3509,383,6318,10904,34907,1287,35,127,0,0,4245,2988,11810,1532,508,194,673,1,1,388,14,428908,0
428943,-838,-3082,479,-1520,-2146,-5057,23494,3609,110,7040,11048,34836,1521,35,127,0,0,4559,3131,12440,1532,508,194,683,1,1,388,14,428939,0
428953,-718,-4015,658,-1618,-2354,-5270,25220,3855,256,7318,11376,34775,1770,35,127,0,0,4853,2922,12050,1532,508,194,693,1,1,388,14,428955,0
428963,-609,-4922,1036,-1619,-2189,-5501,26949,3749,230,6848,10512,34728,1932,35,127,0,0,5143,2933,11340,1532,508,194,703,1,1,388,14,428971,0
428973,-81,-4688,1148,-1543,-2600,-5848,28565,3432,-212,6348,9360,34703,1998,35,127,0,0,5418,2779,10260,1532,508,194,713,1,1,388,14,428986,0
428983,-10,-4046,896,-1630,-3189,-5740,29945,2856,-671,5341,8000,34722,1841,35,127,0,0,5673,2493,8280,1532,508,194,723,1,1,388,14,428986,0
428993,-260,-3651,836,-1394,-4271,-5556,31082,2367,-938,4304,6480,34809,1503,35,127,0,0,5888,2153,6060,1532,508,194,733,1,1,388,14,428986,0
429003,-416,-3180,928,-1149,-4887,-5295,32038,1974,-803,2858,4776,34934,1085,35,127,0,0,6062,1713,2480,1532,508,194,743,1,1,388,14,428986,0
429013,-515,-2562,1160,-986,-5589,-4689,32755,1398,-794,1068,2872,35065,646,35,127,0,0,6196,1285,660,1532,508,194,753,1,1,388,14,428986,0
429023,-1468,-1481,1834,-291,-4851,-3786,33209,769,-925,-1837,-2152,35175,310,35,127,0,0,6312,1219,0,1532,508,194,763,1,1,388,14,428986,0
429033,1330,-2770,-531,-590,-1852,-4103,32739,-1422,-2236,-2295,-4712,35242,118,35,127,0,0,6330,-65,0,1532,508,194,773,1,1,388,14,429002,0
429043,333,-2246,-427,-323,-239,-4282,31717,-2702,-2806,-3362,-9608,35271,121,35,127,0,0,6130,-2186,0,1532,508,194,783,0,1,388,14,429033,0
429053,94,-1717,-175,384,1166,-3668,30035,-3801,-2350,-1163,-9280,35228,345,35,127,0,0,5844,-2900,0,1532,508,194,793,0,1,388,14,429033,0
429063,-197,-1577,148,491,1603,-3046,28304,-3844,-1328,-474,-9344,35212,349,35,127,0,0,5521,-3262,0,1532,508,194,803,0,1,388,14,429033,0
429073,-176,-1861,345,521,2027,-1798,26533,-3879,-133,-573,-9136,35202,298,35,127,0,0,5227,-2878,0,1532,508,194,813,0,1,388,14,429049,0
429083,-205,-1948,223,545,2116,-960,24823,-3721,26,-316,-8360,35251,88,35,127,0,0,4989,-2329,0,1532,508,194,823,0,1,388,14,429064,0
429093,-102,-1839,87,654,2163,262,23208,-3441,294,-114,-7256,35289,57,35,127,0,0,4801,-1834,0,1532,508,194,833,0,1,388,14,429064,0
429103,45,-1693,61,728,2188,966,21801,-2946,590,91,-6032,35300,19,35,127,0,0,4651,-1450,0,1532,508,194,843,0,1,388,14,429080,0
