state_time,accelx,accely,accelz,gyrox,gyroy,gyroz,mot_ang,mot_vel,mot_acc,mot_cur,mot_volt,batt_volt,batt_curr,temperature,status_mn,status_ex,status_re,ank_ang,ank_vel,ank_torque,peak_ank_torque,step_energy,step_count,step_time,gait_state,movement,speed,incline,sys_time,eventFlags
532790,84,-2078,204,-92,36,115,12947,-4,-3,279,64,35048,63,35,127,0,0,3571,32,0,1639,916,246,7378,-4,0,-33,0,532769,0
532800,80,-2079,194,-96,42,112,12948,-4,-2,294,64,35058,61,35,127,0,0,3565,-21,0,1639,916,246,7388,-4,0,-33,0,532769,0
532810,87,-2083,183,-97,41,109,12948,1,0,260,64,35062,66,36,127,0,0,3568,-10,0,1639,916,246,7398,-4,0,-33,0,532769,0
532820,94,-2078,176,-97,39,113,12949,3,1,282,64,35067,70,36,127,0,0,3568,0,0,1639,916,246,7408,-4,0,-33,0,532785,0
532830,90,-2084,172,-88,39,112,12948,-1,-1,285,64,35066,75,35,127,0,0,3571,32,0,1639,916,246,7418,-4,0,-33,0,532801,0
532840,82,-2082,173,-86,35,123,12949,0,-2,295,80,35071,81,35,127,0,0,3570,49,0,1639,916,246,7428,-4,0,-33,0,532801,0
532850,105,-2082,183,-84,44,120,12950,0,-2,290,56,35082,88,35,127,0,0,3568,10,0,1639,916,246,7438,-4,0,-33,0,532816,0
532860,104,-2079,181,-87,40,117,12948,1,0,279,64,35077,97,35,127,0,0,3571,32,0,1639,916,246,7448,-4,0,-33,0,532816,0
532870,108,-2081,198,-82,34,119,12947,-16,-7,255,64,35069,86,36,127,0,0,3571,71,0,1639,916,246,7458,-4,0,-33,0,532847,0
532880,101,-2079,187,-89,42,128,12950,0,-2,267,56,35067,71,36,127,0,0,3568,10,0,1639,916,246,7468,-4,0,-33,0,532847,0
532890,79,-2086,168,-81,41,126,12949,2,0,280,64,35061,69,35,127,0,0,3571,32,0,1639,916,246,7478,-4,0,-33,0,532847,0
532900,75,-2078,171,-80,41,121,12950,-2,-3,326,56,35069,85,35,127,0,0,3565,-71,0,1639,916,246,7488,-4,0,-33,0,532863,0
532910,69,-2085,192,-76,39,115,12948,0,-2,257,64,35064,101,35,127,0,0,3568,-16,0,1639,916,246,7498,-4,0,-33,0,532879,0
532921,61,-2085,211,-85,36,122,12951,3,4,272,88,35063,92,36,127,0,0,3568,-21,0,1639,916,246,7509,-4,0,-33,0,532879,0
532931,80,-2079,204,-87,37,119,12949,-3,-3,243,64,35070,85,36,127,0,0,3568,10,0,1639,916,246,7519,-4,0,-33,0,532894,0
532941,99,-2082,188,-89,40,112,12950,-5,0,243,56,35075,76,35,127,0,0,3570,32,0,1639,916,246,7529,-4,0,-33,0,532910,0
532951,103,-2084,188,-88,35,120,12953,9,7,287,56,35080,107,35,127,0,0,3568,-10,0,1639,916,246,7539,-4,0,-33,0,532926,0
532961,101,-2082,188,-89,42,123,12952,2,2,273,24,35067,100,35,127,0,0,3568,-21,0,1639,916,246,7549,-4,0,-33,0,532926,0
532971,86,-2076,186,-92,39,125,12951,0,-10,238,56,35062,88,35,127,0,0,3568,10,0,1639,916,246,7559,-4,0,-33,0,532941,0
532981,113,-2080,177,-90,37,122,12951,-11,0,243,56,35065,83,35,127,0,0,3568,0,0,1639,916,246,7569,-4,0,-33,0,532941,0
532991,100,-2083,177,-87,47,125,12951,3,4,223,56,35070,87,35,127,0,0,3568,10,0,1639,916,246,7579,-4,0,-33,0,532957,0
533001,100,-2083,181,-81,46,129,12953,6,4,269,56,35075,90,36,127,0,0,3568,-10,0,1639,916,246,7589,-4,0,-33,0,532972,0
533011,89,-2078,189,-82,45,133,12952,2,-1,254,88,35068,77,36,127,0,0,3568,0,0,1639,916,246,7599,-4,0,-33,0,532972,0
533021,89,-2084,194,-88,41,131,12952,2,-1,255,56,35078,70,35,127,0,0,3570,10,0,1639,916,246,7609,-4,0,-33,0,532988,0
533031,82,-2079,195,-85,41,138,12956,15,2,333,24,35078,82,35,127,0,0,3570,-10,0,1639,916,246,7619,-4,0,-33,0,532988,0
533041,85,-2081,199,-90,37,135,12956,0,4,295,72,35068,88,35,127,0,0,3572,21,0,1639,916,246,7629,-4,0,-33,0,533035,0
533051,66,-2084,200,-87,35,139,12956,0,-8,285,72,35070,86,35,127,0,0,3572,65,0,1639,916,246,7639,-4,0,-33,0,533035,0
533061,85,-2078,193,-97,35,131,12964,22,6,311,48,35073,89,35,127,0,0,3572,-10,0,1639,916,246,7649,-4,0,-33,0,533051,0
533071,69,-2081,200,-94,43,124,12974,32,23,252,24,35072,69,35,127,0,0,3570,-54,0,1639,916,246,7659,-4,0,-33,0,533051,0
533081,67,-2081,197,-105,37,121,12980,0,-3,126,40,35068,85,35,127,0,0,3572,10,0,1639,916,246,7669,-4,0,-33,0,533051,0
533091,73,-2085,197,-105,38,113,12981,-1,-13,160,40,35061,82,35,127,0,0,3572,-10,0,1639,916,246,7679,-4,0,-33,0,533051,0
533101,62,-2084,194,-109,42,109,12981,5,-4,153,40,35070,59,35,127,0,0,3570,-32,0,1639,916,246,7689,-4,0,-33,0,533066,0
533111,77,-2083,195,-113,40,98,12982,7,2,138,8,35076,57,35,127,0,0,3570,-32,0,1639,916,246,7699,-4,0,-33,0,533066,0
533121,63,-2087,197,-118,31,100,12979,-5,-7,46,0,35081,66,36,127,0,0,3568,10,0,1639,916,246,7709,-4,0,-33,0,533097,0
533131,80,-2075,189,-118,31,102,12980,-4,1,50,-8,35081,85,36,127,0,0,3570,10,0,1639,916,246,7719,-4,0,-33,0,533097,0
533141,83,-2074,176,-119,37,94,12979,-8,5,36,0,35070,78,35,127,0,0,3568,0,0,1639,916,246,7729,-4,0,-33,0,533097,0
533151,82,-2082,179,-115,34,93,12982,19,4,31,0,35078,89,35,127,0,0,3568,-21,0,1639,916,246,7739,-4,0,-33,0,533113,0
533162,85,-2078,165,-112,28,96,12980,0,0,28,-16,35069,107,35,127,0,0,3569,-10,0,1639,916,246,7750,-4,0,-33,0,533144,0
533172,104,-2080,170,-103,25,90,12979,-1,-1,15,0,35083,102,36,127,0,0,3568,0,0,1639,916,246,7760,-4,0,-33,0,533144,0
533182,86,-2084,188,-110,33,92,12981,11,-3,2,0,35072,78,36,127,0,0,3571,32,0,1639,916,246,7770,-4,0,-33,0,533144,0
533192,79,-2085,186,-105,30,100,12979,-3,0,35,0,35070,59,35,127,0,0,3568,10,0,1639,916,246,7780,-4,0,-33,0,533144,0
533202,101,-2080,187,-107,32,96,12979,0,-6,-11,0,35064,63,35,127,0,0,3568,27,0,1639,916,246,7790,-4,0,-33,0,533160,0
533212,94,-2086,187,-103,32,104,12978,-4,-5,-17,-16,35069,88,35,127,0,0,3569,38,0,1639,916,246,7800,-4,0,-33,0,533175,0
533222,106,-2085,169,-103,34,110,12979,0,1,8,0,35072,84,35,127,0,0,3568,0,0,1639,916,246,7810,-4,0,-33,0,533191,0
533232,97,-2079,171,-97,36,113,12978,-7,-1,-30,-16,35081,88,35,127,0,0,3566,10,0,1639,916,246,7820,-4,0,-33,0,533191,0
533242,110,-2077,171,-93,35,116,12978,4,-3,-17,-24,35075,76,35,127,0,0,3569,16,0,1639,916,246,7830,-4,0,-33,0,533222,0
533252,99,-2088,177,-92,38,123,12979,2,2,-3,-24,35083,84,35,127,0,0,3569,0,0,1639,916,246,7840,-4,0,-33,0,533222,0
533262,95,-2079,183,-88,38,132,12979,5,-3,4,0,35067,84,35,127,0,0,3565,-32,0,1639,916,246,7850,-4,0,-33,0,533222,0
533272,93,-2080,179,-90,35,128,12979,1,1,-17,-16,35072,79,36,127,0,0,3566,-16,0,1639,916,246,7860,-4,0,-33,0,533238,0
533282,81,-2077,177,-83,41,130,12978,-1,0,-25,0,35077,82,35,127,0,0,3565,5,0,1639,916,246,7870,-4,0,-33,0,533254,0
533292,94,-2075,183,-79,31,134,12978,-4,0,-20,-16,35066,88,35,127,0,0,3569,16,0,1639,916,246,7880,-4,0,-33,0,533254,0
533302,74,-2088,187,-85,30,134,12979,-2,4,3,0,35063,104,36,127,0,0,3568,0,0,1639,916,246,7890,-4,0,-33,0,533269,0
533312,64,-2080,186,-88,35,130,12979,5,0,2,0,35062,88,36,127,0,0,3565,-32,0,1639,916,246,7900,-4,0,-33,0,533269,0
533322,72,-2079,183,-89,35,116,12979,4,0,-14,0,35070,89,36,127,0,0,3568,16,0,1639,916,246,7910,-4,0,-33,0,533316,0
533332,85,-2079,185,-89,29,114,12978,-3,3,6,0,35076,99,35,127,0,0,3568,0,0,1639,916,246,7920,-4,0,-33,0,533316,0
533342,73,-2080,177,-88,26,112,12979,5,1,1,0,35058,86,35,127,0,0,3565,-32,0,1639,916,246,7930,-4,0,-33,0,533316,0
533352,84,-2083,170,-90,34,108,12978,3,-2,-8,0,35058,91,36,127,0,0,3568,-10,0,1639,916,246,7940,-4,0,-33,0,533332,0
533362,80,-2077,179,-82,32,109,12980,3,1,5,0,35061,83,35,127,0,0,3568,0,0,1639,916,246,7950,-4,0,-33,0,533332,0
533372,86,-2079,196,-91,29,107,12979,2,2,-8,0,35064,77,35,127,0,0,3568,5,0,1639,916,246,7960,-4,0,-33,0,533332,0
533382,100,-2080,193,-99,28,104,12979,0,4,-11,-24,35068,76,35,127,0,0,3569,21,0,1639,916,246,7970,-4,0,-33,0,533363,0
533392,78,-2084,190,-93,38,103,12978,-1,-3,-10,-16,35076,79,35,127,0,0,3569,27,0,1639,916,246,7980,-4,0,-33,0,533441,0
533402,105,-2081,190,-103,37,106,12979,1,2,-12,0,35069,73,35,127,0,0,3565,16,0,1639,916,246,7990,-4,0,-33,0,533441,0
533413,75,-2085,187,-105,34,104,12979,-2,1,-28,-24,35066,72,35,127,0,0,3566,-21,0,1639,916,246,8001,-4,0,-33,0,533457,0
533423,75,-2083,194,-103,34,104,12980,4,2,-23,-24,35056,82,36,127,0,0,3568,10,0,1639,916,246,8011,-4,0,-33,0,533457,0
533433,90,-2089,195,-108,38,104,12979,8,-1,0,-24,35048,83,35,127,0,0,3566,-21,0,1639,916,246,8021,-4,0,-33,0,533457,0
533443,72,-2085,189,-112,34,104,12979,3,2,-8,-32,35045,71,35,127,0,0,3566,-32,0,1639,916,246,8031,-4,0,-33,0,533457,0
533453,78,-2085,172,-116,41,104,12979,5,1,-16,8,35047,80,35,127,0,0,3566,-21,0,1639,916,246,8041,-4,0,-33,0,533457,0
533463,91,-2077,171,-110,42,100,12978,-6,0,-11,0,35062,88,35,127,0,0,3568,0,0,1639,916,246,8051,-4,0,-33,0,533457,0
533473,98,-2080,187,-109,41,106,12978,-3,-5,2,-32,35069,98,35,127,0,0,3566,-32,0,1639,916,246,8061,-4,0,-33,0,533457,0
533483,90,-2080,194,-114,40,108,12979,3,1,-27,8,35069,91,36,127,0,0,3566,0,0,1639,916,246,8071,-4,0,-33,0,533457,0
533493,81,-2090,193,-118,38,112,12978,-7,1,-33,-16,35063,78,36,127,0,0,3566,-10,0,1639,916,246,8081,-4,0,-33,0,533457,0
533503,83,-2081,184,-128,42,110,12977,1,-2,-49,-16,35072,85,36,127,0,0,3568,21,0,1639,916,246,8091,-4,0,-33,0,533457,0
533513,98,-2086,183,-121,33,113,12979,2,6,-9,-64,35075,85,36,127,0,0,3568,10,0,1639,916,246,8101,-4,0,-33,0,533488,0
533523,71,-2085,184,-130,37,124,12979,12,6,-30,-88,35083,88,36,127,0,0,3566,-10,0,1639,916,246,8111,-4,0,-33,0,533488,0
533533,82,-2082,172,-130,38,121,12977,16,5,-28,-48,35080,76,35,127,0,0,3561,-43,0,1639,916,246,8121,-4,0,-33,0,533504,0
533543,89,-2083,175,-127,36,117,12975,-4,4,-71,-16,35065,72,35,127,0,0,3563,-32,0,1639,916,246,8131,-4,0,-33,0,533504,0
533553,73,-2081,178,-124,41,119,12974,-11,1,-111,-8,35055,74,35,127,0,0,3566,0,0,1639,916,246,8141,-4,0,-33,0,533535,0
533563,86,-2089,177,-127,39,112,12975,3,5,-91,-16,35054,75,35,127,0,0,3563,0,0,1639,916,246,8151,-4,0,-33,0,533535,0
533573,79,-2082,178,-124,38,115,12976,-4,7,-72,-48,35056,75,35,127,0,0,3566,-10,0,1639,916,246,8161,-4,0,-33,0,533550,0
533583,56,-2087,171,-119,35,124,12974,0,-10,-132,-24,35055,73,35,127,0,0,3566,43,0,1639,916,246,8171,-4,0,-33,0,533550,0
533593,140,-2079,165,-121,43,114,12976,5,7,-62,-16,35061,84,35,127,0,0,3566,21,0,1639,916,246,8181,-4,0,-33,0,533550,0
533603,114,-2082,173,-122,36,122,12975,-4,-4,-68,0,35059,82,35,127,0,0,3563,-21,0,1639,916,246,8191,-4,0,-33,0,533582,0
533613,72,-2086,178,-121,41,122,12976,9,-4,-115,-72,35072,79,36,127,0,0,3561,-43,0,1639,916,246,8201,-4,0,-33,0,533582,0
533623,78,-2082,176,-119,37,123,12974,-1,4,-99,0,35072,60,36,127,0,0,3566,10,0,1639,916,246,8211,-4,0,-33,0,533582,0
533633,109,-2088,166,-119,40,118,12975,-7,3,-68,-48,35069,64,36,127,0,0,3561,-32,0,1639,916,246,8221,-4,0,-33,0,533597,0
533643,98,-2084,162,-112,37,113,12973,2,-7,-114,0,35059,65,36,127,0,0,3563,-21,0,1639,916,246,8231,-4,0,-33,0,533597,0
533653,72,-2074,168,-111,32,115,12972,-18,0,-161,-16,35058,75,35,127,0,0,3566,32,0,1639,916,246,8241,-4,0,-33,0,533644,0
533663,82,-2084,181,-108,38,115,12976,20,4,-74,-40,35068,90,35,127,0,0,3563,-10,0,1639,916,246,8251,-4,0,-33,0,533644,0
533673,88,-2087,184,-114,36,109,12972,1,-1,-101,-16,35063,89,35,127,0,0,3563,-10,0,1639,916,246,8261,-4,0,-33,0,533644,0
533683,92,-2082,181,-122,33,109,12975,6,-3,-89,-32,35049,89,35,127,0,0,3566,0,0,1639,916,246,8271,-4,0,-33,0,533644,0
533694,101,-2084,170,-125,34,116,12972,0,2,-165,-32,35048,70,35,127,0,0,3563,60,0,1639,916,246,8282,-4,0,-33,0,533660,0
533704,87,-2079,172,-125,39,108,12972,4,-3,-110,-32,35065,75,35,127,0,0,3563,-21,0,1639,916,246,8292,-4,0,-33,0,533691,0
533714,81,-2083,177,-126,35,105,12972,12,10,-71,-32,35072,74,35,127,0,0,3567,-5,0,1639,916,246,8302,-4,0,-33,0,533691,0
533724,69,-2085,173,-122,37,103,12975,12,-1,-48,-32,35067,89,35,127,0,0,3563,-27,0,1639,916,246,8312,-4,0,-33,0,533691,0
533734,73,-2082,166,-132,36,103,12971,-1,-3,-142,-48,35053,79,35,127,0,0,3561,-16,0,1639,916,246,8322,-4,0,-33,0,533707,0
533744,73,-2093,167,-130,37,97,12968,6,-5,-150,-48,35056,65,35,127,0,0,3561,-5,0,1639,916,246,8332,-4,0,-33,0,533707,0
533754,108,-2082,166,-127,36,92,12966,-6,-4,-195,-40,35067,72,35,127,0,0,3558,0,0,1639,916,246,8342,-4,0,-33,0,533707,0
533764,86,-2081,173,-127,37,97,12963,-10,-4,-204,-56,35074,90,35,127,0,0,3562,27,0,1639,916,246,8352,-4,0,-33,0,533832,0
533774,92,-2084,161,-124,39,111,12962,-1,7,-166,-32,35074,96,36,127,0,0,3558,-10,0,1639,916,246,8362,-4,0,-33,0,533832,0
533784,91,-2080,167,-126,38,105,12961,-6,3,-202,-72,35070,86,35,127,0,0,3560,-16,0,1639,916,246,8372,-4,0,-33,0,533832,0
533794,91,-2080,157,-120,35,111,12952,-18,-13,-150,-32,35067,78,35,127,0,0,3559,5,0,1639,916,246,8382,-4,0,-33,0,533847,0
533804,95,-2083,158,-118,36,106,12952,9,2,-113,-56,35055,78,35,127,0,0,3560,-27,0,1639,916,246,8392,-4,0,-33,0,533847,0
533814,87,-2082,159,-115,37,118,12948,-5,14,-154,-48,35043,75,36,127,0,0,3560,43,0,1639,916,246,8402,-4,0,-33,0,533847,0
533824,70,-2086,157,-107,38,118,12944,-1,1,-125,-16,35040,69,35,127,0,0,3559,49,0,1639,916,246,8412,-4,0,-33,0,533847,0
533834,135,-2081,160,-104,43,122,12945,-6,13,-127,-40,35050,68,35,127,0,0,3557,10,0,1639,916,246,8422,-4,0,-33,0,533847,0
533844,116,-2088,161,-105,39,130,12944,0,-5,-154,-16,35051,74,35,127,0,0,3556,5,0,1639,916,246,8432,-4,0,-33,0,533847,0
533854,115,-2076,164,-102,46,123,12945,0,-1,-104,-24,35046,64,35,127,0,0,3559,16,0,1639,916,246,8442,-4,0,-33,0,533847,0
533864,120,-2081,155,-95,44,128,12945,0,2,-65,-24,35048,83,35,127,0,0,3562,21,0,1639,916,246,8452,-4,0,-33,0,533863,0
533874,102,-2085,155,-94,43,143,12945,-4,-3,-61,-24,35055,78,35,127,0,0,3559,21,0,1639,916,246,8462,-4,0,-33,0,533863,0
533884,102,-2083,157,-91,41,139,12945,0,-1,-48,0,35058,85,35,127,0,0,3555,-27,0,1639,916,246,8472,-4,0,-33,0,533863,0
533894,87,-2082,157,-87,46,129,12944,-8,-11,-109,-40,35070,75,35,127,0,0,3557,-32,0,1639,916,246,8482,-4,0,-33,0,533863,0
533904,100,-2085,162,-81,48,126,12946,10,3,-71,-48,35087,80,35,127,0,0,3560,-32,0,1639,916,246,8492,-4,0,-33,0,533863,0
533915,69,-2080,171,-79,43,128,12945,6,1,-47,16,35109,78,36,127,0,0,3559,-32,0,1639,916,246,8503,-4,0,-33,0,533894,0
533925,51,-2091,168,-82,38,136,12947,-1,-5,-42,-32,35110,80,36,127,0,0,3559,-32,0,1639,916,246,8513,-4,0,-33,0,533894,0
533935,69,-2083,162,-78,47,124,12945,2,0,-37,-24,35086,84,36,127,0,0,3559,10,0,1639,916,246,8523,-4,0,-33,0,533894,0
533945,110,-2078,164,-82,45,129,12945,-11,-3,-41,-24,35061,85,36,127,0,0,3561,21,0,1639,916,246,8533,-4,0,-33,0,533910,0
533955,102,-2080,161,-82,40,139,12947,4,6,-22,-32,35060,80,35,127,0,0,3561,21,0,1639,916,246,8543,-4,0,-33,0,533910,0
533965,89,-2089,151,-77,35,139,12947,4,4,4,0,35072,85,35,127,0,0,3561,0,0,1639,916,246,8553,-4,0,-33,0,533941,0
533975,70,-2076,143,-70,36,130,12947,14,6,34,32,35081,104,36,127,0,0,3563,0,0,1639,916,246,8563,-4,0,-33,0,533941,0
533985,61,-2083,138,-54,34,124,12950,9,5,57,24,35070,93,35,127,0,0,3561,-21,0,1639,916,246,8573,-4,0,-33,0,533941,0
533995,65,-2084,150,-50,36,108,12949,6,1,70,16,35062,90,35,127,0,0,3561,-43,0,1639,916,246,8583,-4,0,-33,0,533957,0
534005,36,-2084,162,-45,36,111,12947,-7,-4,-3,0,35075,87,35,127,0,0,3561,-10,0,1639,916,246,8593,-4,0,-33,0,533957,0
534015,49,-2078,168,-39,35,94,12948,2,1,-17,-8,35072,90,35,127,0,0,3559,-10,0,1639,916,246,8603,-4,0,-33,0,533988,0
534025,103,-2084,167,-47,32,81,12945,-18,6,-30,0,35075,78,36,127,0,0,3561,10,0,1639,916,246,8613,-4,0,-33,0,533988,0
534035,90,-2087,172,-40,29,82,12947,2,-2,-50,8,35070,69,35,127,0,0,3561,10,0,1639,916,246,8623,-4,0,-33,0,533988,0
534045,102,-2095,178,-38,30,86,12948,0,6,0,-8,35066,65,35,127,0,0,3563,0,0,1639,916,246,8633,-4,0,-33,0,534019,0
534055,87,-2086,175,-34,31,90,12947,0,-1,-37,-24,35079,79,36,127,0,0,3559,10,0,1639,916,246,8643,-4,0,-33,0,534019,0
534065,139,-2083,148,-33,31,112,12947,0,1,-24,-32,35071,92,36,127,0,0,3561,-10,0,1639,916,246,8653,-4,0,-33,0,534035,0
534075,109,-2081,132,-16,31,126,12949,11,5,-19,-40,35070,87,35,127,0,0,3559,-32,0,1639,916,246,8663,-4,0,-33,0,534035,0
534085,124,-2077,118,9,34,158,12946,5,2,-24,32,35075,85,35,127,0,0,3559,-21,0,1639,916,246,8673,-4,0,-33,0,534066,0
534095,166,-2086,130,32,62,172,12947,-13,2,-23,0,35086,96,35,127,0,0,3561,-10,0,1639,916,246,8683,-4,0,-33,0,534066,0
534105,109,-2055,88,58,46,195,12945,-4,-4,-63,40,35080,105,36,127,0,0,3563,65,0,1639,916,246,8693,-4,0,-33,0,534082,0
534115,78,-2077,134,76,25,230,12951,-2,7,15,56,35064,96,35,127,0,0,3568,76,0,1639,916,246,8703,-4,0,-33,0,534082,0
534125,92,-2063,155,98,29,234,12957,26,6,178,48,35061,81,35,127,0,0,3568,21,0,1639,916,246,8713,-4,0,-33,0,534160,0
534135,106,-2071,131,101,35,234,12969,33,16,174,48,35076,71,35,127,0,0,3572,21,0,1639,916,246,8723,-4,0,-33,0,534175,0
534145,113,-2085,143,117,39,251,12985,39,16,168,72,35078,91,36,127,0,0,3577,32,0,1639,916,246,8733,-4,0,-33,0,534175,0
534155,112,-2077,150,126,37,265,12995,14,-7,261,48,35069,67,36,127,0,0,3581,43,0,1639,916,246,8743,-4,0,-33,0,534175,0
534165,116,-2083,183,138,39,298,12997,10,-32,368,96,35062,69,35,127,0,0,3585,65,0,1639,916,246,8753,-4,0,-33,0,534191,0
534175,108,-2086,223,137,30,306,13007,31,4,516,136,35062,57,35,127,0,0,3590,21,0,1639,916,246,8763,-4,0,-33,0,534191,0
534185,114,-2084,232,120,23,323,13018,25,14,603,168,35058,67,35,127,0,0,3599,76,0,1639,916,246,8773,-4,0,-33,0,534191,0
534195,69,-2072,200,111,21,325,13045,85,25,639,248,35050,62,35,127,0,0,3603,54,0,1639,916,246,8783,-4,0,-33,0,534191,0
534205,94,-2077,162,116,24,324,13090,87,76,462,248,35051,60,35,127,0,0,3610,76,0,1639,916,246,8793,-4,0,-33,0,534191,0
534216,2,-2075,167,121,37,317,13148,105,39,374,176,35061,46,35,127,0,0,3616,38,0,1639,916,246,8804,-4,0,-33,0,534191,0
534226,31,-2082,206,126,49,293,13188,84,-16,368,168,35069,53,35,127,0,0,3626,87,0,1639,916,246,8814,-4,0,-33,0,534207,0
534236,68,-2080,238,106,31,292,13211,26,-58,453,136,35069,60,36,127,0,0,3632,27,0,1639,916,246,8824,-4,0,-33,0,534207,0
534246,9,-2087,265,89,52,267,13236,77,-39,496,192,35080,81,35,127,0,0,3634,27,0,1639,916,246,8834,-4,0,-33,0,534207,0
534256,56,-2083,276,63,40,253,13275,60,42,343,136,35085,88,35,127,0,0,3636,5,0,1639,916,246,8844,-4,0,-33,0,534238,0
534266,-10,-2084,265,39,30,215,13297,58,-12,366,112,35081,110,35,127,0,0,3645,54,0,1639,916,246,8854,-4,0,-33,0,534238,0
534276,-5,-2082,257,19,27,192,13320,43,-23,298,112,35068,114,35,127,0,0,3646,60,0,1639,916,246,8864,-4,0,-33,0,534253,0
534286,-28,-2077,255,-1,35,147,13326,5,-27,419,144,35060,92,35,127,0,0,3647,38,0,1639,916,246,8874,-4,0,-33,0,534253,0
534296,-11,-2088,264,-16,41,116,13333,11,-36,435,112,35073,82,35,127,0,0,3645,-32,0,1639,916,246,8884,-4,0,-33,0,534253,0
534306,28,-2080,254,-29,32,93,13334,-2,-8,383,104,35086,78,36,127,0,0,3645,0,0,1639,916,246,8894,-4,0,-33,0,534285,0
534316,43,-2080,226,-40,22,86,13334,2,-7,370,104,35075,82,36,127,0,0,3645,16,0,1639,916,246,8904,-4,0,-33,0,534285,0
534326,46,-2082,194,-44,19,77,13333,-5,-1,363,112,35067,66,35,127,0,0,3645,27,0,1639,916,246,8914,-4,0,-33,0,534285,0
534336,52,-2071,187,-34,21,68,13334,4,5,379,128,35068,52,35,127,0,0,3644,5,0,1639,916,246,8924,-4,0,-33,0,534300,0
534346,73,-2078,198,-29,31,52,13338,5,2,387,72,35062,44,35,127,0,0,3643,-43,0,1639,916,246,8934,-4,0,-33,0,534300,0
534356,65,-2076,215,-26,36,41,13337,-12,-7,274,48,35067,50,35,127,0,0,3637,-38,0,1639,916,246,8944,-4,0,-33,0,534331,0
534366,58,-2084,218,-33,40,30,13333,-11,-15,168,40,35064,53,35,127,0,0,3638,0,0,1639,916,246,8954,-4,0,-33,0,534331,0
534376,60,-2078,215,-30,47,29,13331,0,0,96,16,35066,56,35,127,0,0,3629,-76,0,1639,916,246,8964,-4,0,-33,0,534331,0
534386,38,-2075,217,-24,54,17,13322,-8,-2,16,-16,35072,56,35,127,0,0,3628,-87,0,1639,916,246,8974,-4,0,-33,0,534347,0
534396,67,-2081,230,-33,44,18,13313,-8,-7,-59,-40,35071,44,35,127,0,0,3627,-38,0,1639,916,246,8984,-4,0,-33,0,534347,0
534406,73,-2079,242,-38,42,8,13308,-17,8,-185,-80,35072,57,36,127,0,0,3623,-65,0,1639,916,246,8994,-4,0,-33,0,534363,0
534416,50,-2078,238,-44,49,1,13294,-37,-15,-241,-72,35072,52,35,127,0,0,3621,-5,0,1639,916,246,9004,-4,0,-33,0,534378,0
534427,35,-2088,237,-56,45,-18,13275,-51,-24,-256,-80,35081,95,35,127,0,0,3614,-21,0,1639,916,246,9015,-4,0,-33,0,534456,0
534437,7,-2078,223,-57,49,-64,13237,-78,-48,-182,-80,35068,107,35,127,0,0,3610,-32,0,1639,916,246,9025,-4,0,-33,0,534456,0
534447,26,-2079,223,-54,49,-73,13215,-49,3,-245,-80,35057,108,35,127,0,0,3601,-43,0,1639,916,246,9035,-4,0,-33,0,534456,0
534457,30,-2068,219,-55,46,-119,13175,-96,-11,-164,-72,35048,88,35,127,0,0,3594,-65,0,1639,916,246,9045,-4,0,-33,0,534456,0
534467,-7,-2070,215,-60,37,-120,13146,-58,-13,-227,-120,35054,70,35,127,0,0,3590,-43,0,1639,916,246,9055,-4,0,-33,0,534503,0
534477,14,-2088,214,-58,75,-171,13108,-77,8,-150,-160,35054,68,36,127,0,0,3581,-98,0,1639,916,246,9065,-4,0,-33,0,534503,0
534487,153,-2084,219,-59,75,-150,13085,-58,10,-350,-144,35044,59,36,127,0,0,3572,-43,0,1639,916,246,9075,-4,0,-33,0,534503,0
534497,137,-2080,188,-52,56,-113,13031,-126,-40,-263,-128,35045,54,36,127,0,0,3559,-109,0,1639,916,246,9085,-4,0,-33,0,534503,0
534507,183,-2075,165,-42,44,-95,12969,-118,-71,-174,-104,35065,60,36,127,0,0,3559,-32,0,1639,916,246,9095,-4,0,-33,0,534519,0
534517,189,-2081,165,-10,40,-40,12949,-28,79,-254,-104,35071,63,36,127,0,0,3550,-32,0,1639,916,246,9105,-4,0,-33,0,534535,0
534527,125,-2081,178,0,35,-27,12936,-34,89,-309,-88,35066,78,36,127,0,0,3546,-54,0,1639,916,246,9115,-4,0,-33,0,534535,0
534537,126,-2069,206,21,35,-3,12926,-34,11,-435,-136,35054,77,36,127,0,0,3544,0,0,1639,916,246,9125,-4,0,-33,0,534535,0
534547,79,-2068,204,21,44,-5,12918,-12,7,-431,-168,35047,72,35,127,0,0,3539,-21,0,1639,916,246,9135,-4,0,-33,0,534535,0
534557,82,-2074,216,28,50,-6,12900,-50,-15,-498,-96,35056,74,36,127,0,0,3535,10,0,1639,916,246,9145,-4,0,-33,0,534535,0
534567,82,-2071,226,34,55,-26,12850,-117,-83,-226,-96,35071,78,36,127,0,0,3533,-10,0,1639,916,246,9155,-4,0,-33,0,534535,0
534577,78,-2068,250,16,55,-56,12809,-80,-38,-158,-96,35084,72,36,127,0,0,3524,-54,0,1639,916,246,9165,-4,0,-33,0,534535,0
534587,9,-2073,271,6,60,-76,12798,2,90,-337,-128,35099,57,35,127,0,0,3517,-43,0,1639,916,246,9175,-4,0,-33,0,534581,0
534597,23,-2069,280,-17,37,-128,12795,-15,72,-503,-184,35092,60,35,127,0,0,3513,-21,0,1639,916,246,9185,-4,0,-33,0,534581,0
534607,-9,-2072,281,-34,49,-175,12769,-70,-40,-523,-232,35078,68,35,127,0,0,3500,-76,0,1639,916,246,9195,-4,0,-33,0,534581,0
534617,-63,-2065,276,-57,64,-273,12705,-155,-118,-364,-216,35055,74,36,127,0,0,3489,-109,0,1639,916,246,9205,-4,0,-33,0,534581,0
534627,-44,-2063,260,-72,74,-345,12626,-167,-99,-302,-184,35046,67,35,127,0,0,3473,-131,0,1639,916,246,9215,-4,0,-33,0,534597,0
534637,-41,-2060,238,-91,58,-441,12562,-135,15,-375,-224,35060,67,35,127,0,0,3456,-164,0,1639,916,246,9225,-4,0,-33,0,534597,0
534647,-46,-2054,207,-95,63,-513,12500,-142,27,-466,-296,35068,80,35,127,0,0,3436,-186,0,1639,916,246,9235,-4,0,-33,0,534613,0
534657,18,-2060,212,-104,93,-616,12413,-214,-53,-410,-368,35072,75,35,127,0,0,3414,-241,0,1639,916,246,9245,-4,0,-33,0,534613,0
534667,46,-2071,246,-106,87,-662,12318,-208,-70,-427,-376,35066,77,36,127,0,0,3392,-219,0,1639,916,246,9255,-4,0,-33,0,534628,0
534678,121,-2042,220,-117,70,-710,12196,-242,-19,-432,-464,35077,71,36,127,0,0,3365,-241,0,1639,916,246,9266,-4,0,-33,0,534628,0
534688,150,-2050,210,-125,61,-702,12081,-262,-42,-436,-488,35084,75,35,127,0,0,3334,-230,0,1639,916,246,9276,-4,0,-33,0,534722,0
534698,187,-2071,244,-131,72,-703,11955,-291,-53,-469,-536,35078,93,35,127,0,0,3312,-230,0,1639,916,246,9286,-4,0,-33,0,534722,0
534708,218,-2075,276,-128,87,-708,11817,-306,-52,-388,-512,35062,106,35,127,0,0,3281,-302,0,1639,916,246,9296,-4,0,-33,0,534738,0
534718,341,-2057,330,-166,76,-627,11683,-303,-10,-444,-520,35051,92,35,127,0,0,3261,-175,0,1639,916,246,9306,-4,0,-33,0,534738,0
534728,289,-2063,329,-204,48,-577,11548,-275,3,-391,-512,35055,88,35,127,0,0,3231,-291,0,1639,916,246,9316,-4,0,-33,0,534738,0
534738,251,-2082,327,-256,32,-519,11418,-273,9,-415,-480,35064,94,35,127,0,0,3218,-214,0,1639,916,246,9326,-4,0,-33,0,534738,0
534748,284,-2067,252,-270,4,-461,11299,-260,32,-393,-400,35055,83,35,127,0,0,3193,-181,0,1639,916,246,9336,-4,0,-33,0,534738,0
534758,252,-2062,143,-251,20,-422,11178,-263,18,-384,-344,35058,75,36,127,0,0,3176,-159,0,1639,916,246,9346,-4,0,-33,0,534738,0
534768,261,-2080,120,-198,33,-400,11066,-241,11,-350,-296,35052,88,35,127,0,0,3158,-175,0,1639,916,246,9356,-4,0,-33,0,534738,0
534778,334,-2054,126,-181,24,-343,10981,-167,71,-429,-296,35064,105,35,127,0,0,3150,-126,0,1639,916,246,9366,-4,0,-33,0,534738,0
534788,344,-2086,207,-173,5,-297,10897,-191,62,-341,-208,35062,95,35,127,0,0,3135,-93,0,1639,916,246,9376,-4,0,-33,0,534753,0
534798,277,-2107,315,-194,3,-223,10834,-127,36,-363,-232,35068,90,35,127,0,0,3126,-131,0,1639,916,246,9386,-4,0,-33,0,534753,0
534808,310,-2092,330,-214,23,-199,10781,-120,66,-408,-192,35077,70,35,127,0,0,3116,-71,0,1639,916,246,9396,-4,0,-33,0,534800,0
534818,348,-2100,302,-245,4,-111,10727,-93,11,-335,-144,35078,57,35,127,0,0,3110,-76,0,1639,916,246,9406,-4,0,-33,0,534800,0
534828,455,-2059,237,-255,-7,-49,10694,-56,42,-357,-128,35064,48,35,127,0,0,3109,-16,0,1639,916,246,9416,-4,0,-33,0,534800,0
534838,425,-2064,178,-256,-22,74,10692,6,103,-492,-120,35051,40,35,127,0,0,3105,-10,0,1639,916,246,9426,-4,0,-33,0,534800,0
534848,381,-2083,182,-235,-14,125,10691,-2,64,-503,-136,35060,40,35,127,0,0,3106,-10,0,1639,916,246,9436,-4,0,-33,0,534800,0
534858,318,-2078,181,-208,11,166,10692,-7,-4,-518,-144,35081,59,36,127,0,0,3106,0,0,1639,916,246,9446,-4,0,-33,0,534831,0
534868,302,-2073,168,-198,22,206,10691,-5,-2,-521,-120,35083,82,36,127,0,0,3105,5,0,1639,916,246,9456,-4,0,-33,0,534831,0
534878,338,-2066,154,-181,-3,269,10694,8,1,-433,-104,35073,87,35,127,0,0,3114,27,0,1639,916,246,9466,-4,0,-33,0,534878,0
534888,277,-2068,168,-174,-9,285,10699,25,8,-240,-32,35060,62,35,127,0,0,3120,43,0,1639,916,246,9476,-4,0,-33,0,534878,0
534898,243,-2061,182,-152,-7,290,10704,0,10,-96,8,35060,58,36,127,0,0,3131,120,0,1639,916,246,9486,-4,0,-33,0,534878,0
534908,162,-2066,203,-153,19,265,10714,29,8,115,48,35058,75,35,127,0,0,3134,93,0,1639,916,246,9496,-4,0,-33,0,534894,0
534918,179,-2063,231,-166,16,227,10726,18,11,177,64,35053,73,35,127,0,0,3138,98,0,1639,916,246,9506,-4,0,-33,0,534894,0
534928,158,-2072,247,-186,16,196,10742,52,11,223,56,35060,58,36,127,0,0,3137,5,0,1639,916,246,9516,-4,0,-33,0,534894,0
534939,178,-2072,259,-210,19,149,10763,6,19,47,16,35075,41,35,127,0,0,3139,21,0,1639,916,246,9527,-4,0,-33,0,534894,0
534949,175,-2082,268,-238,11,116,10763,13,-42,137,48,35086,52,35,127,0,0,3137,-21,0,1639,916,246,9537,-4,0,-33,0,534925,0
534959,209,-2076,237,-262,11,90,10762,5,-31,146,24,35073,37,36,127,0,0,3142,0,0,1639,916,246,9547,-4,0,-33,0,534925,0
534969,181,-2061,181,-267,-18,95,10765,3,1,172,0,35060,41,35,127,0,0,3139,0,0,1639,916,246,9557,-4,0,-33,0,534941,0
534979,166,-2060,148,-258,-18,83,10764,2,3,121,48,35062,34,35,127,0,0,3137,0,0,1639,916,246,9567,-4,0,-33,0,534941,0
534989,203,-2072,148,-236,3,30,10763,-1,1,46,16,35078,38,35,127,0,0,3137,0,0,1639,916,246,9577,-4,0,-33,0,534972,0
534999,162,-2064,164,-222,29,-9,10763,-4,1,33,-8,35079,51,35,127,0,0,3133,-54,0,1639,916,246,9587,-4,0,-33,0,534972,0
535009,173,-2067,205,-233,42,-54,10757,-11,-4,-104,-40,35074,51,35,127,0,0,3126,-76,0,1639,916,246,9597,-4,0,-33,0,534972,0
535019,213,-2067,247,-241,28,-75,10750,-18,-10,-269,-128,35073,45,35,127,0,0,3120,-76,0,1639,916,246,9607,-4,0,-33,0,534972,0
535029,198,-2067,267,-281,16,-109,10739,-30,-10,-384,-128,35081,38,35,127,0,0,3113,-87,0,1639,916,246,9617,-4,0,-33,0,535003,0
535039,170,-2073,245,-293,3,-144,10703,-98,-48,-371,-152,35081,48,35,127,0,0,3106,-76,0,1639,916,246,9627,-4,0,-33,0,535019,0
535049,129,-2052,206,-323,13,-217,10678,-28,-31,-510,-208,35073,62,36,127,0,0,3091,-109,0,1639,916,246,9637,-4,0,-33,0,535019,0
535059,139,-2050,223,-339,9,-280,10648,-93,22,-592,-264,35066,70,35,127,0,0,3080,-142,0,1639,916,246,9647,-4,0,-33,0,535019,0
535069,84,-2075,222,-366,1,-368,10584,-145,-78,-516,-256,35072,71,35,127,0,0,3065,-153,0,1639,916,246,9657,-4,0,-33,0,535066,0
535079,88,-2056,219,-391,17,-443,10508,-169,-81,-450,-328,35075,77,35,127,0,0,3047,-175,0,1639,916,246,9667,-4,0,-33,0,535081,0
535089,78,-2062,206,-428,-14,-567,10417,-206,-47,-412,-368,35065,84,36,127,0,0,3025,-208,0,1639,916,246,9677,-4,0,-33,0,535081,0
535099,79,-2062,219,-449,-18,-643,10317,-223,-49,-407,-384,35065,103,35,127,0,0,3001,-219,0,1639,916,246,9687,-4,0,-33,0,535081,0
535109,66,-2067,204,-475,-2,-783,10223,-194,-6,-505,-360,35063,99,35,127,0,0,2979,-230,0,1639,916,246,9697,-4,0,-33,0,535081,0
535119,146,-2038,193,-507,0,-875,10127,-243,13,-503,-472,35063,103,35,127,0,0,2950,-274,0,1639,916,246,9707,-4,0,-33,0,535081,0
535129,144,-2059,210,-536,-21,-973,10013,-254,-50,-501,-512,35057,91,36,127,0,0,2920,-296,0,1639,916,246,9717,-4,0,-33,0,535097,0
535139,161,-2043,213,-552,-19,-1055,9881,-301,-67,-504,-584,35064,79,35,127,0,0,2887,-340,0,1639,916,246,9727,-4,0,-33,0,535097,0
535149,195,-2036,189,-580,-37,-1154,9743,-307,-51,-513,-648,35080,66,36,127,0,0,2852,-351,0,1639,916,246,9737,-4,0,-33,0,535128,0
535159,203,-2034,178,-600,-58,-1222,9585,-349,-43,-442,-648,35078,54,35,127,0,0,2814,-384,0,1639,916,246,9747,-4,0,-33,0,535128,0
535169,174,-2020,164,-617,-65,-1332,9425,-348,-38,-491,-720,35069,75,36,127,0,0,2777,-406,0,1639,916,246,9757,-4,0,-33,0,535144,0
535180,191,-2009,140,-629,-75,-1407,9247,-362,-4,-497,-768,35057,81,35,127,0,0,2727,-444,0,1639,916,246,9768,-4,0,-33,0,535144,0
535190,242,-2041,137,-642,-52,-1511,9072,-391,-28,-483,-832,35068,69,35,127,0,0,2687,-422,0,1639,916,246,9778,-4,0,-33,0,535144,0
535200,293,-2010,103,-648,-64,-1557,8893,-411,-38,-469,-880,35083,75,35,127,0,0,2643,-444,0,1639,916,246,9788,-4,0,-33,0,535175,0
535210,372,-2029,50,-657,-95,-1598,8698,-432,-35,-460,-928,35081,102,35,127,0,0,2590,-538,0,1639,916,246,9798,-4,0,-33,0,535175,0
535220,425,-2056,55,-638,-120,-1598,8498,-449,-37,-470,-976,35060,108,35,127,0,0,2552,-455,0,1639,916,246,9808,-4,0,-33,0,535191,0
535230,438,-2058,61,-597,-135,-1596,8290,-465,-25,-445,-952,35053,97,35,127,0,0,2503,-455,0,1639,916,246,9818,-4,0,-33,0,535191,0
535240,495,-2048,55,-580,-119,-1580,8078,-474,-24,-382,-920,35063,86,35,127,0,0,2462,-444,0,1639,916,246,9828,-4,0,-33,0,535191,0
535250,626,-2011,15,-537,-114,-1520,7864,-456,-11,-387,-904,35072,82,35,127,0,0,2421,-422,0,1639,916,246,9838,-4,0,-33,0,535206,0
535260,715,-2009,-27,-529,-136,-1428,7665,-440,29,-400,-872,35066,81,36,127,0,0,2385,-384,0,1639,916,246,9848,-4,0,-33,0,535253,0
535270,720,-2069,57,-485,-142,-1285,7471,-414,35,-403,-752,35060,72,35,127,0,0,2351,-340,0,1639,916,246,9858,-4,0,-33,0,535253,0
535280,741,-2156,81,-442,-168,-1174,7298,-371,51,-426,-680,35061,67,35,127,0,0,2326,-280,0,1639,916,246,9868,-4,0,-33,0,535253,0
535290,881,-2220,140,-388,-281,-969,7144,-314,78,-466,-520,35063,79,36,127,0,0,2312,-137,0,1639,916,246,9878,-4,0,-33,0,535269,0
535300,822,-2400,215,-315,-449,-811,7031,-231,111,-549,-408,35059,82,35,127,0,0,2302,-49,0,1639,916,246,9888,-4,0,-33,0,535269,0
535310,398,-2704,28,-426,-467,-425,6946,-163,128,-428,-208,35067,88,36,127,0,0,2311,104,0,1639,916,246,9898,-4,0,-33,0,535269,0
535320,378,-2790,-139,-517,-373,-240,6926,27,169,-45,144,35087,73,35,127,0,0,2351,401,0,1639,916,246,9908,-4,0,-33,0,535316,0
535330,311,-2660,-151,-393,-70,-177,7019,254,347,297,368,35095,68,36,127,0,0,2401,543,0,1639,916,246,9918,-4,0,-33,0,535331,0
535340,334,-2533,-159,-323,-34,-153,7181,397,349,277,568,35077,66,36,127,0,0,2459,626,0,1639,916,246,9928,-4,0,-33,0,535331,0
535350,353,-2683,56,-405,-145,-71,7371,421,189,313,840,35059,73,35,127,0,0,2530,730,0,1639,916,246,9938,-4,0,-33,0,535331,0
535360,183,-2771,302,-466,-156,-39,7584,502,91,459,1160,35050,72,35,127,0,0,2612,834,0,1639,916,246,9948,-4,0,-33,0,535331,0
535370,111,-3063,476,-560,-154,-37,7841,599,127,595,1536,35056,78,36,127,0,0,2710,1005,0,1639,916,246,9958,-4,0,-33,0,535331,0
535380,166,-3409,444,-542,-92,52,8120,719,198,689,1928,35059,96,35,127,0,0,2824,1192,0,1639,916,246,9968,-4,0,-33,0,535331,0
535390,86,-3124,505,-470,-300,371,8494,868,239,756,2448,35052,119,36,127,0,0,2966,1510,0,1639,916,246,9978,-4,0,-33,0,535347,0
535400,169,-2963,431,-344,-493,387,8962,1108,307,868,3128,35049,122,35,127,0,0,3139,1790,0,1639,916,246,9988,-4,0,-33,0,535378,0
535410,-255,-2737,348,-171,-943,329,9557,1392,436,881,3776,35050,133,36,127,0,0,3325,1840,0,1639,916,246,9998,-4,0,-33,0,535378,0
535420,-567,-2797,275,-222,-1540,369,10275,1652,485,901,4456,35042,149,36,127,0,0,3546,2263,0,1639,916,246,10008,-4,0,-33,0,535394,0
535431,-731,-2478,19,-455,-1289,-56,11212,1947,473,829,5064,35025,154,35,127,0,0,3772,2098,0,1639,916,246,10019,-4,0,-33,0,535394,0
535441,-1747,-2628,-128,-402,-1124,-925,12144,2080,367,694,5360,35022,173,35,127,0,0,3968,1988,0,1639,916,246,10029,-4,0,-33,0,535409,0
535451,-1463,-3145,-59,-599,-927,-1437,13113,2150,194,596,5392,35032,170,36,127,0,0,4163,1911,0,1639,916,246,10039,-4,0,-33,0,535409,0
535461,-1239,-3891,362,-796,-930,-1901,14115,2220,131,603,5368,35051,177,36,127,0,0,4368,2065,0,1639,916,246,10049,-4,0,-33,0,535456,0
535471,-429,-4298,384,-863,-923,-2656,15166,2339,158,628,5456,35046,177,36,127,0,0,4554,1801,0,1639,916,246,10059,-4,0,39,0,535456,0
535481,-743,-4855,605,-933,-935,-3309,16209,2233,64,311,4984,35035,161,35,127,0,0,4695,1395,0,1639,916,246,10069,-4,0,44,0,535456,0
535491,-621,-4160,856,-1087,-1145,-3579,17148,1992,-250,262,4536,35031,142,35,127,0,0,4831,1351,0,1639,916,246,10079,-4,0,47,0,535456,0
535501,79,-4034,627,-1283,-1167,-4241,18011,1871,-342,365,4344,35033,128,35,127,0,0,4976,1439,0,1639,916,246,10089,-4,0,53,0,535456,0
535511,1101,-3789,717,-1169,-705,-4869,18838,1816,-196,466,4224,35041,134,35,127,0,0,5110,1307,0,1639,916,246,10099,-4,0,56,0,535487,0
535521,1753,-3714,-187,-1115,1520,-7263,19634,1692,-117,142,2736,35042,130,36,127,0,0,5049,-856,0,1639,916,246,10109,-4,0,61,0,535487,0
535531,1351,-3803,-48,-1040,1904,-7810,20237,1115,-474,-896,-280,35051,106,35,127,0,0,4858,-2010,0,1639,916,246,10119,-4,0,64,0,535487,0
535541,2191,-3978,392,-1155,629,-7644,20180,-595,-1761,-1974,-2248,35057,101,35,127,0,0,4680,-1658,0,1639,916,246,10129,-4,0,67,0,535507,0
535551,1900,-3679,434,-1121,-404,-7194,19745,-1067,-2002,-821,-2896,35063,118,35,127,0,0,4550,-1230,0,1639,916,246,10139,-4,0,69,0,535507,0
535561,1678,-3401,33,-1136,-1427,-7057,19197,-1236,-764,-437,-2816,35046,137,36,127,0,0,4456,-955,0,1639,916,246,10149,-4,0,73,0,535539,0
535571,1695,-3269,-31,-1063,-1805,-7010,18637,-1222,-202,-328,-2800,35046,120,35,127,0,0,4348,-1120,0,1639,916,246,10159,-4,0,75,0,535539,0
535581,1779,-3061,-55,-1086,-2005,-6766,18081,-1223,0,-369,-2856,35049,103,35,127,0,0,4229,-1186,0,1639,916,246,10169,-4,0,78,0,535539,0
535591,1615,-2908,-66,-1152,-1950,-6481,17515,-1255,-16,-424,-2928,35057,108,35,127,0,0,4115,-1175,0,1639,916,246,10179,-4,0,81,0,535570,0
535601,1297,-2705,-97,-1213,-1738,-6042,16942,-1259,-35,-378,-2952,35048,121,35,127,0,0,4007,-1087,0,1639,916,246,10189,-4,0,84,0,535617,0
535611,1224,-2511,-203,-1232,-1485,-5712,16371,-1252,-3,-334,-2800,35043,113,35,127,0,0,3913,-933,0,1639,916,246,10199,-4,0,87,0,535617,0
535621,1188,-2078,-362,-1269,-909,-5214,15807,-1224,19,-259,-2608,35051,96,35,127,0,0,3827,-878,0,1639,916,246,10209,-4,0,92,0,535617,0
535631,1119,-1794,-412,-1270,-496,-4896,15272,-1159,73,-239,-2416,35042,93,35,127,0,0,3748,-791,0,1639,916,246,10219,-4,0,95,0,535617,0
535641,1056,-1392,-562,-1181,143,-4430,14769,-1077,115,-280,-2320,35037,96,35,127,0,0,3660,-867,0,1639,916,246,10229,-4,0,100,0,535617,0
535651,993,-1120,-600,-1099,544,-4072,14289,-1044,110,-323,-2312,35032,91,35,127,0,0,3574,-856,0,1639,916,246,10239,-4,0,103,168,535617,0
535661,932,-825,-536,-939,1101,-3438,13823,-1015,64,-304,-2240,35039,86,35,127,0,0,3489,-812,0,1639,916,246,10249,-4,0,108,167,535632,0
535672,916,-593,-465,-850,1387,-2980,13331,-976,59,-332,-2144,35055,85,35,127,0,0,3399,-774,0,1639,916,246,10260,-4,0,114,165,535632,0
535682,836,-300,-411,-755,1722,-2276,12904,-923,164,-337,-2112,35069,95,36,127,0,0,3326,-725,0,1639,916,246,10270,-4,0,117,163,535664,0
535692,808,-186,-390,-743,1842,-1788,12496,-888,24,-330,-1984,35070,94,36,127,0,0,3260,-626,0,1639,916,246,10280,-4,0,122,160,535664,0
535702,809,33,-322,-678,1871,-1034,12113,-817,80,-347,-1872,35072,78,36,127,0,0,3202,-576,0,1639,916,246,10290,-4,0,126,158,535664,0
535712,829,213,-269,-642,1840,-532,11752,-782,87,-331,-1664,35062,70,35,127,0,0,3151,-549,0,1639,916,246,10300,-4,0,131,154,535664,0
535722,778,395,-250,-595,1696,190,11419,-710,97,-336,-1472,35069,88,35,127,0,0,3103,-488,0,1639,916,246,10310,-4,0,134,152,535726,0
535732,804,481,-254,-580,1536,673,11114,-661,108,-345,-1368,35057,89,36,127,0,0,3047,-560,0,1639,916,246,10320,-4,0,138,148,535726,0
535742,793,518,-284,-563,1212,1414,10825,-622,85,-384,-1344,35061,105,36,127,0,0,2997,-576,0,1639,916,246,10330,-4,0,141,146,535726,0
535752,715,491,-270,-520,952,1902,10550,-599,57,-446,-1280,35054,91,35,127,0,0,2943,-516,0,1639,916,246,10340,-4,0,145,143,535742,0
535762,545,484,-218,-400,475,2625,10277,-607,30,-418,-1264,35053,103,35,127,0,0,2888,-505,0,1639,916,246,10350,-4,0,148,140,535742,0
535772,466,487,-167,-330,108,3093,10013,-579,20,-422,-1200,35040,93,35,127,0,0,2846,-395,0,1639,916,246,10360,-4,0,151,137,535742,0
535782,477,475,-174,-229,-492,3781,9765,-525,38,-374,-1064,35048,66,35,127,0,0,2812,-318,0,1639,916,246,10370,-4,0,153,134,535742,0
535792,493,466,-184,-142,-845,4174,9532,-500,61,-340,-872,35066,62,35,127,0,0,2780,-274,0,1639,916,246,10380,-4,0,157,131,535773,0
535802,419,514,-207,8,-1326,4661,9329,-424,90,-350,-800,35075,67,35,127,0,0,2745,-351,0,1639,916,246,10390,-4,0,158,128,535773,0
535812,364,541,-195,130,-1580,4944,9148,-397,99,-391,-720,35062,92,35,127,0,0,2711,-357,0,1639,916,246,10400,-4,0,161,125,535773,0
535822,291,578,-221,277,-1932,5379,8973,-372,48,-395,-720,35057,85,36,127,0,0,2674,-346,0,1639,916,246,10410,-4,0,163,122,535804,0
535832,289,564,-242,380,-2080,5639,8797,-385,18,-396,-696,35066,71,35,127,0,0,2642,-329,0,1639,916,246,10420,-4,0,165,118,535804,0
535842,223,500,-306,550,-2155,5941,8629,-357,12,-426,-648,35081,65,36,127,0,0,2611,-335,0,1639,916,246,10430,-4,0,167,116,535804,0
535852,228,455,-321,648,-2099,6080,8463,-367,21,-393,-640,35070,89,36,127,0,0,2576,-318,0,1639,916,246,10440,-4,0,169,112,535804,0
535862,263,387,-338,779,-1934,6219,8296,-378,2,-420,-592,35050,83,36,127,0,0,2542,-280,0,1639,916,246,10450,-4,0,171,110,535820,0
535872,286,264,-371,838,-1718,6269,8129,-374,-9,-335,-568,35062,61,36,127,0,0,2515,-263,0,1639,916,246,10460,-4,0,173,106,535836,0
535882,378,109,-453,876,-1215,6232,7964,-354,0,-310,-464,35081,49,35,127,0,0,2494,-219,0,1639,916,246,10470,-4,0,174,103,535867,0
535892,454,-32,-483,881,-713,6119,7831,-279,59,-363,-400,35085,72,35,127,0,0,2466,-247,0,1639,916,246,10480,-4,0,176,99,535867,0
535902,701,-248,-511,850,61,5914,7710,-261,81,-383,-384,35061,87,35,127,0,0,2435,-313,0,1639,916,246,10490,-4,0,177,96,535867,0
535912,900,-412,-487,828,459,5767,7593,-260,27,-423,-400,35057,102,35,127,0,0,2419,-285,0,1639,916,246,10500,-4,0,179,93,535867,0
535923,1206,-714,-403,735,894,5425,7473,-213,21,-440,-304,35065,88,35,127,0,0,2401,-153,0,1639,916,246,10511,-4,0,180,90,535898,0
535933,1482,-1033,-347,644,1183,4967,7382,-195,53,-390,-272,35079,92,36,127,0,0,2390,-87,0,1639,916,246,10521,-4,0,181,86,535898,0
535943,1605,-1236,-330,596,1318,4613,7316,-122,78,-463,-216,35069,74,35,127,0,0,2381,-76,0,1639,916,246,10531,-4,0,182,84,535898,0
535953,1897,-1442,-281,516,1395,4028,7265,-93,82,-441,-168,35063,56,35,127,0,0,2379,-21,0,1639,916,246,10541,-4,0,183,81,535914,0
535963,2100,-1554,-234,477,1335,3596,7233,-58,61,-369,-128,35073,48,35,127,0,0,2375,-32,0,1639,916,246,10551,-4,0,184,79,535992,0
535973,2152,-1668,-163,410,1086,3026,7231,-2,96,-551,-120,35084,61,36,127,0,0,2375,10,0,1639,916,246,10561,-4,0,184,77,535992,0
535983,2194,-1792,-117,397,938,2573,7229,-7,69,-547,-128,35078,97,35,127,0,0,2370,0,0,1639,916,246,10571,-4,0,184,75,535992,0
535993,2225,-1849,-59,407,635,1977,7228,-8,-5,-581,-176,35062,90,35,127,0,0,2373,21,0,1639,916,246,10581,-4,0,184,74,536007,0
536003,2199,-1836,-6,424,415,1623,7227,0,-3,-538,-184,35054,93,35,127,0,0,2373,10,0,1639,916,246,10591,-4,0,184,74,536007,0
536013,2194,-1738,18,433,120,1149,7228,3,6,-545,-144,35063,84,35,127,0,0,2375,21,0,1639,916,246,10601,-4,0,184,74,536007,0
536023,4674,-1279,-2621,-1367,-136,-667,7233,13,10,-511,-200,35072,106,35,127,0,0,2346,-384,0,1639,916,246,10611,-4,0,184,74,536007,0
536033,4471,-3996,-1611,-1489,-265,-2548,7177,-227,-92,-1222,-1184,35073,116,35,127,0,0,2210,-1373,0,1634,789,247,1,1,3,184,74,536007,0
536043,3357,-3365,410,-609,-598,-2051,6945,-600,-462,-1100,-1824,35075,110,36,127,0,0,2080,-1351,0,1634,789,247,11,1,3,184,74,536007,0
536053,728,-2289,723,-292,-1237,-325,6585,-856,-589,-878,-2056,35080,115,35,127,0,0,2008,-648,0,1634,789,247,21,1,3,184,74,536007,0
536063,49,-2419,1170,-374,-1491,-432,6212,-794,-283,-572,-1816,35088,139,36,127,0,0,1959,-428,0,1634,789,247,31,1,3,184,74,536039,0
536073,-15,-3252,1237,-313,-687,-1453,5874,-720,64,-562,-1712,35081,133,36,127,0,0,1885,-758,0,1634,789,247,41,1,3,184,74,536039,0
536083,751,-2996,137,-104,-173,-1761,5547,-735,91,-718,-2016,35072,102,35,127,0,0,1777,-1109,0,1634,789,247,51,1,3,184,74,536054,0
536093,1759,-1790,-403,45,-880,-1200,5174,-868,-75,-761,-2208,35066,92,35,127,0,0,1698,-758,0,1634,789,247,61,1,3,184,74,536054,0
536103,1634,-1543,-797,-19,-1313,-780,4780,-864,-140,-577,-2160,35061,103,35,127,0,0,1636,-560,0,1634,789,247,71,1,3,184,74,536085,0
536113,1123,-1859,-1027,12,-1269,-221,4402,-821,0,-447,-1824,35062,131,35,127,0,0,1590,-406,0,1634,789,247,81,1,3,184,74,536085,0
536123,677,-2065,-1510,-4,-807,-23,4064,-715,106,-416,-1520,35054,117,35,127,0,0,1560,-285,0,1634,789,247,91,1,3,184,74,536085,0
536133,149,-2160,-1468,-152,211,388,3780,-598,182,-390,-1208,35060,91,35,127,0,0,1542,-109,0,1634,789,247,101,1,3,184,74,536085,0
536143,568,-1961,-1089,-15,699,355,3541,-477,182,-285,-720,35066,71,35,127,0,0,1540,-21,0,1634,789,247,111,1,3,184,74,536117,0
536153,1327,-1914,-166,227,733,436,3367,-344,208,-315,-424,35073,73,35,127,0,0,1538,-32,0,1634,789,247,121,1,3,184,74,536117,0
536164,1560,-1837,164,291,422,584,3251,-175,252,-324,-192,35063,75,35,127,0,0,1539,-5,0,1634,789,247,132,1,3,184,74,536117,0
536174,1212,-2144,-30,263,11,944,3207,-71,244,-235,-32,35063,63,35,127,0,0,1549,137,0,1634,789,247,142,1,3,184,74,536148,0
536184,839,-2345,-299,381,-7,1054,3224,89,220,191,136,35069,65,35,127,0,0,1566,181,0,1634,789,247,152,1,3,184,74,536148,0
536194,414,-2141,-572,683,228,939,3295,195,227,307,264,35068,83,35,127,0,0,1587,219,0,1634,789,247,162,1,3,184,74,536164,0
536204,424,-2088,-500,845,501,798,3405,237,177,247,256,35062,97,36,127,0,0,1607,159,0,1634,789,247,172,1,3,184,74,536164,0
536214,890,-1888,-232,901,550,749,3501,206,44,218,216,35061,75,35,127,0,0,1625,214,0,1634,789,247,182,1,3,184,74,536195,0
536224,1149,-1891,-110,884,420,897,3581,163,-58,322,232,35081,60,35,127,0,0,1643,197,0,1634,789,247,192,1,3,184,74,536195,0
536234,1112,-1942,-119,867,280,1136,3657,184,-45,383,312,35086,70,35,127,0,0,1668,307,0,1634,789,247,202,1,3,184,74,536195,0
536244,953,-1942,-180,881,272,1266,3750,216,29,432,416,35069,79,36,127,0,0,1697,335,0,1634,789,247,212,1,3,184,74,536226,0
536254,817,-1950,-289,920,361,1342,3866,272,79,484,552,35066,86,36,127,0,0,1732,351,0,1634,789,247,222,1,3,184,74,536226,0
536264,822,-1972,-259,955,436,1390,4009,326,100,392,608,35072,75,35,127,0,0,1762,329,0,1634,789,247,232,1,3,184,74,536226,0
536274,923,-1963,-140,984,428,1518,4171,359,94,383,664,35070,75,35,127,0,0,1802,379,0,1634,789,247,242,1,3,184,74,536257,0
536284,917,-1935,-54,980,374,1620,4337,370,44,398,712,35064,79,35,127,0,0,1845,450,0,1634,789,247,252,1,3,184,74,536257,0
536294,801,-1970,-36,946,314,1755,4508,377,13,371,768,35054,81,35,127,0,0,1890,483,0,1634,789,247,262,1,3,184,74,536257,0
536304,749,-1962,-41,933,312,1799,4684,404,12,442,896,35060,59,35,127,0,0,1941,543,0,1634,789,247,272,1,3,184,74,536257,0
536314,691,-1956,-58,910,328,1840,4882,464,53,412,936,35075,56,35,127,0,0,1987,477,0,1634,789,247,282,1,3,184,74,536289,0
536324,713,-1964,-17,887,326,1878,5089,460,68,395,1032,35070,94,35,127,0,0,2039,560,0,1634,789,247,292,1,3,184,74,536289,0
536334,658,-1978,19,838,298,1952,5310,499,47,389,1032,35072,117,35,127,0,0,2097,538,0,1634,789,247,302,1,3,184,74,536289,0
536344,667,-1962,89,805,286,1988,5544,515,46,406,1112,35065,100,35,127,0,0,2153,609,0,1634,789,247,312,1,3,184,74,536304,0
536354,601,-1990,83,729,238,2046,5790,546,42,396,1168,35079,83,36,127,0,0,2209,560,0,1634,789,247,322,1,3,184,74,536367,0
536364,576,-1986,82,689,237,2062,6045,565,49,361,1144,35078,97,35,127,0,0,2260,549,0,1634,789,247,332,1,3,184,74,536367,0
536374,579,-1993,68,641,241,2097,6278,571,29,310,1120,35061,100,35,127,0,0,2319,587,0,1634,789,247,342,1,3,184,74,536382,0
536384,570,-1992,79,593,240,2134,6533,570,1,314,1096,35050,85,35,127,0,0,2374,549,0,1634,789,247,352,1,3,184,74,536382,0
536394,602,-1986,135,521,211,2201,6796,590,13,298,1096,35051,73,35,127,0,0,2431,582,0,1634,789,247,362,1,3,184,74,536382,0
536404,593,-1994,183,475,169,2260,7062,586,22,281,1112,35051,79,35,127,0,0,2493,620,0,1634,789,247,372,1,3,184,74,536382,0
536414,489,-2002,83,401,115,2338,7327,577,4,300,1160,35040,88,36,127,0,0,2555,648,0,1634,789,247,382,1,3,184,74,536382,0
536425,352,-2009,51,343,115,2356,7616,589,-9,381,1216,35035,80,35,127,0,0,2623,670,0,1634,789,247,393,1,3,184,74,536398,0
536435,334,-1992,69,336,134,2337,7872,562,-9,482,1320,35063,69,35,127,0,0,2687,604,0,1634,789,247,403,1,3,184,74,536398,0
536445,270,-1994,47,305,88,2302,8138,579,6,478,1368,35081,75,35,127,0,0,2750,681,0,1634,789,247,413,1,3,184,74,536429,0
536455,183,-1996,39,311,59,2233,8414,616,37,513,1400,35085,93,35,127,0,0,2810,593,0,1634,789,247,423,1,3,184,74,536429,0
536465,122,-2178,39,365,76,2128,8690,606,19,486,1408,35065,87,35,127,0,0,2869,593,0,1634,789,247,433,1,3,184,74,536429,0
536475,131,-1989,-94,438,144,2055,8974,623,14,455,1392,35054,71,35,127,0,0,2924,549,0,1634,789,247,443,1,3,184,74,536429,0
536485,-118,-1971,-14,368,-64,1865,9260,621,13,405,1352,35059,58,36,127,0,0,2979,516,0,1634,789,247,453,1,3,184,74,536460,0
536495,-288,-2037,98,373,-78,1648,9537,600,-15,387,1216,35063,80,35,127,0,0,3025,461,0,1634,789,247,463,1,3,184,74,536460,0
536505,-328,-2032,224,267,44,1233,9803,579,-43,360,1200,35051,107,35,127,0,0,3067,395,0,1634,789,247,473,1,3,184,74,536476,0
536515,-298,-2097,269,203,135,989,10056,530,-44,320,968,35047,100,36,127,0,0,3095,274,0,1634,789,247,483,1,3,184,74,536476,0
536525,-185,-2058,216,94,168,654,10275,455,-101,291,712,35059,98,35,127,0,0,3113,186,0,1634,789,247,493,1,3,184,74,536492,0
536535,-124,-2049,212,5,114,503,10466,398,-121,243,424,35071,85,35,127,0,0,3120,87,0,1634,789,247,503,1,3,184,74,536507,0
536545,-151,-2082,248,-95,59,269,10611,289,-146,184,240,35063,88,35,127,0,0,3126,76,0,1634,789,247,513,1,3,184,74,536507,0
536555,-166,-2100,231,-147,40,133,10703,159,-193,27,-8,35055,80,35,127,0,0,3124,0,0,1634,789,247,523,1,3,184,74,536523,0
536565,-46,-2058,152,-229,50,-130,10705,-56,-280,47,-32,35054,59,35,127,0,0,3115,-98,0,1634,789,247,533,1,3,184,74,536538,0
536575,-181,-2106,141,-268,80,-255,10693,-23,-193,-204,-112,35051,65,35,127,0,0,3106,-142,0,1634,789,247,543,1,3,184,74,536538,0
536585,-51,-2081,140,-316,54,-460,10671,-66,-27,-468,-248,35043,71,35,127,0,0,3082,-241,0,1634,789,247,553,1,3,184,74,536570,0
536595,6,-2039,130,-362,14,-580,10595,-199,-130,-426,-360,35056,72,35,127,0,0,3058,-252,0,1634,789,247,563,1,3,184,74,536570,0
536605,-132,-2077,157,-445,-43,-751,10486,-254,-159,-325,-376,35062,60,35,127,0,0,3032,-274,0,1634,789,247,573,1,3,184,74,536570,0
536615,-207,-2145,196,-486,-13,-855,10361,-277,-85,-339,-376,35065,54,35,127,0,0,3005,-252,0,1634,789,247,583,1,3,184,74,536570,0
536625,-70,-2085,226,-554,6,-1053,10232,-266,-30,-341,-376,35055,75,35,127,0,0,2979,-274,0,1634,789,247,593,1,3,184,74,536601,0
536635,-11,-2090,197,-634,-56,-1101,10111,-278,15,-341,-416,35055,74,35,127,0,0,2950,-274,0,1634,789,247,603,1,3,184,74,536601,0
536645,97,-2124,131,-682,-80,-1152,9986,-274,-4,-353,-376,35057,87,35,127,0,0,2926,-252,0,1634,789,247,613,1,3,184,74,536617,0
536655,155,-2059,59,-714,-89,-1229,9858,-271,-10,-362,-448,35063,64,35,127,0,0,2895,-296,0,1634,789,247,623,1,3,184,74,536617,0
536666,249,-2106,17,-724,-95,-1207,9725,-270,15,-420,-440,35048,79,35,127,0,0,2866,-219,0,1634,789,247,634,1,3,184,74,536648,0
536676,416,-2132,7,-705,-123,-1154,9589,-293,8,-351,-416,35054,66,35,127,0,0,2846,-175,0,1634,789,247,644,1,3,184,74,536648,0
536686,462,-2118,-49,-670,-162,-1080,9458,-261,-35,-292,-344,35059,57,35,127,0,0,2826,-186,0,1634,789,247,654,1,3,184,74,536648,0
536696,498,-2173,-14,-666,-171,-968,9346,-236,18,-302,-296,35081,58,35,127,0,0,2812,-104,0,1634,789,247,664,1,3,184,74,536663,0
536706,527,-2248,57,-596,-153,-828,9251,-196,68,-272,-232,35065,92,36,127,0,0,2799,-104,0,1634,789,247,674,1,3,184,74,536679,0
536716,680,-2651,66,-552,-295,-688,9175,-154,66,-245,-144,35056,106,35,127,0,0,2796,-10,0,1634,789,247,684,1,3,184,74,536695,0
536726,470,-3174,196,-417,-414,-428,9130,-66,90,-14,16,35052,74,35,127,0,0,2805,120,0,1634,789,247,694,1,3,184,74,536710,0
536736,-163,-3510,132,-539,-552,61,9152,73,189,261,264,35054,48,36,127,0,0,2853,538,0,1634,789,247,704,1,3,184,74,536726,0
536746,-345,-3798,239,-637,-567,525,9240,281,251,742,912,35055,39,35,127,0,0,2952,1071,0,1634,789,247,714,1,3,184,74,536726,0
536756,-532,-3599,80,-511,-634,502,9451,550,373,812,1680,35049,48,35,127,0,0,3081,1340,0,1634,789,247,724,1,3,184,74,536726,0
536766,-601,-3231,-327,-536,-564,575,9799,852,498,899,2528,35051,71,35,127,0,0,3249,1708,0,1634,789,247,734,1,3,184,74,536726,0
536776,-664,-3104,-312,-438,-514,545,10299,1195,552,981,3352,35061,96,35,127,0,0,3423,1790,0,1634,789,247,744,1,3,184,74,536742,0
536786,-771,-2861,-219,-325,-377,374,10944,1494,576,896,3912,35053,117,35,127,0,0,3605,1812,0,1634,789,247,754,1,3,184,74,536788,0
536796,-913,-2756,-111,-328,-273,274,11683,1674,459,836,4440,35043,152,36,127,0,0,3794,1856,0,1634,789,247,764,1,3,184,74,536788,0
536806,-1014,-2540,32,-217,-243,9,12496,1835,320,825,4928,35029,171,35,127,0,0,4002,2065,0,1634,789,247,774,1,3,184,74,536788,0
536816,-1039,-2293,-3,-284,-357,-405,13395,2039,305,762,5152,35027,192,35,127,0,0,4196,1961,0,1634,789,247,784,1,3,184,74,536788,0
536826,-1236,-2348,440,-490,-742,-1145,14366,2174,302,666,5280,35022,171,35,127,0,0,4386,1939,0,1634,789,247,794,1,3,184,74,536804,0
536836,-1154,-3427,579,-612,-735,-1625,15384,2248,231,532,5160,35018,182,36,127,0,0,4565,1664,0,1634,789,247,804,1,3,184,74,536804,0
536846,-585,-4964,786,-823,-795,-1971,16373,2144,37,537,5128,35037,182,36,127,0,0,4758,1840,0,1634,789,247,814,1,3,184,74,536820,0
536856,342,-5795,662,-1006,-640,-2646,17336,2100,-110,518,4984,35048,163,35,127,0,0,4908,1488,0,1634,789,247,824,1,3,184,74,536820,0
536866,136,-4729,1020,-1605,-511,-3691,18278,2029,-86,258,4472,35075,158,35,127,0,0,5044,1373,0,1634,789,247,834,1,3,184,74,536851,0
536876,953,-4562,799,-1972,193,-4817,19147,1875,-178,330,4264,35064,136,36,127,0,0,5180,1296,0,1634,789,247,844,1,3,184,74,536851,0
536886,1533,-4078,-375,-2121,2343,-7418,19946,1691,-263,145,3200,35060,116,35,127,0,0,5177,-197,0,1634,789,247,854,1,3,184,74,536851,0
536896,1495,-4063,-476,-2136,3164,-8660,20595,1288,-409,-346,856,35063,91,35,127,0,0,5046,-1384,0,1634,789,247,864,0,3,184,74,536867,0
536906,1270,-3811,411,-1932,2155,-9242,20827,-38,-1054,-2654,-1272,35069,50,35,127,0,0,4904,-1389,0,1634,789,247,874,0,3,184,74,536867,0
536916,1800,-3813,532,-1919,1721,-9186,20570,-669,-1842,-777,-1880,35070,70,35,127,0,0,4802,-950,0,1634,789,247,884,0,3,184,74,536882,0
536927,1806,-3393,-6,-1728,1190,-9108,20170,-827,-985,-505,-2008,35059,108,35,127,0,0,4719,-791,0,1634,789,247,895,0,3,184,74,536882,0
536937,1757,-3124,-171,-1442,537,-9054,19774,-886,-228,-403,-2128,35063,106,36,127,0,0,4636,-845,0,1634,789,247,905,0,3,184,74,536929,0
536947,1748,-2889,-122,-1274,207,-8831,19352,-943,-106,-423,-2280,35064,92,35,127,0,0,4535,-1010,0,1634,789,247,915,0,3,184,74,536929,0
536957,1522,-2500,-56,-1184,-155,-8298,18896,-1026,-111,-459,-2440,35067,122,35,127,0,0,4429,-1109,0,1634,789,247,925,0,3,184,74,536929,0
536967,1346,-2316,-52,-1175,-318,-7867,18401,-1115,-146,-472,-2624,35051,118,35,127,0,0,4324,-1054,0,1634,789,247,935,0,3,184,74,536929,0
536977,1108,-2042,-95,-1181,-464,-7172,17880,-1151,-125,-401,-2720,35051,109,36,127,0,0,4218,-1021,0,1634,789,247,945,0,3,184,74,536929,0
536987,1033,-1882,-168,-1199,-435,-6682,17355,-1143,-53,-344,-2656,35073,97,36,127,0,0,4122,-966,0,1634,789,247,955,0,3,184,74,536991,0
536997,893,-1624,-176,-1199,-299,-6000,16836,-1135,5,-322,-2512,35073,115,36,127,0,0,4031,-922,0,1634,789,247,965,0,3,184,74,536991,0
537007,811,-1411,-236,-1192,-173,-5555,16331,-1103,36,-328,-2440,35065,142,36,127,0,0,3937,-955,0,1634,789,247,975,0,3,184,74,536991,0
537017,681,-1110,-258,-1166,-11,-4843,15829,-1111,27,-346,-2512,35053,129,35,127,0,0,3843,-955,0,1634,789,247,985,0,3,184,74,536991,0
537027,630,-966,-234,-1132,73,-4312,15323,-1122,-2,-330,-2448,35057,123,35,127,0,0,3755,-845,0,1634,789,247,995,0,3,184,74,536991,0
537037,599,-747,-259,-1048,167,-3524,14824,-1088,6,-320,-2296,35066,112,35,127,0,0,3673,-791,0,1634,789,247,1005,0,3,184,74,536991,0
537047,605,-595,-280,-986,225,-3030,14349,-1024,53,-264,-2168,35073,83,35,127,0,0,3605,-692,0,1634,789,247,1015,0,3,184,74,537101,0
537057,572,-407,-307,-892,249,-2314,13904,-959,102,-267,-2120,35068,66,35,127,0,0,3531,-725,0,1634,789,247,1025,0,3,184,74,537101,0
537067,546,-312,-339,-842,231,-1857,13483,-903,114,-301,-1992,35074,61,35,127,0,0,3454,-769,0,1634,789,247,1035,0,3,184,74,537116,0
537077,480,-167,-368,-745,139,-1167,13081,-872,81,-307,-1976,35062,80,35,127,0,0,3383,-725,0,1634,789,247,1045,0,3,184,74,537116,0
537087,433,-34,-375,-679,71,-697,12700,-829,74,-360,-1952,35049,104,35,127,0,0,3309,-747,0,1634,789,247,1055,0,3,184,74,537116,0
537097,424,146,-376,-568,6,-42,12323,-823,43,-396,-1912,35046,104,35,127,0,0,3236,-714,0,1634,789,247,1065,0,3,184,74,537132,0
537107,377,166,-363,-493,-88,388,11950,-820,19,-448,-1976,35048,97,35,127,0,0,3161,-758,0,1634,789,247,1075,0,3,184,74,537132,0
537117,309,86,-397,-353,-266,1036,11572,-824,-7,-416,-1856,35056,89,35,127,0,0,3102,-593,0,1634,789,247,1085,0,3,184,74,537132,0
537127,294,16,-374,-264,-395,1461,11208,-793,18,-369,-1744,35051,88,35,127,0,0,3043,-571,0,1634,789,247,1095,0,3,184,74,537132,0
537137,218,44,-356,-75,-531,2027,10859,-744,56,-347,-1608,35048,105,36,127,0,0,2988,-494,0,1634,789,247,1105,0,3,184,74,537132,0
537147,223,102,-339,23,-616,2382,10541,-676,86,-342,-1384,35050,79,35,127,0,0,2933,-549,0,1634,789,247,1115,0,3,184,74,537132,0
537157,210,131,-335,160,-730,2882,10243,-651,95,-377,-1352,35074,79,35,127,0,0,2876,-549,0,1634,789,247,1125,0,3,184,74,537132,0
537168,121,110,-330,259,-820,3229,9937,-603,70,-430,-1320,35081,78,36,127,0,0,2814,-576,0,1634,789,247,1136,0,3,184,74,537132,0
537178,25,105,-292,402,-887,3721,9664,-599,47,-427,-1320,35089,95,36,127,0,0,2764,-582,0,1634,789,247,1146,0,3,184,74,537148,0
537188,13,133,-293,485,-852,4000,9395,-573,14,-379,-1208,35096,94,36,127,0,0,2714,-521,0,1634,789,247,1156,0,3,184,74,537148,0
537198,-27,146,-354,644,-709,4421,9145,-548,43,-428,-1176,35103,74,36,127,0,0,2667,-488,0,1634,789,247,1166,0,3,184,74,537195,0
537208,-23,139,-374,753,-546,4673,8899,-536,45,-370,-1088,35096,77,35,127,0,0,2623,-439,0,1634,789,247,1176,0,3,184,74,537195,0
537218,-29,157,-380,926,-185,5010,8664,-497,27,-374,-1024,35060,86,35,127,0,0,2579,-439,0,1634,789,247,1186,0,3,184,74,537195,0
537228,-3,154,-337,1012,93,5234,8440,-505,41,-387,-968,35046,81,36,127,0,0,2537,-406,0,1634,789,247,1196,0,3,184,74,537195,0
537238,205,189,-229,1116,477,5490,8223,-466,34,-357,-904,35050,74,35,127,0,0,2498,-455,0,1634,789,247,1206,0,3,184,74,537210,0
537248,398,133,-222,1170,585,5651,8010,-471,22,-322,-824,35074,62,36,127,0,0,2460,-384,0,1634,789,247,1216,0,3,184,74,537210,0
537258,637,-97,-236,1271,533,5793,7815,-410,38,-356,-752,35081,70,35,127,0,0,2432,-307,0,1634,789,247,1226,0,3,184,74,537210,0
537268,752,-248,-208,1355,566,5818,7634,-386,64,-367,-680,35080,77,36,127,0,0,2401,-280,0,1634,789,247,1236,0,3,184,74,537241,0
537278,1012,-354,-199,1430,594,5764,7464,-353,47,-375,-552,35075,73,35,127,0,0,2377,-208,0,1634,789,247,1246,0,3,184,74,537257,0
537288,1255,-458,-216,1409,523,5676,7318,-298,75,-391,-480,35075,59,36,127,0,0,2356,-225,0,1634,789,247,1256,0,3,184,74,537257,0
537298,1540,-671,-255,1383,382,5415,7199,-244,99,-419,-376,35075,59,36,127,0,0,2341,-164,0,1634,789,247,1266,0,3,184,74,537257,0
537308,1734,-822,-305,1360,267,5178,7116,-161,122,-550,-360,35075,59,36,127,0,0,2323,-120,0,1634,789,247,1276,0,3,184,74,537288,0
537318,1926,-1058,-320,1265,108,4737,7052,-137,113,-669,-344,35080,54,36,127,0,0,2303,-153,0,1634,789,247,1286,0,3,184,74,537288,0
537328,1992,-1172,-322,1188,97,4379,6985,-153,28,-622,-344,35070,53,36,127,0,0,2295,-109,0,1634,789,247,1296,0,3,184,74,537304,0
537338,1971,-1364,-312,1048,234,3774,6919,-128,-5,-555,-288,35080,49,36,127,0,0,2289,-16,0,1634,789,247,1306,0,3,184,74,537304,0
537348,2006,-1341,-324,929,459,3325,6879,-55,56,-540,-208,35082,28,36,127,0,0,2289,0,0,1634,789,247,1316,0,3,184,74,537304,0
537358,1777,-1244,-294,756,888,2779,6857,-51,89,-443,-120,35096,16,36,127,0,0,2300,104,0,1634,789,247,1326,0,3,184,74,537335,0
537368,2515,-1460,-633,549,1643,2337,6858,46,63,-112,144,35108,-8,36,127,0,0,2342,532,0,1634,789,247,1336,0,3,184,74,537335,0
537378,7331,-2529,-1027,-1926,1771,-3358,6957,308,270,-261,-632,35101,-13,36,127,0,0,2186,-1994,0,1634,789,247,1346,0,3,184,74,537335,0
537388,3642,-2871,-488,-1130,1032,-2545,6802,-632,-337,-1739,-2400,35094,-3,36,127,0,0,1980,-1867,0,1229,296,248,4,1,3,117,110,537366,0
537398,1580,-1374,-744,-878,402,-186,6347,-1094,-1162,-932,-2784,35086,35,36,127,0,0,1862,-1126,0,1229,296,248,14,1,3,117,110,537366,0
537408,689,-1878,591,-971,-97,1284,5833,-1119,-582,-471,-2312,35087,65,36,127,0,0,1825,-247,0,1229,296,248,24,1,3,117,110,537366,0
537419,38,-2822,1619,-656,-149,-459,5364,-847,145,-345,-2016,35075,65,36,127,0,0,1733,-944,0,1229,296,248,35,1,3,117,110,537382,0
537429,1198,-3178,530,116,462,-1013,4987,-840,264,-770,-2392,35087,49,36,127,0,0,1621,-1109,0,1229,296,248,45,1,3,117,110,537460,0
537439,1674,-2593,-87,128,-273,-452,4559,-980,-56,-829,-2688,35100,48,36,127,0,0,1522,-933,0,1229,296,248,55,1,3,117,110,537460,0
537449,1900,-2272,-578,69,-823,379,4084,-1044,-190,-529,-2504,35101,56,36,127,0,0,1461,-604,0,1229,296,248,65,1,3,117,110,537460,0
537459,1428,-2573,-836,91,-789,836,3630,-971,-29,-367,-2056,35078,68,36,127,0,0,1426,-285,0,1229,296,248,75,1,3,117,110,537460,0
537469,490,-2020,-999,304,-191,1000,3239,-809,174,-273,-1480,35069,61,36,127,0,0,1410,-109,0,1229,296,248,85,1,3,117,110,537476,0
537479,419,-1602,-1085,468,359,788,2937,-610,294,-236,-1064,35074,43,36,127,0,0,1386,-241,0,1229,296,248,95,1,3,117,110,537476,0
537489,590,-3179,-388,468,530,979,2706,-479,304,-405,-984,35079,32,36,127,0,0,1362,-197,0,1229,296,248,105,1,3,117,110,537476,0
537499,675,-2765,105,730,563,978,2518,-386,206,-412,-560,35079,30,36,127,0,0,1368,65,0,1229,296,248,115,1,3,117,110,537476,0
537509,624,-2188,551,685,322,1001,2387,-251,186,-243,-80,35080,22,36,127,0,0,1390,208,0,1229,296,248,125,1,3,117,110,537476,0
537519,710,-1799,111,670,245,834,2373,74,351,375,184,35082,25,36,127,0,0,1415,186,0,1229,296,248,135,1,3,117,110,537476,0
537529,760,-1656,-703,711,270,769,2464,223,442,224,248,35097,22,36,127,0,0,1428,164,0,1229,296,248,145,1,3,117,110,537507,0
537539,737,-1887,-881,884,322,760,2572,238,201,114,120,35105,19,36,127,0,0,1441,142,0,1229,296,248,155,1,3,117,110,537507,0
537549,804,-2067,-618,1208,588,764,2648,126,-47,176,96,35099,34,36,127,0,0,1456,153,0,1229,296,248,165,1,3,117,110,537523,0
537559,856,-2033,-260,1332,667,769,2697,108,-120,312,160,35092,19,36,127,0,0,1467,109,0,1229,296,248,175,1,3,117,110,537523,0
537569,1046,-1904,221,1285,596,881,2762,167,-6,342,240,35092,24,36,127,0,0,1487,142,0,1229,296,248,185,1,3,117,110,537538,0
537579,1136,-1874,369,1160,496,1033,2831,163,42,415,360,35105,26,36,127,0,0,1507,219,0,1229,296,248,195,1,3,117,110,537538,0
537589,1202,-1937,251,961,379,1303,2929,238,67,374,416,35097,24,36,127,0,0,1540,351,0,1229,296,248,205,1,3,117,110,537554,0
537599,1144,-1866,162,882,338,1460,3043,269,89,496,536,35090,16,36,127,0,0,1575,362,0,1229,296,248,215,1,3,117,110,537569,0
537609,1070,-1950,74,776,323,1662,3183,317,79,454,648,35083,2,36,127,0,0,1612,417,0,1229,296,248,225,1,3,117,110,537569,0
537619,1002,-1951,119,720,321,1775,3347,381,95,434,784,35082,11,36,127,0,0,1652,362,0,1229,296,248,235,1,3,117,110,537585,0
537629,988,-1910,275,586,277,1958,3524,390,67,426,880,35085,15,36,127,0,0,1705,516,0,1229,296,248,245,1,3,117,110,537585,0
537639,971,-1951,344,496,230,2093,3714,440,43,504,992,35080,21,36,127,0,0,1757,549,0,1229,296,248,255,1,3,117,110,537601,0
537649,952,-1937,302,341,136,2276,3928,487,85,516,1160,35087,9,35,127,0,0,1814,582,0,1229,296,248,265,1,3,117,110,537632,0
537659,885,-1972,257,242,92,2394,4168,544,98,452,1256,35082,19,35,127,0,0,1880,670,0,1229,296,248,275,1,3,117,110,537632,0
537669,777,-1960,150,125,50,2473,4424,584,80,498,1368,35077,29,36,127,0,0,1944,659,0,1229,296,248,285,1,3,117,110,537632,0
537680,655,-1937,61,78,45,2517,4727,619,36,434,1472,35070,20,36,127,0,0,2019,725,0,1229,296,248,296,1,3,117,110,537663,0
537690,513,-1965,-23,53,84,2543,5019,645,91,426,1552,35083,26,35,127,0,0,2085,697,0,1229,296,248,306,1,3,117,110,537663,0
537700,493,-1968,-33,70,134,2525,5326,689,58,399,1584,35094,35,36,127,0,0,2165,769,0,1229,296,248,316,1,3,117,110,537663,0
537710,499,-1969,-39,74,118,2506,5644,702,45,397,1584,35095,49,36,127,0,0,2232,686,0,1229,296,248,326,1,3,117,110,537679,0
537720,484,-1992,-32,87,76,2481,5970,719,31,374,1520,35086,41,36,127,0,0,2301,664,0,1229,296,248,336,1,3,117,110,537679,0
537730,319,-1970,-103,113,33,2416,6296,714,17,330,1456,35084,26,36,127,0,0,2364,653,0,1229,296,248,346,1,3,117,110,537710,0
537740,233,-1969,-125,136,48,2338,6618,705,-4,292,1384,35096,23,36,127,0,0,2424,576,0,1229,296,248,356,1,3,117,110,537710,0
537750,175,-1972,-55,168,117,2188,6938,701,-13,268,1320,35093,18,36,127,0,0,2489,576,0,1229,296,248,366,1,3,117,110,537726,0
537760,202,-2028,-13,198,135,2067,7250,683,-17,242,1272,35080,4,36,127,0,0,2544,576,0,1229,296,248,376,1,3,117,110,537726,0
537770,256,-2090,-46,242,119,1964,7536,614,-62,292,1152,35073,11,36,127,0,0,2599,582,0,1229,296,248,386,1,3,117,110,537726,0
537780,246,-1964,-57,242,68,1885,7799,563,-94,385,1136,35082,0,36,127,0,0,2651,516,0,1229,296,248,396,1,3,117,110,537741,0
537790,-51,-1997,60,190,-29,1689,8041,530,-87,432,1104,35091,0,36,127,0,0,2696,505,0,1229,296,248,406,1,3,117,110,537757,0
537800,-168,-1978,107,162,-28,1472,8272,499,-46,436,1032,35090,-4,35,127,0,0,2734,340,0,1229,296,248,416,1,3,117,110,537851,0
537810,-204,-2044,222,65,59,1086,8495,472,-43,393,912,35089,6,36,127,0,0,2766,285,0,1229,296,248,426,1,3,117,110,537851,0
537820,-146,-2066,232,1,121,839,8694,421,-64,361,736,35090,9,36,127,0,0,2790,214,0,1229,296,248,436,1,3,117,110,537851,0
537830,-32,-2064,201,-106,104,542,8869,368,-81,334,512,35092,22,36,127,0,0,2800,126,0,1229,296,248,446,1,3,117,110,537851,0
537840,-32,-2057,213,-171,32,385,9018,297,-91,267,280,35086,33,36,127,0,0,2807,38,0,1229,296,248,456,1,3,117,110,537866,0
537850,-113,-2055,173,-242,-36,145,9126,198,-135,140,88,35080,33,36,127,0,0,2805,5,0,1229,296,248,466,1,3,117,110,537866,0
537860,-125,-2052,89,-283,-52,-3,9151,-11,-235,140,56,35079,27,36,127,0,0,2801,-27,0,1229,296,248,476,1,3,117,110,537866,0
537870,-160,-2115,63,-324,22,-283,9134,-31,-253,134,8,35081,9,36,127,0,0,2796,-60,0,1229,296,248,486,1,3,117,110,537866,0
537880,-18,-2073,110,-337,43,-456,9124,-49,-54,-215,-120,35080,13,36,127,0,0,2774,-153,0,1229,296,248,496,1,3,117,110,537866,0
537890,28,-2084,96,-426,-39,-628,9078,-128,-54,-395,-216,35077,13,36,127,0,0,2757,-192,0,1229,296,248,506,1,3,117,110,537866,0
537900,109,-2113,128,-475,-33,-696,9003,-176,-129,-343,-272,35083,25,36,127,0,0,2738,-159,0,1229,296,248,516,1,3,117,110,537866,0
537910,223,-2091,126,-518,-37,-758,8903,-231,-104,-271,-256,35094,20,36,127,0,0,2719,-159,0,1229,296,248,526,1,3,117,110,537882,0
537921,345,-2079,102,-561,-65,-752,8798,-208,-38,-275,-216,35107,27,36,127,0,0,2696,-186,0,1229,296,248,537,1,3,117,110,537882,0
537931,344,-2074,54,-590,-102,-749,8703,-181,11,-247,-200,35116,26,36,127,0,0,2678,-175,0,1229,296,248,547,1,3,117,110,537929,0
537941,386,-2157,96,-642,-111,-678,8628,-161,47,-295,-152,35123,19,35,127,0,0,2667,-131,0,1229,296,248,557,1,3,117,110,537929,0
537951,377,-2116,68,-624,-110,-700,8558,-141,53,-244,-144,35123,25,35,127,0,0,2654,-153,0,1229,296,248,567,1,3,117,110,537929,0
537961,426,-2129,-11,-631,-139,-633,8497,-131,28,-247,-144,35111,32,36,127,0,0,2645,-76,0,1229,296,248,577,1,3,117,110,537929,0
537971,457,-2158,4,-601,-175,-575,8451,-66,42,-189,-128,35091,41,36,127,0,0,2641,-54,0,1229,296,248,587,1,3,117,110,537929,0
537981,504,-2312,73,-565,-199,-469,8423,-58,68,-194,-72,35079,27,36,127,0,0,2638,-21,0,1229,296,248,597,1,3,117,110,537944,0
537991,418,-2313,161,-565,-187,-428,8415,3,65,-172,-56,35087,18,36,127,0,0,2645,76,0,1229,296,248,607,1,3,117,110,537944,0
538001,480,-2866,362,-506,-335,-292,8422,18,68,-34,24,35104,-6,36,127,0,0,2654,120,0,1229,296,248,617,1,3,117,110,537976,0
538011,371,-2756,554,-450,-595,-99,8437,50,42,344,240,35116,1,35,127,0,0,2687,351,0,1229,296,248,627,1,3,117,110,537976,0
538021,241,-3389,96,-653,-1113,254,8512,211,131,545,496,35106,-6,36,127,0,0,2742,593,0,1229,296,248,637,1,3,117,110,537991,0
538031,-156,-3466,31,-634,-1135,463,8649,347,241,621,1008,35097,2,36,127,0,0,2834,966,0,1229,296,248,647,1,3,117,110,537991,0
538041,-366,-3075,-343,-508,-992,417,8871,548,278,755,1608,35101,19,36,127,0,0,2946,1153,0,1229,296,248,657,1,3,117,110,538023,0
538051,-434,-3032,-482,-698,-713,455,9197,791,361,800,2152,35115,40,36,127,0,0,3084,1351,0,1229,296,248,667,1,3,117,110,538023,0
538061,-716,-3063,-173,-679,-650,526,9629,1051,398,1023,2952,35103,59,36,127,0,0,3247,1647,0,1229,296,248,677,1,3,117,110,538023,0
538071,-756,-3037,-66,-571,-567,462,10205,1356,485,960,3680,35091,70,36,127,0,0,3425,1812,0,1229,296,248,687,1,3,117,110,538038,0
538081,-825,-2823,-82,-541,-413,133,10910,1617,528,804,4120,35074,88,36,127,0,0,3603,1790,0,1229,296,248,697,1,3,117,110,538054,0
538091,-831,-2739,-75,-493,-400,-47,11682,1728,386,734,4520,35082,115,36,127,0,0,3785,1856,0,1229,296,248,707,1,3,117,110,538054,0
538101,-774,-2628,96,-381,-490,-417,12507,1844,225,728,4848,35083,112,36,127,0,0,3974,1878,0,1229,296,248,717,1,3,117,110,538069,0
538111,-905,-2702,89,-365,-585,-605,13389,1991,204,718,5024,35080,139,36,127,0,0,4163,1900,0,1229,296,248,727,1,3,117,110,538069,0
538121,-1083,-2513,137,-429,-867,-1080,14335,2123,232,681,5168,35078,132,36,127,0,0,4363,1999,0,1229,296,248,737,1,3,117,110,538085,0
538131,-984,-2833,309,-654,-1021,-1578,15341,2241,242,625,5232,35087,147,36,127,0,0,4550,1867,0,1229,296,248,747,1,3,117,110,538085,0
538141,-341,-4648,459,-873,-756,-2051,16340,2168,108,489,5096,35083,145,36,127,0,0,4728,1746,0,1229,296,248,757,1,3,117,110,538116,0
538151,447,-5430,544,-1154,-408,-2446,17300,2093,-103,469,4888,35076,125,36,127,0,0,4873,1439,0,1229,296,248,767,1,3,117,110,538116,0
538161,459,-4760,835,-1407,-662,-3213,18217,1981,-157,261,4296,35067,104,36,127,0,0,4994,1197,0,1229,296,248,777,1,3,117,110,538116,0
538172,496,-4353,987,-1541,-211,-3745,19131,1769,-241,313,4128,35093,79,36,127,0,0,5152,1488,0,1229,296,248,788,1,3,117,110,538132,0
538182,1531,-3571,-404,-1802,2417,-6542,19910,1659,-253,227,3328,35090,74,35,127,0,0,5172,5,0,1229,296,248,798,1,3,117,110,538132,0
538192,1826,-3420,-650,-1977,3156,-7860,20559,1304,-327,-217,1112,35103,68,35,127,0,0,5059,-1329,0,1229,296,248,808,0,3,117,110,538179,0
538202,1487,-3402,110,-1857,2286,-8370,20839,111,-912,-2471,-1136,35092,45,36,127,0,0,4921,-1351,0,1229,296,248,818,0,3,117,110,538194,0
538212,1798,-3465,95,-1735,2140,-8548,20603,-633,-1785,-853,-1816,35092,41,36,127,0,0,4819,-1032,0,1229,296,248,828,0,3,117,110,538194,0
538222,1681,-3173,-56,-1472,1771,-8618,20252,-813,-1194,-611,-1992,35076,43,36,127,0,0,4744,-719,0,1229,296,248,838,0,3,117,110,538194,0
538232,1758,-3183,-159,-1169,1487,-8704,19857,-878,-287,-396,-2000,35078,53,35,127,0,0,4679,-653,0,1229,296,248,848,0,3,117,110,538194,0
538242,1742,-3070,-157,-786,1040,-8506,19457,-875,-89,-308,-1888,35089,44,35,127,0,0,4612,-659,0,1229,296,248,858,0,3,117,110,538194,0
538252,1674,-2904,-49,-615,785,-8259,19067,-857,2,-311,-1848,35106,47,36,127,0,0,4538,-714,0,1229,296,248,868,0,3,117,110,538272,0
538262,1575,-2617,-25,-544,419,-7759,18679,-847,24,-320,-1760,35099,41,36,127,0,0,4472,-675,0,1229,296,248,878,0,3,117,110,538288,0
538272,1544,-2411,-34,-577,183,-7383,18300,-830,24,-300,-1760,35094,54,36,127,0,0,4400,-747,0,1229,296,248,888,0,3,117,110,538288,0
538282,1417,-2029,-144,-673,-133,-6774,17926,-809,29,-376,-1872,35081,45,36,127,0,0,4312,-856,0,1229,296,248,898,0,3,117,110,538288,0
538292,1332,-1821,-201,-777,-316,-6360,17540,-852,-10,-408,-2016,35080,46,36,127,0,0,4227,-955,0,1229,296,248,908,0,3,117,110,538288,0
538302,1183,-1491,-275,-868,-505,-5755,17136,-898,-59,-466,-2192,35077,26,36,127,0,0,4133,-944,0,1229,296,248,918,0,3,117,110,538288,0
538312,1079,-1292,-292,-908,-558,-5326,16700,-980,-95,-488,-2392,35073,37,36,127,0,0,4020,-1087,0,1229,296,248,928,0,3,117,110,538288,0
538322,850,-1030,-333,-915,-659,-4602,16224,-1080,-139,-521,-2584,35075,31,36,127,0,0,3911,-1071,0,1229,296,248,938,0,3,117,110,538288,0
538332,740,-894,-336,-924,-746,-4085,15705,-1156,-163,-430,-2672,35083,54,36,127,0,0,3808,-1016,0,1229,296,248,948,0,3,117,110,538288,0
538342,647,-716,-307,-929,-854,-3311,15166,-1191,-121,-368,-2632,35099,60,36,127,0,0,3712,-922,0,1229,296,248,958,0,3,117,110,538304,0
538352,600,-633,-267,-912,-885,-2825,14633,-1157,-35,-322,-2456,35110,57,36,127,0,0,3632,-823,0,1229,296,248,968,0,3,117,110,538319,0
538362,514,-493,-289,-876,-875,-2141,14129,-1085,68,-285,-2328,35106,43,36,127,0,0,3551,-791,0,1229,296,248,978,0,3,117,110,538319,0
538372,488,-442,-335,-865,-845,-1689,13704,-1020,119,-234,-2160,35108,23,36,127,0,0,3474,-791,0,1229,296,248,988,0,3,117,110,538366,0
538382,449,-327,-368,-827,-768,-1046,13270,-933,136,-302,-2096,35096,34,36,127,0,0,3392,-829,0,1229,296,248,998,0,3,117,110,538366,0
538392,384,-237,-368,-779,-702,-634,12857,-900,112,-353,-2112,35086,31,36,127,0,0,3314,-823,0,1229,296,248,1008,0,3,117,110,538366,0
538402,323,-68,-317,-673,-594,-33,12452,-892,48,-433,-2128,35079,48,36,127,0,0,3232,-780,0,1229,296,248,1018,0,3,117,110,538366,0
538412,277,24,-305,-606,-540,369,12046,-899,5,-487,-2168,35079,61,36,127,0,0,3150,-812,0,1229,296,248,1028,0,3,117,110,538366,0
538423,200,32,-308,-501,-459,962,11592,-907,-19,-399,-2088,35092,73,36,127,0,0,3071,-736,0,1229,296,248,1039,0,3,117,110,538382,0
538433,172,12,-344,-360,-398,1539,11190,-878,11,-375,-1960,35098,86,36,127,0,0,3010,-626,0,1229,296,248,1049,0,3,117,110,538413,0
538443,137,4,-322,-248,-330,1896,10807,-815,61,-311,-1648,35098,73,36,127,0,0,2957,-472,0,1229,296,248,1059,0,3,117,110,538413,0
538453,97,32,-246,-62,-182,2370,10465,-727,125,-335,-1480,35089,43,36,127,0,0,2906,-472,0,1229,296,248,1069,0,3,117,110,538413,0
538463,80,64,-219,59,-52,2626,10157,-651,142,-337,-1288,35096,36,35,127,0,0,2858,-472,0,1229,296,248,1079,0,3,117,110,538444,0
538473,95,147,-246,234,107,3025,9877,-599,115,-388,-1248,35094,37,35,127,0,0,2805,-516,0,1229,296,248,1089,0,3,117,110,538444,0
538483,66,163,-250,361,200,3316,9614,-579,81,-420,-1256,35089,40,36,127,0,0,2750,-549,0,1229,296,248,1099,0,3,117,110,538444,0
538493,19,89,-236,594,333,3737,9351,-570,24,-416,-1208,35082,40,36,127,0,0,2700,-505,0,1229,296,248,1109,0,3,117,110,538444,0
538503,47,67,-202,737,411,4020,9099,-551,26,-413,-1176,35093,36,36,127,0,0,2656,-428,0,1229,296,248,1119,0,3,117,110,538476,0
538513,112,69,-146,965,543,4394,8854,-537,29,-352,-1056,35099,42,36,127,0,0,2614,-417,0,1229,296,248,1129,0,3,117,110,538491,0
538523,200,82,-145,1127,624,4640,8623,-491,37,-369,-952,35092,32,36,127,0,0,2572,-406,0,1229,296,248,1139,0,3,117,110,538491,0
538533,322,113,-163,1330,627,5010,8405,-473,56,-348,-896,35084,23,36,127,0,0,2537,-340,0,1229,296,248,1149,0,3,117,110,538491,0
538543,385,113,-146,1455,586,5211,8199,-439,43,-334,-800,35095,15,36,127,0,0,2502,-318,0,1229,296,248,1159,0,3,117,110,538569,0
538553,517,-2,-125,1655,536,5433,7997,-442,33,-307,-656,35102,10,36,127,0,0,2474,-307,0,1229,296,248,1169,0,3,117,110,538569,0
538563,614,-69,-174,1803,573,5516,7817,-378,54,-351,-608,35090,20,36,127,0,0,2443,-307,0,1229,296,248,1179,0,3,117,110,538585,0
538573,775,-122,-141,1984,637,5598,7652,-356,71,-349,-600,35080,23,36,127,0,0,2408,-329,0,1229,296,248,1189,0,3,117,110,538585,0
538583,965,-197,-116,2058,572,5643,7492,-344,33,-379,-528,35086,21,36,127,0,0,2381,-263,0,1229,296,248,1199,0,3,117,110,538585,0
538593,1271,-474,-107,2128,363,5625,7351,-310,43,-392,-448,35094,8,36,127,0,0,2364,-153,0,1229,296,248,1209,0,3,117,110,538585,0
538603,1350,-696,-136,2145,273,5515,7234,-248,80,-401,-360,35089,19,36,127,0,0,2344,-186,0,1229,296,248,1219,0,3,117,110,538585,0
538613,1469,-963,-186,2153,254,5196,7145,-168,102,-491,-312,35080,21,36,127,0,0,2329,-186,0,1229,296,248,1229,0,3,117,110,538585,0
538623,1633,-1064,-235,2112,300,4953,7084,-118,115,-594,-304,35076,32,36,127,0,0,2318,-131,0,1229,296,248,1239,0,3,117,110,538585,0
538633,1776,-1108,-313,1957,478,4523,7033,-124,65,-632,-296,35092,24,35,127,0,0,2309,-98,0,1229,296,248,1249,0,3,117,110,538585,0
538643,1776,-1136,-350,1813,665,4201,6983,-117,14,-557,-288,35103,32,35,127,0,0,2304,-54,0,1229,296,248,1259,0,3,117,110,538600,0
538653,1798,-1210,-330,1559,1110,3677,6943,-60,20,-513,-240,35105,41,36,127,0,0,2300,-43,0,1229,296,248,1269,0,3,117,110,538632,0
538663,7899,-3211,-2822,494,1312,1505,6927,0,74,-538,56,35096,36,36,127,0,0,2304,164,0,1229,296,248,1279,0,3,117,110,538632,0
538673,4810,-3758,-919,75,-115,-2400,6917,-187,80,-1517,-2160,35080,34,36,127,0,0,2019,-3010,0,1229,296,248,1289,0,3,117,110,538632,0
538684,7732,-1954,-468,-438,-461,-2883,6472,-1064,-837,-1168,-2864,35073,51,36,127,0,0,1850,-1669,0,1229,296,248,1300,0,3,117,110,538647,0
538694,1280,-715,-437,-847,-1439,455,5917,-1305,-1003,-942,-3168,35068,85,35,127,0,0,1752,-703,0,1197,312,249,6,1,3,112,100,538647,0
538704,150,-1267,575,-1136,-1869,1076,5346,-1171,-289,-211,-2408,35078,72,35,127,0,0,1721,-335,0,1197,312,249,16,1,3,112,100,538679,0
538714,-432,-2746,1421,-990,-1353,-273,4900,-891,230,-260,-1928,35092,51,35,127,0,0,1672,-450,0,1197,312,249,26,1,3,112,100,538679,0
538724,488,-3319,-77,-352,533,-1376,4546,-755,429,-576,-2168,35091,35,35,127,0,0,1546,-1301,0,1197,312,249,36,1,3,112,100,538679,0
538734,1842,-2723,-121,-107,-150,-968,4135,-1009,72,-1137,-2904,35082,54,36,127,0,0,1419,-1126,0,1197,312,249,46,1,3,112,100,538694,0
538744,2831,-2243,-236,-217,-614,-304,3619,-1172,-339,-589,-2784,35083,87,36,127,0,0,1342,-670,0,1197,312,249,56,1,3,112,100,538710,0
538754,1724,-2766,-402,-537,-1096,748,3106,-1100,-205,-353,-2296,35084,81,36,127,0,0,1309,-307,0,1197,312,249,66,1,3,112,100,538725,0
538764,829,-2695,-514,-495,-800,1133,2661,-899,134,-161,-1480,35087,64,36,127,0,0,1309,16,0,1197,312,249,76,1,3,112,100,538725,0
538774,349,-1739,-761,-223,33,927,2345,-611,380,-152,-776,35082,44,36,127,0,0,1316,16,0,1197,312,249,86,1,3,112,100,538741,0
538784,640,-1345,-811,-100,447,797,2137,-399,457,-193,-360,35078,35,36,127,0,0,1309,-65,0,1197,312,249,96,1,3,112,100,538772,0
538794,1402,-947,-505,-45,559,804,2020,-201,381,-338,-408,35081,22,36,127,0,0,1291,-274,0,1197,312,249,106,1,3,112,100,538772,0
538804,1791,-729,-535,-105,199,1037,1924,-223,222,-522,-472,35081,11,36,127,0,0,1260,-280,0,1197,312,249,116,1,3,112,100,538772,0
538814,1179,-1168,-472,7,-68,1215,1810,-280,-10,-592,-600,35082,23,36,127,0,0,1226,-368,0,1197,312,249,126,1,3,112,100,538772,0
538824,808,-1819,-892,-269,-295,1259,1670,-314,-88,-604,-752,35084,30,36,127,0,0,1195,-357,0,1197,312,249,136,1,3,112,100,538804,0
538834,513,-3730,-575,-408,73,1564,1516,-349,-75,-508,-608,35087,42,36,127,0,0,1192,21,0,1197,312,249,146,1,3,112,100,538804,0
538844,1,-4410,375,246,542,1206,1377,-279,2,-355,-248,35093,33,36,127,0,0,1198,109,0,1197,312,249,156,1,3,112,100,538804,0
538854,752,-2677,771,757,718,888,1317,-25,171,53,160,35097,32,36,127,0,0,1226,263,0,1197,312,249,166,1,3,112,100,538835,0
538864,1069,-1864,321,721,317,841,1399,219,448,250,248,35099,14,36,127,0,0,1248,225,0,1197,312,249,176,1,3,112,100,538835,0
538874,1265,-1131,-754,566,56,1186,1497,235,305,352,360,35101,-4,35,127,0,0,1281,368,0,1197,312,249,186,1,3,112,100,538835,0
538884,966,-1237,-1204,611,87,1321,1621,275,71,413,520,35102,6,35,127,0,0,1312,324,0,1197,312,249,196,1,3,112,100,538866,0
538894,713,-1841,-1058,1023,566,1173,1783,373,119,330,480,35107,24,36,127,0,0,1330,137,0,1197,312,249,206,1,3,112,100,538866,0
538904,791,-2157,-442,1190,821,1145,1935,311,57,274,376,35098,43,36,127,0,0,1351,181,0,1197,312,249,216,1,3,112,100,538866,0
538914,1040,-2279,502,1228,705,1245,2064,257,-69,325,352,35088,35,36,127,0,0,1377,280,0,1197,312,249,226,1,3,112,100,538913,0
538925,1201,-1949,497,988,409,1550,2203,282,-45,393,488,35091,8,36,127,0,0,1410,307,0,1197,312,249,237,1,3,112,100,538944,0
538935,1163,-1830,147,878,318,1758,2339,324,19,490,704,35095,-8,36,127,0,0,1458,483,0,1197,312,249,247,1,3,112,100,538944,0
538945,1033,-1850,-239,845,355,1990,2509,395,78,459,840,35096,8,36,127,0,0,1511,549,0,1197,312,249,257,1,3,112,100,538944,0
538955,1012,-1853,-290,841,412,2069,2714,459,134,473,1008,35081,33,36,127,0,0,1566,538,0,1197,312,249,267,1,3,112,100,538944,0
538965,955,-2012,69,851,451,2187,2937,508,99,513,1168,35084,48,36,127,0,0,1621,527,0,1197,312,249,277,1,3,112,100,538944,0
538975,976,-1984,326,791,394,2334,3187,561,85,485,1296,35087,37,36,127,0,0,1683,604,0,1197,312,249,287,1,3,112,100,538944,0
538985,891,-1918,384,628,244,2570,3455,601,81,506,1448,35091,33,36,127,0,0,1751,670,0,1197,312,249,297,1,3,112,100,538944,0
538995,874,-1896,305,540,217,2682,3745,657,79,528,1624,35097,53,36,127,0,0,1830,769,0,1197,312,249,307,1,3,112,100,538960,0
539005,767,-1914,32,509,207,2757,4059,702,87,483,1752,35102,61,36,127,0,0,1909,812,0,1197,312,249,317,1,3,112,100,538991,0
539015,677,-1941,-85,494,204,2762,4392,735,81,481,1792,35108,56,36,127,0,0,1986,780,0,1197,312,249,327,1,3,112,100,538991,0
539025,516,-1956,-57,527,217,2752,4738,765,58,458,1864,35099,63,36,127,0,0,2067,780,0,1197,312,249,337,1,3,112,100,538991,0
539035,427,-1957,-14,552,195,2747,5099,789,52,410,1896,35084,56,36,127,0,0,2151,823,0,1197,312,249,347,1,3,112,100,538991,0
539045,334,-1948,-3,562,190,2685,5467,809,40,394,1920,35079,45,36,127,0,0,2228,780,0,1197,312,249,357,1,3,112,100,539007,0
539055,286,-1952,-26,579,189,2596,5843,826,28,375,1896,35083,34,36,127,0,0,2304,769,0,1197,312,249,367,1,3,112,100,539022,0
539065,321,-2128,-9,608,256,2474,6222,837,24,342,1824,35096,24,36,127,0,0,2373,681,0,1197,312,249,377,1,3,112,100,539022,0
539075,412,-2020,17,667,259,2437,6593,802,-8,282,1632,35095,31,36,127,0,0,2441,659,0,1197,312,249,387,1,3,112,100,539054,0
539085,208,-1917,97,560,62,2359,6953,779,-44,261,1536,35101,16,36,127,0,0,2509,670,0,1197,312,249,397,1,3,112,100,539054,0
539095,-12,-1955,226,519,42,2235,7299,745,-46,244,1472,35101,23,36,127,0,0,2572,626,0,1197,312,249,407,1,3,112,100,539069,0
539105,-154,-1981,222,463,109,1889,7618,691,-71,290,1392,35108,27,36,127,0,0,2634,604,0,1197,312,249,417,1,3,112,100,539069,0
539115,-115,-2023,245,411,166,1632,7910,622,-101,355,1264,35102,35,36,127,0,0,2678,450,0,1197,312,249,427,1,3,112,100,539069,0
539125,-60,-2065,286,316,126,1298,8172,547,-108,350,1080,35109,35,36,127,0,0,2713,329,0,1197,312,249,437,1,3,112,100,539100,0
539135,-80,-2055,321,249,62,1102,8404,501,-114,378,944,35112,26,36,127,0,0,2746,307,0,1197,312,249,447,1,3,112,100,539100,0
539145,-194,-2018,253,143,-18,823,8608,431,-104,366,760,35116,24,36,127,0,0,2772,274,0,1197,312,249,457,1,3,112,100,539100,0
539155,-198,-1989,166,93,18,597,8788,394,-102,375,624,35117,15,36,127,0,0,2790,153,0,1197,312,249,467,1,3,112,100,539116,0
539165,-136,-2036,124,29,74,243,8949,344,-79,302,384,35112,27,36,127,0,0,2801,87,0,1197,312,249,477,1,3,112,100,539132,0
539175,-114,-2094,240,-30,70,40,9078,261,-90,219,136,35108,24,36,127,0,0,2799,-43,0,1197,312,249,487,1,3,112,100,539132,0
539186,-26,-2110,396,-155,0,-176,9140,42,-194,-39,-32,35107,13,36,127,0,0,2793,-93,0,1197,312,249,498,1,3,112,100,539147,0
539196,-98,-2022,400,-252,-8,-394,9114,-46,-308,-19,-64,35116,12,36,127,0,0,2781,-164,0,1197,312,249,508,1,3,112,100,539194,0
539206,-93,-2039,298,-379,-22,-618,9094,-68,-127,-368,-168,35111,15,36,127,0,0,2763,-192,0,1197,312,249,518,1,3,112,100,539194,0
539216,-83,-2045,211,-440,-20,-795,9032,-143,-67,-354,-256,35100,13,36,127,0,0,2741,-285,0,1197,312,249,528,1,3,112,100,539194,0
539226,20,-2085,293,-536,-14,-1037,8938,-230,-136,-326,-328,35096,-7,36,127,0,0,2714,-285,0,1197,312,249,538,1,3,112,100,539194,0
539236,84,-2144,322,-583,-26,-1161,8823,-254,-100,-346,-384,35092,-20,36,127,0,0,2683,-335,0,1197,312,249,548,1,3,112,100,539210,0
539246,296,-2058,222,-610,-55,-1248,8692,-284,-71,-310,-408,35094,-4,36,127,0,0,2653,-335,0,1197,312,249,558,1,3,112,100,539210,0
539256,442,-2034,50,-630,-97,-1209,8559,-300,-30,-337,-448,35088,26,36,127,0,0,2620,-335,0,1197,312,249,568,1,3,112,100,539225,0
539266,570,-2005,-125,-574,-110,-1124,8417,-306,-24,-288,-448,35091,26,36,127,0,0,2592,-307,0,1197,312,249,578,1,3,112,100,539225,0
539276,649,-2035,-166,-508,-117,-1041,8276,-300,-12,-312,-416,35096,22,36,127,0,0,2563,-274,0,1197,312,249,588,1,3,112,100,539303,0
539286,613,-2116,-137,-415,-112,-898,8135,-311,2,-252,-384,35101,20,36,127,0,0,2543,-236,0,1197,312,249,598,1,3,112,100,539319,0
539296,562,-2215,-77,-359,-100,-782,7994,-305,2,-212,-240,35094,16,36,127,0,0,2524,-164,0,1197,312,249,608,1,3,112,100,539319,0
539306,584,-2220,66,-275,-67,-611,7887,-197,62,-174,-160,35089,25,36,127,0,0,2515,-115,0,1197,312,249,618,1,3,112,100,539319,0
539316,694,-2189,68,-264,-117,-463,7822,-124,151,-144,-48,35083,21,36,127,0,0,2513,16,0,1197,312,249,628,1,3,112,100,539319,0
539326,727,-2382,129,-180,-243,-203,7821,34,199,-124,-32,35088,22,36,127,0,0,2516,60,0,1197,312,249,638,1,3,112,100,539335,0
539336,796,-2602,70,-173,-431,92,7830,19,146,21,152,35085,45,36,127,0,0,2538,291,0,1197,312,249,648,1,3,112,100,539335,0
539346,432,-2627,48,-243,-410,508,7878,141,79,501,440,35080,28,36,127,0,0,2591,510,0,1197,312,249,658,1,3,112,100,539335,0
539356,281,-2542,39,-158,-357,573,8008,344,235,570,768,35083,39,36,127,0,0,2653,615,0,1197,312,249,668,1,3,112,100,539335,0
539366,300,-2699,-149,-66,-351,681,8188,425,258,560,1080,35095,40,36,127,0,0,2730,780,0,1197,312,249,678,1,3,112,100,539335,0
539376,261,-2772,-168,-17,-316,771,8390,534,185,633,1408,35101,42,36,127,0,0,2823,955,0,1197,312,249,688,1,3,112,100,539335,0
539386,70,-2856,-26,-67,-213,1048,8670,653,210,722,1824,35114,43,36,127,0,0,2927,1126,0,1197,312,249,698,1,3,112,100,539350,0
539396,-18,-2902,104,-39,-197,1207,9025,836,255,775,2296,35116,44,36,127,0,0,3060,1340,0,1197,312,249,708,1,3,112,100,539397,0
539406,12,-2804,142,52,-238,1317,9472,1052,324,909,2920,35111,54,36,127,0,0,3220,1582,0,1197,312,249,718,1,3,112,100,539397,0
539416,-148,-2725,162,92,-342,1330,10034,1313,406,858,3536,35088,80,36,127,0,0,3390,1702,0,1197,312,249,728,1,3,112,100,539397,0
539426,-374,-2740,240,133,-551,1326,10708,1552,442,816,3968,35071,99,36,127,0,0,3567,1818,0,1197,312,249,738,1,3,112,100,539397,0
539436,-455,-2694,326,151,-779,1172,11458,1694,352,772,4448,35057,108,36,127,0,0,3756,1928,0,1197,312,249,748,1,3,112,100,539413,0
539447,-805,-2479,270,45,-1011,945,12358,1847,255,806,4944,35061,117,36,127,0,0,3968,1900,0,1197,312,249,759,1,3,112,100,539413,0
539457,-1341,-2557,247,-219,-948,402,13248,2006,257,697,5088,35075,126,36,127,0,0,4163,1911,0,1197,312,249,769,1,3,112,100,539413,0
539467,-1560,-2678,397,-238,-780,-16,14202,2138,253,645,5176,35083,134,36,127,0,0,4352,1933,0,1197,312,249,779,1,3,112,100,539444,0
539477,-1539,-2813,716,-627,-726,-1023,15205,2223,214,535,5112,35089,122,36,127,0,0,4524,1658,0,1197,312,249,789,1,3,112,100,539460,0
539487,-1222,-3564,784,-765,-554,-1357,16182,2098,30,337,4736,35078,92,36,127,0,0,4682,1593,0,1197,312,249,799,1,3,112,100,539460,0
539497,-571,-4276,783,-1262,-404,-2156,17091,1977,-207,462,4632,35072,75,36,127,0,0,4831,1461,0,1197,312,249,809,1,3,112,100,539460,0
539507,-595,-4203,706,-1417,-28,-3004,17968,1907,-182,327,4136,35062,80,36,127,0,0,4932,900,0,1197,312,249,819,1,3,112,100,539460,0
539517,-524,-3523,719,-1806,-294,-4302,18775,1706,-199,127,3344,35070,73,36,127,0,0,5009,725,0,1197,312,249,829,1,3,112,100,539491,0
539527,896,-3895,481,-2128,-537,-5340,19462,1427,-386,97,2952,35088,46,36,127,0,0,5097,834,0,1197,312,249,839,1,3,112,100,539491,0
539537,1843,-3860,-40,-2114,-60,-7031,20033,1190,-455,145,2224,35094,37,36,127,0,0,5110,21,0,1197,312,249,849,1,3,112,100,539491,0
539547,1568,-4003,-439,-1960,587,-7969,20489,908,-439,-70,680,35093,31,36,127,0,0,5016,-1065,0,1197,312,249,859,0,3,112,100,539538,0
539557,1315,-3816,-324,-1638,729,-8274,20668,-28,-803,-1880,-1152,35092,32,36,127,0,0,4882,-1340,0,1197,312,249,869,0,3,112,100,539538,0
539567,1270,-3684,-15,-1482,416,-8449,20426,-636,-1441,-788,-1952,35088,27,36,127,0,0,4770,-1109,0,1197,312,249,879,0,3,112,100,539553,0
539577,1480,-3617,-8,-1374,-151,-8455,20060,-876,-948,-622,-2200,35084,40,36,127,0,0,4686,-802,0,1197,312,249,889,0,3,112,100,539553,0
539587,1358,-3529,-67,-1135,-236,-8497,19636,-944,-321,-410,-2168,35071,59,36,127,0,0,4609,-725,0,1197,312,249,899,0,3,112,100,539553,0
539597,1487,-3326,-277,-792,-407,-8360,19204,-949,-97,-323,-2080,35077,60,36,127,0,0,4539,-692,0,1197,312,249,909,0,3,112,100,539553,0
539607,1452,-3126,-263,-660,-497,-8171,18780,-912,8,-301,-1936,35089,42,36,127,0,0,4471,-670,0,1197,312,249,919,0,3,112,100,539585,0
539617,1447,-2819,-146,-583,-571,-7765,18373,-882,56,-289,-1920,35102,33,36,127,0,0,4394,-758,0,1197,312,249,929,0,3,112,100,539600,0
539627,1426,-2610,-130,-610,-571,-7453,17976,-856,50,-311,-1904,35097,25,36,127,0,0,4317,-758,0,1197,312,249,939,0,3,112,100,539600,0
539637,1366,-2245,-169,-703,-465,-6901,17585,-858,36,-338,-1936,35080,37,36,127,0,0,4240,-791,0,1197,312,249,949,0,3,112,100,539600,0
539647,1325,-2040,-248,-790,-373,-6520,17195,-859,10,-401,-1944,35069,31,36,127,0,0,4159,-812,0,1197,312,249,959,0,3,112,100,539678,0
539657,1175,-1730,-321,-891,-217,-5973,16797,-883,-18,-405,-2056,35079,34,36,127,0,0,4069,-889,0,1197,312,249,969,0,3,112,100,539678,0
539667,1073,-1503,-323,-971,-131,-5596,16383,-918,-49,-462,-2160,35087,29,36,127,0,0,3977,-933,0,1197,312,249,979,0,3,112,100,539678,0
539677,991,-1254,-287,-1065,5,-4977,15943,-978,18,-428,-2216,35081,42,36,127,0,0,3886,-878,0,1197,312,249,989,0,3,112,100,539678,0
539687,907,-1106,-283,-1118,73,-4538,15483,-1019,-128,-385,-2232,35072,38,36,127,0,0,3801,-856,0,1197,312,249,999,0,3,112,100,539694,0
539697,819,-910,-319,-1123,211,-3893,15020,-1007,-139,-355,-2160,35072,49,36,127,0,0,3724,-747,0,1197,312,249,1009,0,3,112,100,539694,0
539707,817,-778,-299,-1066,337,-3505,14568,-984,17,-316,-2136,35074,45,36,127,0,0,3647,-812,0,1197,312,249,1019,0,3,112,100,539694,0
539717,757,-607,-285,-1004,488,-2901,14132,-943,56,-314,-2040,35069,43,36,127,0,0,3568,-802,0,1197,312,249,1029,0,3,112,100,539694,0
539728,716,-519,-248,-980,514,-2445,13671,-915,60,-321,-1984,35071,36,36,127,0,0,3482,-763,0,1197,312,249,1040,0,3,112,100,539694,0
539738,647,-396,-221,-962,432,-1730,13270,-866,57,-339,-1936,35078,27,36,127,0,0,3417,-681,0,1197,312,249,1050,0,3,112,100,539694,0
539748,632,-275,-220,-947,336,-1257,12888,-826,69,-302,-1800,35104,29,36,127,0,0,3356,-571,0,1197,312,249,1060,0,3,112,100,539725,0
539758,630,-138,-224,-913,166,-576,12531,-773,83,-324,-1712,35117,24,36,127,0,0,3300,-543,0,1197,312,249,1070,0,3,112,100,539725,0
539768,646,-57,-216,-875,83,-151,12196,-723,92,-344,-1616,35102,39,36,127,0,0,3242,-587,0,1197,312,249,1080,0,3,112,100,539725,0
539778,641,7,-234,-838,-25,495,11876,-698,77,-403,-1624,35087,31,36,127,0,0,3180,-604,0,1197,312,249,1090,0,3,112,100,539756,0
539788,579,11,-238,-771,-106,893,11558,-700,28,-432,-1600,35081,40,36,127,0,0,3112,-670,0,1197,312,249,1100,0,3,112,100,539756,0
539798,488,36,-245,-651,-266,1510,11235,-725,-2,-478,-1632,35083,37,36,127,0,0,3038,-725,0,1197,312,249,1110,0,3,112,100,539756,0
539808,426,10,-229,-586,-417,1923,10904,-727,-27,-471,-1696,35084,51,36,127,0,0,2970,-708,0,1197,312,249,1120,0,3,112,100,539772,0
539818,341,-35,-189,-442,-642,2536,10566,-735,-31,-446,-1592,35092,40,36,127,0,0,2911,-615,0,1197,312,249,1130,0,3,112,100,539788,0
539828,322,-35,-184,-351,-789,2901,10238,-717,14,-396,-1528,35108,21,36,127,0,0,2853,-598,0,1197,312,249,1140,0,3,112,100,539788,0
539838,262,39,-143,-200,-953,3364,9927,-682,49,-413,-1456,35107,23,36,127,0,0,2796,-587,0,1197,312,249,1150,0,3,112,100,539788,0
539848,225,72,-138,-95,-1070,3679,9629,-658,49,-399,-1440,35085,30,36,127,0,0,2737,-576,0,1197,312,249,1160,0,3,112,100,539835,0
539858,181,79,-156,84,-1207,4170,9336,-632,28,-413,-1344,35079,45,36,127,0,0,2685,-494,0,1197,312,249,1170,0,3,112,100,539835,0
539868,188,96,-202,216,-1216,4462,9058,-604,46,-381,-1240,35087,47,36,127,0,0,2633,-472,0,1197,312,249,1180,0,3,112,100,539835,0
539878,151,142,-257,460,-1118,4848,8793,-576,55,-390,-1240,35094,35,36,127,0,0,2579,-494,0,1197,312,249,1190,0,3,112,100,539835,0
539888,86,132,-271,623,-1004,5089,8532,-572,32,-422,-1208,35091,39,36,127,0,0,2523,-499,0,1197,312,249,1200,0,3,112,100,539850,0
539898,60,104,-241,814,-853,5455,8271,-587,12,-416,-1160,35087,32,36,127,0,0,2479,-368,0,1197,312,249,1210,0,3,112,100,539866,0
539908,115,103,-182,936,-709,5641,8013,-567,1,-307,-1032,35087,24,36,127,0,0,2434,-390,0,1197,312,249,1220,0,3,112,100,539866,0
539918,279,-17,-197,1104,-473,5806,7776,-496,48,-324,-928,35093,37,36,127,0,0,2401,-384,0,1197,312,249,1230,0,3,112,100,539881,0
539929,464,-147,-156,1289,-197,5891,7543,-456,91,-310,-776,35098,27,36,127,0,0,2364,-329,0,1197,312,249,1241,0,3,112,100,539913,0
539939,619,-219,-147,1406,-4,5915,7360,-387,95,-364,-664,35096,51,36,127,0,0,2331,-296,0,1197,312,249,1251,0,3,112,100,539913,0
539949,868,-321,-126,1498,250,5893,7195,-364,88,-486,-648,35087,30,36,127,0,0,2302,-296,0,1197,312,249,1261,0,3,112,100,539913,0
539959,1014,-419,-107,1513,379,5813,7055,-279,72,-569,-544,35087,37,36,127,0,0,2280,-241,0,1197,312,249,1271,0,3,112,100,539913,0
539969,1348,-665,-119,1464,541,5577,6935,-256,94,-554,-480,35095,34,36,127,0,0,2263,-208,0,1197,312,249,1281,0,3,112,100,539944,0
539979,1461,-852,-172,1415,700,5332,6829,-231,65,-578,-424,35101,26,36,127,0,0,2245,-164,0,1197,312,249,1291,0,3,112,100,539944,0
539989,1643,-1041,-225,1297,1018,4815,6729,-198,34,-514,-400,35099,11,36,127,0,0,2228,-208,0,1197,312,249,1301,0,3,112,100,539944,0
539999,1765,-1142,-252,1166,1335,4440,6650,-170,49,-556,-336,35099,8,36,127,0,0,2221,-54,0,1197,312,249,1311,0,3,112,100,539975,0
540009,1794,-1198,-246,983,1974,3805,6581,-140,64,-491,-248,35103,1,36,127,0,0,2217,-32,0,1197,312,249,1321,0,3,112,100,539975,0
540019,1862,-1145,-233,834,2529,3360,6546,-41,89,-533,-200,35103,5,36,127,0,0,2214,0,0,1197,312,249,1331,0,3,112,100,539975,0
540029,1835,-1039,-169,607,3327,2773,6528,-50,101,-504,-112,35106,6,36,127,0,0,2219,43,0,1197,312,249,1341,0,3,112,100,540022,0
540039,1882,-894,-116,462,3730,2492,6516,4,32,-258,16,35108,21,36,127,0,0,2236,197,0,1197,312,249,1351,0,3,112,100,540022,0
540049,13389,-4200,-4681,-2735,976,-3137,6574,221,145,118,432,35109,21,36,127,0,0,2241,76,0,1197,312,249,1361,0,3,112,100,540038,0
540059,4050,-3555,-303,-1452,1931,-3688,6603,-308,143,-1911,-2544,35099,18,36,127,0,0,1920,-3164,0,1197,312,249,1371,0,3,112,100,540038,0
540069,5968,-534,-733,-816,361,-1424,6125,-1188,-1105,-1225,-3192,35079,67,36,127,0,0,1755,-1691,0,1227,283,250,5,1,3,133,94,540038,0
540079,468,-1216,165,-1196,-1303,1525,5510,-1427,-1246,-856,-3512,35072,79,36,127,0,0,1661,-703,0,1227,283,250,15,1,3,133,94,540038,0
540089,279,-2567,1577,-749,-1705,637,4910,-1230,-230,-183,-2600,35072,79,36,127,0,0,1604,-714,0,1227,283,250,25,1,3,133,94,540069,0
540099,-1199,-3159,2394,-545,-1988,40,4428,-1027,280,-512,-2696,35090,75,36,127,0,0,1507,-955,0,1227,283,250,35,1,3,133,94,540069,0
540109,401,-3999,-445,-88,409,-756,3953,-1050,240,-709,-2896,35088,67,36,127,0,0,1368,-1483,0,1227,283,250,45,1,3,133,94,540069,0
540119,1888,-3425,-479,-388,-581,-112,3402,-1297,-129,-932,-3272,35079,63,36,127,0,0,1272,-867,0,1227,283,250,55,1,3,133,94,540085,0
540129,1003,-3820,-484,-1244,-492,1502,2801,-1303,-273,-302,-2544,35078,68,35,127,0,0,1267,131,0,1227,283,250,65,1,3,133,94,540100,0
540139,275,-3253,-367,-726,-296,1548,2308,-964,111,26,-928,35101,52,35,127,0,0,1322,571,0,1227,283,250,75,1,3,133,94,540100,0
540149,646,-837,-442,-272,544,1039,2033,-386,616,803,344,35103,46,36,127,0,0,1371,472,0,1227,283,250,85,1,3,133,94,540100,0
540159,1416,-396,-885,-349,226,806,2137,350,1160,535,512,35098,32,36,127,0,0,1388,131,0,1227,283,250,95,1,3,133,94,540116,0
540170,1553,-1793,-852,-424,-114,1249,2313,320,766,172,184,35085,22,36,127,0,0,1394,65,0,1227,283,250,106,1,3,133,94,540147,0
540180,1367,-2268,-791,-232,-198,1570,2414,185,-69,127,192,35100,12,36,127,0,0,1423,318,0,1227,283,250,116,1,3,133,94,540147,0
540190,291,-2493,-497,248,-54,1593,2499,214,-139,387,368,35102,20,36,127,0,0,1456,390,0,1227,283,250,126,1,3,133,94,540147,0
540200,-1,-2097,-309,442,125,1341,2630,315,64,396,552,35105,24,36,127,0,0,1495,384,0,1227,283,250,136,1,3,133,94,540178,0
540210,281,-1876,-558,613,445,904,2784,353,135,392,536,35097,35,35,127,0,0,1518,170,0,1227,283,250,146,1,3,133,94,540178,0
540220,701,-1820,-770,779,494,814,2938,344,45,314,408,35098,27,35,127,0,0,1539,186,0,1227,283,250,156,1,3,133,94,540194,0
540230,927,-1973,-713,1073,456,858,3075,287,-30,308,360,35094,33,36,127,0,0,1551,159,0,1227,283,250,166,1,3,133,94,540194,0
540240,843,-2025,-445,1248,469,909,3190,244,-73,317,312,35088,32,36,127,0,0,1578,186,0,1227,283,250,176,1,3,133,94,540194,0
540250,721,-1966,-101,1368,545,907,3295,232,-65,367,360,35087,38,36,127,0,0,1596,219,0,1227,283,250,186,1,3,133,94,540225,0
540260,781,-1928,-3,1339,570,943,3411,244,4,333,352,35095,34,36,127,0,0,1618,208,0,1227,283,250,196,1,3,133,94,540225,0
540270,981,-1916,-31,1290,568,1063,3515,243,-3,380,392,35092,34,36,127,0,0,1649,263,0,1227,283,250,206,1,3,133,94,540241,0
540280,1130,-1889,-34,1222,528,1215,3625,249,-11,459,464,35091,26,36,127,0,0,1674,274,0,1227,283,250,216,1,3,133,94,540241,0
540290,1130,-1962,24,1138,454,1478,3752,293,42,458,576,35095,20,36,127,0,0,1712,373,0,1227,283,250,226,1,3,133,94,540272,0
540300,1081,-1992,93,1082,403,1636,3901,342,79,501,712,35116,15,36,127,0,0,1757,395,0,1227,283,250,236,1,3,133,94,540272,0
540310,994,-1885,168,942,353,1874,4073,382,76,418,872,35115,24,36,127,0,0,1802,483,0,1227,283,250,246,1,3,133,94,540272,0
540320,920,-1966,145,863,319,2038,4262,424,69,458,992,35103,29,36,127,0,0,1865,615,0,1227,283,250,256,1,3,133,94,540272,0
540330,918,-1920,67,781,301,2235,4472,478,66,469,1160,35083,31,36,127,0,0,1923,631,0,1227,283,250,266,1,3,133,94,540288,0
540340,921,-1944,6,733,274,2355,4711,546,95,502,1312,35082,45,36,127,0,0,1992,653,0,1227,283,250,276,1,3,133,94,540319,0
540350,772,-1973,8,709,244,2509,4976,604,107,474,1432,35098,41,36,127,0,0,2066,719,0,1227,283,250,286,1,3,133,94,540334,0
540360,669,-1960,43,734,250,2560,5267,664,108,468,1560,35091,40,36,127,0,0,2146,802,0,1227,283,250,296,1,3,133,94,540334,0
540370,562,-1953,6,761,261,2615,5549,694,88,446,1640,35092,29,35,127,0,0,2220,774,0,1227,283,250,306,1,3,133,94,540334,0
540380,531,-1942,-32,762,262,2643,5879,729,80,403,1624,35084,24,35,127,0,0,2296,791,0,1227,283,250,316,1,3,133,94,540334,0
540390,505,-1994,-90,771,248,2650,6220,751,52,383,1648,35092,15,36,127,0,0,2368,725,0,1227,283,250,326,1,3,133,94,540413,0
540400,485,-2000,-56,783,227,2668,6567,768,27,339,1632,35099,19,36,127,0,0,2440,692,0,1227,283,250,336,1,3,133,94,540413,0
540410,392,-1980,24,787,195,2663,6918,769,19,307,1608,35089,35,36,127,0,0,2519,780,0,1227,283,250,346,1,3,133,94,540413,0
540420,345,-1968,84,767,187,2642,7272,777,9,313,1616,35077,45,36,127,0,0,2592,763,0,1227,283,250,356,1,3,133,94,540428,0
540430,343,-2024,126,743,205,2628,7616,758,-13,361,1608,35078,41,36,127,0,0,2671,769,0,1227,283,250,366,1,3,133,94,540428,0
540440,485,-1979,68,790,225,2670,7943,721,-48,506,1664,35084,31,36,127,0,0,2748,780,0,1227,283,250,376,1,3,133,94,540428,0
540450,225,-1952,82,669,-13,2664,8275,728,-21,531,1744,35090,40,36,127,0,0,2821,791,0,1227,283,250,386,1,3,133,94,540428,0
540460,-62,-2050,192,680,-57,2526,8611,739,14,508,1752,35086,35,36,127,0,0,2898,730,0,1227,283,250,396,1,3,133,94,540428,0
540471,-318,-1938,301,597,-108,2153,8990,768,24,499,1760,35084,45,36,127,0,0,2975,659,0,1227,283,250,407,1,3,133,94,540428,0
540481,-329,-1996,372,481,-31,1736,9341,758,30,413,1664,35095,47,36,127,0,0,3027,538,0,1227,283,250,417,1,3,133,94,540444,0
540491,-297,-2036,316,399,44,1463,9674,727,-34,364,1456,35105,52,36,127,0,0,3078,494,0,1227,283,250,427,1,3,133,94,540459,0
540501,-199,-2071,248,276,136,1115,9986,666,-71,294,1272,35117,48,36,127,0,0,3113,329,0,1227,283,250,437,1,3,133,94,540475,0
540511,-174,-2081,279,222,140,902,10254,562,-130,282,976,35102,41,35,127,0,0,3135,219,0,1227,283,250,447,1,3,133,94,540475,0
540521,-148,-2045,261,117,73,647,10486,478,-156,246,664,35092,26,35,127,0,0,3150,120,0,1227,283,250,457,1,3,133,94,540491,0
540531,-181,-2059,265,68,25,480,10674,383,-152,252,416,35086,16,36,127,0,0,3164,109,0,1227,283,250,467,1,3,133,94,540491,0
540541,-189,-2054,241,-31,-3,213,10820,276,-171,225,208,35085,20,36,127,0,0,3170,32,0,1227,283,250,477,1,3,133,94,540506,0
540551,-295,-2092,246,-109,-11,47,10904,143,-208,85,32,35083,6,36,127,0,0,3168,10,0,1227,283,250,487,1,3,133,94,540538,0
540561,-307,-2045,264,-213,-40,-338,10900,-48,-292,165,-24,35093,13,35,127,0,0,3157,-153,0,1227,283,250,497,1,3,133,94,540538,0
540571,-318,-2113,285,-303,-23,-535,10881,-39,-183,-234,-144,35096,22,35,127,0,0,3142,-131,0,1227,283,250,507,1,3,133,94,540538,0
540581,-366,-2051,344,-410,25,-899,10843,-118,-55,-417,-304,35090,39,36,127,0,0,3111,-285,0,1227,283,250,517,1,3,133,94,540538,0
540591,-363,-2092,340,-478,77,-1136,10742,-260,-171,-413,-480,35080,37,36,127,0,0,3071,-406,0,1227,283,250,527,1,3,133,94,540569,0
540601,-245,-2083,349,-598,204,-1470,10607,-309,-182,-466,-640,35085,25,36,127,0,0,3021,-527,0,1227,283,250,537,1,3,133,94,540569,0
540611,-211,-2129,331,-685,228,-1660,10440,-394,-118,-456,-808,35085,23,36,127,0,0,2968,-505,0,1227,283,250,547,1,3,133,94,540569,0
540621,122,-2150,410,-773,78,-1839,10244,-443,-120,-421,-936,35078,29,36,127,0,0,2915,-516,0,1227,283,250,557,1,3,133,94,540584,0
540631,241,-2035,318,-835,-81,-1847,10032,-487,-79,-413,-1016,35073,29,36,127,0,0,2863,-560,0,1227,283,250,567,1,3,133,94,540600,0
540641,317,-2087,143,-902,-144,-1807,9804,-501,-62,-416,-1048,35074,14,36,127,0,0,2816,-439,0,1227,283,250,577,1,3,133,94,540600,0
540651,432,-2136,-5,-850,-109,-1753,9577,-503,-17,-383,-1008,35087,11,35,127,0,0,2770,-483,0,1227,283,250,587,1,3,133,94,540616,0
540661,766,-2107,-234,-719,-136,-1537,9344,-504,-6,-362,-912,35092,20,35,127,0,0,2731,-373,0,1227,283,250,597,1,3,133,94,540616,0
540672,876,-2060,-253,-638,-194,-1281,9104,-462,28,-315,-776,35102,16,36,127,0,0,2702,-241,0,1227,283,250,608,1,3,133,94,540647,0
540682,847,-2065,-335,-483,-205,-943,8905,-432,84,-265,-608,35099,7,36,127,0,0,2678,-252,0,1227,283,250,618,1,3,133,94,540647,0
540692,783,-2074,-223,-384,-179,-733,8725,-391,43,-234,-368,35098,-7,36,127,0,0,2668,-109,0,1227,283,250,628,1,3,133,94,540647,0
540702,689,-2150,-45,-264,-134,-500,8590,-270,109,-160,-160,35095,10,36,127,0,0,2665,-21,0,1227,283,250,638,1,3,133,94,540678,0
540712,709,-2449,142,-192,-228,-414,8516,-101,197,29,8,35099,25,36,127,0,0,2667,49,0,1227,283,250,648,1,3,133,94,540678,0
540722,203,-3409,184,-241,-517,90,8520,27,279,-2,64,35103,24,36,127,0,0,2687,274,0,1227,283,250,658,1,3,133,94,540694,0
540732,74,-3442,511,-354,-455,453,8566,163,225,504,504,35102,32,36,127,0,0,2754,703,0,1227,283,250,668,1,3,133,94,540694,0
540742,3,-2965,303,-234,-450,544,8701,366,250,649,1040,35093,48,35,127,0,0,2843,873,0,1227,283,250,678,1,3,133,94,540756,0
540752,200,-2868,-123,-67,-501,499,8925,537,352,651,1568,35093,59,35,127,0,0,2947,1093,0,1227,283,250,688,1,3,133,94,540756,0
540762,-173,-2729,-469,-102,-537,711,9236,737,328,674,1936,35086,54,36,127,0,0,3064,1164,0,1227,283,250,698,1,3,133,94,540756,0
540772,-116,-2952,-221,-169,-428,878,9626,928,309,843,2608,35073,51,36,127,0,0,3220,1582,0,1227,283,250,708,1,3,133,94,540756,0
540782,-408,-2860,63,-14,-348,990,10138,1209,383,892,3280,35066,53,36,127,0,0,3385,1686,0,1227,283,250,718,1,3,133,94,540772,0
540792,-227,-2860,29,-5,-309,952,10773,1479,483,860,3832,35061,76,36,127,0,0,3563,1746,0,1227,283,250,728,1,3,133,94,540772,0
540802,-387,-2704,174,101,-394,859,11498,1639,408,778,4320,35055,98,35,127,0,0,3751,1867,0,1227,283,250,738,1,3,133,94,540772,0
540812,-610,-2514,197,52,-504,780,12292,1795,300,793,4768,35064,102,35,127,0,0,3942,1966,0,1227,283,250,748,1,3,133,94,540772,0
540822,-800,-1862,212,-393,-851,307,13159,1964,272,767,5064,35067,117,36,127,0,0,4141,1972,0,1227,283,250,758,1,3,133,94,540772,0
540832,-1259,-2215,453,-241,-806,-178,14102,2111,288,643,5168,35082,118,36,127,0,0,4328,1856,0,1227,283,250,768,1,3,133,94,540850,0
540842,-1316,-3146,261,-426,-717,-944,15094,2193,243,498,5048,35074,117,36,127,0,0,4506,1774,0,1227,283,250,778,1,3,133,94,540850,0
540852,-1190,-4034,520,-539,-731,-1157,16066,2096,54,418,4864,35073,101,36,127,0,0,4670,1713,0,1227,283,250,788,1,3,133,94,540850,0
540862,-658,-4577,808,-788,-509,-1841,16988,2006,-144,562,4912,35059,103,36,127,0,0,4842,1702,0,1227,283,250,798,1,3,133,94,540850,0
540872,-563,-4509,974,-1118,-144,-2725,17909,2022,-89,384,4464,35062,108,36,127,0,0,4954,1021,0,1227,283,250,808,1,3,133,94,540866,0
540882,-347,-3739,956,-1626,-293,-3895,18767,1817,-116,141,3800,35062,106,36,127,0,0,5066,1120,0,1227,283,250,818,1,3,133,94,540866,0
540892,998,-3934,524,-2006,-422,-5027,19518,1596,-329,232,3520,35070,84,36,127,0,0,5166,955,0,1227,283,250,828,1,3,133,94,540866,0
540902,1884,-3786,-123,-1954,219,-6926,20177,1385,-374,171,2664,35087,64,36,127,0,0,5171,-131,0,1227,283,250,838,1,3,133,94,540866,0
540913,1441,-3963,-439,-1673,1303,-8072,20756,1017,-426,-190,632,35106,29,36,127,0,0,5062,-1153,0,1227,283,250,849,0,3,133,94,540866,0
540923,1252,-3686,-186,-1469,837,-8331,20927,-109,-886,-2218,-1152,35114,28,36,127,0,0,4935,-1263,0,1227,283,250,859,0,3,133,94,540897,0
540933,1376,-3490,129,-1325,87,-8552,20682,-621,-1558,-742,-1824,35112,16,36,127,0,0,4831,-1021,0,1227,283,250,869,0,3,133,94,540897,0
540943,1685,-3479,-118,-1304,-156,-8483,20334,-806,-976,-570,-1896,35096,31,36,127,0,0,4759,-670,0,1227,283,250,879,0,3,133,94,540897,0
540953,1507,-3419,-270,-1160,-369,-8416,19956,-846,-258,-392,-1920,35089,42,36,127,0,0,4695,-626,0,1227,283,250,889,0,3,133,94,540944,0
540963,1553,-3356,-255,-1001,-471,-8318,19573,-829,-68,-297,-1784,35090,40,36,127,0,0,4634,-648,0,1227,283,250,899,0,3,133,94,540959,0
540973,1574,-3041,-126,-891,-576,-7984,19196,-824,1,-314,-1704,35098,15,35,127,0,0,4561,-736,0,1227,283,250,909,0,3,133,94,540959,0
540983,1503,-2779,-53,-911,-603,-7711,18824,-811,18,-366,-1768,35097,26,36,127,0,0,4491,-725,0,1227,283,250,919,0,3,133,94,540959,0
540993,1321,-2491,-180,-1075,-713,-7247,18448,-836,5,-344,-1824,35092,44,36,127,0,0,4414,-791,0,1227,283,250,929,0,3,133,94,540959,0
541003,931,-1952,179,-1224,-1329,-6400,18064,-854,-24,-319,-1520,35084,63,36,127,0,0,4394,-76,0,1227,283,250,939,0,3,133,94,540959,0
541013,1510,-1741,-473,-1391,-399,-6547,17725,-696,57,-88,-1096,35082,54,36,127,0,0,4341,-626,0,1227,283,250,949,0,3,133,94,540991,0
541023,1173,-1487,-297,-1448,-163,-6193,17439,-620,191,-375,-1600,35093,26,36,127,0,0,4229,-1142,0,1227,283,250,959,0,3,133,94,540991,0
541033,990,-1247,-262,-1513,86,-5749,17103,-820,11,-779,-2240,35090,47,36,127,0,0,4097,-1362,0,1227,283,250,969,0,3,133,94,540991,0
541043,813,-1119,-153,-1590,75,-5252,16652,-1062,-326,-732,-2768,35082,59,36,127,0,0,3959,-1340,0,1227,283,250,979,0,3,133,94,541006,0
541053,773,-991,-58,-1667,62,-4443,16110,-1232,-396,-557,-2904,35077,79,36,127,0,0,3847,-1120,0,1227,283,250,989,0,3,133,94,541037,0
541063,652,-875,-68,-1658,75,-3947,15522,-1315,-272,-484,-2952,35077,61,35,127,0,0,3752,-933,0,1227,283,250,999,0,3,133,94,541037,0
541073,629,-680,-132,-1605,169,-3301,14929,-1276,-100,-266,-2720,35085,52,35,127,0,0,3669,-823,0,1227,283,250,1009,0,3,133,94,541037,0
541083,690,-629,-117,-1512,299,-2911,14380,-1178,82,-219,-2432,35085,51,36,127,0,0,3588,-791,0,1227,283,250,1019,0,3,133,94,541037,0
541093,644,-518,-96,-1426,414,-2339,13881,-1070,184,-253,-2264,35102,40,36,127,0,0,3502,-889,0,1227,283,250,1029,0,3,133,94,541069,0
541103,573,-395,-68,-1376,446,-1948,13421,-994,169,-313,-2272,35110,30,36,127,0,0,3416,-878,0,1227,283,250,1039,0,3,133,94,541069,0
541113,483,-293,-60,-1298,385,-1300,12981,-960,114,-337,-2200,35112,35,36,127,0,0,3331,-878,0,1227,283,250,1049,0,3,133,94,541069,0
541123,467,-214,-54,-1245,312,-872,12553,-953,59,-400,-2200,35097,49,36,127,0,0,3258,-714,0,1227,283,250,1059,0,3,133,94,541131,0
541133,463,-108,-88,-1094,259,-239,12139,-904,38,-399,-2120,35096,59,36,127,0,0,3188,-725,0,1227,283,250,1069,0,3,133,94,541131,0
541143,492,-18,-89,-981,237,205,11732,-886,42,-389,-1952,35103,59,36,127,0,0,3124,-604,0,1227,283,250,1079,0,3,133,94,541131,0
541153,402,65,-93,-780,180,809,11351,-811,63,-331,-1824,35105,46,36,127,0,0,3060,-615,0,1227,283,250,1089,0,3,133,94,541147,0
541163,391,86,-88,-664,130,1222,10990,-777,91,-360,-1640,35098,45,36,127,0,0,3001,-560,0,1227,283,250,1099,0,3,133,94,541147,0
541174,342,73,-85,-452,17,1817,10621,-717,87,-353,-1472,35089,43,36,127,0,0,2952,-439,0,1227,283,250,1110,0,3,133,94,541147,0
541184,326,75,-70,-299,-67,2221,10320,-655,103,-347,-1280,35090,31,36,127,0,0,2894,-521,0,1227,283,250,1120,0,3,133,94,541147,0
541194,270,121,-55,-50,-132,2750,10043,-600,103,-385,-1208,35104,22,35,127,0,0,2850,-538,0,1227,283,250,1130,0,3,133,94,541147,0
541204,225,152,-44,105,-187,3094,9786,-556,94,-400,-1176,35117,19,35,127,0,0,2803,-521,0,1227,283,250,1140,0,3,133,94,541194,0
541214,141,142,-20,347,-249,3624,9535,-552,50,-400,-1136,35109,29,36,127,0,0,2752,-527,0,1227,283,250,1150,0,3,133,94,541194,0
541224,109,116,-28,509,-264,3969,9297,-516,29,-416,-1064,35099,40,36,127,0,0,2711,-450,0,1227,283,250,1160,0,3,133,94,541194,0
541234,125,83,-45,756,-192,4448,9068,-502,46,-410,-1000,35093,46,36,127,0,0,2672,-390,0,1227,283,250,1170,0,3,133,94,541194,0
541244,147,112,-77,924,-52,4734,8849,-475,33,-340,-904,35097,36,36,127,0,0,2632,-362,0,1227,283,250,1180,0,3,133,94,541209,0
541254,145,147,-89,1164,258,5144,8640,-430,33,-373,-848,35102,43,36,127,0,0,2592,-411,0,1227,283,250,1190,0,3,133,94,541225,0
541264,181,168,-102,1300,456,5418,8441,-434,46,-365,-840,35102,36,36,127,0,0,2554,-384,0,1227,283,250,1200,0,3,133,94,541225,0
541274,263,124,-37,1497,713,5742,8249,-416,23,-371,-776,35092,10,36,127,0,0,2515,-379,0,1227,283,250,1210,0,3,133,94,541272,0
541284,366,47,-77,1636,804,5914,8053,-429,12,-318,-704,35093,-4,36,127,0,0,2486,-324,0,1227,283,250,1220,0,3,133,94,541272,0
541294,635,-120,-64,1849,827,6069,7868,-388,14,-349,-640,35088,5,36,127,0,0,2456,-274,0,1227,283,250,1230,0,3,133,94,541272,0
541304,811,-240,-52,1948,771,6139,7702,-358,55,-334,-544,35084,29,36,127,0,0,2433,-263,0,1227,283,250,1240,0,3,133,94,541287,0
541314,1043,-380,-26,2020,695,6148,7550,-330,60,-336,-424,35080,28,36,127,0,0,2403,-236,0,1227,283,250,1250,0,3,133,94,541287,0
541324,1227,-490,-59,2001,640,6097,7424,-265,75,-396,-392,35090,15,35,127,0,0,2386,-181,0,1227,283,250,1260,0,3,133,94,541287,0
541334,1508,-686,-159,1892,548,5914,7318,-208,85,-385,-352,35104,-2,35,127,0,0,2373,-164,0,1227,283,250,1270,0,3,133,94,541287,0
541344,1670,-834,-190,1785,503,5719,7230,-190,75,-453,-288,35108,-4,36,127,0,0,2353,-120,0,1227,283,250,1280,0,3,133,94,541319,0
541354,1858,-976,-225,1542,498,5276,7160,-139,70,-476,-248,35098,-8,36,127,0,0,2345,-71,0,1227,283,250,1290,0,3,133,94,541319,0
541364,1918,-1068,-237,1356,615,4924,7122,-84,92,-649,-280,35088,-5,36,127,0,0,2335,-82,0,1227,283,250,1300,0,3,133,94,541319,0
541374,1931,-1062,-311,1041,987,4298,7086,-56,56,-553,-200,35093,6,36,127,0,0,2335,0,0,1227,283,250,1310,0,3,133,94,541334,0
541384,1882,-920,-413,801,1330,3843,7083,5,83,-638,-200,35105,15,36,127,0,0,2338,38,0,1227,283,250,1320,0,3,133,94,541365,0
541394,1891,-869,-435,474,1913,3319,7086,19,75,-495,-88,35105,40,35,127,0,0,2358,192,0,1227,283,250,1330,0,3,133,94,541381,0
541404,12976,-4755,-3818,-2077,1640,-3782,7160,253,163,-87,-528,35102,35,35,127,0,0,2203,-2427,0,1227,283,250,1340,0,3,133,94,541381,0
541414,4318,-1661,-415,-564,155,-2239,6994,-808,-383,-2419,-3040,35082,69,36,127,0,0,1958,-2026,0,1227,283,250,1350,0,3,133,94,541381,0
541425,1150,-513,-955,-1176,-1016,-67,6367,-1347,-1395,-892,-3568,35062,86,36,127,0,0,1770,-1713,0,1246,279,251,9,1,3,108,103,541381,0
541435,1406,-1622,227,-1405,-2199,2118,5711,-1457,-677,-499,-2952,35067,102,36,127,0,0,1742,-98,0,1246,279,251,19,1,3,108,103,541397,0
541445,-1808,-3626,1916,-867,-2500,206,5165,-1082,117,-151,-2344,35081,79,36,127,0,0,1667,-823,0,1246,279,251,29,1,3,108,103,541428,0
541455,-410,-3828,513,-290,-625,-738,4733,-902,468,-536,-2312,35091,60,36,127,0,0,1579,-955,0,1246,279,251,39,1,3,108,103,541428,0
541465,281,-3327,-210,-658,722,-496,4309,-972,192,-838,-2984,35081,44,36,127,0,0,1441,-1384,0,1246,279,251,49,1,3,108,103,541428,0
541475,2296,-2963,-386,-836,-59,150,3793,-1171,-198,-652,-2712,35063,65,36,127,0,0,1386,-538,0,1246,279,251,59,1,3,108,103,541444,0
541485,1685,-2533,-375,-1011,-252,1126,3288,-1067,-134,-230,-2072,35067,65,36,127,0,0,1366,-142,0,1246,279,251,69,1,3,108,103,541490,0
541495,990,-2002,-421,-866,-106,1344,2873,-845,231,-110,-1248,35080,42,36,127,0,0,1368,54,0,1246,279,251,79,1,3,108,103,541490,0
541505,873,-1264,-779,-400,53,1157,2585,-553,427,-139,-528,35090,22,35,127,0,0,1379,76,0,1246,279,251,89,1,3,108,103,541490,0
541515,1135,-1015,-852,-165,92,1110,2424,-284,485,-229,-216,35091,32,36,127,0,0,1373,-76,0,1246,279,251,99,1,3,108,103,541510,0
541525,1359,-846,-680,81,78,1132,2343,-164,383,-376,-352,35087,48,36,127,0,0,1342,-296,0,1246,279,251,109,1,3,108,103,541510,0
541535,1363,-1401,-1436,-115,-79,1183,2255,-231,108,-631,-568,35085,43,36,127,0,0,1302,-395,0,1246,279,251,119,1,3,108,103,541510,0
541545,467,-5524,43,-113,-34,1688,2117,-336,-140,-565,-560,35084,33,36,127,0,0,1305,32,0,1246,279,251,129,1,3,108,103,541510,0
541555,-711,-4236,443,980,215,1748,1998,-217,-47,-151,216,35087,24,35,127,0,0,1360,637,0,1246,279,251,139,1,3,108,103,541526,0
541565,-9,-1072,7,751,532,721,2071,298,453,582,576,35082,31,36,127,0,0,1390,274,0,1246,279,251,149,1,3,108,103,541526,0
541575,1143,-1563,-580,670,553,575,2249,391,564,274,408,35098,13,36,127,0,0,1404,98,0,1246,279,251,159,1,3,108,103,541573,0
541585,1431,-1735,-1125,857,359,966,2402,310,82,179,232,35106,-3,36,127,0,0,1421,186,0,1246,279,251,169,1,3,108,103,541573,0
541595,1168,-2176,-872,1262,409,1165,2517,234,-131,225,240,35107,17,36,127,0,0,1447,274,0,1246,279,251,179,1,3,108,103,541573,0
541605,737,-1902,-410,1746,670,1261,2629,253,-68,317,392,35088,26,35,127,0,0,1480,362,0,1246,279,251,189,1,3,108,103,541573,0
541615,726,-1679,-115,1717,806,1217,2742,266,6,420,440,35082,38,35,127,0,0,1511,307,0,1246,279,251,199,1,3,108,103,541573,0
541625,1054,-1941,256,1578,774,1301,2872,293,33,463,512,35092,24,35,127,0,0,1542,329,0,1246,279,251,209,1,3,108,103,541588,0
541635,1227,-2000,215,1525,673,1492,3019,317,60,428,600,35105,16,36,127,0,0,1579,384,0,1246,279,251,219,1,3,108,103,541604,0
541645,1222,-1906,156,1440,551,1822,3179,362,53,459,712,35105,20,36,127,0,0,1623,439,0,1246,279,251,229,1,3,108,103,541604,0
541656,1148,-1847,157,1369,512,2023,3377,428,70,469,944,35094,23,36,127,0,0,1684,494,0,1246,279,251,240,1,3,108,103,541620,0
541666,1022,-1849,172,1247,478,2312,3580,459,89,508,1144,35096,22,36,127,0,0,1743,620,0,1246,279,251,250,1,3,108,103,541635,0
541676,1007,-1885,219,1159,467,2468,3813,526,42,547,1376,35102,20,36,127,0,0,1814,747,0,1246,279,251,260,1,3,108,103,541651,0
541686,1044,-1993,351,1026,410,2678,4085,622,145,500,1512,35097,39,36,127,0,0,1890,785,0,1246,279,251,270,1,3,108,103,541651,0
541696,979,-1950,431,919,337,2840,4381,658,171,475,1608,35075,45,36,127,0,0,1969,829,0,1246,279,251,280,1,3,108,103,541682,0
541706,827,-1932,390,764,261,3039,4697,711,79,520,1816,35075,48,36,127,0,0,2056,922,0,1246,279,251,290,1,3,108,103,541682,0
541716,713,-1931,309,689,222,3143,5043,775,99,508,1928,35077,38,36,127,0,0,2151,966,0,1246,279,251,300,1,3,108,103,541682,0
541726,596,-1903,126,610,207,3216,5426,870,128,507,2040,35073,39,36,127,0,0,2244,873,0,1246,279,251,310,1,3,108,103,541682,0
541736,551,-1911,74,591,201,3222,5829,900,112,418,2056,35069,52,36,127,0,0,2336,955,0,1246,279,251,320,1,3,108,103,541713,0
541746,438,-1970,96,625,212,3197,6244,924,64,377,2032,35078,46,36,127,0,0,2420,867,0,1246,279,251,330,1,3,108,103,541713,0
541756,386,-1976,205,629,200,3163,6663,924,35,340,2016,35088,55,35,127,0,0,2511,911,0,1246,279,251,340,1,3,108,103,541729,0
541766,544,-2047,182,705,323,3245,7084,931,13,315,1976,35083,55,35,127,0,0,2600,878,0,1246,279,251,350,1,3,108,103,541729,0
541776,479,-1738,19,645,62,3273,7503,913,-5,364,1992,35077,54,36,127,0,0,2696,911,0,1246,279,251,360,1,3,108,103,541745,0
541786,113,-1993,81,644,-139,3251,7906,870,-35,466,2072,35077,55,36,127,0,0,2790,1005,0,1246,279,251,370,1,3,108,103,541760,0
541796,-84,-1915,79,672,-259,3078,8311,887,-25,544,2176,35077,49,36,127,0,0,2887,977,0,1246,279,251,380,1,3,108,103,541760,0
541806,-249,-2056,220,613,-120,2737,8731,932,29,568,2224,35074,57,36,127,0,0,2969,812,0,1246,279,251,390,1,3,108,103,541776,0
541816,-307,-1877,386,525,20,2483,9159,935,44,392,2048,35083,65,36,127,0,0,3039,637,0,1246,279,251,400,1,3,108,103,541776,0
541826,-386,-1983,387,421,143,2041,9567,880,-19,383,1896,35085,65,36,127,0,0,3108,620,0,1246,279,251,410,1,3,108,103,541791,0
541836,-260,-2020,382,333,171,1801,9951,831,-82,315,1704,35088,43,36,127,0,0,3157,516,0,1246,279,251,420,1,3,108,103,541838,0
541846,-196,-2051,330,248,197,1500,10299,737,-114,317,1456,35090,24,36,127,0,0,3206,461,0,1246,279,251,430,1,3,108,103,541838,0
541856,-167,-2056,316,187,81,1322,10611,657,-141,278,1296,35087,30,36,127,0,0,3237,406,0,1246,279,251,440,1,3,108,103,541854,0
541866,-170,-2057,336,118,19,1094,10887,577,-142,284,1024,35079,36,36,127,0,0,3273,324,0,1246,279,251,450,1,3,108,103,541870,0
541876,-195,-2050,336,83,-6,915,11121,506,-153,299,856,35083,46,36,127,0,0,3295,258,0,1246,279,251,460,1,3,108,103,541885,0
541886,-208,-2038,257,20,-13,672,11327,427,-130,267,672,35086,33,36,127,0,0,3314,214,0,1246,279,251,470,1,3,108,103,541885,0
541896,-267,-2069,268,-50,6,488,11505,377,-109,282,456,35085,41,36,127,0,0,3324,93,0,1246,279,251,480,1,3,108,103,541885,0
541906,-278,-2100,326,-130,44,179,11644,280,-129,257,272,35079,35,36,127,0,0,3326,32,0,1246,279,251,490,1,3,108,103,541885,0
541917,-218,-2094,362,-214,23,-32,11737,123,-175,77,40,35079,28,36,127,0,0,3328,-10,0,1246,279,251,501,1,3,108,103,541885,0
541927,-194,-2058,358,-275,42,-257,11733,-46,-268,97,-48,35090,28,36,127,0,0,3317,-120,0,1246,279,251,511,1,3,108,103,541885,0
541937,-227,-2043,333,-388,40,-496,11713,-41,-198,-193,-136,35110,45,35,127,0,0,3304,-153,0,1246,279,251,521,1,3,108,103,541901,0
541947,-220,-2093,362,-447,43,-672,11653,-161,-96,-262,-240,35122,51,35,127,0,0,3278,-274,0,1246,279,251,531,1,3,108,103,541932,0
541957,-182,-2093,401,-554,40,-925,11575,-183,-117,-395,-392,35120,46,36,127,0,0,3247,-296,0,1246,279,251,541,1,3,108,103,541932,0
541967,-173,-2104,436,-625,31,-1074,11455,-284,-112,-379,-472,35111,21,36,127,0,0,3214,-340,0,1246,279,251,551,1,3,108,103,541932,0
541977,-92,-2073,401,-736,32,-1276,11320,-311,-116,-414,-632,35097,-1,36,127,0,0,3172,-406,0,1246,279,251,561,1,3,108,103,541948,0
541987,-61,-2041,354,-791,55,-1385,11152,-381,-87,-416,-728,35088,-5,36,127,0,0,3131,-417,0,1246,279,251,571,1,3,108,103,541948,0
541997,-31,-2044,237,-887,74,-1532,10976,-384,-86,-424,-856,35100,-1,36,127,0,0,3078,-538,0,1246,279,251,581,1,3,108,103,541979,0
542007,47,-2074,192,-909,80,-1639,10780,-440,-53,-418,-976,35117,-4,36,127,0,0,3025,-560,0,1246,279,251,591,1,3,108,103,541979,0
542017,100,-2051,126,-917,102,-1737,10571,-467,-56,-481,-1048,35119,3,36,127,0,0,2970,-538,0,1246,279,251,601,1,3,108,103,541979,0
542027,267,-2016,118,-896,-29,-1740,10340,-531,-65,-462,-1136,35103,12,35,127,0,0,2922,-483,0,1246,279,251,611,1,3,108,103,541979,0
542037,416,-2065,47,-879,-96,-1650,10100,-524,-60,-407,-1144,35088,49,36,127,0,0,2874,-472,0,1246,279,251,621,1,3,108,103,542010,0
542047,457,-2067,38,-844,-82,-1575,9859,-530,-18,-376,-1040,35099,48,36,127,0,0,2830,-406,0,1246,279,251,631,1,3,108,103,542010,0
542057,652,-2086,-78,-788,-69,-1384,9628,-508,17,-368,-976,35100,45,36,127,0,0,2794,-340,0,1246,279,251,641,1,3,108,103,542010,0
542067,719,-2067,-126,-717,-79,-1212,9407,-461,29,-321,-864,35109,26,36,127,0,0,2764,-296,0,1246,279,251,651,1,3,108,103,542041,0
542077,751,-2082,-119,-606,-132,-932,9205,-418,56,-295,-672,35103,17,36,127,0,0,2739,-197,0,1246,279,251,661,1,3,108,103,542041,0
542087,723,-2188,-45,-493,-146,-762,9024,-376,79,-288,-448,35101,18,36,127,0,0,2722,-164,0,1246,279,251,671,1,3,108,103,542041,0
542097,563,-2260,104,-357,-340,-465,8872,-317,93,-210,-216,35100,0,36,127,0,0,2722,0,0,1246,279,251,681,1,3,108,103,542073,0
542107,348,-2913,-3,-406,-720,-192,8775,-164,148,48,8,35098,3,36,127,0,0,2737,186,0,1246,279,251,691,1,3,108,103,542073,0
542117,-114,-3541,289,-211,-411,422,8797,141,330,546,416,35100,8,36,127,0,0,2790,527,0,1246,279,251,701,1,3,108,103,542073,0
542127,106,-3112,151,-215,-374,602,8920,325,438,596,960,35102,32,36,127,0,0,2878,911,0,1246,279,251,711,1,3,108,103,542104,0
542137,125,-2941,-154,-207,-235,792,9140,552,370,714,1584,35114,34,36,127,0,0,2990,1120,0,1246,279,251,721,1,3,108,103,542104,0
542147,88,-3118,-271,-92,-314,982,9455,762,374,784,2128,35110,42,36,127,0,0,3128,1428,0,1246,279,251,731,1,3,108,103,542104,0
542158,-201,-2882,-40,107,-415,1259,9939,1064,421,886,2968,35096,69,36,127,0,0,3309,1702,0,1246,279,251,742,1,3,108,103,542120,0
542168,-221,-2714,-4,171,-463,1237,10526,1393,501,968,3680,35085,68,36,127,0,0,3490,1829,0,1246,279,251,752,1,3,108,103,542151,0
542178,-593,-2373,172,113,-650,1127,11232,1609,502,799,4152,35094,71,36,127,0,0,3672,1845,0,1246,279,251,762,1,3,108,103,542151,0
542188,-511,-2031,350,-56,-681,790,12013,1766,361,781,4576,35089,78,35,127,0,0,3850,1735,0,1246,279,251,772,1,3,108,103,542151,0
542198,-969,-2611,122,-210,-485,242,12848,1876,243,691,4744,35073,109,35,127,0,0,4025,1631,0,1246,279,251,782,1,3,108,103,542166,0
542208,-1447,-2826,373,-290,-520,75,13719,1943,178,562,4744,35051,131,36,127,0,0,4203,1779,0,1246,279,251,792,1,3,108,103,542166,0
542218,-1144,-3374,522,-347,-592,-494,14632,2049,157,656,4912,35055,129,36,127,0,0,4387,1873,0,1246,279,251,802,1,3,108,103,542245,0
542228,-1377,-3315,697,-423,-695,-727,15588,2100,166,557,4872,35081,115,35,127,0,0,4565,1752,0,1246,279,251,812,1,3,108,103,542245,0
542238,-1032,-3925,618,-818,-184,-1402,16527,2060,44,627,4936,35088,117,35,127,0,0,4741,1642,0,1246,279,251,822,1,3,108,103,542260,0
542248,-715,-3967,526,-1193,137,-2231,17455,2042,-51,476,4816,35087,108,36,127,0,0,4894,1488,0,1246,279,251,832,1,3,108,103,542260,0
542258,-413,-3447,351,-1583,357,-3834,18358,1946,-53,209,4024,35070,95,36,127,0,0,4981,791,0,1246,279,251,842,1,3,108,103,542260,0
542268,497,-3438,489,-1841,-163,-4311,19154,1672,-251,115,3640,35073,73,36,127,0,0,5120,1444,0,1246,279,251,852,1,3,108,103,542260,0
542278,1818,-4032,281,-1740,329,-6150,19861,1539,-384,493,3672,35075,50,36,127,0,0,5239,1098,0,1246,279,251,862,1,3,108,103,542260,0
