state_time,accelx,accely,accelz,gyrox,gyroy,gyroz,mot_ang,mot_vel,mot_acc,mot_cur,mot_volt,batt_volt,batt_curr,temperature,status_mn,status_ex,status_re,ank_ang,ank_vel,ank_torque,peak_ank_torque,step_energy,step_count,step_time,gait_state,movement,speed,incline,sys_time,eventFlags
217443,32,-2083,207,-102,39,63,12814,-3,-4,-145,-8,35229,7,35,127,0,0,3531,10,0,2527,223,87,56199,-4,0,1,0,217414,0
217453,64,-2085,203,-97,40,51,12813,-4,1,-159,-80,35227,15,35,127,0,0,3528,-32,0,2527,223,87,56209,-4,0,1,0,217429,0
217463,50,-2084,207,-99,33,52,12807,-12,-14,-226,-48,35228,6,35,127,0,0,3524,-10,0,2527,223,87,56219,-4,0,1,0,217445,0
217473,79,-2073,208,-100,29,48,12803,-18,-7,-326,-88,35227,4,35,127,0,0,3524,21,0,2527,223,87,56229,-4,0,1,0,217445,0
217483,57,-2075,204,-102,35,52,12802,0,2,-338,-72,35228,3,35,127,0,0,3520,-21,0,2527,223,87,56239,-4,0,1,0,217445,0
217493,81,-2065,214,-102,36,50,12797,-15,2,-408,-128,35226,-3,35,127,0,0,3520,0,0,2527,223,87,56249,-4,0,1,0,217476,0
217503,63,-2078,208,-105,35,52,12794,-3,-4,-384,-160,35230,-7,35,127,0,0,3517,-32,0,2527,223,87,56259,-4,0,1,0,217476,0
217513,68,-2073,204,-111,39,56,12790,-13,3,-413,-144,35222,-1,35,127,0,0,3517,0,0,2527,223,87,56269,-4,0,1,0,217507,0
217523,69,-2072,208,-109,40,57,12788,-10,0,-448,-120,35220,12,35,127,0,0,3515,-21,0,2527,223,87,56279,-4,0,1,0,217523,0
217533,71,-2076,201,-111,39,53,12774,-31,-21,-425,-120,35229,24,35,127,0,0,3513,-32,0,2527,223,87,56289,-4,0,1,0,217523,0
217543,77,-2079,199,-105,32,56,12740,-94,-61,-252,-80,35236,21,35,127,0,0,3513,-10,0,2527,223,87,56299,-4,0,1,0,217523,0
217553,66,-2084,199,-117,48,49,12718,-23,-13,-145,-96,35240,14,35,127,0,0,3511,0,0,2527,223,87,56309,-4,0,1,0,217523,0
217563,80,-2078,211,-112,42,60,12711,-5,70,-149,-40,35232,22,35,127,0,0,3509,-21,0,2527,223,87,56319,-4,0,1,0,217539,0
217573,69,-2089,204,-111,32,59,12693,-60,1,-201,-16,35229,26,35,127,0,0,3502,-54,0,2527,223,87,56329,-4,0,1,0,217554,0
217583,65,-2079,198,-119,41,54,12678,-14,-23,-160,-40,35240,14,35,127,0,0,3502,-54,0,2527,223,87,56339,-4,0,1,0,217554,0
217593,91,-2084,205,-111,49,55,12678,-1,42,-218,-72,35250,29,35,127,0,0,3502,-10,0,2527,223,87,56349,-4,0,1,0,217570,0
217603,75,-2083,199,-111,39,58,12676,-6,15,-259,-80,35252,35,35,127,0,0,3500,-21,0,2527,223,87,56359,-4,0,1,0,217570,0
217613,62,-2083,197,-110,38,54,12674,-2,-11,-292,-112,35237,57,35,127,0,0,3498,-21,0,2527,223,87,56369,-4,0,1,0,217601,0
217623,68,-2085,194,-109,41,56,12672,-1,1,-336,-96,35237,61,35,127,0,0,3493,-43,0,2527,223,87,56379,-4,0,1,0,217601,0
217633,88,-2082,198,-109,39,61,12666,-11,-4,-401,-96,35238,63,35,127,0,0,3493,0,0,2527,223,87,56389,-4,0,1,0,217601,0
217643,79,-2085,196,-107,38,66,12658,-26,-11,-407,-144,35238,46,35,127,0,0,3491,0,0,2527,223,87,56399,-4,0,1,0,217632,0
217653,87,-2082,189,-109,32,71,12638,-52,-31,-308,-64,35237,52,35,127,0,0,3489,-21,0,2527,223,87,56409,-4,0,1,0,217632,0
217663,88,-2083,182,-105,44,64,12613,-44,-29,-202,-64,35233,38,35,127,0,0,3489,-10,0,2527,223,87,56419,-4,0,1,0,217632,0
217674,119,-2086,206,-105,35,80,12614,-6,55,-266,-48,35231,28,35,127,0,0,3491,38,0,2527,223,87,56430,-4,0,1,0,217648,0
217684,85,-2079,201,-99,29,93,12613,-2,33,-253,-64,35243,4,35,127,0,0,3489,16,0,2527,223,87,56440,-4,0,1,0,217663,0
217694,80,-2086,190,-97,31,102,12612,-5,-4,-300,-88,35249,7,35,127,0,0,3487,10,0,2527,223,87,56450,-4,0,1,0,217679,0
217704,73,-2083,182,-89,37,102,12612,2,-3,-322,-112,35250,24,35,127,0,0,3484,-38,0,2527,223,87,56460,-4,0,1,0,217679,0
217714,75,-2080,183,-91,38,108,12611,6,-1,-338,-88,35241,25,35,127,0,0,3483,-27,0,2527,223,87,56470,-4,0,1,0,217679,0
217724,85,-2080,186,-85,32,114,12611,3,5,-331,-88,35240,5,35,127,0,0,3487,-10,0,2527,223,87,56480,-4,0,1,0,217695,0
217734,65,-2084,189,-80,34,111,12611,-4,1,-321,-88,35245,18,35,127,0,0,3487,0,0,2527,223,87,56490,-4,0,1,0,217710,0
217744,75,-2074,191,-80,43,111,12611,1,-3,-345,-104,35250,36,35,127,0,0,3484,5,0,2527,223,87,56500,-4,0,1,0,217726,0
217754,65,-2075,199,-79,33,112,12611,5,2,-329,-88,35260,35,35,127,0,0,3487,-10,0,2527,223,87,56510,-4,0,1,0,217726,0
217764,70,-2078,200,-75,36,118,12609,-5,-3,-361,-80,35256,43,35,127,0,0,3483,5,0,2527,223,87,56520,-4,0,1,0,217742,0
217774,83,-2074,201,-79,38,104,12608,-3,-6,-355,-80,35262,32,35,127,0,0,3483,-10,0,2527,223,87,56530,-4,0,1,0,217742,0
217784,78,-2081,205,-76,34,107,12610,2,4,-341,-104,35250,28,35,127,0,0,3484,-32,0,2527,223,87,56540,-4,0,1,0,217757,0
217794,73,-2077,198,-78,32,111,12609,3,-3,-378,-104,35244,12,35,127,0,0,3481,-32,0,2527,223,87,56550,-4,0,1,0,217773,0
217804,78,-2076,199,-82,34,105,12607,-15,-5,-422,-120,35237,-3,35,127,0,0,3482,0,0,2527,223,87,56560,-4,0,1,0,217773,0
217814,64,-2086,191,-79,42,106,12606,9,-4,-355,-96,35234,-2,35,127,0,0,3481,-16,0,2527,223,87,56570,-4,0,1,0,217788,0
217824,78,-2080,200,-71,42,99,12604,0,5,-368,-96,35236,8,35,127,0,0,3484,16,0,2527,223,87,56580,-4,0,1,0,217804,0
217834,70,-2089,203,-78,35,102,12605,-3,2,-348,-96,35238,18,35,127,0,0,3484,-10,0,2527,223,87,56590,-4,0,1,0,217804,0
217844,66,-2086,200,-80,39,105,12605,-2,1,-369,-96,35238,22,35,127,0,0,3484,43,0,2527,223,87,56600,-4,0,1,0,217804,0
217854,91,-2081,198,-83,34,99,12605,1,0,-324,-144,35237,28,35,127,0,0,3483,-43,0,2527,223,87,56610,-4,0,1,0,217820,0
217864,72,-2087,199,-84,39,103,12602,-3,-11,-409,-112,35248,21,35,127,0,0,3479,16,0,2527,223,87,56620,-4,0,1,0,217851,0
217874,81,-2078,195,-85,34,105,12599,-1,-3,-412,-128,35245,10,35,127,0,0,3480,-32,0,2527,223,87,56630,-4,0,1,0,217867,0
217884,83,-2080,197,-76,34,103,12598,-3,5,-424,-128,35245,-7,35,127,0,0,3480,0,0,2527,223,87,56640,-4,0,1,0,217867,0
217894,70,-2081,200,-78,36,103,12596,-6,-3,-417,-120,35235,1,35,127,0,0,3480,0,0,2527,223,87,56650,-4,0,1,0,217882,0
217904,70,-2076,196,-81,37,105,12594,6,5,-349,-120,35231,20,35,127,0,0,3480,-38,0,2527,223,87,56660,-4,0,1,0,217882,0
217915,61,-2084,203,-80,38,98,12592,0,2,-352,-128,35236,19,35,127,0,0,3480,-10,0,2527,223,87,56671,-4,0,1,0,217913,0
217925,76,-2082,204,-80,31,103,12592,-4,-5,-378,-112,35238,13,35,127,0,0,3480,0,0,2527,223,87,56681,-4,0,1,0,217913,0
217935,83,-2080,204,-74,37,104,12587,-12,6,-378,-104,35239,7,35,127,0,0,3480,0,0,2527,223,87,56691,-4,0,1,0,217913,0
217945,85,-2078,195,-83,39,107,12581,-22,-12,-341,-96,35239,14,35,127,0,0,3480,0,0,2527,223,87,56701,-4,0,1,0,217913,0
217955,91,-2086,192,-77,40,105,12565,-38,-29,-239,-64,35239,23,35,127,0,0,3480,0,0,2527,223,87,56711,-4,0,1,0,217929,0
217965,87,-2090,193,-76,37,105,12561,0,6,-185,-96,35236,29,35,127,0,0,3480,-10,0,2527,223,87,56721,-4,0,1,0,217945,0
217975,79,-2082,205,-75,36,115,12561,0,26,-213,-56,35246,21,35,127,0,0,3478,-21,0,2527,223,87,56731,-4,0,1,0,217945,0
217985,85,-2093,197,-77,40,116,12560,4,4,-238,-48,35243,17,35,127,0,0,3480,0,0,2527,223,87,56741,-4,0,1,0,217960,0
217995,79,-2082,198,-76,43,114,12560,1,2,-240,-40,35240,7,35,127,0,0,3480,21,0,2527,223,87,56751,-4,0,1,0,217976,0
218005,101,-2076,201,-75,42,115,12559,-6,1,-200,-48,35248,-12,35,127,0,0,3480,0,0,2527,223,87,56761,-4,0,1,0,217976,0
218015,92,-2071,194,-73,38,124,12561,3,3,-187,-32,35251,-21,35,127,0,0,3482,10,0,2527,223,87,56771,-4,0,1,0,218007,0
218025,47,-2083,187,-73,43,130,12562,13,2,-133,-56,35253,-26,35,127,0,0,3482,-21,0,2527,223,87,56781,-4,0,1,0,218007,0
218035,40,-2086,195,-71,37,124,12561,14,-2,-140,-64,35237,4,35,127,0,0,3480,-32,0,2527,223,87,56791,-4,0,1,0,218023,0
218045,85,-2083,201,-75,42,123,12559,-1,-5,-213,-48,35238,10,35,127,0,0,3480,0,0,2527,223,87,56801,-4,0,1,0,218023,0
218055,89,-2076,204,-77,46,125,12560,-3,1,-216,-16,35241,16,35,127,0,0,3480,10,0,2527,223,87,56811,-4,0,1,0,218023,0
218065,84,-2087,208,-80,39,120,12559,-13,7,-162,8,35248,15,35,127,0,0,3482,21,0,2527,223,87,56821,-4,0,1,0,218038,0
218075,97,-2086,210,-81,42,121,12559,-12,-2,-183,-48,35249,28,35,127,0,0,3480,10,0,2527,223,87,56831,-4,0,1,0,218054,0
218085,94,-2070,204,-81,41,115,12561,9,0,-166,-64,35248,14,35,127,0,0,3480,-10,0,2527,223,87,56841,-4,0,1,0,218054,0
218095,66,-2086,210,-82,38,121,12559,0,3,-217,-16,35240,25,35,127,0,0,3482,43,0,2527,223,87,56851,-4,0,1,0,218070,0
218105,75,-2074,212,-82,41,111,12563,5,7,-66,-48,35241,25,35,127,0,0,3480,-65,0,2527,223,87,56861,-4,0,1,0,218101,0
218115,51,-2083,205,-85,39,107,12560,3,-6,-139,16,35244,16,35,127,0,0,3480,-43,0,2527,223,87,56871,-4,0,1,0,218101,0
218125,77,-2081,206,-94,44,106,12560,-4,-2,-150,-40,35245,19,35,127,0,0,3484,43,0,2527,223,87,56881,-4,0,1,0,218101,0
218135,80,-2083,200,-93,41,109,12562,-12,8,-84,-80,35245,15,35,127,0,0,3482,0,0,2527,223,87,56891,-4,0,1,0,218101,0
218145,65,-2076,194,-91,41,108,12561,12,-2,-101,-40,35240,-3,35,127,0,0,3480,-32,0,2527,223,87,56901,-4,0,1,0,218132,0
218155,69,-2080,202,-87,34,105,12559,-4,-7,-170,-48,35240,5,35,127,0,0,3480,-10,0,2527,223,87,56911,-4,0,1,0,218132,0
218165,96,-2087,199,-92,40,110,12558,-12,1,-200,-48,35240,19,35,127,0,0,3480,0,0,2527,223,87,56921,-4,0,1,0,218132,0
218176,102,-2077,200,-87,37,111,12561,9,1,-203,-48,35236,23,35,127,0,0,3480,-5,0,2527,223,87,56932,-4,0,1,0,218179,0
218186,68,-2081,194,-91,37,109,12559,3,-3,-214,-48,35251,17,35,127,0,0,3480,0,0,2527,223,87,56942,-4,0,1,0,218179,0
218196,80,-2079,194,-86,39,114,12560,4,-6,-224,-24,35246,8,35,127,0,0,3482,38,0,2527,223,87,56952,-4,0,1,0,218179,0
218206,106,-2078,191,-80,42,116,12561,-3,4,-144,-48,35243,5,35,127,0,0,3480,-10,0,2527,223,87,56962,-4,0,1,0,218179,0
218216,92,-2083,184,-80,42,119,12559,-1,0,-185,-48,35232,5,35,127,0,0,3480,-27,0,2527,223,87,56972,-4,0,1,0,218179,0
218226,85,-2076,198,-75,44,123,12560,6,-2,-186,-48,35232,10,35,127,0,0,3480,-16,0,2527,223,87,56982,-4,0,1,0,218210,0
218236,79,-2081,189,-78,42,125,12559,0,-1,-219,-48,35248,14,35,127,0,0,3480,0,0,2527,223,87,56992,-4,0,1,0,218226,0
218246,87,-2076,186,-73,48,126,12560,1,1,-217,-48,35242,23,35,127,0,0,3480,0,0,2527,223,87,57002,-4,0,1,0,218226,0
218256,88,-2081,191,-63,49,126,12558,-2,2,-217,-48,35241,20,35,127,0,0,3480,0,0,2527,223,87,57012,-4,0,1,0,218241,0
218266,85,-2078,207,-65,43,132,12559,-4,-4,-231,-48,35229,36,35,127,0,0,3480,16,0,2527,223,87,57022,-4,0,1,0,218288,0
218276,81,-2081,209,-66,45,132,12559,-9,3,-215,-24,35235,29,35,127,0,0,3479,5,0,2527,223,87,57032,-4,0,1,0,218288,0
218286,95,-2078,201,-68,44,131,12559,-1,-4,-216,-48,35235,29,35,127,0,0,3480,0,0,2527,223,87,57042,-4,0,1,0,218288,0
218296,94,-2077,202,-70,45,130,12560,1,0,-189,-48,35235,32,35,127,0,0,3480,-27,0,2527,223,87,57052,-4,0,1,0,218288,0
218306,69,-2072,201,-71,35,128,12560,5,0,-190,-48,35235,21,35,127,0,0,3480,-16,0,2527,223,87,57062,-4,0,1,0,218288,0
218316,60,-2085,191,-70,40,121,12562,17,1,-134,-8,35231,7,35,127,0,0,3478,-49,0,2527,223,87,57072,-4,0,1,0,218288,0
218326,51,-2082,210,-77,37,120,12560,-3,-4,-155,0,35229,-1,35,127,0,0,3478,-21,0,2527,223,87,57082,-4,0,1,0,218288,0
218336,106,-2077,217,-69,42,125,12561,-2,-6,-160,0,35225,4,35,127,0,0,3481,10,0,2527,223,87,57092,-4,0,1,0,218335,0
218346,68,-2076,203,-78,40,123,12560,0,3,-126,-56,35237,13,35,127,0,0,3487,16,0,2527,223,87,57102,-4,0,1,0,218335,0
218356,59,-2080,193,-73,38,119,12563,2,3,-72,-8,35237,11,35,127,0,0,3481,-21,0,2527,223,87,57112,-4,0,1,0,218335,0
218366,83,-2079,200,-73,40,121,12562,5,-1,-123,-56,35241,19,35,127,0,0,3480,-60,0,2527,223,87,57122,-4,0,1,0,218335,0
218376,75,-2089,210,-75,39,119,12561,13,-4,-139,-48,35235,24,35,127,0,0,3490,60,0,2527,223,87,57132,-4,0,1,0,218351,0
218386,73,-2080,218,-71,26,130,12560,-14,5,-79,-8,35239,11,35,127,0,0,3481,27,0,2527,223,87,57142,-4,0,1,0,218366,0
218396,95,-2074,199,-74,33,131,12559,-12,-2,-159,-56,35250,-16,35,127,0,0,3480,0,0,2527,223,87,57152,-4,0,1,0,218366,0
218407,32,-2084,200,-76,36,124,12562,7,5,-98,-64,35246,-22,35,127,0,0,3482,-21,0,2527,223,87,57163,-4,0,1,0,218382,0
218417,98,-2078,198,-80,43,129,12562,7,4,-95,-64,35234,-4,35,127,0,0,3482,-32,0,2527,223,87,57173,-4,0,1,0,218398,0
218427,52,-2083,199,-67,43,131,12563,17,2,-77,-72,35233,32,35,127,0,0,3482,-32,0,2527,223,87,57183,-4,0,1,0,218398,0
218437,64,-2080,196,-70,36,130,12560,2,1,-116,-64,35231,25,35,127,0,0,3480,-10,0,2527,223,87,57193,-4,0,1,0,218413,0
218447,95,-2076,197,-69,35,126,12561,2,8,-94,32,35231,9,35,127,0,0,3484,-10,0,2527,223,87,57203,-4,0,1,0,218429,0
218457,51,-2085,197,-69,39,132,12562,5,7,-95,-32,35237,-8,35,127,0,0,3482,-10,0,2527,223,87,57213,-4,0,1,0,218429,0
218467,64,-2076,206,-69,36,129,12560,0,-8,-79,-40,35234,19,35,127,0,0,3482,-10,0,2527,223,87,57223,-4,0,1,0,218445,0
218477,71,-2086,207,-70,38,130,12560,-5,-1,-144,-16,35230,31,35,127,0,0,3480,-21,0,2527,223,87,57233,-4,0,1,0,218445,0
218487,86,-2078,211,-73,40,126,12560,1,0,-144,-32,35230,40,35,127,0,0,3484,0,0,2527,223,87,57243,-4,0,1,0,218476,0
218497,75,-2079,209,-75,37,139,12561,3,0,-78,-32,35228,19,35,127,0,0,3484,10,0,2527,223,87,57253,-4,0,1,0,218476,0
218507,64,-2089,210,-75,33,138,12563,3,3,-19,-8,35231,23,35,127,0,0,3487,32,0,2527,223,87,57263,-4,0,1,0,218476,0
218517,98,-2067,199,-76,42,131,12563,-3,0,22,-56,35229,30,35,127,0,0,3484,-10,0,2527,223,87,57273,-4,0,1,0,218491,0
218527,62,-2081,204,-78,34,136,12563,11,-3,-11,-8,35244,34,35,127,0,0,3484,10,0,2527,223,87,57283,-4,0,1,0,218507,0
218537,76,-2082,201,-73,39,125,12563,-6,5,-4,-8,35243,18,35,127,0,0,3484,-21,0,2527,223,87,57293,-4,0,1,0,218507,0
218547,74,-2076,204,-76,37,134,12563,5,-2,-16,24,35240,13,35,127,0,0,3484,-10,0,2527,223,87,57303,-4,0,1,0,218554,0
218557,57,-2082,198,-71,37,129,12562,-1,0,-47,-8,35229,8,35,127,0,0,3487,21,0,2527,223,87,57313,-4,0,1,0,218554,0
218567,69,-2075,203,-72,34,125,12564,-1,2,19,16,35234,15,35,127,0,0,3487,10,0,2527,223,87,57323,-4,0,1,0,218554,0
218577,86,-2080,211,-73,42,125,12562,0,-5,35,16,35237,25,35,127,0,0,3487,-10,0,2527,223,87,57333,-4,0,1,0,218554,0
218587,74,-2078,214,-79,38,124,12563,1,-2,10,8,35252,19,35,127,0,0,3487,10,0,2527,223,87,57343,-4,0,1,0,218570,0
218597,72,-2078,211,-75,34,129,12563,3,-2,-21,-8,35258,21,35,127,0,0,3487,21,0,2527,223,87,57353,-4,0,1,0,218570,0
218607,64,-2083,199,-82,33,130,12563,10,1,13,-24,35267,13,35,127,0,0,3487,10,0,2527,223,87,57363,-4,0,1,0,218648,0
218617,73,-2088,206,-86,32,130,12563,0,2,-9,-8,35259,3,35,127,0,0,3484,10,0,2527,223,87,57373,-4,0,1,0,218663,0
218627,82,-2081,203,-81,34,125,12563,0,-1,-17,24,35250,5,35,127,0,0,3487,21,0,2527,223,87,57383,-4,0,1,0,218663,0
218637,66,-2084,216,-89,35,120,12563,1,-2,26,-24,35233,14,35,127,0,0,3484,-21,0,2527,223,87,57393,-4,0,1,0,218663,0
218647,77,-2081,214,-89,32,120,12564,3,2,30,8,35225,28,35,127,0,0,3484,-21,0,2527,223,87,57403,-4,0,1,0,218663,0
218657,58,-2090,213,-92,28,120,12562,-7,-6,26,16,35225,11,35,127,0,0,3484,-21,0,2527,223,87,57413,-4,0,1,0,218663,0
218667,81,-2081,206,-87,32,117,12564,0,-2,0,8,35229,11,35,127,0,0,3487,21,0,2527,223,87,57423,-4,0,1,0,218663,0
218677,79,-2080,211,-99,31,114,12562,-12,-2,-38,-8,35233,5,35,127,0,0,3484,32,0,2527,223,87,57433,-4,0,1,0,218663,0
218687,88,-2081,205,-100,35,112,12564,2,5,-12,-16,35231,17,35,127,0,0,3484,-10,0,2527,223,87,57443,-4,0,1,0,218663,0
218698,79,-2079,201,-103,36,109,12563,3,6,42,32,35237,-2,35,127,0,0,3485,-10,0,2527,223,87,57454,-4,0,1,0,218679,0
218708,99,-2071,194,-99,28,111,12563,-17,-10,31,8,35247,3,35,127,0,0,3487,21,0,2527,223,87,57464,-4,0,1,0,218679,0
218718,63,-2080,207,-95,38,111,12564,-8,-11,28,8,35253,11,35,127,0,0,3483,-32,0,2527,223,87,57474,-4,0,1,0,218710,0
218728,84,-2073,200,-96,37,106,12566,7,1,35,8,35245,8,35,127,0,0,3483,-71,0,2527,223,87,57484,-4,0,1,0,218710,0
218738,78,-2076,199,-102,34,105,12564,0,-4,8,8,35236,-5,35,127,0,0,3487,5,0,2527,223,87,57494,-4,0,1,0,218726,0
218748,61,-2083,206,-100,36,117,12565,-3,5,13,8,35230,-8,35,127,0,0,3483,-27,0,2527,223,87,57504,-4,0,1,0,218726,0
218758,81,-2077,184,-100,32,118,12562,-10,-3,-92,16,35239,17,35,127,0,0,3487,54,0,2527,223,87,57514,-4,0,1,0,218726,0
218768,93,-2081,180,-94,35,119,12564,-6,7,-26,-40,35252,24,35,127,0,0,3485,-21,0,2527,223,87,57524,-4,0,1,0,218741,0
218778,73,-2079,206,-87,48,115,12563,10,-1,-5,8,35257,13,35,127,0,0,3487,21,0,2527,223,87,57534,-4,0,1,0,218741,0
218788,85,-2087,217,-92,37,117,12564,-7,-5,-5,-16,35250,6,35,127,0,0,3484,-16,0,2527,223,87,57544,-4,0,1,0,218773,0
218798,104,-2083,203,-89,41,130,12564,1,-4,-32,-16,35239,22,35,127,0,0,3484,-5,0,2527,223,87,57554,-4,0,1,0,218773,0
218808,103,-2083,196,-91,42,123,12563,-4,8,-17,8,35236,21,35,127,0,0,3483,-27,0,2527,223,87,57564,-4,0,1,0,218773,0
218818,83,-2074,208,-93,39,126,12565,-1,-4,16,8,35235,27,35,127,0,0,3483,-21,0,2527,223,87,57574,-4,0,1,0,218804,0
218828,125,-2080,210,-96,44,123,12562,-9,-5,-32,16,35240,21,35,127,0,0,3487,10,0,2527,223,87,57584,-4,0,1,0,218804,0
218838,87,-2078,210,-101,39,135,12566,3,-3,5,-16,35233,35,35,127,0,0,3488,0,0,2527,223,87,57594,-4,0,1,0,218819,0
218848,45,-2085,207,-99,39,137,12566,13,0,18,24,35232,31,35,127,0,0,3485,0,0,2527,223,87,57604,-4,0,1,0,218819,0
218858,120,-2077,199,-97,41,130,12564,-13,-10,-13,8,35253,10,35,127,0,0,3490,76,0,2527,223,87,57614,-4,0,1,0,218851,0
218868,95,-2081,203,-98,36,133,12565,-11,1,28,8,35256,0,35,127,0,0,3483,5,0,2527,223,87,57624,-4,0,1,0,218851,0
218878,73,-2076,204,-102,45,129,12564,-2,-1,-53,32,35259,-15,35,127,0,0,3482,10,0,2527,223,87,57634,-4,0,1,0,218851,0
218888,101,-2073,205,-108,36,135,12565,-5,-2,-20,-16,35240,15,35,127,0,0,3488,-10,0,2527,223,87,57644,-4,0,1,0,218851,0
218898,60,-2079,206,-101,40,142,12565,4,1,30,32,35249,23,35,127,0,0,3485,5,0,2527,223,87,57654,-4,0,1,0,218866,0
218909,78,-2086,205,-107,39,134,12565,1,-6,44,-40,35252,10,35,127,0,0,3487,-10,0,2527,223,87,57665,-4,0,1,0,218929,0
218919,81,-2085,207,-103,38,143,12563,-7,-11,9,8,35245,12,35,127,0,0,3484,0,0,2527,223,87,57675,-4,0,1,0,218929,0
218929,81,-2086,203,-110,35,145,12565,1,3,-26,48,35248,15,35,127,0,0,3491,54,0,2527,223,87,57685,-4,0,1,0,218944,0
218939,72,-2081,202,-109,36,151,12566,-3,6,50,40,35239,19,35,127,0,0,3489,32,0,2527,223,87,57695,-4,0,1,0,218944,0
218949,79,-2084,206,-109,33,154,12568,1,1,114,56,35240,11,35,127,0,0,3489,0,0,2527,223,87,57705,-4,0,1,0,218944,0
218959,78,-2083,201,-113,34,145,12569,0,1,150,40,35238,16,35,127,0,0,3489,-21,0,2527,223,87,57715,-4,0,1,0,218960,0
218969,60,-2084,208,-112,41,147,12570,-1,4,138,72,35235,26,35,127,0,0,3491,21,0,2527,223,87,57725,-4,0,1,0,218960,0
218979,93,-2079,195,-117,32,146,12578,16,13,209,48,35232,50,35,127,0,0,3493,-10,0,2527,223,87,57735,-4,0,1,0,218991,0
218989,88,-2079,203,-118,34,146,12582,-4,3,153,40,35237,47,35,127,0,0,3498,65,0,2527,223,87,57745,-4,0,1,0,218991,0
218999,44,-2084,195,-109,35,149,12587,13,-16,206,16,35242,37,35,127,0,0,3495,21,0,2527,223,87,57755,-4,0,1,0,218991,0
219009,61,-2080,203,-111,38,141,12595,26,8,215,24,35241,24,35,127,0,0,3498,10,0,2527,223,87,57765,-4,0,1,0,219007,0
219019,67,-2080,195,-112,40,141,12612,38,31,99,24,35246,1,35,127,0,0,3498,-21,0,2527,223,87,57775,-4,0,1,0,219007,0
219029,46,-2082,194,-112,37,142,12611,0,-16,65,24,35243,12,35,127,0,0,3498,21,0,2527,223,87,57785,-4,0,1,0,219007,0
219039,74,-2081,188,-107,39,146,12613,-1,-31,94,24,35251,17,35,127,0,0,3498,0,0,2527,223,87,57795,-4,0,1,0,219007,0
219049,66,-2087,194,-106,40,152,12614,12,1,152,8,35252,29,35,127,0,0,3500,0,0,2527,223,87,57805,-4,0,1,0,219054,0
219059,66,-2079,197,-95,35,146,12615,0,-3,148,40,35251,28,35,127,0,0,3500,21,0,2527,223,87,57815,-4,0,1,0,219054,0
219069,61,-2083,195,-104,38,147,12618,12,0,201,56,35247,36,35,127,0,0,3500,-21,0,2527,223,87,57825,-4,0,1,0,219054,0
219079,88,-2082,198,-105,36,146,12618,-5,4,182,64,35239,16,35,127,0,0,3502,21,0,2527,223,87,57835,-4,0,1,0,219054,0
219089,67,-2085,188,-101,29,147,12621,0,2,231,48,35239,16,35,127,0,0,3504,21,0,2527,223,87,57845,-4,0,1,0,219054,0
219099,52,-2080,198,-102,41,141,12622,6,0,280,72,35245,26,35,127,0,0,3502,-21,0,2527,223,87,57855,-4,0,1,0,219101,0
219109,49,-2076,201,-104,36,136,12623,7,-3,272,32,35247,27,35,127,0,0,3504,-21,0,2527,223,87,57865,-4,0,1,0,219101,0
219119,57,-2083,195,-106,41,136,12623,0,-2,295,136,35241,30,35,127,0,0,3504,0,0,2527,223,87,57875,-4,0,1,0,219101,0
219129,74,-2080,194,-107,36,126,12625,0,-2,267,64,35237,25,35,127,0,0,3504,0,0,2527,223,87,57885,-4,0,1,0,219101,0
219139,77,-2078,195,-103,36,131,12625,2,-1,290,128,35241,9,35,127,0,0,3504,0,0,2527,223,87,57895,-4,0,1,0,219101,0
219149,78,-2080,190,-101,38,126,12625,-7,2,299,120,35251,15,35,127,0,0,3509,43,0,2527,223,87,57905,-4,0,1,0,219116,0
219160,81,-2084,193,-105,33,132,12630,3,6,363,80,35262,18,35,127,0,0,3510,10,0,2527,223,87,57916,-4,0,1,0,219148,0
219170,63,-2082,195,-105,36,138,12632,11,1,398,96,35263,12,35,127,0,0,3509,-16,0,2527,223,87,57926,-4,0,1,0,219148,0
219180,74,-2078,187,-104,38,134,12634,1,0,403,88,35254,24,35,127,0,0,3512,0,0,2527,223,87,57936,-4,0,1,0,219148,0
219190,74,-2084,194,-100,42,133,12635,-10,-5,392,88,35243,32,35,127,0,0,3512,21,0,2527,223,87,57946,-4,0,1,0,219163,0
219200,62,-2092,195,-98,36,138,12636,8,3,392,104,35236,43,35,127,0,0,3511,-5,0,2527,223,87,57956,-4,0,1,0,219179,0
219210,56,-2077,194,-102,39,141,12639,10,6,418,120,35239,37,35,127,0,0,3513,10,0,2527,223,87,57966,-4,0,1,0,219179,0
219220,50,-2080,188,-102,29,138,12646,9,10,383,88,35233,34,35,127,0,0,3511,10,0,2527,223,87,57976,-4,0,1,0,219210,0
219230,46,-2080,192,-96,41,134,12654,26,8,358,96,35240,37,35,127,0,0,3510,-43,0,2527,223,87,57986,-4,0,1,0,219210,0
219240,72,-2080,193,-99,36,134,12675,53,29,222,56,35239,39,35,127,0,0,3516,21,0,2527,223,87,57996,-4,0,1,0,219226,0
219250,64,-2082,196,-102,39,133,12678,-17,-3,216,40,35237,32,35,127,0,0,3513,5,0,2527,223,87,58006,-4,0,1,0,219226,0
219260,45,-2085,195,-99,37,128,12680,5,-39,235,40,35236,26,35,127,0,0,3513,-49,0,2527,223,87,58016,-4,0,1,0,219226,0
219270,54,-2076,196,-99,36,126,12679,3,-2,228,48,35241,20,35,127,0,0,3516,10,0,2527,223,87,58026,-4,0,1,0,219241,0
219280,69,-2084,190,-97,35,120,12680,-2,-2,249,64,35246,23,35,127,0,0,3512,-43,0,2527,223,87,58036,-4,0,1,0,219257,0
219290,56,-2086,185,-101,37,122,12680,0,6,238,40,35246,19,35,127,0,0,3516,-16,0,2527,223,87,58046,-4,0,1,0,219257,0
219300,49,-2083,192,-94,34,122,12679,-7,-4,240,64,35252,35,35,127,0,0,3512,-16,0,2527,223,87,58056,-4,0,1,0,219288,0
219310,63,-2079,188,-88,38,117,12679,0,-3,216,64,35251,35,35,127,0,0,3518,54,0,2527,223,87,58066,-4,0,1,0,219288,0
219320,60,-2081,193,-90,35,122,12680,-7,-3,254,64,35247,39,35,127,0,0,3518,60,0,2527,223,87,58076,-4,0,1,0,219288,0
219330,68,-2081,192,-90,30,128,12681,-7,0,252,64,35228,54,35,127,0,0,3515,0,0,2527,223,87,58086,-4,0,1,0,219351,0
219340,62,-2076,184,-90,40,124,12681,7,3,246,64,35231,53,35,127,0,0,3512,-32,0,2527,223,87,58096,-4,0,1,0,219351,0
219350,66,-2079,191,-86,37,121,12681,12,0,261,64,35229,63,35,127,0,0,3518,5,0,2527,223,87,58106,-4,0,1,0,219351,0
219360,48,-2079,193,-84,35,119,12683,10,-1,306,64,35228,51,35,127,0,0,3518,0,0,2527,223,87,58116,-4,0,1,0,219351,0
219370,68,-2077,198,-85,35,123,12681,3,-1,265,64,35229,40,35,127,0,0,3515,10,0,2527,223,87,58126,-4,0,1,0,219366,0
219380,72,-2078,188,-90,37,117,12681,0,-2,232,40,35228,37,35,127,0,0,3516,27,0,2527,223,87,58136,-4,0,1,0,219366,0
219390,63,-2081,195,-87,38,120,12682,0,-1,239,64,35227,40,35,127,0,0,3518,60,0,2527,223,87,58146,-4,0,1,0,219366,0
219400,51,-2081,192,-86,39,123,12681,0,-3,249,64,35236,50,35,127,0,0,3515,27,0,2527,223,87,58156,-4,0,1,0,219382,0
219411,79,-2085,186,-83,43,115,12682,4,1,293,80,35244,64,35,127,0,0,3515,-21,0,2527,223,87,58167,-4,0,1,0,219382,0
219421,65,-2081,185,-84,43,119,12682,-3,-3,281,40,35264,48,35,127,0,0,3515,-21,0,2527,223,87,58177,-4,0,1,0,219429,0
219431,57,-2088,195,-82,45,121,12682,0,-2,277,48,35260,48,35,127,0,0,3515,-10,0,2527,223,87,58187,-4,0,1,0,219429,0
219441,65,-2087,195,-85,37,128,12681,-5,4,251,64,35250,32,35,127,0,0,3517,21,0,2527,223,87,58197,-4,0,1,0,219429,0
219451,60,-2084,196,-85,37,129,12682,3,0,295,80,35232,34,35,127,0,0,3515,0,0,2527,223,87,58207,-4,0,1,0,219429,0
219461,72,-2079,195,-88,37,124,12681,-8,-4,238,96,35225,36,35,127,0,0,3515,32,0,2527,223,87,58217,-4,0,1,0,219444,0
219471,92,-2079,190,-88,33,126,12684,7,3,285,48,35238,27,35,127,0,0,3515,-21,0,2527,223,87,58227,-4,0,1,0,219444,0
219481,60,-2075,192,-85,41,135,12684,16,3,300,80,35240,21,35,127,0,0,3517,0,0,2527,223,87,58237,-4,0,1,0,219460,0
219491,60,-2078,198,-82,37,132,12682,2,-5,301,80,35248,27,35,127,0,0,3517,21,0,2527,223,87,58247,-4,0,1,0,219460,0
219501,58,-2077,196,-93,40,138,12684,9,0,330,112,35240,33,35,127,0,0,3520,10,0,2527,223,87,58257,-4,0,1,0,219476,0
219511,62,-2081,200,-93,34,146,12684,-9,3,348,72,35246,33,35,127,0,0,3517,0,0,2527,223,87,58267,-4,0,1,0,219491,0
219521,63,-2080,188,-96,36,143,12684,-2,-5,352,104,35244,44,35,127,0,0,3520,0,0,2527,223,87,58277,-4,0,1,0,219491,0
219531,67,-2078,194,-93,33,148,12685,7,1,372,96,35242,37,35,127,0,0,3520,10,0,2527,223,87,58287,-4,0,1,0,219507,0
219541,67,-2086,197,-92,34,142,12686,-5,2,374,96,35229,60,35,127,0,0,3520,0,0,2527,223,87,58297,-4,0,1,0,219507,0
219551,69,-2085,192,-95,29,149,12686,-5,-2,398,88,35237,52,35,127,0,0,3520,0,0,2527,223,87,58307,-4,0,1,0,219569,0
219561,59,-2085,194,-97,32,148,12688,0,3,408,112,35247,53,35,127,0,0,3522,0,0,2527,223,87,58317,-4,0,1,0,219585,0
219571,66,-2089,189,-97,31,148,12689,2,3,387,160,35246,53,35,127,0,0,3520,-21,0,2527,223,87,58327,-4,0,1,0,219585,0
219581,67,-2077,191,-95,33,141,12691,1,1,415,136,35238,43,35,127,0,0,3524,-21,0,2527,223,87,58337,-4,0,1,0,219585,0
219591,59,-2080,190,-93,31,135,12691,3,-4,434,136,35228,35,35,127,0,0,3524,0,0,2527,223,87,58347,-4,0,1,0,219585,0
219601,59,-2082,195,-99,33,133,12692,-7,-4,432,128,35229,35,35,127,0,0,3524,10,0,2527,223,87,58357,-4,0,1,0,219585,0
219611,53,-2077,201,-100,34,134,12693,-4,-4,437,128,35233,60,35,127,0,0,3524,10,0,2527,223,87,58367,-4,0,1,0,219585,0
219621,66,-2079,194,-103,35,126,12694,-6,-3,488,136,35234,56,35,127,0,0,3524,-10,0,2527,223,87,58377,-4,0,1,0,219585,0
219631,79,-2080,192,-109,30,126,12696,5,0,457,144,35250,49,35,127,0,0,3526,0,0,2527,223,87,58387,-4,0,1,0,219616,0
219641,62,-2084,190,-106,33,128,12697,1,0,488,96,35263,24,35,127,0,0,3526,-10,0,2527,223,87,58397,-4,0,1,0,219616,0
219651,55,-2080,188,-102,31,129,12697,0,-2,450,112,35263,36,35,127,0,0,3526,21,0,2527,223,87,58407,-4,0,1,0,219616,0
219662,65,-2077,194,-96,31,126,12698,1,1,469,160,35250,47,35,127,0,0,3528,38,0,2527,223,87,58418,-4,0,1,0,219632,0
219672,60,-2077,183,-100,37,129,12700,3,6,494,112,35245,64,35,127,0,0,3531,21,0,2527,223,87,58428,-4,0,1,0,219647,0
219682,45,-2085,193,-95,36,133,12701,13,0,545,136,35252,56,35,127,0,0,3529,-10,0,2527,223,87,58438,-4,0,1,0,219647,0
219692,64,-2082,190,-95,35,128,12710,17,13,488,136,35249,66,35,127,0,0,3532,32,0,2527,223,87,58448,-4,0,1,0,219694,0
219702,46,-2080,181,-99,33,132,12721,35,15,462,136,35248,37,35,127,0,0,3531,0,0,2527,223,87,58458,-4,0,1,0,219710,0
219712,66,-2084,187,-95,31,136,12744,45,35,270,72,35241,56,35,127,0,0,3532,38,0,2527,223,87,58468,-4,0,1,0,219726,0
219722,59,-2084,188,-89,32,136,12746,-9,-27,286,88,35240,30,35,127,0,0,3531,43,0,2527,223,87,58478,-4,0,1,0,219726,0
219732,59,-2078,181,-88,38,139,12746,-4,-44,287,88,35237,27,35,127,0,0,3531,32,0,2527,223,87,58488,-4,0,1,0,219726,0
219742,77,-2083,195,-82,33,136,12747,5,0,294,64,35233,25,35,127,0,0,3535,54,0,2527,223,87,58498,-4,0,1,0,219741,0
219752,55,-2082,183,-86,36,138,12746,0,-4,325,112,35228,33,35,127,0,0,3529,16,0,2527,223,87,58508,-4,0,1,0,219741,0
219762,57,-2085,181,-81,34,144,12747,-6,0,341,88,35221,45,35,127,0,0,3534,0,0,2527,223,87,58518,-4,0,1,0,219741,0
219772,55,-2084,177,-84,31,143,12748,3,0,372,88,35222,26,35,127,0,0,3534,-5,0,2527,223,87,58528,-4,0,1,0,219741,0
219782,53,-2084,191,-77,36,153,12751,8,6,367,104,35235,28,35,127,0,0,3536,32,0,2527,223,87,58538,-4,0,1,0,219772,0
219792,61,-2084,192,-80,37,149,12749,-9,-2,380,128,35236,27,35,127,0,0,3535,49,0,2527,223,87,58548,-4,0,1,0,219772,0
219802,53,-2073,197,-84,30,152,12754,9,4,402,136,35237,18,35,127,0,0,3534,5,0,2527,223,87,58558,-4,0,1,0,219788,0
219812,46,-2081,194,-86,37,153,12756,11,5,437,136,35237,5,35,127,0,0,3537,-10,0,2527,223,87,58568,-4,0,1,0,219788,0
219822,48,-2087,185,-86,33,149,12763,17,12,442,144,35239,9,35,127,0,0,3539,-10,0,2527,223,87,58578,-4,0,1,0,219819,0
219832,51,-2082,194,-87,39,139,12770,20,3,436,152,35247,19,35,127,0,0,3538,5,0,2527,223,87,58588,-4,0,1,0,219819,0
219842,35,-2079,189,-90,35,139,12792,60,23,316,104,35243,16,35,127,0,0,3541,5,0,2527,223,87,58598,-4,0,1,0,219819,0
219852,55,-2076,196,-96,31,144,12817,29,42,192,32,35244,14,35,127,0,0,3543,-5,0,2527,223,87,58608,-4,0,1,0,219835,0
219862,13,-2084,184,-92,37,138,12812,3,-61,256,64,35245,8,35,127,0,0,3545,32,0,2527,223,87,58618,-4,0,1,0,219835,0
219872,50,-2088,183,-88,42,131,12812,-12,-37,250,88,35254,21,35,127,0,0,3540,32,0,2527,223,87,58628,-4,0,1,0,219850,0
219882,77,-2083,192,-85,33,123,12813,1,12,273,64,35260,9,35,127,0,0,3545,10,0,2527,223,87,58638,-4,0,1,0,219850,0
219892,51,-2086,185,-87,31,126,12815,7,-5,308,88,35249,-9,35,127,0,0,3544,0,0,2527,223,87,58648,-4,0,1,0,219866,0
219902,46,-2092,185,-83,37,126,12814,1,-2,307,88,35246,-27,35,127,0,0,3544,0,0,2527,223,87,58658,-4,0,1,0,219882,0
219913,59,-2082,182,-83,37,126,12814,1,0,287,96,35249,-23,35,127,0,0,3544,10,0,2527,223,87,58669,-4,0,1,0,219882,0
219923,63,-2083,191,-80,32,129,12815,4,2,304,88,35251,-27,35,127,0,0,3544,0,0,2527,223,87,58679,-4,0,1,0,219897,0
219933,65,-2078,188,-82,33,120,12814,0,-2,310,72,35256,-25,35,127,0,0,3544,21,0,2527,223,87,58689,-4,0,1,0,219913,0
219943,65,-2081,190,-83,35,124,12813,-10,-2,314,88,35260,-19,35,127,0,0,3546,21,0,2527,223,87,58699,-4,0,1,0,219929,0
219953,57,-2075,196,-81,34,126,12815,9,-1,329,120,35254,-21,35,127,0,0,3546,21,0,2527,223,87,58709,-4,0,1,0,219929,0
219963,52,-2082,190,-77,36,125,12816,3,-3,356,104,35245,-14,35,127,0,0,3546,32,0,2527,223,87,58719,-4,0,1,0,219929,0
219973,62,-2080,188,-78,34,121,12817,1,-1,378,136,35238,-17,35,127,0,0,3546,0,0,2527,223,87,58729,-4,0,1,0,219944,0
219983,67,-2071,187,-80,35,121,12816,-6,-3,367,104,35242,-10,35,127,0,0,3548,32,0,2527,223,87,58739,-4,0,1,0,219975,0
219993,73,-2077,194,-76,30,125,12815,-14,2,376,136,35247,6,35,127,0,0,3548,54,0,2527,223,87,58749,-4,0,1,0,219975,0
220003,65,-2078,189,-77,33,124,12819,7,6,425,88,35244,13,35,127,0,0,3548,-32,0,2527,223,87,58759,-4,0,1,0,219975,0
220013,45,-2080,194,-72,37,123,12818,-3,-4,370,136,35243,13,35,127,0,0,3548,54,0,2527,223,87,58769,-4,0,1,0,219975,0
220023,56,-2078,183,-75,33,124,12818,-6,-5,402,152,35237,7,35,127,0,0,3548,10,0,2527,223,87,58779,-4,0,1,0,220022,0
220033,29,-2084,192,-81,41,118,12819,3,4,428,112,35243,-1,35,127,0,0,3546,-43,0,2527,223,87,58789,-4,0,1,0,220022,0
220043,41,-2076,198,-79,36,113,12819,-3,-7,393,88,35244,-3,35,127,0,0,3548,21,0,2527,223,87,58799,-4,0,1,0,220022,0
220053,57,-2078,194,-80,35,108,12820,1,2,421,88,35242,2,35,127,0,0,3546,-21,0,2527,223,87,58809,-4,0,1,0,220022,0
220063,54,-2084,200,-80,31,108,12819,-2,-1,401,88,35249,-23,35,127,0,0,3548,-10,0,2527,223,87,58819,-4,0,1,0,220038,0
220073,42,-2083,195,-80,36,114,12821,1,1,415,80,35256,-28,35,127,0,0,3548,-10,0,2527,223,87,58829,-4,0,1,0,220038,0
220083,26,-2084,192,-77,38,112,12820,5,3,395,96,35259,-19,35,127,0,0,3548,0,0,2527,223,87,58839,-4,0,1,0,220069,0
220093,76,-2079,189,-84,41,105,12820,4,-2,392,120,35253,7,35,127,0,0,3546,0,0,2527,223,87,58849,-4,0,1,0,220069,0
220103,72,-2085,186,-80,33,105,12819,-5,-3,389,88,35244,2,35,127,0,0,3546,-21,0,2527,223,87,58859,-4,0,1,0,220085,0
220113,31,-2089,189,-84,37,101,12820,2,-1,345,64,35237,-4,35,127,0,0,3546,0,0,2527,223,87,58869,-4,0,1,0,220100,0
220123,30,-2082,192,-81,39,107,12820,2,3,364,96,35240,-7,35,127,0,0,3546,10,0,2527,223,87,58879,-4,0,1,0,220100,0
220133,79,-2087,191,-80,35,100,12820,0,2,370,64,35239,5,35,127,0,0,3546,0,0,2527,223,87,58889,-4,0,1,0,220100,0
220143,56,-2083,188,-82,37,106,12820,-1,-7,362,96,35247,-9,35,127,0,0,3546,10,0,2527,223,87,58899,-4,0,1,0,220116,0
220154,63,-2087,187,-81,33,109,12820,0,0,346,96,35267,-28,35,127,0,0,3543,-27,0,2527,223,87,58910,-4,0,1,0,220210,0
220164,63,-2083,191,-78,38,111,12820,8,2,323,96,35273,-17,35,127,0,0,3543,-16,0,2527,223,87,58920,-4,0,1,0,220210,0
220174,53,-2074,195,-78,33,109,12819,6,0,332,104,35270,0,35,127,0,0,3543,-38,0,2527,223,87,58930,-4,0,1,0,220210,0
220184,57,-2076,196,-81,37,109,12818,0,-4,307,80,35253,-1,35,127,0,0,3544,-27,0,2527,223,87,58940,-4,0,1,0,220210,0
220194,61,-2078,184,-78,35,113,12820,4,4,305,80,35245,-10,35,127,0,0,3544,0,0,2527,223,87,58950,-4,0,1,0,220210,0
220204,56,-2081,194,-82,37,109,12819,-2,-2,313,80,35242,-14,35,127,0,0,3544,-27,0,2527,223,87,58960,-4,0,1,0,220225,0
220214,63,-2081,197,-81,39,109,12818,2,2,317,96,35236,3,35,127,0,0,3543,-10,0,2527,223,87,58970,-4,0,1,0,220225,0
220224,58,-2081,193,-88,32,113,12818,3,3,327,72,35232,2,35,127,0,0,3544,-21,0,2527,223,87,58980,-4,0,1,0,220225,0
220234,47,-2085,197,-83,36,112,12819,-1,-8,319,104,35230,-1,35,127,0,0,3543,0,0,2527,223,87,58990,-4,0,1,0,220225,0
220244,66,-2081,189,-88,28,111,12819,0,0,307,104,35237,-13,35,127,0,0,3543,5,0,2527,223,87,59000,-4,0,1,0,220225,0
220254,55,-2085,187,-85,36,109,12818,0,2,325,72,35240,-17,35,127,0,0,3544,-43,0,2527,223,87,59010,-4,0,1,0,220225,0
220264,48,-2081,197,-85,39,111,12821,4,-3,328,80,35255,-23,35,127,0,0,3544,-43,0,2527,223,87,59020,-4,0,1,0,220257,0
220274,44,-2092,193,-83,31,111,12818,1,3,307,80,35261,-26,35,127,0,0,3544,0,0,2527,223,87,59030,-4,0,1,0,220257,0
220284,51,-2090,188,-82,30,110,12818,0,4,317,80,35258,-20,35,127,0,0,3544,-5,0,2527,223,87,59040,-4,0,1,0,220257,0
220294,45,-2081,185,-77,40,114,12819,1,0,292,80,35245,-16,35,127,0,0,3544,5,0,2527,223,87,59050,-4,0,1,0,220272,0
220304,35,-2081,182,-77,36,118,12818,2,0,302,96,35232,-4,35,127,0,0,3543,5,0,2527,223,87,59060,-4,0,1,0,220272,0
220314,63,-2072,180,-77,37,111,12818,1,3,298,80,35235,-3,35,127,0,0,3544,0,0,2527,223,87,59070,-4,0,1,0,220303,0
220324,49,-2084,188,-73,38,109,12818,2,1,305,80,35243,-9,35,127,0,0,3544,0,0,2527,223,87,59080,-4,0,1,0,220303,0
220334,54,-2083,197,-73,32,108,12818,0,3,305,80,35243,-19,35,127,0,0,3544,0,0,2527,223,87,59090,-4,0,1,0,220303,0
220344,54,-2092,201,-77,44,117,12816,-5,-2,280,56,35243,-18,35,127,0,0,3545,21,0,2527,223,87,59100,-4,0,1,0,220319,0
220354,37,-2085,199,-80,32,109,12819,5,-3,305,80,35233,8,35,127,0,0,3544,0,0,2527,223,87,59110,-4,0,1,0,220335,0
220364,38,-2078,204,-79,29,106,12819,5,4,331,80,35236,8,35,127,0,0,3544,-21,0,2527,223,87,59120,-4,0,1,0,220335,0
220374,40,-2082,202,-83,36,100,12817,-1,-3,319,80,35234,-2,35,127,0,0,3544,-16,0,2527,223,87,59130,-4,0,1,0,220335,0
220384,47,-2080,202,-85,32,102,12819,2,2,305,80,35235,-10,35,127,0,0,3544,0,0,2527,223,87,59140,-4,0,1,0,220366,0
220394,57,-2077,196,-88,34,99,12818,0,2,307,80,35235,-25,35,127,0,0,3540,-32,0,2527,223,87,59150,-4,0,1,0,220366,0
220404,61,-2084,191,-84,36,95,12818,8,1,282,80,35232,-31,35,127,0,0,3540,-43,0,2527,223,87,59160,-4,0,1,0,220382,0
220415,56,-2085,186,-89,43,90,12817,3,3,272,80,35223,-33,35,127,0,0,3541,-21,0,2527,223,87,59171,-4,0,1,0,220397,0
220425,54,-2079,181,-84,41,87,12817,0,1,239,56,35234,-26,35,127,0,0,3541,0,0,2527,223,87,59181,-4,0,1,0,220397,0
220435,65,-2079,181,-84,49,86,12817,4,4,214,56,35235,-28,35,127,0,0,3541,0,0,2527,223,87,59191,-4,0,1,0,220397,0
220445,69,-2083,190,-82,43,89,12817,1,4,208,24,35238,-22,35,127,0,0,3541,-10,0,2527,223,87,59201,-4,0,1,0,220491,0
220455,56,-2092,196,-88,41,93,12816,0,-3,183,32,35239,-26,35,127,0,0,3539,-21,0,2527,223,87,59211,-4,0,1,0,220491,0
220465,63,-2091,195,-88,39,101,12815,-1,-2,174,40,35240,-5,35,127,0,0,3539,-21,0,2527,223,87,59221,-4,0,1,0,220491,0
220475,67,-2097,201,-90,38,100,12815,-2,1,157,40,35232,3,35,127,0,0,3539,-10,0,2527,223,87,59231,-4,0,1,0,220491,0
220485,70,-2091,203,-93,36,110,12812,-7,-4,123,48,35226,0,35,127,0,0,3537,-10,0,2527,223,87,59241,-4,0,1,0,220491,0
220495,71,-2088,203,-101,39,101,12816,7,4,109,48,35218,-19,35,127,0,0,3539,0,0,2527,223,87,59251,-4,0,1,0,220507,0
220505,65,-2078,196,-99,39,100,12813,-7,-2,128,40,35222,-18,35,127,0,0,3537,-10,0,2527,223,87,59261,-4,0,1,0,220507,0
220515,73,-2071,189,-95,47,106,12814,2,0,105,16,35221,-15,35,127,0,0,3537,-21,0,2527,223,87,59271,-4,0,1,0,220507,0
220525,70,-2075,192,-105,43,112,12814,-1,2,128,8,35224,-9,35,127,0,0,3535,-43,0,2527,223,87,59281,-4,0,1,0,220507,0
220535,59,-2067,198,-106,39,107,12812,-8,-6,79,24,35231,-15,35,127,0,0,3537,-10,0,2527,223,87,59291,-4,0,1,0,220511,0
220545,51,-2064,212,-111,44,103,12812,-1,-1,98,16,35246,-28,35,127,0,0,3535,-10,0,2527,223,87,59301,-4,0,1,0,220526,0
220555,58,-2073,208,-119,38,106,12810,-12,-3,48,24,35258,-23,35,127,0,0,3535,10,0,2527,223,87,59311,-4,0,1,0,220526,0
220565,67,-2072,203,-126,45,95,12809,-9,-4,16,8,35256,-21,35,127,0,0,3535,0,0,2527,223,87,59321,-4,0,1,0,220526,0
220575,66,-2073,198,-128,42,98,12811,1,8,71,24,35252,-11,35,127,0,0,3535,-10,0,2527,223,87,59331,-4,0,1,0,220558,0
220585,52,-2077,200,-141,41,97,12809,-10,-5,18,-24,35243,-16,35,127,0,0,3535,-10,0,2527,223,87,59341,-4,0,1,0,220573,0
220595,66,-2084,190,-140,43,103,12811,9,-1,3,16,35235,-11,35,127,0,0,3533,-21,0,2527,223,87,59351,-4,0,1,0,220573,0
220605,62,-2091,197,-144,39,98,12809,0,4,-20,-24,35230,-8,35,127,0,0,3533,-10,0,2527,223,87,59361,-4,0,1,0,220573,0
220615,57,-2090,190,-141,41,98,12808,0,-2,-30,-16,35236,-7,35,127,0,0,3533,0,0,2527,223,87,59371,-4,0,1,0,220589,0
220625,60,-2085,178,-144,36,103,12807,-4,0,-40,-8,35238,-17,35,127,0,0,3531,-32,0,2527,223,87,59381,-4,0,1,0,220605,0
220635,70,-2083,178,-145,37,98,12807,5,-1,-79,-48,35237,-16,35,127,0,0,3531,-21,0,2527,223,87,59391,-4,0,1,0,220605,0
220646,55,-2079,180,-143,42,97,12806,1,3,-150,-8,35238,10,35,127,0,0,3529,27,0,2527,223,87,59402,-4,0,1,0,220620,0
220656,55,-2083,180,-136,40,107,12803,-7,2,-148,0,35244,16,35,127,0,0,3526,5,0,2527,223,87,59412,-4,0,1,0,220620,0
220666,72,-2094,182,-126,40,101,12804,-2,3,-143,-24,35244,16,35,127,0,0,3527,-38,0,2527,223,87,59422,-4,0,1,0,220667,0
220676,67,-2083,180,-135,36,109,12803,-2,-11,-169,-72,35242,4,35,127,0,0,3529,-21,0,2527,223,87,59432,-4,0,1,0,220683,0
220686,56,-2087,171,-126,40,120,12804,8,2,-155,-48,35235,-14,35,127,0,0,3528,-27,0,2527,223,87,59442,-4,0,1,0,220683,0
220696,62,-2079,164,-121,36,125,12803,6,4,-155,-48,35238,-19,35,127,0,0,3525,-32,0,2527,223,87,59452,-4,0,1,0,220683,0
220706,81,-2078,154,-101,38,134,12802,1,-1,-180,-48,35235,-16,35,127,0,0,3532,21,0,2527,223,87,59462,-4,0,1,0,220683,0
220716,88,-2088,156,-104,44,144,12802,-7,0,-137,0,35233,-17,35,127,0,0,3526,21,0,2527,223,87,59472,-4,0,1,0,220683,0
220726,130,-2073,145,-88,51,151,12803,-12,0,-149,-24,35241,-1,35,127,0,0,3527,-10,0,2527,223,87,59482,-4,0,1,0,220698,0
220736,122,-2084,147,-75,37,171,12802,-1,-5,-139,-24,35246,-11,35,127,0,0,3531,32,0,2527,223,87,59492,-4,0,1,0,220714,0
220746,88,-2086,162,-62,41,190,12804,0,1,-82,-24,35259,-21,35,127,0,0,3531,-16,0,2527,223,87,59502,-4,0,1,0,220730,0
220756,86,-2098,163,-50,38,207,12805,15,5,-49,-32,35251,-13,35,127,0,0,3534,-10,0,2527,223,87,59512,-4,0,1,0,220730,0
220766,74,-2098,168,-44,32,227,12806,13,11,18,16,35244,-7,35,127,0,0,3535,21,0,2527,223,87,59522,-4,0,1,0,220745,0
220776,94,-2100,165,-33,33,249,12807,5,3,99,56,35243,4,35,127,0,0,3539,54,0,2527,223,87,59532,-4,0,1,0,220745,0
220786,93,-2089,168,-21,26,261,12811,6,1,207,72,35245,11,35,127,0,0,3545,49,0,2527,223,87,59542,-4,0,1,0,220776,0
220796,52,-2086,162,-20,38,266,12814,8,-1,311,112,35256,3,35,127,0,0,3549,71,0,2527,223,87,59552,-4,0,1,0,220776,0
220806,43,-2078,175,-10,27,271,12820,19,6,432,144,35246,-1,35,127,0,0,3550,16,0,2527,223,87,59562,-4,0,1,0,220839,0
220816,61,-2084,175,-8,28,272,12826,17,3,510,176,35241,-19,35,127,0,0,3558,38,0,2527,223,87,59572,-4,0,1,0,220855,0
220826,45,-2078,185,-2,31,263,12838,29,12,524,192,35239,-19,35,127,0,0,3559,60,0,2527,223,87,59582,-4,0,1,0,220855,0
220836,20,-2079,189,-3,34,254,12871,90,52,449,192,35242,-20,35,127,0,0,3566,21,0,2527,223,87,59592,-4,0,1,0,220855,0
220846,45,-2078,184,-1,29,251,12899,42,38,415,184,35238,-26,35,127,0,0,3567,71,0,2527,223,87,59602,-4,0,1,0,220855,0
220856,-2,-2078,176,1,43,237,12937,102,-4,340,128,35234,-17,35,127,0,0,3572,21,0,2527,223,87,59612,-4,0,1,0,220855,0
220866,37,-2074,203,4,32,227,12974,68,21,243,80,35232,-2,35,127,0,0,3574,16,0,2527,223,87,59622,-4,0,1,0,220855,0
220876,21,-2081,202,4,28,228,12994,20,-39,211,80,35236,10,35,127,0,0,3579,38,0,2527,223,87,59632,-4,0,1,0,220855,0
220886,5,-2083,199,0,36,200,12994,-3,-70,326,104,35236,15,35,127,0,0,3581,38,0,2527,223,87,59642,-4,0,1,0,220855,0
220896,9,-2093,200,-10,38,186,12997,12,-29,419,144,35237,20,35,127,0,0,3579,-43,0,2527,223,87,59652,-4,0,1,0,220870,0
220907,37,-2098,210,-10,34,166,13000,1,0,398,160,35266,12,35,127,0,0,3585,10,0,2527,223,87,59663,-4,0,1,0,220901,0
220917,6,-2101,201,-12,33,156,13002,10,-6,479,136,35267,6,35,127,0,0,3585,-10,0,2527,223,87,59673,-4,0,1,0,220901,0
220927,6,-2087,208,-21,40,136,13003,4,1,507,152,35250,-14,35,127,0,0,3588,0,0,2527,223,87,59683,-4,0,1,0,220901,0
220937,5,-2089,199,-20,38,116,13004,0,-4,509,152,35239,1,35,127,0,0,3588,0,0,2527,223,87,59693,-4,0,1,0,220917,0
220947,12,-2084,210,-27,43,103,13006,5,-1,541,176,35249,-5,35,127,0,0,3588,-10,0,2527,223,87,59703,-4,0,1,0,220917,0
220957,11,-2074,208,-31,32,94,13007,-1,4,508,184,35264,0,35,127,0,0,3588,0,0,2527,223,87,59713,-4,0,1,0,220948,0
220967,31,-2079,206,-38,32,84,13008,0,2,530,184,35266,-13,35,127,0,0,3590,0,0,2527,223,87,59723,-4,0,1,0,220948,0
220977,23,-2067,201,-38,27,78,13009,-3,-4,529,144,35262,-7,35,127,0,0,3588,10,0,2527,223,87,59733,-4,0,1,0,220948,0
220987,37,-2075,202,-47,27,78,13009,0,-1,547,128,35246,-13,35,127,0,0,3588,-10,0,2527,223,87,59743,-4,0,1,0,220948,0
220997,48,-2073,201,-43,32,69,13008,-1,-11,493,144,35254,16,35,127,0,0,3588,21,0,2527,223,87,59753,-4,0,1,0,220979,0
221007,52,-2077,203,-45,34,70,13008,-2,3,507,144,35250,15,35,127,0,0,3585,-32,0,2527,223,87,59763,-4,0,1,0,220979,0
221017,40,-2092,197,-43,44,67,13009,6,0,476,112,35248,18,35,127,0,0,3585,-32,0,2527,223,87,59773,-4,0,1,0,220979,0
221027,59,-2093,206,-40,40,67,13008,-1,-5,446,88,35248,22,35,127,0,0,3581,-54,0,2527,223,87,59783,-4,0,1,0,221011,0
221037,44,-2098,204,-41,37,76,13007,4,-3,379,64,35245,18,35,127,0,0,3585,0,0,2527,223,87,59793,-4,0,1,0,221011,0
221047,41,-2097,213,-46,44,84,13007,1,2,402,104,35245,8,35,127,0,0,3581,-21,0,2527,223,87,59803,-4,0,1,0,221026,0
221057,51,-2084,215,-48,45,80,13007,10,1,332,80,35243,11,35,127,0,0,3581,10,0,2527,223,87,59813,-4,0,1,0,221026,0
221067,53,-2080,212,-54,40,90,13006,-5,-3,333,80,35251,19,35,127,0,0,3581,10,0,2527,223,87,59823,-4,0,1,0,221042,0
221077,52,-2067,209,-56,38,84,13004,-2,4,333,80,35247,11,35,127,0,0,3581,0,0,2527,223,87,59833,-4,0,1,0,221058,0
221087,46,-2061,216,-59,33,89,13005,0,-5,264,72,35242,14,35,127,0,0,3581,10,0,2527,223,87,59843,-4,0,1,0,221058,0
221097,37,-2073,209,-62,43,99,13004,7,0,254,40,35240,18,35,127,0,0,3579,-21,0,2527,223,87,59853,-4,0,1,0,221073,0
221107,20,-2073,203,-68,40,89,13001,5,1,252,64,35242,7,35,127,0,0,3577,-10,0,2527,223,87,59863,-4,0,1,0,221073,0
221117,53,-2076,209,-72,30,94,12999,-22,-5,151,64,35244,8,35,127,0,0,3577,32,0,2527,223,87,59873,-4,0,1,0,221089,0
221127,55,-2077,203,-75,37,102,13000,-7,8,144,56,35253,6,35,127,0,0,3577,32,0,2527,223,87,59883,-4,0,1,0,221120,0
221137,72,-2084,202,-77,39,100,13000,-2,10,166,16,35260,-1,35,127,0,0,3577,10,0,2527,223,87,59893,-4,0,1,0,221120,0
221147,43,-2088,204,-76,40,103,12999,6,-1,138,24,35267,4,35,127,0,0,3577,32,0,2527,223,87,59903,-4,0,1,0,221120,0
221157,42,-2089,214,-78,38,107,13000,2,0,147,40,35260,-2,35,127,0,0,3574,-10,0,2527,223,87,59913,-4,0,1,0,221120,0
221168,31,-2076,212,-83,38,101,13000,2,-5,117,48,35266,10,35,127,0,0,3573,5,0,2527,223,87,59924,-4,0,1,0,221136,0
221178,52,-2088,210,-81,39,100,12997,-11,-2,99,32,35259,18,35,127,0,0,3571,-27,0,2527,223,87,59934,-4,0,1,0,221229,0
221188,45,-2074,213,-84,44,97,12998,-4,-3,77,8,35254,18,35,127,0,0,3572,-27,0,2527,223,87,59944,-4,0,1,0,221229,0
221198,44,-2080,216,-88,36,91,12998,-1,2,95,32,35246,21,35,127,0,0,3571,-16,0,2527,223,87,59954,-4,0,1,0,221229,0
221208,57,-2084,211,-94,37,90,12996,-12,-4,71,-16,35244,0,35,127,0,0,3573,-32,0,2527,223,87,59964,-4,0,1,0,221229,0
221218,45,-2075,198,-89,43,91,12998,6,-3,60,8,35243,-5,35,127,0,0,3569,-32,0,2527,223,87,59974,-4,0,1,0,221229,0
221228,53,-2074,212,-94,37,96,12994,-9,2,-13,-8,35237,9,35,127,0,0,3570,0,0,2527,223,87,59984,-4,0,1,0,221245,0
221238,53,-2069,206,-94,47,89,12995,-2,4,11,-16,35233,16,35,127,0,0,3570,-27,0,2527,223,87,59994,-4,0,1,0,221245,0
221248,57,-2058,205,-96,39,92,12995,3,4,-1,-8,35230,15,35,127,0,0,3567,-32,0,2527,223,87,60004,-4,0,1,0,221245,0
221258,45,-2065,210,-92,41,93,12994,2,-1,-26,-8,35231,17,35,127,0,0,3567,-43,0,2527,223,87,60014,-4,0,1,0,221245,0
221268,60,-2070,211,-94,42,100,12992,-3,-1,-83,-24,35237,24,35,127,0,0,3568,0,0,2527,223,87,60024,-4,0,1,0,221245,0
221278,61,-2068,216,-96,43,103,12992,-6,-3,-73,-24,35249,17,35,127,0,0,3568,0,0,2527,223,87,60034,-4,0,1,0,221245,0
221288,53,-2085,208,-100,38,110,12994,10,2,-63,-24,35248,11,35,127,0,0,3568,0,0,2527,223,87,60044,-4,0,1,0,221276,0
221298,59,-2087,208,-104,34,104,12991,-4,0,-90,-24,35244,16,35,127,0,0,3568,27,0,2527,223,87,60054,-4,0,1,0,221276,0
221308,56,-2098,195,-104,38,102,12990,-5,-5,-117,-24,35238,24,35,127,0,0,3565,-10,0,2527,223,87,60064,-4,0,1,0,221276,0
221318,53,-2097,210,-96,41,111,12988,1,0,-140,-40,35233,28,35,127,0,0,3569,5,0,2527,223,87,60074,-4,0,1,0,221292,0
221328,40,-2090,212,-98,37,112,12991,5,2,-79,-24,35243,12,35,127,0,0,3565,-5,0,2527,223,87,60084,-4,0,1,0,221292,0
221338,43,-2092,203,-98,39,102,12990,1,-1,-66,-40,35248,1,35,127,0,0,3566,-49,0,2527,223,87,60094,-4,0,1,0,221323,0
221348,71,-2098,200,-99,40,102,12991,14,-5,-89,-24,35244,2,35,127,0,0,3565,-38,0,2527,223,87,60104,-4,0,1,0,221323,0
221358,55,-2075,194,-95,36,124,12990,4,4,-72,-24,35237,10,35,127,0,0,3565,-43,0,2527,223,87,60114,-4,0,1,0,221323,0
221368,78,-2078,185,-92,36,129,12986,-15,-4,-146,-16,35234,7,35,127,0,0,3568,38,0,2527,223,87,60124,-4,0,1,0,221339,0
221378,77,-2067,194,-89,31,135,12988,-16,3,-124,-40,35246,3,35,127,0,0,3566,0,0,2527,223,87,60134,-4,0,1,0,221354,0
221388,43,-2064,188,-84,41,142,12988,5,6,-133,-40,35246,2,35,127,0,0,3566,-27,0,2527,223,87,60144,-4,0,1,0,221354,0
221399,32,-2063,194,-70,47,147,12988,8,2,-85,-16,35240,8,35,127,0,0,3568,21,0,2527,223,87,60155,-4,0,1,0,221370,0
221409,62,-2079,203,-73,49,141,12987,-17,-1,-95,-8,35237,13,35,127,0,0,3568,21,0,2527,223,87,60165,-4,0,1,0,221401,0
221419,61,-2070,201,-74,49,146,12988,4,2,-104,-8,35239,-6,35,127,0,0,3566,-21,0,2527,223,87,60175,-4,0,1,0,221401,0
221429,33,-2068,208,-76,40,142,12987,5,1,-165,-40,35240,-2,35,127,0,0,3566,0,0,2527,223,87,60185,-4,0,1,0,221401,0
221439,25,-2078,212,-76,41,134,12988,4,-8,-121,-48,35238,18,35,127,0,0,3566,0,0,2527,223,87,60195,-4,0,1,0,221401,0
221449,31,-2080,207,-83,39,129,12987,-5,2,-106,-48,35241,24,35,127,0,0,3568,21,0,2527,223,87,60205,-4,0,1,0,221432,0
221459,30,-2080,198,-80,46,124,12988,0,0,-75,-8,35244,12,35,127,0,0,3568,10,0,2527,223,87,60215,-4,0,1,0,221432,0
221469,58,-2079,197,-78,38,122,12988,-2,2,-79,-40,35239,19,35,127,0,0,3568,10,0,2527,223,87,60225,-4,0,1,0,221432,0
221479,26,-2079,212,-80,38,120,12989,11,1,-38,-16,35236,20,35,127,0,0,3568,-10,0,2527,223,87,60235,-4,0,1,0,221464,0
221489,17,-2097,204,-86,39,111,12987,0,-2,-49,-16,35237,38,35,127,0,0,3570,10,0,2527,223,87,60245,-4,0,1,0,221464,0
221499,7,-2081,212,-80,43,106,12988,1,-2,-67,-16,35235,25,35,127,0,0,3568,10,0,2527,223,87,60255,-4,0,1,0,221479,0
221509,40,-2071,210,-85,36,102,12987,-6,3,-127,-8,35233,12,35,127,0,0,3568,43,0,2527,223,87,60265,-4,0,1,0,221479,0
221519,83,-2094,202,-83,33,103,12989,-9,7,-74,-56,35232,-2,35,127,0,0,3568,10,0,2527,223,87,60275,-4,0,1,0,221573,0
221529,26,-2086,200,-83,33,107,12989,14,-3,-104,-40,35240,6,35,127,0,0,3568,0,0,2527,223,87,60285,-4,0,1,0,221573,0
221539,10,-2092,190,-81,35,109,12988,6,1,-125,-72,35239,17,35,127,0,0,3566,0,0,2527,223,87,60295,-4,0,1,0,221589,0
221549,69,-2090,188,-75,39,101,12986,1,1,-161,-32,35229,8,35,127,0,0,3566,0,0,2527,223,87,60305,-4,0,1,0,221589,0
221559,53,-2073,193,-76,42,98,12986,3,3,-161,0,35229,8,35,127,0,0,3568,21,0,2527,223,87,60315,-4,0,1,0,221589,0
221569,56,-2078,208,-68,34,99,12987,-5,1,-132,-8,35232,22,35,127,0,0,3568,21,0,2527,223,87,60325,-4,0,1,0,221589,0
221579,61,-2085,200,-70,35,99,12988,2,0,-104,-48,35235,41,35,127,0,0,3566,-10,0,2527,223,87,60335,-4,0,1,0,221589,0
221589,57,-2077,203,-75,37,103,12987,2,1,-163,-40,35230,29,35,127,0,0,3566,-10,0,2527,223,87,60345,-4,0,1,0,221589,0
221599,52,-2080,193,-74,35,101,12986,0,-2,-182,-104,35227,26,35,127,0,0,3563,-32,0,2527,223,87,60355,-4,0,1,0,221589,0
221609,58,-2084,191,-76,36,113,12984,0,0,-234,-80,35229,20,35,127,0,0,3566,21,0,2527,223,87,60365,-4,0,1,0,221589,0
221619,36,-2075,201,-66,40,114,12987,20,8,-118,-48,35234,15,35,127,0,0,3566,-10,0,2527,223,87,60375,-4,0,1,0,221589,0
221629,46,-2080,205,-65,36,121,12984,-1,0,-175,-8,35242,4,35,127,0,0,3566,0,0,2527,223,87,60385,-4,0,1,0,221589,0
221639,48,-2077,205,-63,40,120,12986,6,0,-173,8,35263,-12,35,127,0,0,3566,0,0,2527,223,87,60395,-4,0,1,0,221620,0
221650,42,-2080,208,-63,40,126,12985,4,6,-150,-32,35266,-14,35,127,0,0,3566,16,0,2527,223,87,60406,-4,0,1,0,221636,0
221660,70,-2082,209,-67,34,130,12985,-1,-1,-122,-32,35259,-4,35,127,0,0,3562,-32,0,2527,223,87,60416,-4,0,1,0,221636,0
221670,32,-2070,201,-70,39,130,12986,0,6,-121,-32,35236,8,35,127,0,0,3566,-16,0,2527,223,87,60426,-4,0,1,0,221636,0
221680,56,-2077,207,-59,37,124,12984,2,-5,-114,-32,35225,18,35,127,0,0,3566,0,0,2527,223,87,60436,-4,0,1,0,221651,0
221690,44,-2081,208,-56,43,129,12983,-5,-3,-139,-32,35228,24,35,127,0,0,3566,16,0,2527,223,87,60446,-4,0,1,0,221667,0
221700,59,-2080,205,-59,41,135,12986,1,4,-128,-32,35230,37,35,127,0,0,3566,0,0,2527,223,87,60456,-4,0,1,0,221667,0
221710,60,-2076,205,-59,42,125,12986,10,1,-131,-32,35240,26,35,127,0,0,3566,27,0,2527,223,87,60466,-4,0,1,0,221698,0
221720,61,-2081,200,-59,41,125,12985,-1,1,-149,-32,35242,30,35,127,0,0,3566,5,0,2527,223,87,60476,-4,0,1,0,221698,0
221730,63,-2083,201,-58,40,128,12984,-5,-3,-136,-32,35246,20,35,127,0,0,3566,5,0,2527,223,87,60486,-4,0,1,0,221698,0
221740,31,-2082,208,-57,42,139,12986,-2,8,-132,-32,35245,35,35,127,0,0,3562,-32,0,2527,223,87,60496,-4,0,1,0,221714,0
221750,33,-2087,207,-59,44,122,12986,1,0,-133,-32,35252,33,35,127,0,0,3566,-10,0,2527,223,87,60506,-4,0,1,0,221729,0
221760,37,-2081,210,-61,40,123,12985,-1,-3,-105,-32,35255,30,35,127,0,0,3566,-16,0,2527,223,87,60516,-4,0,1,0,221745,0
221770,23,-2084,204,-61,37,130,12986,7,0,-84,-32,35245,32,35,127,0,0,3566,-32,0,2527,223,87,60526,-4,0,1,0,221745,0
221780,37,-2086,208,-59,38,122,12986,1,0,-108,-32,35230,33,35,127,0,0,3569,5,0,2527,223,87,60536,-4,0,1,0,221776,0
221790,51,-2076,210,-61,38,124,12986,2,1,-94,-32,35231,27,35,127,0,0,3569,16,0,2527,223,87,60546,-4,0,1,0,221776,0
221800,20,-2081,208,-64,42,126,12986,0,-1,-128,-32,35231,34,35,127,0,0,3566,16,0,2527,223,87,60556,-4,0,1,0,221776,0
221810,57,-2082,209,-67,39,117,12986,11,0,-109,-16,35233,27,35,127,0,0,3565,0,0,2527,223,87,60566,-4,0,1,0,221776,0
221820,70,-2079,216,-65,44,120,12985,-8,-4,-132,-32,35231,41,35,127,0,0,3566,0,0,2527,223,87,60576,-4,0,1,0,221807,0
221830,47,-2076,226,-67,34,114,12985,-9,0,-147,-32,35240,44,35,127,0,0,3566,0,0,2527,223,87,60586,-4,0,1,0,221807,0
221840,55,-2073,213,-71,37,115,12985,-1,3,-119,-32,35240,47,35,127,0,0,3566,0,0,2527,223,87,60596,-4,0,1,0,221807,0
221850,35,-2076,203,-62,38,118,12985,2,-5,-152,-32,35232,43,35,127,0,0,3562,-27,0,2527,223,87,60606,-4,0,1,0,221839,0
221860,47,-2084,204,-63,34,118,12985,-2,-3,-148,-32,35231,18,35,127,0,0,3566,0,0,2527,223,87,60616,-4,0,1,0,221839,0
221870,46,-2086,209,-66,38,112,12985,-3,4,-132,-32,35234,14,35,127,0,0,3566,0,0,2527,223,87,60626,-4,0,1,0,221839,0
221880,54,-2076,217,-68,36,118,12985,-8,-4,-138,-32,35240,13,35,127,0,0,3566,27,0,2527,223,87,60636,-4,0,1,0,221854,0
221890,32,-2082,220,-68,36,120,12986,-1,-2,-116,-32,35241,27,35,127,0,0,3566,-27,0,2527,223,87,60646,-4,0,1,0,221870,0
221901,63,-2089,211,-75,40,114,12986,3,2,-131,0,35245,16,35,127,0,0,3566,0,0,2527,223,87,60657,-4,0,1,0,221886,0
221911,63,-2087,212,-77,39,112,12984,-2,-4,-141,-32,35242,16,35,127,0,0,3566,32,0,2527,223,87,60667,-4,0,1,0,221901,0
221921,48,-2086,219,-76,39,111,12984,-12,-3,-132,-32,35243,8,35,127,0,0,3568,21,0,2527,223,87,60677,-4,0,1,0,221917,0
221931,51,-2081,211,-76,32,117,12985,-3,3,-145,-24,35243,3,35,127,0,0,3563,-10,0,2527,223,87,60687,-4,0,1,0,221917,0
221941,55,-2084,208,-82,40,112,12986,10,0,-143,-32,35243,-6,35,127,0,0,3566,0,0,2527,223,87,60697,-4,0,1,0,221917,0
221951,35,-2082,210,-80,37,113,12986,9,-3,-103,-48,35243,-2,35,127,0,0,3566,-10,0,2527,223,87,60707,-4,0,1,0,221932,0
221961,48,-2075,215,-80,29,111,12985,-7,-1,-125,-32,35246,3,35,127,0,0,3566,0,0,2527,223,87,60717,-4,0,1,0,221932,0
221971,66,-2079,214,-84,32,116,12986,-2,4,-123,-32,35251,41,35,127,0,0,3566,10,0,2527,223,87,60727,-4,0,1,0,221948,0
221981,53,-2077,210,-81,37,115,12985,-10,-3,-124,-32,35252,26,35,127,0,0,3566,0,0,2527,223,87,60737,-4,0,1,0,221948,0
221991,63,-2080,207,-79,36,119,12985,-2,-6,-125,-32,35251,20,35,127,0,0,3566,0,0,2527,223,87,60747,-4,0,1,0,221995,0
222001,57,-2074,208,-79,38,119,12985,0,1,-127,0,35254,20,35,127,0,0,3566,0,0,2527,223,87,60757,-4,0,1,0,221995,0
222011,70,-2078,209,-83,35,119,12984,-7,-3,-166,-56,35248,17,35,127,0,0,3566,10,0,2527,223,87,60767,-4,0,1,0,221995,0
222021,73,-2071,209,-86,39,123,12987,10,5,-118,-40,35243,30,35,127,0,0,3566,0,0,2527,223,87,60777,-4,0,1,0,221995,0
222031,40,-2086,214,-85,42,123,12986,7,0,-112,-32,35234,25,35,127,0,0,3563,-21,0,2527,223,87,60787,-4,0,1,0,222010,0
222041,24,-2079,209,-80,40,126,12983,0,-5,-166,-16,35241,32,35,127,0,0,3566,10,0,2527,223,87,60797,-4,0,1,0,222010,0
222051,58,-2080,211,-75,36,125,12985,-5,4,-143,-32,35254,20,35,127,0,0,3566,0,0,2527,223,87,60807,-4,0,1,0,222042,0
222061,45,-2084,214,-78,38,123,12985,0,2,-165,-56,35260,18,35,127,0,0,3566,10,0,2527,223,87,60817,-4,0,1,0,222042,0
222071,46,-2078,206,-79,38,131,12986,11,0,-147,-24,35256,2,35,127,0,0,3566,10,0,2527,223,87,60827,-4,0,1,0,222057,0
222081,66,-2081,204,-76,42,125,12985,0,2,-119,-32,35245,14,35,127,0,0,3566,0,0,2527,223,87,60837,-4,0,1,0,222057,0
222091,45,-2080,218,-76,39,118,12986,1,-1,-104,-48,35242,17,35,127,0,0,3566,-10,0,2527,223,87,60847,-4,0,1,0,222057,0
222101,33,-2083,221,-69,38,125,12986,6,-3,-91,-16,35254,27,35,127,0,0,3566,-32,0,2527,223,87,60857,-4,0,1,0,222120,0
222111,7,-2085,213,-69,37,110,12985,7,-2,-129,0,35258,32,35,127,0,0,3566,0,0,2527,223,87,60867,-4,0,1,0,222120,0
222121,36,-2077,221,-73,35,115,12985,-4,0,-103,-48,35252,25,35,127,0,0,3566,-21,0,2527,223,87,60877,-4,0,1,0,222135,0
222131,40,-2079,212,-79,41,108,12986,5,1,-119,-48,35245,25,35,127,0,0,3566,-10,0,2527,223,87,60887,-4,0,1,0,222135,0
222141,37,-2078,217,-77,40,122,12984,0,-3,-127,-32,35238,15,35,127,0,0,3566,0,0,2527,223,87,60897,-4,0,1,0,222135,0
222151,57,-2077,214,-81,36,120,12984,-6,-3,-137,0,35237,15,35,127,0,0,3566,0,0,2527,223,87,60907,-4,0,1,0,222135,0
222161,38,-2082,209,-78,36,117,12984,-11,1,-116,-40,35235,22,35,127,0,0,3566,-10,0,2527,223,87,60917,-4,0,1,0,222135,0
222172,46,-2068,209,-75,35,123,12985,-2,0,-96,-32,35239,19,35,127,0,0,3566,-16,0,2527,223,87,60928,-4,0,1,0,222135,0
222182,37,-2077,213,-76,38,126,12986,3,2,-124,-56,35246,6,35,127,0,0,3567,-5,0,2527,223,87,60938,-4,0,1,0,222151,0
222192,33,-2083,211,-73,41,124,12986,3,1,-105,-32,35254,-5,35,127,0,0,3566,0,0,2527,223,87,60948,-4,0,1,0,222167,0
222202,44,-2079,206,-70,38,134,12987,12,7,-75,-16,35256,4,35,127,0,0,3565,-38,0,2527,223,87,60958,-4,0,1,0,222182,0
222212,49,-2071,222,-69,36,130,12985,0,-4,-126,-32,35250,10,35,127,0,0,3566,0,0,2527,223,87,60968,-4,0,1,0,222182,0
222222,61,-2077,215,-73,37,134,12986,-7,-2,-138,-32,35244,20,35,127,0,0,3566,0,0,2527,223,87,60978,-4,0,1,0,222214,0
222232,48,-2075,213,-68,37,140,12986,6,7,-103,-16,35245,18,35,127,0,0,3565,-10,0,2527,223,87,60988,-4,0,1,0,222214,0
222242,47,-2080,214,-70,40,134,12984,-11,-8,-143,-32,35246,18,35,127,0,0,3566,0,0,2527,223,87,60998,-4,0,1,0,222229,0
222252,63,-2079,215,-72,43,144,12986,-1,0,-70,-16,35248,20,35,127,0,0,3568,16,0,2527,223,87,61008,-4,0,1,0,222229,0
222262,58,-2087,217,-79,42,144,12985,-6,3,-44,-16,35249,30,35,127,0,0,3568,5,0,2527,223,87,61018,-4,0,1,0,222229,0
222272,34,-2075,215,-76,35,148,12987,1,-3,-78,-16,35254,26,35,127,0,0,3568,32,0,2527,223,87,61028,-4,0,1,0,222323,0
222282,63,-2078,220,-77,41,148,12985,-8,2,-81,-16,35254,41,35,127,0,0,3568,32,0,2527,223,87,61038,-4,0,1,0,222323,0
222292,52,-2078,209,-72,36,156,12986,-8,-3,-69,8,35251,40,35,127,0,0,3570,54,0,2527,223,87,61048,-4,0,1,0,222323,0
222302,69,-2080,216,-73,39,163,12990,5,8,40,-24,35241,29,35,127,0,0,3571,-10,0,2527,223,87,61058,-4,0,1,0,222339,0
222312,52,-2079,209,-73,30,161,12990,6,2,61,0,35234,26,35,127,0,0,3570,-43,0,2527,223,87,61068,-4,0,1,0,222339,0
222322,20,-2084,198,-70,38,170,12988,0,-7,79,24,35227,11,35,127,0,0,3572,0,0,2527,223,87,61078,-4,0,1,0,222339,0
222332,64,-2086,214,-67,31,177,12991,1,4,131,40,35228,18,35,127,0,0,3571,-16,0,2527,223,87,61088,-4,0,1,0,222339,0
222342,61,-2082,213,-60,37,182,12992,0,1,145,40,35238,17,35,127,0,0,3574,-10,0,2527,223,87,61098,-4,0,1,0,222339,0
222352,50,-2080,216,-64,36,180,12994,13,3,208,56,35242,13,35,127,0,0,3580,38,0,2527,223,87,61108,-4,0,1,0,222339,0
222362,45,-2071,215,-64,35,181,12996,4,-3,264,56,35240,13,35,127,0,0,3580,27,0,2527,223,87,61118,-4,0,1,0,222339,0
222372,30,-2086,207,-65,41,177,12997,4,5,328,96,35225,26,35,127,0,0,3581,16,0,2527,223,87,61128,-4,0,1,0,222354,0
222382,45,-2083,216,-60,34,181,13000,-4,-3,333,96,35232,40,35,127,0,0,3584,32,0,2527,223,87,61138,-4,0,1,0,222354,0
222392,18,-2077,221,-66,37,174,13001,3,-3,390,136,35236,49,35,127,0,0,3585,65,0,2527,223,87,61148,-4,0,1,0,222354,0
222403,35,-2075,226,-69,38,168,13003,-5,4,434,128,35245,32,35,127,0,0,3585,0,0,2527,223,87,61159,-4,0,1,0,222401,0
222413,32,-2083,224,-73,37,167,13005,5,-5,436,128,35243,18,35,127,0,0,3585,0,0,2527,223,87,61169,-4,0,1,0,222401,0
222423,26,-2077,221,-71,38,156,13005,14,-1,486,152,35241,9,35,127,0,0,3588,0,0,2527,223,87,61179,-4,0,1,0,222401,0
222433,26,-2084,223,-76,40,149,13007,1,4,501,144,35237,2,35,127,0,0,3588,0,0,2527,223,87,61189,-4,0,1,0,222401,0
222443,28,-2078,226,-75,37,147,13006,-1,-1,512,184,35242,19,35,127,0,0,3588,0,0,2527,223,87,61199,-4,0,1,0,222417,0
222453,39,-2080,211,-81,40,143,13008,2,0,510,176,35236,29,35,127,0,0,3590,32,0,2527,223,87,61209,-4,0,1,0,222432,0
222463,35,-2083,213,-84,37,145,13010,2,6,545,168,35234,30,35,127,0,0,3590,21,0,2527,223,87,61219,-4,0,1,0,222432,0
222473,51,-2081,217,-77,32,140,13013,6,3,552,160,35234,40,35,127,0,0,3590,21,0,2527,223,87,61229,-4,0,1,0,222464,0
222483,39,-2079,223,-81,39,141,13013,9,0,576,160,35240,2,35,127,0,0,3590,0,0,2527,223,87,61239,-4,0,1,0,222464,0
222493,45,-2084,219,-76,35,140,13014,-4,-3,546,160,35238,2,35,127,0,0,3590,0,0,2527,223,87,61249,-4,0,1,0,222464,0
222503,45,-2074,213,-81,29,142,13014,0,-8,575,184,35234,-4,35,127,0,0,3592,21,0,2527,223,87,61259,-4,0,1,0,222479,0
222513,45,-2079,213,-76,38,151,13018,1,4,562,208,35234,-4,35,127,0,0,3592,0,0,2527,223,87,61269,-4,0,1,0,222495,0
222523,48,-2074,210,-75,33,157,13022,4,4,582,152,35244,3,35,127,0,0,3594,43,0,2527,223,87,61279,-4,0,1,0,222510,0
222533,37,-2074,221,-72,41,159,13031,29,16,585,168,35243,9,35,127,0,0,3592,-21,0,2527,223,87,61289,-4,0,1,0,222510,0
222543,46,-2076,217,-72,37,161,13051,36,33,419,120,35242,7,35,127,0,0,3596,32,0,2527,223,87,61299,-4,0,1,0,222510,0
222553,41,-2081,220,-74,34,164,13066,18,-2,456,112,35236,-2,35,127,0,0,3599,10,0,2527,223,87,61309,-4,0,1,0,222542,0
222563,33,-2080,214,-74,42,164,13067,7,-39,519,144,35243,-9,35,127,0,0,3599,0,0,2527,223,87,61319,-4,0,1,0,222542,0
222573,34,-2075,215,-64,41,163,13068,1,-14,521,144,35242,-11,35,127,0,0,3601,21,0,2527,223,87,61329,-4,0,1,0,222542,0
222583,35,-2081,218,-69,35,164,13072,16,6,562,120,35243,-9,35,127,0,0,3603,10,0,2527,223,87,61339,-4,0,1,0,222573,0
222593,29,-2077,222,-70,33,167,13079,19,17,573,168,35237,-16,35,127,0,0,3603,21,0,2527,223,87,61349,-4,0,1,0,222573,0
222603,17,-2083,217,-70,33,168,13089,29,12,511,152,35239,-23,35,127,0,0,3605,21,0,2527,223,87,61359,-4,0,1,0,222573,0
222613,24,-2082,223,-65,42,168,13114,75,39,402,120,35234,-12,35,127,0,0,3605,10,0,2527,223,87,61369,-4,0,1,0,222573,0
222623,48,-2075,235,-66,31,172,13135,10,17,334,136,35230,10,35,127,0,0,3610,65,0,2527,223,87,61379,-4,0,1,0,222604,0
222633,27,-2083,214,-71,37,166,13136,-1,-62,428,136,35227,19,35,127,0,0,3610,32,0,2527,223,87,61389,-4,0,1,0,222604,0
222643,29,-2074,216,-68,39,162,13136,1,-31,444,128,35227,22,35,127,0,0,3612,43,0,2527,223,87,61399,-4,0,1,0,222620,0
222654,31,-2077,224,-65,37,165,13141,15,5,487,136,35229,19,35,127,0,0,3615,10,0,2527,223,87,61410,-4,0,1,0,222651,0
222664,8,-2073,217,-69,36,162,13146,22,6,541,152,35243,2,35,127,0,0,3614,0,0,2527,223,87,61420,-4,0,1,0,222667,0
222674,14,-2078,225,-70,41,156,13157,24,8,455,128,35240,4,35,127,0,0,3617,32,0,2527,223,87,61430,-4,0,1,0,222667,0
222684,16,-2076,230,-72,43,153,13174,41,24,350,96,35236,7,35,127,0,0,3614,10,0,2527,223,87,61440,-4,0,1,0,222667,0
222694,36,-2077,220,-78,33,157,13182,3,-5,302,80,35230,20,35,127,0,0,3621,60,0,2527,223,87,61450,-4,0,1,0,222682,0
222704,14,-2080,211,-78,37,149,13184,8,-31,398,72,35236,17,35,127,0,0,3617,-27,0,2527,223,87,61460,-4,0,1,0,222682,0
222714,18,-2081,215,-78,40,140,13186,3,-5,385,120,35236,34,35,127,0,0,3618,21,0,2527,223,87,61470,-4,0,1,0,222682,0
222724,20,-2089,218,-71,38,139,13188,11,-2,421,112,35238,41,35,127,0,0,3618,0,0,2527,223,87,61480,-4,0,1,0,222713,0
222734,17,-2077,216,-73,33,147,13188,7,0,422,112,35236,52,35,127,0,0,3618,-27,0,2527,223,87,61490,-4,0,1,0,222713,0
222744,13,-2083,222,-78,37,136,13189,2,-1,451,112,35234,43,35,127,0,0,3622,10,0,2527,223,87,61500,-4,0,1,0,222713,0
222754,15,-2080,222,-73,40,143,13191,2,1,433,136,35240,36,35,127,0,0,3621,21,0,2527,223,87,61510,-4,0,1,0,222745,0
222764,11,-2085,226,-72,35,143,13191,-11,-3,405,136,35243,27,35,127,0,0,3621,49,0,2527,223,87,61520,-4,0,1,0,222745,0
222774,44,-2079,219,-70,40,133,13194,18,1,464,128,35251,34,35,127,0,0,3621,-16,0,2527,223,87,61530,-4,0,1,0,222760,0
222784,24,-2078,217,-74,37,137,13194,10,1,449,128,35250,40,35,127,0,0,3621,-16,0,2527,223,87,61540,-4,0,1,0,222760,0
222794,10,-2078,219,-75,32,135,13193,-2,-8,440,152,35248,35,35,127,0,0,3623,32,0,2527,223,87,61550,-4,0,1,0,222760,0
222804,26,-2076,220,-72,38,134,13195,0,7,485,144,35251,22,35,127,0,0,3626,32,0,2527,223,87,61560,-4,0,1,0,222776,0
222814,25,-2076,220,-68,37,136,13197,6,4,527,144,35254,31,35,127,0,0,3623,-10,0,2527,223,87,61570,-4,0,1,0,222823,0
222824,21,-2078,225,-77,41,128,13198,0,-4,495,120,35259,22,35,127,0,0,3627,10,0,2527,223,87,61580,-4,0,1,0,222823,0
222834,3,-2075,220,-79,38,131,13199,3,0,515,136,35249,31,35,127,0,0,3626,38,0,2527,223,87,61590,-4,0,1,0,222823,0
222844,11,-2081,220,-76,40,129,13199,5,5,497,136,35246,22,35,127,0,0,3623,-5,0,2527,223,87,61600,-4,0,1,0,222823,0
222854,14,-2079,219,-75,40,123,13200,11,3,499,160,35237,15,35,127,0,0,3625,-5,0,2527,223,87,61610,-4,0,1,0,222838,0
222864,10,-2075,225,-78,40,125,13199,0,1,506,136,35239,24,35,127,0,0,3626,10,0,2527,223,87,61620,-4,0,1,0,222838,0
222874,19,-2082,228,-81,38,121,13200,-6,-2,503,184,35245,46,35,127,0,0,3621,-10,0,2527,223,87,61630,-4,0,1,0,222885,0
222884,46,-2082,226,-82,34,117,13201,-1,4,474,136,35249,60,35,127,0,0,3619,-65,0,2527,223,87,61640,-4,0,1,0,222885,0
222894,1,-2088,219,-80,43,115,13200,0,-6,451,160,35245,69,35,127,0,0,3622,-10,0,2527,223,87,61650,-4,0,1,0,222885,0
222904,42,-2076,221,-79,42,113,13200,-8,-2,446,136,35240,60,35,127,0,0,3626,27,0,2527,223,87,61660,-4,0,1,0,222885,0
222914,36,-2077,221,-81,31,117,13201,-6,-5,457,160,35237,34,35,127,0,0,3622,16,0,2527,223,87,61670,-4,0,1,0,222885,0
222925,12,-2083,227,-82,35,116,13203,3,-4,471,120,35236,46,35,127,0,0,3623,-32,0,2527,223,87,61681,-4,0,1,0,222885,0
222935,9,-2079,222,-80,35,114,13202,-6,-12,505,112,35237,56,35,127,0,0,3623,10,0,2527,223,87,61691,-4,0,1,0,222917,0
222945,4,-2080,223,-81,33,119,13202,-9,3,461,120,35243,64,35,127,0,0,3623,-21,0,2527,223,87,61701,-4,0,1,0,222917,0
222955,23,-2074,228,-80,31,123,13203,0,2,437,128,35245,62,35,127,0,0,3623,0,0,2527,223,87,61711,-4,0,1,0,222932,0
222965,35,-2081,216,-82,38,120,13203,5,0,427,176,35248,31,35,127,0,0,3623,21,0,2527,223,87,61721,-4,0,1,0,222948,0
222975,58,-2076,225,-83,42,118,13203,0,1,485,152,35240,13,35,127,0,0,3625,21,0,2527,223,87,61731,-4,0,1,0,222948,0
222985,9,-2084,221,-74,43,120,13202,-4,-5,461,120,35242,25,35,127,0,0,3625,-10,0,2527,223,87,61741,-4,0,1,0,222948,0
222995,1,-2082,223,-78,34,120,13204,1,-1,459,152,35243,32,35,127,0,0,3623,21,0,2527,223,87,61751,-4,0,1,0,222979,0
223005,12,-2079,224,-78,36,112,13201,-4,4,432,168,35251,50,35,127,0,0,3625,10,0,2527,223,87,61761,-4,0,1,0,222995,0
223015,29,-2090,223,-83,42,116,13204,2,0,454,120,35253,40,35,127,0,0,3623,0,0,2527,223,87,61771,-4,0,1,0,222995,0
223025,35,-2079,229,-85,32,111,13202,-5,-1,457,120,35252,46,35,127,0,0,3621,-32,0,2527,223,87,61781,-4,0,1,0,223010,0
223035,46,-2084,229,-89,37,107,13204,11,-2,453,120,35248,35,35,127,0,0,3623,-21,0,2527,223,87,61791,-4,0,1,0,223026,0
223045,4,-2076,224,-88,30,120,13204,8,0,483,120,35252,50,35,127,0,0,3625,-10,0,2527,223,87,61801,-4,0,1,0,223041,0
223055,-8,-2085,224,-89,43,120,13204,5,-3,477,120,35248,55,35,127,0,0,3623,-32,0,2527,223,87,61811,-4,0,1,0,223041,0
223065,23,-2080,218,-88,37,117,13203,9,2,435,128,35241,59,35,127,0,0,3625,0,0,2527,223,87,61821,-4,0,1,0,223041,0
223075,5,-2082,221,-85,37,120,13203,4,-3,464,152,35242,66,35,127,0,0,3625,21,0,2527,223,87,61831,-4,0,1,0,223041,0
223085,27,-2076,221,-88,33,117,13202,-10,4,428,136,35232,51,35,127,0,0,3623,-10,0,2527,223,87,61841,-4,0,1,0,223088,0
223095,17,-2080,216,-83,38,112,13203,0,2,424,120,35249,31,35,127,0,0,3623,0,0,2527,223,87,61851,-4,0,1,0,223088,0
223105,23,-2083,217,-86,34,113,13202,-7,2,444,88,35248,26,35,127,0,0,3623,-10,0,2527,223,87,61861,-4,0,1,0,223088,0
223115,23,-2072,224,-90,38,112,13204,13,-3,443,168,35249,20,35,127,0,0,3625,10,0,2527,223,87,61871,-4,0,1,0,223088,0
223125,49,-2080,224,-91,41,111,13204,-3,4,469,192,35234,30,35,127,0,0,3623,0,0,2527,223,87,61881,-4,0,1,0,223104,0
223135,56,-2074,215,-85,35,106,13203,-8,-3,444,168,35234,18,35,127,0,0,3623,-21,0,2527,223,87,61891,-4,0,1,0,223104,0
223146,18,-2083,227,-89,40,112,13203,-1,-7,419,112,35249,11,35,127,0,0,3621,-54,0,2527,223,87,61902,-4,0,1,0,223120,0
223156,22,-2083,222,-87,37,116,13202,-1,1,408,136,35261,25,35,127,0,0,3623,-10,0,2527,223,87,61912,-4,0,1,0,223135,0
223166,25,-2079,218,-93,31,118,13203,6,6,436,128,35259,28,35,127,0,0,3623,-16,0,2527,223,87,61922,-4,0,1,0,223135,0
223176,16,-2085,222,-87,37,118,13202,-5,-2,427,152,35247,44,35,127,0,0,3628,71,0,2527,223,87,61932,-4,0,1,0,223166,0
223186,48,-2077,224,-90,37,114,13206,3,2,465,176,35251,17,35,127,0,0,3621,16,0,2527,223,87,61942,-4,0,1,0,223166,0
223196,52,-2071,223,-89,39,117,13206,4,2,450,128,35249,16,35,127,0,0,3626,-16,0,2527,223,87,61952,-4,0,1,0,223166,0
223206,21,-2080,228,-88,31,120,13204,-9,-4,423,128,35248,19,35,127,0,0,3626,43,0,2527,223,87,61962,-4,0,1,0,223166,0
223216,16,-2077,230,-92,36,119,13206,5,3,457,152,35240,14,35,127,0,0,3625,0,0,2527,223,87,61972,-4,0,1,0,223198,0
223226,32,-2083,227,-88,39,118,13205,7,-3,450,152,35249,15,35,127,0,0,3625,5,0,2527,223,87,61982,-4,0,1,0,223198,0
223236,23,-2079,224,-83,36,125,13206,-4,-3,459,152,35248,4,35,127,0,0,3622,-32,0,2527,223,87,61992,-4,0,1,0,223198,0
223246,24,-2082,213,-87,31,124,13205,1,2,451,128,35248,19,35,127,0,0,3623,-49,0,2527,223,87,62002,-4,0,1,0,223229,0
223256,25,-2067,214,-93,46,121,13205,9,-3,436,152,35245,21,35,127,0,0,3622,-16,0,2527,223,87,62012,-4,0,1,0,223245,0
223266,12,-2066,219,-84,40,121,13204,-5,-1,408,104,35243,29,35,127,0,0,3624,-10,0,2527,223,87,62022,-4,0,1,0,223245,0
223276,11,-2080,221,-85,41,122,13203,7,0,403,112,35238,24,35,127,0,0,3624,21,0,2527,223,87,62032,-4,0,1,0,223245,0
223286,153,-2240,222,-96,41,87,13205,7,4,443,152,35238,36,35,127,0,0,3625,-5,0,2527,223,87,62042,-4,0,1,0,223276,0
223296,871,-2117,30,-138,43,-308,13205,-1,3,435,128,35252,24,35,127,0,0,3616,-71,0,2527,223,87,62052,-4,0,1,0,223276,0
223306,-15,-2147,293,-223,18,-281,13195,-46,-15,176,-88,35251,36,35,127,0,0,3598,-236,0,2527,223,87,62062,-4,0,1,0,223276,0
223316,-55,-2150,513,-163,-38,49,13152,-92,-90,-159,-80,35244,36,35,127,0,0,3598,-16,0,2527,223,87,62072,-4,0,1,0,223291,0
223326,237,-2223,-8,-170,24,-4,13121,-40,-45,52,8,35234,41,35,127,0,0,3590,-38,0,2527,223,87,62082,-4,0,1,0,223307,0
223336,686,-2062,-113,-149,93,-242,13125,-5,96,-75,-40,35236,26,35,127,0,0,3589,-82,0,2527,223,87,62092,-4,0,1,0,223307,0
223346,388,-2069,137,-175,33,-397,13113,-34,35,-299,-208,35236,6,35,127,0,0,3571,-197,0,2527,223,87,62102,-4,0,1,0,223307,0
223356,124,-2054,313,-172,-35,-232,13062,-147,-105,-418,-248,35229,-1,35,127,0,0,3558,-142,0,2527,223,87,62112,-4,0,1,0,223338,0
223366,256,-2106,162,-137,34,-188,12971,-201,-160,-228,-136,35233,-2,35,127,0,0,3551,-54,0,2527,223,87,62122,-4,0,1,0,223354,0
223376,378,-2070,-27,-124,99,-297,12925,-64,4,-213,-120,35234,-3,35,127,0,0,3546,-93,0,2527,223,87,62132,-4,0,1,0,223354,0
223386,554,-2053,137,-136,52,-412,12917,-20,173,-505,-232,35232,3,35,127,0,0,3526,-148,0,2527,223,87,62142,-4,0,1,0,223385,0
223397,310,-2092,231,-157,-29,-315,12859,-176,-36,-504,-328,35228,11,35,127,0,0,3513,-120,0,2527,223,87,62153,-4,0,1,0,223432,0
223407,238,-2118,206,-141,19,-280,12765,-197,-181,-320,-280,35231,9,35,127,0,0,3498,-131,0,2527,223,87,62163,-4,0,1,0,223432,0
223417,334,-2053,102,-114,68,-340,12678,-193,-54,-278,-216,35225,14,35,127,0,0,3487,-142,0,2527,223,87,62173,-4,0,1,0,223432,0
223427,366,-2063,125,-113,55,-380,12609,-135,42,-257,-168,35228,31,35,127,0,0,3476,-142,0,2527,223,87,62183,-4,0,1,0,223432,0
223437,295,-2070,190,-124,5,-386,12562,-107,77,-428,-264,35230,20,35,127,0,0,3460,-120,0,2527,223,87,62193,-4,0,1,0,223432,0
223447,154,-2088,201,-122,19,-403,12506,-121,28,-463,-288,35231,13,35,127,0,0,3447,-120,0,2527,223,87,62203,-4,0,1,0,223432,0
223457,173,-2078,179,-121,54,-451,12440,-146,-35,-391,-256,35229,12,35,127,0,0,3429,-175,0,2527,223,87,62213,-4,0,1,0,223448,0
223467,234,-2055,187,-133,68,-526,12365,-160,-29,-403,-320,35229,25,35,127,0,0,3410,-219,0,2527,223,87,62223,-4,0,1,0,223448,0
223477,227,-2070,245,-185,30,-604,12285,-199,-24,-484,-296,35248,38,35,127,0,0,3392,-186,0,2527,223,87,62233,-4,0,1,0,223448,0
223487,134,-2081,290,-213,25,-675,12203,-190,-35,-436,-360,35254,25,35,127,0,0,3372,-219,0,2527,223,87,62243,-4,0,1,0,223448,0
223497,105,-2091,284,-257,35,-732,12119,-192,-10,-522,-392,35262,0,35,127,0,0,3348,-274,0,2527,223,87,62253,-4,0,1,0,223463,0
223507,133,-2077,240,-280,42,-806,12015,-238,-31,-513,-432,35245,-4,35,127,0,0,3324,-263,0,2527,223,87,62263,-4,0,1,0,223510,0
223517,178,-2075,227,-311,43,-860,11895,-271,-69,-463,-488,35234,4,35,127,0,0,3304,-208,0,2527,223,87,62273,-4,0,1,0,223526,0
223527,215,-2063,206,-318,48,-891,11776,-252,-29,-456,-504,35226,31,35,127,0,0,3278,-296,0,2527,223,87,62283,-4,0,1,0,223526,0
223537,265,-2057,186,-335,37,-866,11650,-292,-5,-445,-536,35231,30,35,127,0,0,3254,-230,0,2527,223,87,62293,-4,0,1,0,223526,0
223547,232,-2093,143,-327,29,-811,11525,-288,-14,-457,-472,35236,30,35,127,0,0,3229,-219,0,2527,223,87,62303,-4,0,1,0,223526,0
223557,261,-2162,102,-332,0,-721,11402,-256,3,-471,-480,35233,8,35,127,0,0,3214,-142,0,2527,223,87,62313,-4,0,1,0,223526,0
223567,191,-2280,46,-362,-4,-658,11289,-239,27,-364,-312,35230,29,35,127,0,0,3203,-131,0,2527,223,87,62323,-4,0,1,0,223541,0
223577,188,-2655,95,-238,58,-622,11189,-203,46,-322,-192,35237,34,35,127,0,0,3203,-10,0,2527,223,87,62333,-4,0,1,0,223557,0
223587,142,-2225,73,-235,186,-604,11132,-75,116,-226,-72,35237,48,35,127,0,0,3205,21,0,2527,223,87,62343,-4,0,1,0,223573,0
223597,345,-1994,65,-206,234,-620,11135,29,210,-195,-16,35232,45,35,127,0,0,3212,76,0,2527,223,87,62353,-4,0,1,0,223573,0
223607,422,-2073,48,-183,148,-599,11146,25,118,-138,16,35233,35,35,127,0,0,3212,76,0,2527,223,87,62363,-4,0,1,0,223604,0
223617,341,-2031,63,-173,40,-518,11154,23,5,41,24,35239,23,35,127,0,0,3218,43,0,2527,223,87,62373,-4,0,1,0,223604,0
223627,330,-2077,90,-182,76,-498,11165,17,3,148,48,35240,26,35,127,0,0,3225,54,0,2527,223,87,62383,-4,0,1,0,223604,0
223637,292,-2050,101,-145,166,-488,11179,43,2,327,152,35236,19,35,127,0,0,3232,32,0,2527,223,87,62393,-4,0,1,0,223619,0
223648,356,-2006,128,-130,188,-481,11225,118,73,281,160,35238,24,35,127,0,0,3239,27,0,2527,223,87,62404,-4,0,1,0,223619,0
223658,420,-1977,144,-130,188,-440,11278,105,70,214,104,35249,6,35,127,0,0,3254,87,0,2527,223,87,62414,-4,0,1,0,223666,0
223668,426,-1978,141,-112,168,-405,11320,80,-14,325,160,35256,3,35,127,0,0,3264,109,0,2527,223,87,62424,-4,0,1,0,223682,0
223678,443,-1989,151,-57,143,-406,11373,128,4,256,96,35246,-14,35,127,0,0,3268,65,0,2527,223,87,62434,-4,0,1,0,223682,0
223688,512,-1966,163,-44,112,-400,11414,106,4,256,80,35242,-3,35,127,0,0,3278,43,0,2527,223,87,62444,-4,0,1,0,223682,0
223698,498,-1745,133,-90,34,-383,11452,79,-27,221,104,35244,-3,35,127,0,0,3273,10,0,2527,223,87,62454,-4,0,1,0,223682,0
223708,421,-1775,179,-141,-78,-390,11487,50,-17,-28,-16,35253,10,35,127,0,0,3276,-32,0,2527,223,87,62464,-4,0,1,0,223682,0
223718,489,-2290,64,55,44,-312,11481,0,-96,31,16,35257,14,35,127,0,0,3275,5,0,2527,223,87,62474,-4,0,1,0,223698,0
223728,371,-1892,107,94,38,-260,11484,-2,-46,92,16,35253,38,35,127,0,0,3275,-76,0,2527,223,87,62484,-4,0,1,0,223698,0
223738,423,-1978,149,92,41,-226,11485,14,15,139,56,35256,24,35,127,0,0,3282,10,0,2527,223,87,62494,-4,0,1,0,223776,0
223748,440,-2024,147,89,68,-223,11486,-6,-2,202,32,35251,24,35,127,0,0,3283,0,0,2527,223,87,62504,-4,0,1,0,223776,0
223758,419,-1930,122,82,96,-197,11487,0,-2,194,56,35242,8,35,127,0,0,3282,16,0,2527,223,87,62514,-4,0,1,0,223776,0
223768,425,-1963,130,102,95,-181,11486,0,1,200,56,35234,5,35,127,0,0,3282,27,0,2527,223,87,62524,-4,0,1,0,223776,0
223778,434,-2019,218,131,65,-165,11487,0,1,216,56,35231,2,35,127,0,0,3282,0,0,2527,223,87,62534,-4,0,1,0,223791,0
223788,450,-2042,257,114,50,-140,11487,-3,0,203,56,35236,1,35,127,0,0,3282,5,0,2527,223,87,62544,-4,0,1,0,223791,0
223798,426,-2057,301,112,13,-113,11486,-7,-7,196,32,35241,-5,35,127,0,0,3283,10,0,2527,223,87,62554,-4,0,1,0,223791,0
223808,430,-2080,284,103,-24,-110,11486,0,-2,198,32,35243,-4,35,127,0,0,3280,-21,0,2527,223,87,62564,-4,0,1,0,223791,0
223818,376,-2080,261,95,-33,-127,11487,8,-2,190,8,35248,-1,35,127,0,0,3281,-49,0,2527,223,87,62574,-4,0,1,0,223791,0
223828,278,-2034,278,94,-25,-109,11487,8,-1,171,32,35250,2,35,127,0,0,3277,-60,0,2527,223,87,62584,-4,0,1,0,223791,0
223838,268,-2122,274,80,-33,-109,11486,4,3,148,56,35264,7,35,127,0,0,3282,0,0,2527,223,87,62594,-4,0,1,0,223823,0
223848,290,-2163,278,63,-18,-153,11487,-5,2,172,32,35259,0,35,127,0,0,3277,-32,0,2527,223,87,62604,-4,0,1,0,223823,0
223858,274,-2147,295,-3,0,-222,11487,16,6,171,32,35249,-1,35,127,0,0,3283,-27,0,2527,223,87,62614,-4,0,1,0,223823,0
223868,236,-2119,299,-30,-5,-242,11487,7,4,191,32,35238,13,35,127,0,0,3283,16,0,2527,223,87,62624,-4,0,1,0,223854,0
223878,268,-2169,291,-44,-47,-275,11488,1,-3,193,32,35234,7,35,127,0,0,3280,-5,0,2527,223,87,62634,-4,0,1,0,223854,0
223888,287,-2188,295,-57,-44,-322,11488,4,1,202,32,35235,8,35,127,0,0,3283,-16,0,2527,223,87,62644,-4,0,1,0,223869,0
223898,286,-2153,298,-109,-66,-331,11488,4,2,264,72,35241,13,35,127,0,0,3284,16,0,2527,223,87,62654,-4,0,1,0,223869,0
223909,325,-2132,250,-141,-83,-318,11494,19,8,369,112,35251,11,35,127,0,0,3293,65,0,2527,223,87,62665,-4,0,1,0,223901,0
223919,310,-2124,216,-146,-100,-321,11508,41,19,494,208,35253,16,35,127,0,0,3304,98,0,2527,223,87,62675,-4,0,1,0,223901,0
223929,318,-2115,189,-160,-67,-360,11553,123,77,434,248,35252,4,35,127,0,0,3311,54,0,2527,223,87,62685,-4,0,1,0,223901,0
223939,358,-2091,197,-182,-47,-378,11610,140,87,360,192,35243,1,35,127,0,0,3320,87,0,2527,223,87,62695,-4,0,1,0,223901,0
223949,380,-2093,209,-195,-41,-362,11680,156,49,241,176,35244,8,35,127,0,0,3333,153,0,2527,223,87,62705,-4,0,1,0,223932,0
223959,412,-2065,205,-199,-36,-390,11726,94,-26,368,192,35241,28,35,127,0,0,3344,109,0,2527,223,87,62715,-4,0,1,0,223932,0
223969,465,-2027,181,-209,-23,-435,11775,115,-41,372,168,35242,42,35,127,0,0,3357,109,0,2527,223,87,62725,-4,0,1,0,223963,0
223979,433,-1963,201,-233,-28,-452,11847,155,48,294,152,35240,36,35,127,0,0,3364,87,0,2527,223,87,62735,-4,0,1,0,223963,0
223989,465,-2016,185,-239,-37,-456,11904,93,14,271,160,35243,29,35,127,0,0,3370,76,0,2527,223,87,62745,-4,0,1,0,223963,0
223999,446,-2054,190,-228,-52,-401,11948,75,-54,260,136,35243,21,35,127,0,0,3381,109,0,2527,223,87,62755,-4,0,1,0,223979,0
224009,441,-2027,203,-197,-55,-400,11975,71,-64,457,208,35247,23,35,127,0,0,3392,98,0,2527,223,87,62765,-4,0,1,0,223979,0
224019,474,-2014,181,-207,-57,-398,12026,105,13,396,232,35255,21,35,127,0,0,3405,120,0,2527,223,87,62775,-4,0,1,0,223994,0
224029,450,-1969,159,-200,-49,-407,12092,139,73,315,160,35257,33,35,127,0,0,3412,76,0,2527,223,87,62785,-4,0,1,0,223994,0
224039,466,-1995,151,-199,-42,-427,12149,104,12,315,160,35241,24,35,127,0,0,3425,98,0,2527,223,87,62795,-4,0,1,0,224026,0
224049,446,-1966,143,-199,-20,-461,12202,121,-34,324,136,35238,15,35,127,0,0,3429,32,0,2527,223,87,62805,-4,0,1,0,224026,0
224059,486,-1982,135,-219,8,-485,12257,111,2,226,80,35240,23,35,127,0,0,3438,65,0,2527,223,87,62815,-4,0,1,0,224041,0
224069,488,-1946,154,-221,15,-507,12269,5,-78,431,168,35245,26,35,127,0,0,3443,32,0,2527,223,87,62825,-4,0,1,0,224041,0
224079,480,-1945,150,-200,23,-506,12276,17,-97,534,184,35244,35,35,127,0,0,3449,65,0,2527,223,87,62835,-4,0,1,0,224072,0
224089,497,-1967,146,-215,45,-515,12306,79,35,429,112,35238,27,35,127,0,0,3451,21,0,2527,223,87,62845,-4,0,1,0,224072,0
224099,547,-1980,159,-224,40,-527,12323,21,21,460,120,35237,23,35,127,0,0,3454,43,0,2527,223,87,62855,-4,0,1,0,224072,0
224109,548,-1935,154,-221,31,-575,12330,16,-49,496,144,35231,4,35,127,0,0,3454,10,0,2527,223,87,62865,-4,0,1,0,224088,0
224119,556,-1933,154,-225,8,-579,12356,75,20,344,128,35239,-2,35,127,0,0,3458,43,0,2527,223,87,62875,-4,0,1,0,224104,0
224129,585,-2002,183,-202,-19,-565,12386,36,44,243,8,35239,-6,35,127,0,0,3456,-43,0,2527,223,87,62885,-4,0,1,0,224135,0
224139,542,-2006,193,-179,-31,-567,12379,-15,-74,255,64,35240,4,35,127,0,0,3456,10,0,2527,223,87,62895,-4,0,1,0,224135,0
224150,542,-2000,187,-201,-39,-577,12379,-16,-39,221,88,35239,2,35,127,0,0,3455,49,0,2527,223,87,62906,-4,0,1,0,224135,0
224160,525,-2025,206,-201,-52,-586,12382,-6,16,253,40,35240,8,35,127,0,0,3454,-27,0,2527,223,87,62916,-4,0,1,0,224151,0
224170,486,-2031,196,-195,-51,-636,12380,-5,-5,191,88,35240,12,35,127,0,0,3455,43,0,2527,223,87,62926,-4,0,1,0,224151,0
224180,538,-2040,190,-208,-60,-657,12381,-13,1,215,64,35241,10,35,127,0,0,3453,0,0,2527,223,87,62936,-4,0,1,0,224151,0
224190,557,-2054,205,-234,-64,-695,12379,-8,3,167,40,35248,9,35,127,0,0,3454,10,0,2527,223,87,62946,-4,0,1,0,224182,0
224200,529,-2058,218,-242,-77,-718,12383,10,-2,244,64,35252,18,35,127,0,0,3453,-43,0,2527,223,87,62956,-4,0,1,0,224182,0
224210,506,-2093,218,-261,-106,-774,12381,0,3,219,64,35248,30,35,127,0,0,3456,5,0,2527,223,87,62966,-4,0,1,0,224182,0
224220,468,-2077,232,-277,-105,-821,12382,-5,2,246,80,35245,22,35,127,0,0,3455,32,0,2527,223,87,62976,-4,0,1,0,224197,0
224230,470,-2054,231,-339,-140,-908,12384,3,2,311,80,35242,28,35,127,0,0,3458,-10,0,2527,223,87,62986,-4,0,1,0,224229,0
224240,444,-2097,243,-361,-160,-964,12385,4,-3,341,56,35248,21,35,127,0,0,3459,-5,0,2527,223,87,62996,-4,0,1,0,224229,0
224250,428,-2194,247,-369,-178,-1029,12385,4,-7,311,104,35246,19,35,127,0,0,3460,43,0,2527,223,87,63006,-4,0,1,0,224229,0
224260,453,-2196,245,-389,-185,-1062,12388,11,8,385,112,35243,30,35,127,0,0,3466,54,0,2527,223,87,63016,-4,0,-24,0,224229,0
224270,252,-2034,293,-412,-240,-1086,12403,49,27,444,160,35237,17,35,127,0,0,3476,76,0,2527,223,87,63026,-4,0,-24,0,224244,0
224280,436,-2188,200,-481,-255,-1059,12442,86,74,375,216,35242,10,35,127,0,0,3485,170,0,2527,223,87,63036,-4,0,-24,0,224260,0
224290,560,-2030,245,-468,-100,-1544,12490,142,60,525,280,35247,15,35,127,0,0,3498,49,0,2527,223,87,63046,-4,0,-23,0,224260,0
224300,219,-1892,290,-555,-184,-1411,12565,168,73,299,176,35247,16,35,127,0,0,3505,76,0,2527,223,87,63056,-4,0,-23,0,224276,0
224310,485,-2288,327,-728,-319,-1293,12629,152,38,309,200,35249,25,35,127,0,0,3527,230,0,2527,223,87,63066,-4,0,-23,0,224291,0
224320,505,-2466,332,-669,-292,-1503,12695,165,-14,444,248,35246,12,35,127,0,0,3545,159,0,2527,223,87,63076,-4,0,-22,0,224291,0
224330,516,-2330,232,-737,-199,-1776,12765,161,19,441,312,35250,38,35,127,0,0,3555,148,0,2527,223,87,63086,-4,0,-22,0,224307,0
224340,282,-2152,293,-770,-309,-1637,12841,165,31,375,288,35241,46,35,127,0,0,3574,219,0,2527,223,87,63096,-4,0,-22,0,224307,0
224350,463,-2208,208,-773,-442,-1611,12917,172,13,561,488,35242,40,35,127,0,0,3611,351,0,2527,223,87,63106,-4,0,-21,0,224338,0
224360,426,-2240,129,-753,-441,-1791,13039,289,89,521,576,35239,32,35,127,0,0,3645,340,0,2527,223,87,63116,-4,0,-21,0,224338,0
224370,436,-2181,42,-841,-349,-1939,13175,311,115,531,616,35237,23,35,127,0,0,3673,318,0,2527,223,87,63126,-4,0,-20,0,224338,0
224380,348,-2089,106,-827,-318,-1947,13325,339,49,524,696,35227,35,35,127,0,0,3708,357,0,2527,223,87,63136,-4,0,-20,0,224354,0
224390,549,-2003,96,-726,-401,-1998,13488,365,60,476,816,35223,29,35,127,0,0,3750,422,0,2527,223,87,63146,-4,0,-19,0,224354,0
224401,569,-2025,-14,-715,-353,-2120,13675,383,40,585,904,35227,27,35,127,0,0,3792,406,0,2527,223,87,63157,-4,0,-19,0,224385,0
224411,484,-2025,-40,-791,-263,-2193,13865,421,43,572,928,35231,32,35,127,0,0,3832,384,0,2527,223,87,63167,-4,0,-18,0,224385,0
224421,549,-2008,-40,-828,-152,-2298,14060,432,47,528,960,35230,17,35,127,0,0,3869,384,0,2527,223,87,63177,-4,0,-18,0,224401,0
224431,671,-1942,-65,-822,-207,-2375,14264,451,32,487,984,35231,28,35,127,0,0,3906,362,0,2527,223,87,63187,-4,0,-17,0,224401,0
224441,791,-2027,-83,-786,-326,-2516,14473,451,22,485,928,35236,25,35,127,0,0,3944,362,0,2527,223,87,63197,-4,0,-17,0,224432,0
224451,779,-2134,-107,-750,-399,-2582,14678,439,-4,454,896,35241,28,35,127,0,0,3974,318,0,2527,223,87,63207,-4,0,-16,0,224432,0
224461,682,-2239,-21,-653,-458,-2612,14875,426,-23,420,856,35238,22,35,127,0,0,4005,329,0,2527,223,87,63217,-4,0,-15,0,224432,0
224471,725,-2328,1,-602,-506,-2630,15068,410,-29,416,800,35228,19,35,127,0,0,4045,395,0,2527,223,87,63227,-4,0,-15,0,224447,0
224481,748,-2269,-5,-565,-539,-2749,15250,394,-26,467,832,35232,26,35,127,0,0,4084,395,0,2527,223,87,63237,-4,0,-14,0,224541,0
224491,602,-2149,8,-541,-584,-2753,15417,409,-18,499,832,35235,20,35,127,0,0,4122,362,0,2527,223,87,63247,-4,0,-14,0,224541,0
224501,670,-2076,-65,-516,-594,-2804,15600,413,1,530,920,35234,11,35,127,0,0,4170,461,0,2527,223,87,63257,-4,0,-13,0,224541,0
224511,738,-2053,-116,-479,-569,-2884,15804,474,44,496,960,35228,20,35,127,0,0,4212,450,0,2527,223,87,63267,-4,0,-12,0,224541,0
224521,794,-2028,-108,-406,-642,-2973,16009,449,49,521,1048,35220,32,35,127,0,0,4258,494,0,2527,223,87,63277,-4,0,-12,0,224541,0
224531,782,-1990,-68,-372,-746,-2989,16222,480,13,522,1104,35222,41,35,127,0,0,4304,472,0,2527,223,87,63287,-4,0,-11,0,224557,0
224541,804,-1967,-43,-320,-958,-2967,16442,496,29,538,1232,35222,38,35,127,0,0,4359,571,0,2527,223,87,63297,-4,0,-10,0,224557,0
224551,806,-1974,-48,-312,-1104,-2939,16684,553,59,576,1320,35222,34,35,127,0,0,4427,703,0,2527,223,87,63307,-4,0,-9,0,224557,0
224561,800,-2027,-34,-270,-1332,-2873,16950,605,94,686,1600,35217,41,35,127,0,0,4502,780,0,2527,223,87,63317,-4,0,-8,0,224557,0
224571,756,-2064,-22,-231,-1479,-2794,17256,701,123,656,1768,35220,38,35,127,0,0,4581,802,0,2527,223,87,63327,-4,0,-8,0,224557,0
224581,754,-2172,61,-161,-1636,-2641,17602,784,153,686,1992,35224,30,35,127,0,0,4669,878,0,2527,223,87,63337,-4,0,-7,0,224557,0
224591,706,-2184,92,-116,-1687,-2497,17987,879,152,712,2288,35233,27,35,127,0,0,4770,1021,0,2527,223,87,63347,-4,0,-6,0,224557,0
224601,675,-2124,118,-76,-1798,-2222,18421,978,173,747,2568,35247,82,35,127,0,0,4880,1131,0,2527,223,87,63357,-4,0,-5,0,224588,0
224611,747,-2027,125,-69,-1825,-2040,18905,1110,183,801,2864,35249,92,35,127,0,0,5005,1274,0,2527,223,87,63367,-4,0,-4,0,224588,0
224621,1049,-1624,264,-34,-2025,-1800,19447,1229,211,784,3152,35235,117,35,127,0,0,5124,1197,0,2527,223,87,63377,-4,0,-2,0,224604,0
224631,1618,-1765,-44,-104,-1790,-1971,20023,1258,169,498,2776,35223,86,35,127,0,0,5165,307,0,2527,223,87,63387,-4,0,-1,0,224604,0
224642,1488,-1856,-153,-225,-1876,-1636,20571,1005,-134,66,1512,35223,60,35,127,0,0,5136,-357,0,2527,223,87,63398,-4,0,0,0,224604,0
224652,1173,-1678,-70,-191,-1952,-1551,20920,672,-462,-125,72,35236,52,35,127,0,0,5046,-944,0,2527,223,87,63408,-4,0,0,0,224682,0
224662,1179,-1598,22,-216,-2250,-1100,20952,-285,-928,-1522,-1152,35251,31,35,127,0,0,4936,-1164,0,2527,223,87,63418,-4,0,1,0,224682,0
224672,849,-1514,116,-191,-2436,-907,20706,-642,-1203,-855,-1992,35245,24,35,127,0,0,4807,-1274,0,2527,223,87,63428,-4,0,3,0,224682,0
224682,891,-1584,28,-225,-2760,-261,20326,-914,-702,-751,-2616,35235,23,35,127,0,0,4684,-1285,0,2527,223,87,63438,-4,0,4,0,224697,0
224692,831,-1649,-22,-220,-2870,119,19839,-1120,-452,-546,-2776,35220,40,35,127,0,0,4585,-1005,0,2527,223,87,63448,-4,0,6,0,224697,0
224702,696,-1651,-26,-153,-2865,606,19305,-1191,-275,-386,-2728,35219,62,35,127,0,0,4492,-845,0,2527,223,87,63458,-4,0,7,0,224697,0
224712,700,-1597,-62,-104,-2711,857,18764,-1175,-83,-282,-2616,35220,56,35,127,0,0,4396,-983,0,2527,223,87,63468,-4,0,8,0,224697,0
224722,656,-1478,-121,-56,-2398,1252,18240,-1148,30,-294,-2488,35222,54,35,127,0,0,4305,-873,0,2527,223,87,63478,-4,0,9,0,224697,0
224732,660,-1455,-179,40,-2133,1488,17737,-1087,70,-287,-2352,35228,61,35,127,0,0,4225,-796,0,2527,223,87,63488,-4,0,11,0,224713,0
224742,645,-1366,-287,156,-1683,1832,17260,-1025,94,-293,-2224,35243,55,35,127,0,0,4149,-796,0,2527,223,87,63498,-4,0,13,0,224729,0
224752,665,-1295,-288,225,-1367,2089,16813,-971,109,-260,-2064,35247,40,35,127,0,0,4080,-741,0,2527,223,87,63508,-4,0,15,0,224729,0
224762,688,-1231,-296,339,-895,2437,16391,-909,101,-295,-1888,35245,25,35,127,0,0,4014,-637,0,2527,223,87,63518,-4,0,16,0,224729,0
224772,684,-1185,-304,410,-584,2686,15991,-866,87,-264,-1760,35232,32,35,127,0,0,3951,-582,0,2527,223,87,63528,-4,0,18,0,224744,0
224782,691,-1223,-300,502,-162,3062,15614,-814,84,-288,-1616,35233,34,35,127,0,0,3897,-554,0,2527,223,87,63538,-4,0,19,0,224760,0
224792,683,-1294,-244,595,101,3303,15263,-755,168,-236,-1408,35235,39,35,127,0,0,3851,-472,0,2527,223,87,63548,-4,0,21,0,224760,0
224802,650,-1414,-226,689,448,3649,14944,-687,58,-255,-1216,35240,45,35,127,0,0,3816,-362,0,2527,223,87,63558,-4,0,23,0,224807,0
224812,664,-1488,-189,751,668,3855,14663,-598,57,-212,-1000,35243,41,35,127,0,0,3786,-291,0,2527,223,87,63568,-4,0,25,0,224807,0
224822,712,-1542,-165,857,973,4178,14417,-515,132,-227,-768,35238,36,35,127,0,0,3752,-258,0,2527,223,87,63578,-4,0,27,0,224807,0
224832,725,-1550,-147,905,1131,4404,14204,-453,137,-285,-600,35235,19,35,127,0,0,3735,-225,0,2527,223,87,63588,-4,0,29,62,224807,0
224842,747,-1616,-126,991,1296,4739,14016,-379,110,-231,-432,35237,6,35,127,0,0,3718,-164,0,2527,223,87,63598,-4,0,30,57,224822,0
224852,771,-1672,-112,1052,1385,4953,13853,-333,102,-182,-296,35249,11,35,127,0,0,3697,-131,0,2527,223,87,63608,-4,0,33,50,224822,0
224862,770,-1776,-74,1132,1485,5234,13722,-271,110,-186,-224,35260,9,35,127,0,0,3683,-142,0,2527,223,87,63618,-4,0,34,46,224838,0
224872,822,-1891,-95,1167,1561,5372,13635,-176,147,-262,-192,35260,15,35,127,0,0,3670,-109,0,2527,223,87,63628,-4,0,37,40,224838,0
224882,1602,-2203,-341,991,1785,4988,13560,-158,112,-223,-184,35245,0,35,127,0,0,3647,-263,0,2527,223,87,63638,-4,0,38,37,224854,0
224892,1457,-2267,-238,995,1782,4954,13492,-180,37,-505,-400,35241,-1,35,127,0,0,3617,-307,0,2527,223,87,63648,-4,0,41,33,224869,0
224903,1210,-2282,-239,1011,1951,4968,13362,-288,-101,-435,-472,35238,0,35,127,0,0,3592,-197,0,2527,223,87,63659,-4,0,42,30,224885,0
224913,1016,-2188,-106,1021,2049,4918,13232,-289,-117,-345,-312,35246,5,35,127,0,0,3583,-21,0,2527,223,87,63669,-4,0,45,27,224885,0
224923,970,-2017,-166,1002,2205,4865,13114,-235,6,-171,-104,35240,22,35,127,0,0,3583,10,0,2527,223,87,63679,-4,0,46,25,224900,0
224933,958,-1948,-191,1035,2446,4811,13061,-75,139,14,-8,35249,5,35,127,0,0,3583,0,0,2527,223,87,63689,-4,0,48,23,224963,0
224943,1002,-1969,-167,1075,2511,4852,13065,18,236,-42,-16,35238,11,35,127,0,0,3585,21,0,2527,223,87,63699,-4,0,50,22,224963,0
224953,1332,-2287,-157,1011,2302,4674,13064,7,94,89,24,35241,-6,35,127,0,0,3590,65,0,2527,223,87,63709,-4,0,52,20,224963,0
224963,1215,-2116,-31,1057,2136,4750,13071,-3,6,130,56,35235,-4,35,127,0,0,3590,32,0,2527,223,87,63719,-4,0,54,18,224963,0
224973,803,-2046,-52,1025,1819,4923,13073,0,-4,248,88,35243,-27,35,127,0,0,3603,153,0,2527,223,87,63729,-4,0,56,17,224963,0
224983,633,-2033,-43,1093,1699,4978,13100,94,33,495,256,35248,-21,35,127,0,0,3621,175,0,2527,223,87,63739,-4,0,57,16,224963,0
224993,561,-2165,-20,1200,1553,4964,13180,182,153,365,240,35249,-14,35,127,0,0,3629,87,0,2527,223,87,63749,-4,0,59,15,224963,0
225003,558,-2179,92,1262,1432,5004,13253,150,97,234,104,35249,3,35,127,0,0,3629,0,0,2527,223,87,63759,-4,0,60,14,224979,0
225013,504,-2095,168,1293,1166,5129,13281,19,-106,184,80,35251,38,35,127,0,0,3632,10,0,2527,223,87,63769,-4,0,62,13,224994,0
225023,432,-2078,167,1314,941,5212,13281,2,-145,257,144,35256,74,35,127,0,0,3638,76,0,2527,223,87,63779,-4,0,63,13,224994,0
225033,406,-2115,111,1371,625,5298,13296,51,-26,396,208,35255,66,35,127,0,0,3647,120,0,2527,223,87,63789,-4,0,65,12,224994,0
225043,351,-2138,88,1436,445,5356,13342,108,96,402,216,35250,47,35,127,0,0,3662,153,0,2527,223,87,63799,-4,0,67,12,225025,0
225053,264,-2157,85,1545,260,5388,13414,165,106,377,264,35247,3,35,127,0,0,3678,153,0,2527,223,87,63809,-4,0,68,11,225025,0
225063,234,-2175,85,1607,184,5396,13487,144,55,430,328,35249,-2,35,127,0,0,3695,153,0,2527,223,87,63819,-4,0,69,11,225025,0
225073,137,-2201,98,1703,117,5366,13561,170,-7,435,336,35247,3,35,127,0,0,3715,219,0,2527,223,87,63829,-4,0,71,10,225072,0
225083,115,-2220,99,1744,77,5354,13644,183,22,491,440,35251,8,35,127,0,0,3737,241,0,2527,223,87,63839,-4,0,72,10,225072,0
225093,35,-2250,115,1798,54,5311,13751,256,53,477,480,35244,-3,35,127,0,0,3768,307,0,2527,223,87,63849,-4,0,74,10,225072,0
225103,46,-2264,111,1813,48,5242,13874,286,87,584,592,35244,2,35,127,0,0,3803,340,0,2527,223,87,63859,-4,0,75,9,225072,0
225113,11,-2287,107,1834,103,5070,14017,325,72,507,688,35242,7,35,127,0,0,3838,384,0,2527,223,87,63869,-4,0,76,9,225088,0
225123,14,-2311,104,1841,164,4890,14180,387,75,480,664,35257,27,35,127,0,0,3864,252,0,2527,223,87,63879,-4,0,77,9,225104,0
225133,27,-2327,134,1811,309,4615,14351,377,54,396,616,35257,47,35,127,0,0,3882,175,0,2527,223,87,63889,-4,0,79,9,225104,0
225143,-27,-2323,169,1751,400,4455,14506,329,-12,327,344,35253,55,35,127,0,0,3889,54,0,2527,223,87,63899,-4,0,80,9,225119,0
225154,-42,-2312,173,1637,474,4272,14632,211,-108,252,184,35247,37,35,127,0,0,3895,60,0,2527,223,87,63910,-4,0,81,9,225119,0
225164,-45,-2304,158,1556,520,4171,14696,114,-177,292,152,35254,21,35,127,0,0,3914,181,0,2527,223,87,63920,-4,0,82,9,225135,0
225174,-11,-2266,79,1437,595,4007,14738,94,-139,466,264,35258,12,35,127,0,0,3932,252,0,2527,223,87,63930,-4,0,83,9,225150,0
225184,-23,-2234,28,1375,654,3884,14818,191,31,461,368,35254,20,35,127,0,0,3956,269,0,2527,223,87,63940,-4,0,84,9,225166,0
225194,51,-2181,6,1286,757,3650,14921,250,116,483,424,35244,26,35,127,0,0,3980,269,0,2527,223,87,63950,-4,0,85,9,225166,0
225204,118,-2168,5,1253,821,3490,15049,276,91,404,464,35238,34,35,127,0,0,4005,280,0,2527,223,87,63960,-4,0,86,9,225166,0
225214,284,-2158,-8,1239,892,3187,15181,300,54,420,496,35240,32,35,127,0,0,4037,269,0,2527,223,87,63970,-4,0,86,9,225260,0
225224,442,-2148,15,1225,885,2953,15317,307,20,416,512,35248,34,35,127,0,0,4062,307,0,2527,223,87,63980,-4,0,87,9,225260,0
225234,678,-2115,84,1182,832,2437,15456,301,25,413,480,35245,29,35,127,0,0,4080,164,0,2527,223,87,63990,-4,0,88,9,225260,0
225244,813,-2103,152,1101,774,1991,15585,278,-18,345,264,35239,16,35,127,0,0,4084,-5,0,2527,223,87,64000,-4,0,88,9,225260,0
225254,1076,-2198,190,875,562,1299,15672,135,-92,156,24,35234,11,35,127,0,0,4080,-49,0,2527,223,87,64010,-4,0,88,9,225260,0
225264,1027,-2192,220,767,434,636,15674,-61,-245,-259,-176,35236,28,35,127,0,0,4059,-159,0,2527,223,87,64020,-4,0,89,9,225275,0
225274,833,-2766,-61,432,352,-386,15595,-207,-329,-263,-248,35236,40,35,127,0,0,4037,-219,0,2527,223,87,64030,-4,0,89,9,225275,0
225284,296,-6114,-666,-289,26,-677,15509,-143,-182,211,496,35233,54,35,127,0,0,4141,1241,0,2684,323,88,4,1,0,88,9,225275,0
225294,679,-3893,311,-313,1389,-2236,15674,566,454,1274,2040,35231,51,35,127,0,0,4330,1895,0,2684,323,88,14,1,0,88,9,225275,0
225304,1011,-992,1205,425,1681,-3075,16104,1077,1021,1058,2784,35231,61,35,127,0,0,4450,1148,0,2684,323,88,24,1,0,87,9,225275,0
225314,277,-1447,836,224,-49,-2369,16620,1120,683,488,2392,35233,71,35,127,0,0,4505,549,0,2684,323,88,34,1,0,87,9,225275,0
225324,-349,-2864,1369,744,-470,-616,17078,979,29,547,2576,35235,75,35,127,0,0,4637,1477,0,2684,323,88,44,1,0,86,9,225307,0
225334,-1476,-1214,144,631,-1216,-166,17591,1232,-27,1078,3544,35227,65,35,127,0,0,4826,1917,0,2684,323,88,54,1,0,85,10,225307,0
225344,-1424,-1040,-993,341,-1114,-1105,18281,1625,458,1038,4272,35214,82,35,127,0,0,5015,1900,0,2684,323,88,64,1,0,85,10,225307,0
225354,-1795,-2611,-1560,108,1344,-2524,19090,1812,581,634,4152,35201,108,35,127,0,0,5139,1126,0,2684,323,88,74,1,0,84,10,225338,0
225364,-1521,-3467,-293,479,2027,-3120,19860,1620,159,210,3328,35214,127,35,127,0,0,5183,351,0,2684,323,88,84,1,0,83,10,225353,0
225374,573,-2833,1302,403,1115,-3593,20495,1294,-345,-3,2192,35225,102,35,127,0,0,5192,109,0,2684,323,88,94,1,0,83,10,225353,0
225384,1061,-2225,982,-226,311,-3428,20966,938,-570,-57,1192,35238,58,35,127,0,0,5186,-16,0,2684,323,88,104,1,0,82,10,225353,0
225395,869,-2998,-32,-769,-361,-3852,21312,594,-589,-89,216,35236,10,35,127,0,0,5139,-538,0,2684,323,88,115,1,0,81,10,225369,0
225405,-340,-1447,-119,-401,189,-4215,21354,-245,-775,-1537,-1216,35241,-6,35,127,0,0,5007,-1395,0,2684,323,88,125,1,0,80,10,225400,0
225415,-7,-2019,299,-208,420,-3726,21092,-672,-1163,-840,-1976,35231,27,35,127,0,0,4899,-1076,0,2684,323,88,135,1,0,79,11,225400,0
225425,845,-2047,502,-183,198,-3163,20716,-889,-789,-646,-2312,35225,48,35,127,0,0,4796,-977,0,2684,323,88,145,1,0,78,11,225400,0
225435,925,-1714,447,-147,4,-2610,20280,-979,-335,-489,-2464,35214,67,35,127,0,0,4710,-900,0,2684,323,88,155,1,0,77,11,225400,0
225445,369,-2170,295,2,-125,-1963,19816,-1024,-158,-341,-2296,35222,67,35,127,0,0,4645,-648,0,2684,323,88,165,1,0,76,11,225416,0
225455,9,-2026,280,162,-106,-1655,19363,-982,-37,-226,-1960,35225,73,35,127,0,0,4592,-516,0,2684,323,88,175,1,0,76,12,225432,0
225465,-112,-1842,-43,196,-21,-1382,18949,-875,88,-160,-1656,35228,70,35,127,0,0,4541,-505,0,2684,323,88,185,1,0,76,12,225463,0
225475,-107,-1937,-68,198,-30,-1268,18585,-770,168,-190,-1368,35230,57,35,127,0,0,4504,-384,0,2684,323,88,195,1,0,76,12,225463,0
225485,-313,-2030,169,223,-39,-1229,18296,-673,186,-167,-1152,35231,27,35,127,0,0,4460,-428,0,2684,323,88,205,1,0,76,12,225463,0
225495,-402,-2037,445,255,8,-1299,18017,-586,175,-248,-1064,35234,41,35,127,0,0,4416,-461,0,2684,323,88,215,1,0,76,12,225463,0
225505,-386,-2028,661,170,53,-1414,17766,-543,136,-297,-1000,35229,39,35,127,0,0,4370,-461,0,2684,323,88,225,1,0,76,12,225494,0
225515,-404,-1909,779,92,60,-1509,17523,-530,58,-326,-1024,35234,38,35,127,0,0,4317,-516,0,2684,323,88,235,1,0,76,12,225494,0
225525,-335,-1999,907,-64,63,-1590,17286,-528,19,-425,-1120,35234,32,35,127,0,0,4269,-516,0,2684,323,88,245,1,0,76,12,225494,0
225535,-226,-1949,988,-173,52,-1669,17041,-545,-13,-361,-1192,35231,23,35,127,0,0,4216,-549,0,2684,323,88,255,1,0,76,12,225510,0
225545,-158,-1951,943,-387,-2,-1759,16784,-567,-34,-377,-1176,35227,24,35,127,0,0,4163,-549,0,2684,323,88,265,1,0,76,12,225525,0
225555,-157,-1954,822,-538,-38,-1835,16523,-581,-24,-427,-1280,35237,30,35,127,0,0,4104,-571,0,2684,323,88,275,1,0,76,12,225525,0
225565,-188,-1984,550,-721,-37,-1930,16252,-603,-28,-373,-1312,35238,38,35,127,0,0,4047,-571,0,2684,323,88,285,1,0,76,12,225525,0
225575,-260,-2030,431,-799,-11,-1983,15969,-610,-39,-389,-1344,35234,26,35,127,0,0,3983,-626,0,2684,323,88,295,1,0,76,12,225619,0
225585,-94,-2048,296,-759,24,-2130,15677,-657,-31,-458,-1424,35221,36,35,127,0,0,3919,-626,0,2684,323,88,305,1,0,76,12,225619,0
225595,-26,-2060,205,-714,40,-2189,15367,-696,-58,-419,-1488,35222,33,35,127,0,0,3856,-637,0,2684,323,88,315,1,0,76,12,225635,0
225605,75,-2079,176,-672,54,-2230,15045,-715,-56,-448,-1600,35223,31,35,127,0,0,3781,-725,0,2684,323,88,325,1,0,76,12,225635,0
225615,108,-2069,217,-661,56,-2210,14708,-755,-51,-452,-1656,35222,21,35,127,0,0,3717,-670,0,2684,323,88,335,1,0,76,12,225635,0
225625,148,-2061,290,-632,16,-2120,14363,-764,-50,-396,-1672,35223,19,35,127,0,0,3649,-681,0,2684,323,88,345,1,0,76,12,225635,0
225635,219,-2045,263,-622,-10,-2089,14017,-770,-17,-403,-1664,35228,24,35,127,0,0,3588,-637,0,2684,323,88,355,1,0,76,12,225635,0
225645,230,-2022,240,-588,-8,-2092,13672,-760,-2,-365,-1584,35230,32,35,127,0,0,3526,-604,0,2684,323,88,365,1,0,76,12,225635,0
225655,202,-2010,264,-588,-11,-2057,13342,-718,32,-359,-1584,35228,28,35,127,0,0,3462,-626,0,2684,323,88,375,1,0,76,12,225635,0
225666,266,-2010,304,-551,-12,-1988,12991,-690,52,-383,-1600,35222,46,35,127,0,0,3399,-620,0,2684,323,88,386,1,0,76,12,225650,0
225676,292,-2015,320,-548,-14,-1986,12681,-680,38,-420,-1568,35225,30,35,127,0,0,3338,-576,0,2684,323,88,396,1,0,76,12,225650,0
225686,313,-2025,357,-529,-12,-1998,12376,-667,26,-449,-1560,35236,42,35,127,0,0,3275,-587,0,2684,323,88,406,1,0,76,12,225666,0
225696,343,-2028,400,-533,-31,-1980,12073,-671,13,-512,-1624,35237,34,35,127,0,0,3217,-593,0,2684,323,88,416,1,0,76,12,225666,0
225706,360,-2008,384,-561,-96,-1910,11762,-683,-15,-504,-1600,35239,39,35,127,0,0,3160,-565,0,2684,323,88,426,1,0,76,12,225681,0
225716,374,-1892,284,-613,-132,-1909,11455,-669,-8,-487,-1560,35230,39,35,127,0,0,3101,-576,0,2684,323,88,436,1,0,76,12,225697,0
225726,319,-2149,226,-644,-138,-1941,11152,-671,16,-450,-1552,35238,27,35,127,0,0,3039,-615,0,2684,323,88,446,1,0,76,12,225713,0
225736,296,-2135,192,-536,-141,-1883,10851,-656,10,-521,-1528,35236,25,35,127,0,0,2987,-488,0,2684,323,88,456,1,0,76,12,225713,0
225746,382,-2046,173,-483,-221,-1838,10560,-622,30,-467,-1344,35237,27,35,127,0,0,2935,-516,0,2684,323,88,466,1,0,76,12,225713,0
225756,308,-2015,136,-497,-414,-1791,10285,-600,52,-434,-1240,35232,32,35,127,0,0,2899,-395,0,2684,323,88,476,1,0,76,12,225744,0
225766,265,-2659,332,-403,-443,-1682,10037,-531,80,-421,-1064,35241,31,35,127,0,0,2866,-307,0,2684,323,88,486,1,0,76,12,225744,0
225776,117,-2467,301,-364,-428,-1645,9818,-460,105,-417,-856,35247,19,35,127,0,0,2848,-186,0,2684,323,88,496,1,0,76,12,225744,0
225786,201,-2153,251,-395,-335,-1769,9633,-389,161,-383,-632,35239,17,35,127,0,0,2836,-175,0,2684,323,88,506,1,0,76,12,225760,0
225796,232,-2068,252,-442,-416,-1859,9478,-323,128,-383,-448,35232,19,35,127,0,0,2813,-159,0,2684,323,88,516,1,0,76,12,225760,0
225806,186,-2045,261,-562,-559,-2032,9359,-242,84,-407,-360,35239,6,35,127,0,0,2801,-186,0,2684,323,88,526,1,0,76,12,225806,0
225816,42,-2169,289,-649,-543,-2155,9270,-172,128,-458,-352,35252,16,35,127,0,0,2790,-148,0,2684,323,88,536,1,0,76,12,225806,0
225826,14,-2373,384,-688,-414,-2339,9188,-184,80,-460,-328,35254,24,35,127,0,0,2771,-159,0,2684,323,88,546,1,0,76,12,225806,0
225836,154,-2348,459,-700,-366,-2453,9106,-186,12,-452,-272,35242,27,35,127,0,0,2760,-87,0,2684,323,88,556,1,0,76,12,225806,0
225846,407,-2334,583,-752,-488,-2530,9038,-132,20,-436,-240,35233,13,35,127,0,0,2749,-60,0,2684,323,88,566,1,0,76,12,225822,0
225856,480,-2379,595,-802,-620,-2501,8983,-125,55,-348,-128,35241,7,35,127,0,0,2746,-27,0,2684,323,88,576,1,0,76,12,225838,0
225866,251,-2312,478,-868,-771,-2583,8946,-82,49,-216,-32,35248,-6,35,127,0,0,2755,65,0,2684,323,88,586,1,0,76,12,225853,0
225876,248,-2451,348,-946,-842,-2616,8947,22,101,1,72,35249,-4,35,127,0,0,2776,241,0,2684,323,88,596,1,0,76,12,225853,0
225886,168,-2548,334,-975,-813,-2714,8967,53,111,394,232,35247,-9,35,127,0,0,2794,258,0,2684,323,88,606,1,0,76,12,225853,0
225897,140,-2461,266,-1032,-775,-2859,9046,202,128,457,368,35254,-13,35,127,0,0,2830,318,0,2684,323,88,617,1,0,76,12,225869,0
225907,115,-2370,248,-1069,-745,-2974,9170,286,200,393,464,35260,-19,35,127,0,0,2869,395,0,2684,323,88,627,1,0,76,12,225900,0
225917,177,-2292,243,-1098,-803,-3139,9312,323,128,443,624,35252,-9,35,127,0,0,2913,428,0,2684,323,88,637,1,0,9,0,225900,0
225927,178,-2329,163,-1168,-809,-3214,9477,365,76,423,744,35244,24,35,127,0,0,2966,549,0,2684,323,88,647,1,0,12,0,225900,0
225937,-31,-2349,160,-1226,-882,-3258,9661,414,70,472,928,35232,44,35,127,0,0,3023,571,0,2684,323,88,657,1,0,15,0,225916,0
225947,-278,-2195,173,-1215,-797,-3179,9871,490,88,525,1280,35236,42,35,127,0,0,3117,999,0,2684,323,88,667,1,0,16,0,225916,0
225957,598,-1996,-82,-1156,-813,-3935,10153,684,182,777,1864,35242,42,35,127,0,0,3221,955,0,2684,323,88,677,1,0,19,0,226025,0
225967,-593,-1988,120,-1129,-905,-3805,10516,819,308,463,1776,35241,46,35,127,0,0,3295,802,0,2684,323,88,687,1,0,21,0,226025,0
225977,155,-2714,89,-1165,-1347,-3733,10890,839,179,539,2216,35236,52,35,127,0,0,3414,1274,0,2684,323,88,697,1,0,23,0,226025,0
225987,317,-2647,-60,-1143,-1061,-4506,11327,1010,140,633,2512,35223,40,35,127,0,0,3517,999,0,2684,323,88,707,1,0,25,0,226025,0
225997,-494,-2722,-234,-893,-1281,-4861,11801,1035,208,391,2392,35226,44,35,127,0,0,3601,856,0,2684,323,88,717,1,0,28,0,226041,0
226007,-622,-2902,-189,-735,-1256,-4952,12260,1004,38,426,2520,35227,36,35,127,0,0,3706,1087,0,2684,323,88,727,1,0,31,0,226041,0
226017,480,-3060,-155,-598,-1276,-5999,12738,1090,2,608,2792,35227,52,35,127,0,0,3812,1021,0,2684,323,88,737,1,0,34,0,226041,0
226027,431,-3202,184,-516,-1488,-6449,13250,1130,112,428,2560,35226,55,35,127,0,0,3884,703,0,2684,323,88,747,1,0,37,0,226041,0
226037,237,-3710,645,-352,-2154,-6201,13741,1049,26,404,2384,35224,52,35,127,0,0,3963,812,0,2684,323,88,757,1,0,40,0,226041,0
226047,214,-3534,767,-321,-2602,-5890,14209,1026,-97,521,2512,35225,47,35,127,0,0,4073,1142,0,2684,323,88,767,1,0,43,0,226041,0
226057,273,-3346,427,-409,-3123,-5760,14705,1122,7,705,2856,35223,54,35,127,0,0,4209,1340,0,2684,323,88,777,1,0,48,0,226041,0
226067,228,-3439,339,-390,-3287,-5629,15268,1280,187,760,3272,35224,51,35,127,0,0,4368,1614,0,2684,323,88,787,1,0,51,0,226041,0
226077,-114,-3116,523,-293,-3814,-4826,15912,1486,279,963,3848,35231,71,35,127,0,0,4550,1812,0,2684,323,88,797,1,0,57,0,226041,0
226087,-476,-2676,949,-143,-4875,-3950,16646,1663,325,970,4448,35237,89,35,127,0,0,4763,2186,0,2684,323,88,807,1,0,61,0,226088,0
226097,-163,-2588,1021,-299,-5867,-2435,17500,1987,396,1301,5616,35221,116,35,127,0,0,5051,2999,0,2684,323,88,817,1,0,68,0,226088,0
226107,962,-3030,395,-452,-5590,-2356,18581,2530,666,1376,6576,35198,160,35,127,0,0,5319,2625,0,2684,323,88,827,1,0,73,0,226088,0
226117,1410,-2747,9,-546,-4866,-2163,19791,2645,714,662,6232,35180,188,35,127,0,0,5488,1527,0,2684,323,88,837,1,0,81,0,226088,0
226127,1238,-2048,19,-380,-3728,-1934,20883,2226,26,-475,2400,35205,199,35,127,0,0,5512,87,0,2684,323,88,847,1,0,86,0,226088,0
226137,644,-1306,-190,-246,-2677,-1509,21384,436,-1309,-3517,-176,35242,128,35,127,0,0,5414,-1109,0,2684,323,88,857,0,0,94,0,226103,0
226148,512,-1199,-207,-149,-1714,-1725,21387,202,-2176,1117,832,35262,4,35,127,0,0,5195,-2131,0,2684,323,88,868,0,0,102,67,226135,0
226158,527,-1278,-132,-64,-1675,-636,21459,-54,-487,-1027,-1288,35263,3,35,127,0,0,4993,-1988,0,2684,323,88,878,0,0,107,64,226135,0
226168,678,-1434,-58,-24,-1468,-48,21173,-799,-613,-1168,-2680,35238,43,35,127,0,0,4828,-1746,0,2684,323,88,888,0,0,115,60,226135,0
226178,362,-1205,33,144,-1289,916,20672,-1214,-1130,-942,-3328,35227,69,35,127,0,0,4683,-1362,0,2684,323,88,898,0,0,120,58,226150,0
226188,405,-1136,-34,180,-1142,1477,20060,-1390,-627,-567,-3344,35221,73,35,127,0,0,4579,-1043,0,2684,323,88,908,0,0,128,53,226166,0
226198,503,-1128,-189,272,-698,2303,19423,-1391,-260,-260,-3024,35223,57,35,127,0,0,4505,-719,0,2684,323,88,918,0,0,134,51,226181,0
226208,551,-1151,-209,397,-294,2781,18821,-1283,12,-111,-2496,35232,34,35,127,0,0,4436,-664,0,2684,323,88,928,0,0,142,47,226181,0
226218,582,-1082,-276,600,344,3450,18288,-1121,198,-86,-2152,35242,53,35,127,0,0,4369,-675,0,2684,323,88,938,0,0,147,44,226197,0
226228,576,-1027,-283,687,765,3884,17824,-974,265,-125,-1904,35240,48,35,127,0,0,4303,-664,0,2684,323,88,948,0,0,155,40,226197,0
226238,605,-932,-319,790,1267,4545,17420,-852,248,-193,-1744,35239,46,35,127,0,0,4236,-659,0,2684,323,88,958,0,0,161,38,226228,0
226248,609,-888,-350,852,1540,4980,17051,-798,180,-274,-1624,35234,32,35,127,0,0,4180,-538,0,2684,323,88,968,0,0,169,34,226228,0
226258,608,-923,-351,947,1893,5589,16703,-753,109,-258,-1504,35243,19,35,127,0,0,4119,-604,0,2684,323,88,978,0,0,174,32,226244,0
226268,585,-1019,-335,1027,2072,5980,16380,-696,83,-294,-1368,35250,30,35,127,0,0,4072,-510,0,2684,323,88,988,0,0,182,29,226244,0
226278,547,-1166,-227,1184,2272,6542,16070,-669,74,-276,-1280,35250,23,35,127,0,0,4026,-417,0,2684,323,88,998,0,0,188,27,226259,0
226288,539,-1247,-179,1276,2342,6898,15782,-613,63,-253,-1104,35243,31,35,127,0,0,3983,-417,0,2684,323,88,1008,0,0,196,24,226275,0
226298,532,-1309,-78,1396,2369,7433,15519,-567,92,-264,-936,35234,36,35,127,0,0,3958,-263,0,2684,323,88,1018,0,0,201,22,226275,0
226308,555,-1318,-58,1483,2373,7782,15277,-509,89,-215,-664,35235,29,35,127,0,0,3938,-164,0,2684,323,88,1028,0,0,209,19,226275,0
226318,564,-1337,-53,1638,2380,8277,15083,-404,127,-217,-400,35238,12,35,127,0,0,3922,-115,0,2684,323,88,1038,0,0,215,17,226291,0
226328,539,-1366,-59,1738,2390,8604,14925,-319,149,-175,-192,35245,6,35,127,0,0,3911,-76,0,2684,323,88,1048,0,0,223,15,226291,0
226338,533,-1389,-55,1899,2453,9076,14825,-191,179,-99,-80,35244,0,35,127,0,0,3912,-21,0,2684,323,88,1058,0,0,228,14,226306,0
226348,598,-1465,-76,1998,2506,9329,14803,13,256,-4,-16,35240,27,35,127,0,0,3908,10,0,2684,323,88,1068,0,0,236,12,226338,0
226358,546,-1600,-51,2144,2554,9725,14811,-4,216,-169,-32,35237,15,35,127,0,0,3905,-10,0,2684,323,88,1078,0,0,241,10,226338,0
226368,460,-1705,5,2243,2630,9917,14808,4,27,-163,-48,35236,30,35,127,0,0,3910,5,0,2684,323,88,1088,0,0,249,9,226338,0
226378,417,-1837,72,2371,2794,10148,14810,10,-7,-123,-32,35233,32,35,127,0,0,3908,5,0,2684,323,88,1098,0,0,255,8,226353,0
226388,366,-1946,116,2456,2858,10294,14809,3,4,-98,-8,35236,58,35,127,0,0,3911,38,0,2684,323,88,1108,0,0,262,6,226353,0
226399,429,-2146,135,2564,2916,10571,14822,47,20,131,136,35242,55,35,127,0,0,3930,186,0,2684,323,88,1119,0,0,267,5,226400,0
226409,456,-2312,177,2698,2906,10782,14864,101,81,417,232,35247,44,35,127,0,0,3955,241,0,2684,323,88,1129,0,0,275,4,226400,0
226419,429,-2441,209,2772,2905,10824,14949,230,135,477,384,35243,23,35,127,0,0,3985,318,0,2684,323,88,1139,0,0,280,4,226400,0
226429,463,-2686,261,2832,2916,10764,15081,298,179,443,496,35237,18,35,127,0,0,4018,296,0,2684,323,88,1149,0,0,287,3,226400,0
226439,447,-2855,277,2844,2873,10656,15227,324,112,424,536,35239,24,35,127,0,0,4051,307,0,2684,323,88,1159,0,0,292,2,226400,0
226449,606,-3097,271,2769,2633,10422,15388,349,49,395,616,35245,30,35,127,0,0,4089,373,0,2684,323,88,1169,0,0,299,2,226431,0
226459,700,-3319,290,2675,2430,10154,15548,349,16,444,624,35246,36,35,127,0,0,4122,362,0,2684,323,88,1179,0,0,303,2,226431,0
226469,944,-3716,293,2509,2258,9703,15713,352,10,397,600,35236,34,35,127,0,0,4150,285,0,2684,323,88,1189,0,0,309,1,226431,0
226479,1110,-3817,382,2345,2018,9383,15886,368,22,336,528,35224,45,35,127,0,0,4172,186,0,2684,323,88,1199,0,0,312,1,226463,0
226489,1289,-3779,608,1896,1317,8365,16020,315,-33,322,352,35224,32,35,127,0,0,4183,32,0,2684,323,88,1209,0,0,317,1,226463,0
226499,1460,-3749,602,1618,603,7586,16145,246,-100,188,136,35224,29,35,127,0,0,4181,-10,0,2684,323,88,1219,0,0,319,1,226463,0
226509,1974,-3379,433,1546,-683,5837,16202,37,-197,-208,-184,35236,7,35,127,0,0,4157,-274,0,2684,323,88,1229,0,0,322,1,226494,0
226519,2189,-2914,352,1528,-1593,4338,16137,-165,-381,-392,-352,35240,5,35,127,0,0,4119,-450,0,2684,323,88,1239,0,0,323,1,226494,0
226529,2117,-2342,278,842,-2872,1988,16031,-272,-288,-546,-624,35241,5,35,127,0,0,4069,-472,0,2684,323,88,1249,0,0,324,1,226510,0
226539,1802,-2535,234,202,-3215,395,15872,-370,-180,-482,-808,35233,-2,35,127,0,0,4023,-483,0,2684,323,88,1259,0,0,324,1,226514,0
226549,1424,-3203,26,-698,-3198,-1773,15682,-419,-148,-470,-800,35235,15,35,127,0,0,3992,-307,0,2684,323,88,1269,0,0,323,1,226529,0
226559,1346,-3489,-78,-1053,-2797,-2998,15488,-429,-58,-347,-688,35240,37,35,127,0,0,3972,-142,0,2684,323,88,1279,0,0,321,1,226545,0
226569,1193,-3669,-333,-1511,-1882,-4332,15301,-397,8,-299,-464,35238,49,35,127,0,0,3959,-87,0,2684,323,88,1289,0,0,321,1,226545,0
226579,-2366,-10845,-1509,-2946,-3444,-2795,15146,-311,88,431,872,35230,37,35,127,0,0,4168,2548,0,1578,516,89,3,1,1,321,1,226545,0
226589,-540,-3068,1997,-259,2037,-4370,15412,949,940,1847,3400,35228,43,35,127,0,0,4354,1713,0,1578,516,89,13,1,1,321,1,226592,0
226599,-498,1772,1693,836,960,-5700,16075,1601,1642,893,3608,35220,91,35,127,0,0,4352,-142,0,1578,516,89,23,1,1,321,1,226592,0
226609,505,-2166,1117,-305,-936,-2824,16756,1447,661,530,3864,35215,102,35,127,0,0,4453,1219,0,1578,516,89,33,1,1,321,1,226592,0
226619,-464,-522,-785,-754,-49,-2088,17517,1859,148,1597,5536,35198,131,35,127,0,0,4651,2065,0,1578,516,89,43,1,1,321,1,226592,0
226629,-2700,-1906,-2434,-1573,1781,-3278,18584,2550,841,1476,6664,35181,172,35,127,0,0,4831,1713,0,1578,516,89,53,1,1,321,1,226592,0
226639,-2294,-2768,-2907,-913,3250,-4946,19835,2770,921,679,6656,35181,194,35,127,0,0,4930,878,0,1578,516,89,63,1,1,321,1,226639,0
226649,-520,-2636,-470,-340,4423,-5517,21032,2556,161,265,5960,35188,173,35,127,0,0,4950,131,0,1578,516,89,73,1,1,321,1,226639,0
226659,1316,-3061,1324,-377,2750,-5305,22125,2332,-337,71,4968,35205,99,35,127,0,0,4968,230,0,1578,516,89,83,1,1,321,1,226639,0
226669,2267,-2394,1336,-996,261,-5007,23099,2033,-429,-130,3048,35215,47,35,127,0,0,4957,-175,0,1578,516,89,93,1,1,321,1,226639,0
226680,3035,-2609,294,-1609,-433,-5219,23913,1394,-722,-575,920,35232,6,35,127,0,0,4883,-834,0,1578,516,89,104,1,1,321,1,226654,0
226690,554,-1064,-757,-1334,22,-5188,24192,37,-1384,-2638,-1448,35247,17,35,127,0,0,4709,-1647,0,1578,516,89,114,1,1,321,1,226732,0
226700,-213,-1692,-539,-888,342,-4644,23889,-799,-2079,-369,-920,35255,32,35,127,0,0,4587,-1186,660,1578,516,89,124,1,1,321,1,226732,0
226710,1726,-1983,389,-717,-310,-3392,23463,-1044,-1205,327,-1336,35245,45,35,127,0,0,4515,-818,860,1578,516,89,134,1,1,321,1,226732,0
226720,1096,-2247,592,-652,-559,-3090,22864,-1435,-559,458,-2080,35236,23,35,127,0,0,4419,-983,1060,1578,516,89,144,1,1,321,1,226732,0
226730,-28,-2468,28,-494,-15,-3109,22191,-1455,-465,502,-1744,35234,-7,35,127,0,0,4311,-1054,1260,1578,516,89,154,1,1,321,1,226732,0
226740,-463,-2376,-179,-339,490,-2968,21628,-1127,136,729,-792,35240,-16,35,127,0,0,4209,-1049,1460,1578,516,89,164,1,1,321,1,226748,0
226750,-127,-2102,208,-237,67,-2268,21234,-758,569,1047,-152,35240,-29,35,127,0,0,4129,-769,1500,1578,516,89,174,1,1,321,1,226748,0
226760,391,-2164,217,-214,-539,-1787,21002,-423,628,1194,-16,35239,-27,35,127,0,0,4090,-307,1500,1578,516,89,184,1,1,321,1,226748,0
226770,216,-2075,-411,-259,-592,-1560,20807,-479,349,873,-104,35237,-30,35,127,0,0,4060,-324,1500,1578,516,89,194,1,1,321,1,226748,0
226780,-328,-2001,-511,-78,-113,-1810,20509,-738,-186,684,-384,35244,-22,35,127,0,0,4008,-571,1500,1578,516,89,204,1,1,321,1,226748,0
226790,-181,-1938,-40,67,553,-2002,20120,-885,-293,728,-520,35257,-14,35,127,0,0,3937,-708,1500,1578,516,89,214,1,1,321,1,226779,0
226800,261,-2073,579,41,603,-1825,19736,-789,-185,855,-200,35266,-9,35,127,0,0,3862,-686,1500,1578,516,89,224,1,1,321,1,226779,0
226810,328,-2106,823,-9,183,-1263,19496,-396,200,1226,72,35261,-1,35,127,0,0,3814,-428,1500,1578,516,89,234,1,1,321,1,226779,0
226820,798,-2141,854,-108,-312,-889,19410,-143,595,965,120,35252,7,35,127,0,0,3802,-82,1500,1578,516,89,244,1,1,321,1,226811,0
226830,526,-2003,512,-163,-530,-627,19327,-220,301,896,56,35242,-8,35,127,0,0,3790,-115,1500,1578,516,89,254,1,1,321,1,226811,0
226840,-34,-2002,317,-216,-242,-735,19199,-288,-90,853,40,35237,-11,35,127,0,0,3772,-225,1500,1578,516,89,264,1,1,321,1,226811,0
226850,95,-1975,69,-278,69,-845,19049,-344,-126,856,8,35236,-15,35,127,0,0,3748,-252,1500,1578,516,89,274,1,1,321,1,226811,0
226860,391,-2002,114,-289,47,-806,18888,-353,-72,868,24,35247,31,35,127,0,0,3717,-302,1500,1578,516,89,284,1,1,321,1,226842,0
226870,275,-2051,34,-249,-132,-632,18754,-270,32,901,64,35245,32,35,127,0,0,3696,-219,1500,1578,516,89,294,1,1,321,1,226857,0
226880,83,-2053,-66,-185,-164,-577,18657,-197,125,902,104,35242,39,35,127,0,0,3682,-115,1500,1578,516,89,304,1,1,321,1,226857,0
226890,165,-2069,61,-95,-66,-633,18575,-195,98,895,72,35240,25,35,127,0,0,3662,-120,1500,1578,516,89,314,1,1,321,1,226857,0
226901,68,-2088,258,-106,-164,-750,18459,-240,-29,861,72,35246,20,35,127,0,0,3640,-186,1500,1578,516,89,325,1,1,321,1,226873,0
226911,131,-2070,365,-162,-202,-873,18346,-273,-53,884,32,35252,20,35,127,0,0,3618,-230,1500,1578,516,89,335,1,1,321,1,226904,0
226921,-233,-2082,459,-301,-282,-1149,18196,-354,-77,868,-8,35248,11,35,127,0,0,3592,-274,1500,1578,516,89,345,1,1,321,1,226904,0
226931,-441,-2024,497,-378,-324,-1429,18003,-447,-154,855,-64,35246,19,35,127,0,0,3559,-329,1500,1578,516,89,355,1,1,321,1,226904,0
226941,-382,-2109,506,-455,-494,-1885,17772,-540,-149,841,-112,35247,3,35,127,0,0,3520,-406,1500,1578,516,89,365,1,1,321,1,226904,0
226951,-414,-2378,475,-545,-464,-2160,17490,-645,-170,756,-184,35256,7,35,127,0,0,3467,-527,1500,1578,516,89,375,1,1,321,1,226935,0
226961,-762,-2322,496,-745,-216,-2465,17206,-604,-101,915,-96,35267,6,35,127,0,0,3414,-527,1500,1578,516,89,385,1,1,321,1,226935,0
226971,-331,-2456,466,-860,-168,-2592,16975,-472,96,1030,-48,35263,6,35,127,0,0,3368,-439,1500,1578,516,89,395,1,1,321,1,226935,0
226981,207,-2207,415,-871,-329,-2782,16767,-455,156,895,-48,35254,-5,35,127,0,0,3331,-395,1500,1578,516,89,405,1,1,321,1,226967,0
226991,371,-2165,292,-883,-523,-2845,16548,-493,26,881,-72,35246,2,35,127,0,0,3289,-395,1530,1578,516,89,415,1,1,321,1,226967,0
227001,327,-2220,145,-908,-675,-2959,16314,-526,-57,941,-64,35248,-5,35,127,0,0,3243,-450,1810,1578,516,89,425,1,1,321,1,226982,0
227011,234,-2327,200,-900,-770,-2982,16104,-421,4,1182,80,35249,-13,35,127,0,0,3205,-373,2120,1578,516,89,435,1,1,321,1,226982,0
227021,63,-2444,205,-943,-922,-2754,15996,-146,246,1372,248,35250,-22,35,127,0,0,3188,-142,2460,1578,516,89,445,1,1,321,1,226998,0
227031,102,-2347,246,-951,-967,-2729,15981,2,383,1486,416,35254,-2,35,127,0,0,3183,0,2690,1578,516,89,455,1,1,321,1,226998,0
227041,30,-2147,116,-917,-966,-2913,15987,-3,216,1666,408,35253,5,35,127,0,0,3186,21,2890,1578,516,89,465,1,1,321,1,227014,0
227051,54,-2227,-58,-959,-948,-3055,15986,2,16,1752,448,35250,18,35,127,0,0,3183,0,3110,1578,516,89,475,1,1,321,1,227092,0
227061,88,-2354,109,-1044,-869,-3244,15991,9,1,1888,504,35248,11,35,127,0,0,3183,-10,3360,1578,516,89,485,1,1,321,1,227092,0
227071,28,-2175,172,-1180,-877,-3399,16001,31,23,2013,656,35244,25,35,127,0,0,3188,32,3640,1578,516,89,495,1,1,321,1,227107,0
227081,58,-2586,189,-1329,-810,-3505,16049,143,74,2050,1088,35235,38,35,127,0,0,3194,98,3940,1578,516,89,505,1,1,321,1,227107,0
227091,-24,-2665,230,-1380,-720,-3535,16152,272,188,2315,1472,35219,49,35,127,0,0,3216,252,4270,1578,516,89,515,1,1,321,1,227107,0
227101,-103,-2446,298,-1499,-660,-3615,16336,455,267,2520,2024,35211,73,35,127,0,0,3249,362,4660,1578,516,89,525,1,1,321,1,227123,0
227111,-383,-2436,308,-1603,-743,-3565,16641,773,380,2831,3024,35199,130,35,127,0,0,3304,582,5110,1578,516,89,535,1,1,321,1,227123,0
227121,-94,-2564,421,-1691,-923,-3525,17103,1112,534,3199,3888,35181,194,35,127,0,0,3388,867,5660,1578,516,89,545,1,1,321,1,227123,0
227131,-106,-2511,392,-1727,-1082,-3547,17702,1400,572,3533,4688,35160,284,35,127,0,0,3495,1120,6340,1578,516,89,555,1,1,321,1,227123,0
227141,-325,-2520,372,-1789,-1226,-3660,18408,1619,476,3940,5216,35131,383,35,127,0,0,3621,1263,7190,1578,516,89,565,1,1,321,1,227139,0
227152,-533,-2548,378,-1767,-1313,-3871,19287,1819,366,4486,5944,35102,506,35,127,0,0,3780,1417,8280,1578,516,89,576,1,1,321,1,227139,0
227162,-687,-2547,316,-1746,-1398,-4215,20162,1967,301,4931,6480,35071,648,35,127,0,0,3932,1565,8980,1578,516,89,586,1,1,321,1,227139,0
227172,-942,-2448,322,-1752,-1438,-4319,21083,2045,233,5387,6864,35042,783,35,127,0,0,4101,1691,9740,1578,516,89,596,1,1,321,1,227139,0
227182,-1054,-2276,165,-1664,-1650,-4961,22068,2237,203,5812,7408,35000,932,35,127,0,0,4281,1845,10560,1578,516,89,606,1,1,321,1,227170,0
227192,-977,-2320,109,-1611,-2007,-5481,23179,2520,367,6382,7944,34946,1094,35,127,0,0,4481,2032,11440,1578,516,89,616,1,1,321,1,227185,0
227202,-632,-3429,735,-2094,-2867,-5532,24349,2576,367,6771,8088,34877,1281,35,127,0,0,4671,1950,12330,1578,516,89,626,1,1,321,1,227185,0
227212,-1095,-4708,865,-2014,-2701,-6036,25522,2567,111,7001,8112,34819,1441,35,127,0,0,4871,2032,12080,1578,516,89,636,1,1,321,1,227185,0
227222,-712,-4822,544,-2514,-2415,-7170,26629,2352,-109,6906,7312,34785,1530,35,127,0,0,5062,1933,11580,1578,516,89,646,1,1,321,1,227185,0
227232,-575,-4559,1012,-2691,-2400,-7685,27580,1978,-424,6392,6312,34800,1489,35,127,0,0,5225,1631,10810,1578,516,89,656,1,1,321,1,227248,0
227242,-1072,-4266,1205,-2571,-3094,-8189,28389,1713,-582,5795,5744,34851,1354,35,127,0,0,5371,1433,9660,1578,516,89,666,1,1,321,1,227248,0
227252,-959,-4494,1300,-2614,-3594,-8034,29135,1613,-391,5046,5288,34904,1137,35,127,0,0,5521,1455,7610,1578,516,89,676,1,1,321,1,227248,0
227262,-925,-4576,1317,-2516,-4653,-7771,29841,1519,-189,3635,4344,34962,906,35,127,0,0,5662,1400,3790,1578,516,89,686,1,1,321,1,227248,0
227272,-952,-3919,1626,-2352,-5331,-7296,30440,1221,-274,1710,2880,35024,634,35,127,0,0,5785,1192,1470,1578,516,89,696,1,1,321,1,227248,0
227282,-1011,-2670,1889,-1361,-4288,-5947,30927,1036,-435,592,2232,35102,374,35,127,0,0,5880,966,110,1578,516,89,706,1,1,321,1,227264,0
227292,-975,-2354,-678,-1147,-2050,-5038,31092,-450,-737,-3383,-3328,35165,178,35,127,0,0,5919,357,0,1578,516,89,716,1,1,321,1,227264,0
227302,828,-2801,-807,-1426,1513,-5889,30307,-2145,-2572,-1984,-7576,35195,147,35,127,0,0,5776,-1472,0,1578,516,89,726,0,1,321,1,227264,0
227312,1416,-2285,19,-540,2607,-6412,28726,-4046,-3354,-3356,-10608,35147,359,35,127,0,0,5476,-3158,0,1578,516,89,736,0,1,321,1,227295,0
227322,705,-1576,-171,-187,2589,-5912,26755,-4421,-2358,-557,-10664,35125,447,35,127,0,0,5107,-3581,0,1578,516,89,746,0,1,321,1,227295,0
