state_time,accelx,accely,accelz,gyrox,gyroy,gyroz,mot_ang,mot_vel,mot_acc,mot_cur,mot_volt,batt_volt,batt_curr,temperature,status_mn,status_ex,status_re,ank_ang,ank_vel,ank_torque,peak_ank_torque,step_energy,step_count,step_time,gait_state,movement,speed,incline,sys_time,eventFlags
358445,154,-2040,179,-70,-7,-42,10424,-9,-15,41,16,35366,-109,35,127,0,0,3067,10,0,1139,0,172,23597,-4,0,69,-11,358480,0
358455,161,-2039,175,-79,-9,-38,10426,6,7,71,-32,35368,-106,35,127,0,0,3067,0,0,1139,0,172,23607,-4,0,69,-11,358480,0
358465,162,-2043,172,-75,-12,-46,10424,-5,-4,70,-24,35373,-98,35,127,0,0,3067,21,0,1139,0,172,23617,-4,0,69,-11,358480,0
358475,157,-2043,169,-74,-10,-42,10427,5,-1,102,32,35370,-92,35,127,0,0,3067,-32,0,1139,0,172,23627,-4,0,69,-11,358480,0
358485,135,-2050,172,-80,-12,-45,10424,-9,-4,45,48,35368,-105,35,127,0,0,3067,10,0,1139,0,172,23637,-4,0,69,-11,358480,0
358495,179,-2040,165,-79,-10,-49,10426,-19,-4,81,0,35374,-109,35,127,0,0,3069,0,0,1139,0,172,23647,-4,0,69,-11,358480,0
358505,162,-2038,167,-76,-15,-47,10426,-2,-3,44,24,35369,-116,34,127,0,0,3069,32,0,1139,0,172,23657,-4,0,69,-11,358480,0
358515,148,-2042,169,-82,-14,-46,10428,17,-1,109,0,35376,-107,34,127,0,0,3067,-32,0,1139,0,172,23667,-4,0,69,-11,358496,0
358525,130,-2047,169,-82,-18,-41,10425,-11,0,63,16,35370,-120,35,127,0,0,3067,-21,0,1139,0,172,23677,-4,0,69,-11,358496,0
358535,145,-2044,169,-77,-17,-46,10426,-4,-6,50,0,35373,-121,34,127,0,0,3065,-32,0,1139,0,172,23687,-4,0,69,-11,358511,0
358545,139,-2046,167,-78,-17,-46,10423,-16,4,11,48,35381,-111,35,127,0,0,3067,32,0,1139,0,172,23697,-4,0,69,-11,358543,0
358555,184,-2042,172,-80,-7,-50,10428,-1,5,13,-24,35380,-95,35,127,0,0,3067,10,0,1139,0,172,23707,-4,0,69,-11,358574,0
358565,172,-2048,168,-81,-8,-52,10426,5,0,44,16,35364,-103,34,127,0,0,3065,-21,0,1139,0,172,23717,-4,0,69,-11,358574,0
358575,160,-2045,170,-81,-15,-52,10426,1,-2,14,16,35358,-123,35,127,0,0,3067,-10,0,1139,0,172,23727,-4,0,69,-11,358574,0
358585,166,-2041,169,-79,-16,-47,10423,-11,-5,-52,0,35359,-118,34,127,0,0,3065,21,0,1139,0,172,23737,-4,0,69,-11,358574,0
358595,166,-2036,171,-78,-7,-49,10424,0,8,-16,24,35353,-113,34,127,0,0,3067,21,0,1139,0,172,23747,-4,0,69,-11,358589,0
358605,162,-2037,171,-76,-5,-52,10424,-4,4,32,48,35345,-123,35,127,0,0,3067,21,0,1139,0,172,23757,-4,0,69,-11,358589,0
358615,156,-2040,172,-75,-8,-48,10426,-5,-11,0,16,35342,-133,34,127,0,0,3069,43,0,1139,0,172,23767,-4,0,69,-11,358589,0
358625,190,-2035,165,-74,-12,-51,10426,5,1,27,48,35363,-134,34,127,0,0,3069,54,0,1139,0,172,23777,-4,0,69,-11,358621,0
358635,179,-2041,161,-74,-7,-44,10427,-10,-5,70,0,35369,-122,34,127,0,0,3067,10,0,1139,0,172,23787,-4,0,69,-11,358621,0
358645,143,-2037,162,-74,-16,-42,10426,0,-6,0,-8,35358,-105,34,127,0,0,3067,21,0,1139,0,172,23797,-4,0,69,-11,358621,0
358655,180,-2052,161,-70,-11,-36,10426,14,4,37,-16,35346,-118,35,127,0,0,3067,0,0,1139,0,172,23807,-4,0,69,-11,358621,0
358665,154,-2037,165,-68,-18,-38,10425,-1,1,32,-16,35354,-123,35,127,0,0,3069,21,0,1139,0,172,23817,-4,0,69,-11,358652,0
358675,144,-2045,165,-74,-16,-29,10423,-16,-1,16,-16,35362,-122,34,127,0,0,3067,43,0,1139,0,172,23827,-4,0,69,-11,358668,0
358685,150,-2036,170,-71,-13,-41,10425,1,2,30,48,35354,-108,34,127,0,0,3062,-32,0,1139,0,172,23837,-4,0,69,-11,358668,0
358695,186,-2047,174,-75,-11,-45,10423,-20,-3,-7,16,35340,-119,35,127,0,0,3067,32,0,1139,0,172,23847,-4,0,69,-11,358668,0
358705,147,-2040,168,-74,-8,-45,10428,1,3,73,0,35362,-132,35,127,0,0,3067,-32,0,1139,0,172,23857,-4,0,69,-11,358699,0
358715,130,-2040,176,-74,-14,-45,10425,1,-4,63,16,35380,-117,35,127,0,0,3067,-10,0,1139,0,172,23867,-4,0,69,-11,358699,0
358725,166,-2041,167,-80,-10,-53,10427,-3,-6,49,40,35377,-122,34,127,0,0,3069,32,0,1139,0,172,23877,-4,0,69,-11,358699,0
358735,145,-2045,172,-77,-17,-51,10427,-5,5,29,24,35360,-124,34,127,0,0,3067,10,0,1139,0,172,23887,-4,0,69,-11,358699,0
358745,135,-2039,169,-87,-12,-48,10427,23,4,61,40,35364,-140,35,127,0,0,3069,10,0,1139,0,172,23897,-4,0,69,-11,358730,0
358755,151,-2048,169,-83,-18,-55,10426,-9,5,63,16,35375,-133,34,127,0,0,3069,21,0,1139,0,172,23907,-4,0,69,-11,358730,0
358765,165,-2043,163,-84,-21,-51,10428,14,-5,49,8,35382,-120,34,127,0,0,3065,-21,0,1139,0,172,23917,-4,0,69,-11,358746,0
358775,164,-2048,155,-81,-15,-56,10424,-9,-5,0,-8,35362,-106,35,127,0,0,3067,10,0,1139,0,172,23927,-4,0,69,-11,358746,0
358785,172,-2045,162,-85,-18,-54,10426,7,3,21,16,35364,-104,34,127,0,0,3067,21,0,1139,0,172,23937,-4,0,69,-11,358761,0
358795,156,-2047,159,-89,-13,-49,10422,-22,4,-16,0,35371,-111,35,127,0,0,3067,32,0,1139,0,172,23947,-4,0,69,-11,358777,0
358805,172,-2041,159,-87,-17,-51,10425,0,2,-1,-16,35371,-117,34,127,0,0,3067,10,0,1139,0,172,23957,-4,0,69,-11,358777,0
358815,121,-2049,162,-89,-20,-44,10425,9,6,-8,24,35368,-107,34,127,0,0,3067,32,0,1139,0,172,23967,-4,0,69,-11,358824,0
358825,142,-2041,161,-88,-11,-46,10424,-9,3,-26,8,35369,-129,35,127,0,0,3065,0,0,1139,0,172,23977,-4,0,69,-11,358824,0
358835,170,-2041,164,-84,-9,-51,10428,15,10,41,8,35372,-143,34,127,0,0,3065,-43,0,1139,0,172,23987,-4,0,69,-11,358824,0
358845,164,-2043,165,-91,-15,-49,10421,-16,-10,-27,0,35370,-139,34,127,0,0,3065,21,0,1139,0,172,23997,-4,0,69,-11,358839,0
358855,166,-2038,159,-90,-12,-44,10423,-8,-5,-34,-16,35360,-124,34,127,0,0,3062,-10,0,1139,0,172,24007,-4,0,69,-11,358839,0
358865,121,-2047,157,-80,-18,-35,10422,-8,0,-54,-24,35359,-125,35,127,0,0,3065,-10,0,1139,0,172,24017,-4,0,69,-11,358839,0
358875,166,-2049,155,-81,-15,-35,10426,10,-8,0,-48,35381,-143,35,127,0,0,3065,-32,0,1139,0,172,24027,-4,0,69,-11,358871,0
358885,165,-2048,148,-78,-16,-38,10422,3,0,3,32,35401,-130,34,127,0,0,3065,-32,0,1139,0,172,24037,-4,0,69,-11,358886,0
358895,141,-2042,148,-76,-8,-37,10426,15,-2,30,-24,35396,-127,34,127,0,0,3065,-32,0,1139,0,172,24047,-4,0,69,-11,358886,0
358905,150,-2047,146,-71,-8,-25,10424,1,-1,69,0,35373,-101,34,127,0,0,3065,-43,0,1139,0,172,24057,-4,0,69,-11,358886,0
358915,152,-2033,159,-72,-8,-27,10424,-5,-6,13,-8,35365,-115,35,127,0,0,3067,10,0,1139,0,172,24067,-4,0,69,-11,358886,0
358925,193,-2049,150,-71,2,-26,10426,0,1,75,32,35392,-115,34,127,0,0,3065,-32,0,1139,0,172,24077,-4,0,69,-11,358949,0
358935,168,-2045,155,-67,1,-26,10421,-23,-7,-6,32,35399,-113,34,127,0,0,3069,43,0,1139,0,172,24087,-4,0,69,-11,358949,0
358945,190,-2039,157,-75,-4,-19,10428,0,2,58,8,35405,-109,35,127,0,0,3069,10,0,1139,0,172,24097,-4,0,69,-11,358949,0
358955,118,-2051,159,-71,-3,-18,10425,4,-5,40,-16,35396,-101,34,127,0,0,3067,21,0,1139,0,172,24107,-4,0,69,-11,358964,0
358965,148,-2037,156,-70,-2,-16,10427,9,0,32,16,35392,-101,35,127,0,0,3069,32,0,1139,0,172,24117,-4,0,69,-11,358964,0
358975,138,-2047,158,-67,-7,-4,10427,3,6,83,32,35383,-114,34,127,0,0,3065,-21,0,1139,0,172,24127,-4,0,69,-11,358964,0
358985,126,-2048,164,-78,-14,-15,10425,0,-11,30,80,35374,-97,34,127,0,0,3067,-10,0,1139,0,172,24137,-4,0,69,-11,358964,0
358995,167,-2045,157,-76,-15,-15,10428,-4,5,61,32,35368,-114,35,127,0,0,3069,10,0,1139,0,172,24147,-4,0,69,-11,358964,0
359005,137,-2043,165,-76,-8,-24,10430,10,-1,130,88,35380,-114,35,127,0,0,3073,43,0,1139,0,172,24157,-4,0,69,-11,358996,0
359015,146,-2045,156,-82,-10,-19,10434,4,6,171,0,35378,-120,35,127,0,0,3073,32,0,1139,0,172,24167,-4,0,69,-11,358996,0
359025,152,-2050,163,-83,-15,-19,10434,-1,-8,159,48,35372,-114,34,127,0,0,3073,43,0,1139,0,172,24177,-4,0,69,-11,358996,0
359035,142,-2054,158,-87,-20,-21,10436,4,1,199,-8,35364,-95,34,127,0,0,3073,10,0,1139,0,172,24187,-4,0,69,-11,359011,0
359045,139,-2048,159,-87,-11,-29,10437,15,2,225,56,35372,-108,35,127,0,0,3076,21,0,1139,0,172,24197,-4,0,69,-11,359027,0
359055,138,-2052,163,-87,-14,-34,10438,-4,7,164,56,35386,-100,35,127,0,0,3073,32,0,1139,0,172,24207,-4,0,69,-11,359042,0
359065,127,-2043,153,-90,-18,-38,10440,7,7,242,40,35381,-93,34,127,0,0,3073,-10,0,1139,0,172,24217,-4,0,69,-11,359042,0
359075,122,-2049,146,-86,-14,-45,10443,1,1,200,64,35371,-90,34,127,0,0,3076,10,0,1139,0,172,24227,-4,0,69,-11,359058,0
359085,140,-2038,148,-85,-13,-50,10445,10,-5,178,40,35384,-75,35,127,0,0,3076,21,0,1139,0,172,24237,-4,0,69,-11,359058,0
359095,128,-2050,155,-80,-13,-52,10443,-3,-4,150,56,35390,-82,34,127,0,0,3073,21,0,1139,0,172,24247,-4,0,69,-11,359058,0
359105,146,-2037,165,-85,-8,-57,10443,3,2,162,8,35403,-93,34,127,0,0,3073,0,0,1139,0,172,24257,-4,0,69,-11,359089,0
359115,135,-2043,152,-86,-15,-56,10445,11,3,212,32,35387,-93,35,127,0,0,3076,-10,0,1139,0,172,24267,-4,0,69,-11,359089,0
359125,173,-2042,153,-91,-14,-52,10448,10,14,180,32,35381,-109,34,127,0,0,3073,0,0,1139,0,172,24277,-4,0,69,-11,359105,0
359135,159,-2049,148,-91,-14,-54,10446,1,3,165,32,35375,-106,35,127,0,0,3076,32,0,1139,0,172,24287,-4,0,69,-11,359136,0
359145,168,-2039,146,-90,-16,-53,10447,-13,5,128,40,35383,-106,34,127,0,0,3073,0,0,1139,0,172,24297,-4,0,69,-11,359136,0
359155,159,-2043,138,-86,-8,-51,10446,3,-2,147,40,35374,-93,34,127,0,0,3073,0,0,1139,0,172,24307,-4,0,69,-11,359136,0
359165,160,-2044,135,-82,-15,-44,10449,-8,-2,108,32,35367,-95,35,127,0,0,3073,0,0,1139,0,172,24317,-4,0,69,-11,359136,0
359175,150,-2040,137,-76,-5,-43,10449,13,2,142,32,35379,-97,34,127,0,0,3076,0,0,1139,0,172,24327,-4,0,69,-11,359152,0
359185,171,-2050,138,-75,-11,-46,10450,9,-3,155,-16,35392,-97,35,127,0,0,3071,-21,0,1139,0,172,24337,-4,0,69,-11,359167,0
359195,166,-2045,144,-66,-8,-40,10448,-5,-7,94,32,35389,-100,34,127,0,0,3076,43,0,1139,0,172,24347,-4,0,69,-11,359167,0
359205,143,-2042,145,-66,-13,-34,10453,17,6,141,24,35383,-103,34,127,0,0,3073,-10,0,1139,0,172,24357,-4,0,69,-11,359199,0
359215,165,-2043,143,-69,-16,-34,10453,-11,15,102,8,35382,-118,35,127,0,0,3076,32,0,1139,0,172,24367,-4,0,69,-11,359199,0
359225,160,-2047,145,-61,-14,-27,10454,0,-22,91,56,35392,-101,34,127,0,0,3076,21,0,1139,0,172,24377,-4,0,69,-11,359199,0
359235,158,-2044,146,-61,-7,-30,10458,23,10,136,0,35377,-89,34,127,0,0,3078,10,0,1139,0,172,24387,-4,0,69,-11,359214,0
359245,175,-2056,151,-67,-11,-17,10466,17,11,63,32,35364,-73,35,127,0,0,3073,10,0,1139,0,172,24397,-4,0,69,-11,359230,0
359255,161,-2049,147,-64,-15,-13,10463,-4,-12,32,24,35375,-64,35,127,0,0,3078,32,0,1139,0,172,24407,-4,0,69,-11,359230,0
359265,166,-2042,155,-65,-10,-16,10471,15,2,127,48,35385,-66,34,127,0,0,3078,10,0,1139,0,172,24417,-4,0,69,-11,359246,0
359275,165,-2050,159,-65,-14,-14,10477,-4,13,53,48,35386,-62,34,127,0,0,3082,32,0,1139,0,172,24427,-4,0,69,-11,359261,0
359285,152,-2053,149,-73,-17,-9,10484,18,-13,147,0,35374,-64,34,127,0,0,3080,0,0,1139,0,172,24437,-4,0,69,-11,359261,0
359295,145,-2048,146,-65,-10,-10,10485,24,-7,195,80,35373,-74,35,127,0,0,3082,-32,0,1139,0,172,24447,-4,0,69,-11,359277,0
359305,152,-2035,147,-72,-18,5,10486,1,3,203,24,35373,-83,35,127,0,0,3082,-32,0,1139,0,172,24457,-4,0,69,-11,359277,0
359315,159,-2019,149,-75,-20,3,10490,15,3,254,48,35381,-87,34,127,0,0,3084,-21,0,1139,0,172,24467,-4,0,69,-11,359292,0
359325,145,-2033,141,-70,-24,6,10493,7,-1,273,64,35372,-76,34,127,0,0,3089,21,0,1139,0,172,24477,-4,0,69,-11,359324,0
359335,138,-2044,140,-68,-15,11,10496,14,7,311,80,35363,-69,35,127,0,0,3093,43,0,1139,0,172,24487,-4,0,69,-11,359324,0
359345,126,-2046,148,-69,-21,16,10505,29,12,365,88,35364,-79,34,127,0,0,3093,10,0,1139,0,172,24497,-4,0,69,-11,359324,0
359355,130,-2033,156,-73,-20,12,10514,15,4,326,96,35371,-71,35,127,0,0,3095,43,0,1139,0,172,24507,-4,0,69,-11,359324,0
359365,121,-2038,163,-79,-21,8,10524,34,2,346,88,35385,-89,35,127,0,0,3095,-10,0,1139,0,172,24517,-4,0,69,-11,359355,0
359375,130,-2041,152,-83,-23,5,10542,26,22,232,48,35379,-79,35,127,0,0,3098,10,0,1139,0,172,24527,-4,0,69,-11,359355,0
359385,116,-2041,154,-92,-20,-10,10543,0,-24,257,80,35376,-89,35,127,0,0,3098,32,0,1139,0,172,24537,-4,0,69,-11,359371,0
359395,114,-2046,156,-95,-20,-25,10548,16,-22,315,80,35373,-70,34,127,0,0,3102,-10,0,1139,0,172,24547,-4,0,69,-11,359371,0
359405,120,-2047,164,-102,-16,-39,10546,-8,-4,318,96,35370,-74,34,127,0,0,3100,0,0,1139,0,172,24557,-4,0,69,-11,359386,0
359415,110,-2050,155,-106,-18,-50,10548,3,-13,324,80,35365,-74,35,127,0,0,3102,10,0,1139,0,172,24567,-4,0,69,-11,359386,0
359425,117,-2048,159,-118,-19,-65,10547,-9,-1,325,120,35356,-74,34,127,0,0,3100,0,0,1139,0,172,24577,-4,0,69,-11,359402,0
359435,130,-2050,158,-117,-18,-72,10549,0,-6,316,88,35363,-84,35,127,0,0,3102,0,0,1139,0,172,24587,-4,0,69,-11,359417,0
359445,148,-2055,146,-133,-25,-75,10550,5,4,317,56,35368,-83,34,127,0,0,3102,21,0,1139,0,172,24597,-4,0,69,-11,359417,0
359455,122,-2060,143,-130,-30,-69,10550,16,4,308,64,35371,-83,34,127,0,0,3098,-32,0,1139,0,172,24607,-4,0,69,-11,359480,0
359465,128,-2063,135,-131,-30,-86,10548,5,1,292,88,35369,-90,34,127,0,0,3100,0,0,1139,0,172,24617,-4,0,69,-11,359480,0
359475,137,-2040,126,-125,-23,-88,10548,-9,-2,285,96,35370,-91,34,127,0,0,3098,0,0,1139,0,172,24627,-4,0,69,-11,359480,0
359485,141,-2054,139,-123,-25,-91,10549,1,1,281,88,35372,-81,34,127,0,0,3098,-21,0,1139,0,172,24637,-4,0,69,-11,359495,0
359495,142,-2054,124,-120,-27,-92,10546,-21,-8,236,72,35359,-85,34,127,0,0,3100,32,0,1139,0,172,24647,-4,0,69,-11,359495,0
359505,155,-2036,126,-119,-15,-92,10553,21,2,295,48,35350,-89,35,127,0,0,3098,-32,0,1139,0,172,24657,-4,0,69,-11,359495,0
359515,123,-2047,126,-123,-16,-105,10547,-3,-1,229,80,35353,-109,34,127,0,0,3098,10,0,1139,0,172,24667,-4,0,69,-11,359495,0
359525,141,-2035,131,-119,-22,-103,10548,-2,1,202,48,35371,-101,35,127,0,0,3093,-54,0,1139,0,172,24677,-4,0,69,-11,359495,0
359535,119,-2039,129,-116,-11,-117,10546,2,-3,153,48,35377,-100,35,127,0,0,3091,-54,0,1139,0,172,24687,-4,0,69,-11,359527,0
359545,148,-2001,148,-115,-7,-128,10541,-30,-5,54,8,35371,-80,35,127,0,0,3089,-10,0,1139,0,172,24697,-4,0,69,-11,359527,0
359555,145,-2049,137,-128,-24,-112,10543,-4,0,-19,-8,35362,-65,35,127,0,0,3087,-10,0,1139,0,172,24707,-4,0,69,-11,359527,0
359565,125,-2046,122,-130,-20,-132,10539,-12,6,-66,-24,35359,-61,34,127,0,0,3087,-21,0,1139,0,172,24717,-4,0,69,-11,359543,0
359575,132,-2054,120,-123,-18,-136,10537,4,-5,-104,-40,35372,-68,34,127,0,0,3084,-32,0,1139,0,172,24727,-4,0,69,-11,359562,0
359585,144,-2047,126,-122,-21,-146,10528,-18,-7,-231,-64,35373,-85,35,127,0,0,3080,0,0,1139,0,172,24737,-4,0,69,-11,359562,0
359595,125,-2049,131,-127,-18,-149,10515,-26,-12,-215,-104,35372,-76,34,127,0,0,3080,10,0,1139,0,172,24747,-4,0,69,-11,359562,0
359605,130,-2046,133,-136,-22,-157,10502,-37,0,-224,-40,35369,-76,35,127,0,0,3071,-21,0,1139,0,172,24757,-4,0,69,-11,359609,0
359615,141,-2041,129,-130,-12,-172,10482,-45,-11,-250,-80,35361,-75,34,127,0,0,3069,-43,0,1139,0,172,24767,-4,0,69,-11,359625,0
359625,135,-2051,124,-130,-14,-167,10478,-1,12,-307,-120,35353,-69,34,127,0,0,3065,-43,0,1139,0,172,24777,-4,0,69,-11,359625,0
359635,162,-2039,133,-132,-15,-177,10475,-17,27,-405,-88,35345,-91,35,127,0,0,3058,-65,0,1139,0,172,24787,-4,0,69,-11,359640,0
359645,156,-2053,133,-138,-19,-172,10462,-42,-11,-495,-144,35349,-90,34,127,0,0,3054,-54,0,1139,0,172,24797,-4,0,69,-11,359672,0
359655,144,-2051,114,-131,-24,-174,10437,-84,-44,-483,-160,35365,-92,35,127,0,0,3049,-10,0,1139,0,172,24807,-4,0,69,-11,359672,0
359665,112,-2055,105,-130,-7,-191,10400,-55,-53,-311,-168,35382,-94,35,127,0,0,3045,-76,0,1139,0,172,24817,-4,0,69,-11,359672,0
359675,176,-2046,129,-135,-20,-189,10389,-21,29,-438,-160,35375,-102,35,127,0,0,3043,-43,0,1139,0,172,24827,-4,0,69,-11,359687,0
359685,150,-2045,124,-130,-23,-188,10367,-53,33,-417,-144,35374,-133,34,127,0,0,3036,-54,0,1139,0,172,24837,-4,0,69,-11,359687,0
359695,132,-2044,113,-130,-11,-211,10341,-36,-29,-444,-128,35366,-128,35,127,0,0,3034,-10,0,1139,0,172,24847,-4,0,69,-11,359687,0
359705,187,-2048,119,-142,-22,-200,10342,4,53,-586,-184,35360,-125,35,127,0,0,3025,-65,0,1139,0,172,24857,-4,0,69,-11,359687,0
359715,165,-2045,119,-141,-23,-210,10322,-48,25,-710,-224,35362,-134,35,127,0,0,3019,-76,0,1139,0,172,24867,-4,0,69,-11,359687,0
359725,170,-2039,115,-140,-12,-213,10288,-97,-73,-594,-200,35386,-138,35,127,0,0,3014,-21,0,1139,0,172,24877,-4,0,69,-11,359734,0
359735,138,-2042,106,-141,-15,-207,10262,-41,-31,-596,-184,35397,-135,34,127,0,0,3010,-10,0,1139,0,172,24887,-4,0,69,-11,359734,0
359745,193,-2045,122,-142,-23,-207,10236,-66,23,-556,-184,35387,-114,34,127,0,0,3003,-32,0,1139,0,172,24897,-4,0,69,-11,359734,0
359755,166,-2046,116,-141,-18,-222,10200,-67,-25,-428,-208,35358,-107,35,127,0,0,2999,-76,0,1139,0,172,24907,-4,0,69,-11,359734,0
359765,188,-2041,114,-147,-22,-203,10175,-62,8,-519,-192,35349,-96,35,127,0,0,2990,-87,0,1139,0,172,24917,-4,0,69,-11,359750,0
359775,168,-2039,111,-147,-14,-219,10142,-50,1,-447,-200,35364,-95,35,127,0,0,2988,-32,0,1139,0,172,24927,-4,0,69,-11,359750,0
359785,200,-2041,109,-145,-23,-196,10134,-14,36,-657,-216,35384,-102,34,127,0,0,2979,-54,0,1139,0,172,24937,-4,0,69,-11,359765,0
359795,187,-2047,108,-146,-23,-204,10114,-53,37,-670,-216,35380,-90,34,127,0,0,2977,-32,0,1139,0,172,24947,-4,0,69,-11,359781,0
359805,177,-2046,113,-148,-18,-211,10078,-99,-60,-546,-240,35372,-104,35,127,0,0,2972,0,0,1139,0,172,24957,-4,0,69,-11,359781,0
359815,162,-2060,105,-146,-17,-206,10051,-55,-23,-553,-216,35377,-99,34,127,0,0,2964,-43,0,1139,0,172,24967,-4,0,69,-11,359781,0
359825,180,-2047,103,-146,-22,-214,10007,-87,-6,-419,-184,35378,-82,35,127,0,0,2959,-65,0,1139,0,172,24977,-4,0,69,-11,359828,0
359835,190,-2036,106,-152,-21,-193,9978,-67,-5,-472,-152,35383,-67,34,127,0,0,2957,0,0,1139,0,172,24987,-4,0,69,-11,359828,0
359845,154,-2049,101,-147,-16,-206,9947,-56,22,-388,-200,35365,-39,34,127,0,0,2950,-32,0,1139,0,172,24997,-4,0,69,-11,359828,0
359855,183,-2038,105,-147,-20,-208,9945,14,60,-536,-208,35365,-40,35,127,0,0,2946,-32,0,1139,0,172,25007,-4,0,69,-11,359828,0
359865,190,-2059,109,-152,-30,-210,9937,-19,43,-638,-192,35375,-27,34,127,0,0,2937,-65,0,1139,0,172,25017,-4,0,69,-11,359843,0
359875,197,-2048,101,-160,-33,-206,9916,-67,-39,-715,-208,35385,-28,34,127,0,0,2937,0,0,1139,0,172,25027,-4,0,69,-11,359859,0
359885,176,-2054,85,-145,-15,-208,9877,-73,-65,-482,-208,35383,-41,35,127,0,0,2931,-21,0,1139,0,172,25037,-4,0,69,-11,359859,0
359895,212,-2055,81,-150,-19,-194,9857,-40,6,-602,-224,35379,-48,35,127,0,0,2924,-32,0,1139,0,172,25047,-4,0,69,-11,359859,0
359905,225,-2046,85,-142,-25,-189,9825,-86,15,-531,-192,35383,-69,34,127,0,0,2922,-10,0,1139,0,172,25057,-4,0,69,-11,359890,0
359915,186,-2048,78,-134,-22,-185,9798,-44,-17,-480,-192,35381,-67,34,127,0,0,2915,-65,0,1139,0,172,25067,-4,0,69,-11,359890,0
359925,226,-2041,86,-130,-15,-176,9763,-89,6,-460,-120,35374,-58,35,127,0,0,2911,-43,0,1139,0,172,25077,-4,0,69,-11,359890,0
359935,192,-2061,72,-130,-16,-163,9742,-8,7,-459,-128,35370,-51,34,127,0,0,2909,-32,0,1139,0,172,25087,-4,0,69,-11,359922,0
359945,249,-2035,85,-115,-22,-143,9742,-14,77,-614,-168,35371,-64,35,127,0,0,2902,-65,0,1139,0,172,25097,-4,0,69,-11,359922,0
359955,224,-2042,73,-119,-23,-141,9732,-29,6,-648,-192,35381,-82,34,127,0,0,2902,-21,0,1139,0,172,25107,-4,0,69,-11,359953,0
359965,216,-2043,83,-111,-12,-118,9714,-43,-38,-559,-184,35381,-71,34,127,0,0,2900,0,0,1139,0,172,25117,-4,0,69,-11,359953,0
359975,222,-2042,85,-102,-9,-124,9694,-40,-13,-524,-152,35369,-68,35,127,0,0,2895,-43,0,1139,0,172,25127,-4,0,69,-11,359953,0
359985,231,-2045,85,-101,-17,-99,9691,9,29,-578,-168,35372,-66,34,127,0,0,2895,0,0,1139,0,172,25137,-4,0,69,-11,359953,0
359995,225,-2048,89,-101,-17,-91,9688,-3,46,-612,-200,35374,-71,35,127,0,0,2893,10,0,1139,0,172,25147,-4,0,69,-11,359984,0
360005,228,-2048,64,-88,-14,-84,9684,-7,6,-652,-184,35384,-85,34,127,0,0,2893,-21,0,1139,0,172,25157,-4,0,69,-11,359984,0
360015,212,-2033,58,-79,-13,-81,9679,1,-6,-630,-224,35375,-84,34,127,0,0,2889,-54,0,1139,0,172,25167,-4,0,69,-11,360000,0
360025,226,-2046,76,-80,-15,-58,9671,-22,-7,-679,-184,35371,-90,35,127,0,0,2887,-10,0,1139,0,172,25177,-4,0,69,-11,360015,0
360035,236,-2043,76,-73,-5,-54,9655,-44,-22,-591,-192,35372,-71,35,127,0,0,2887,-43,0,1139,0,172,25187,-4,0,69,-11,360031,0
360045,214,-2052,76,-71,-4,-46,9626,-58,-39,-367,-112,35370,-76,35,127,0,0,2887,-21,0,1139,0,172,25197,-4,0,69,-11,360031,0
360055,248,-2048,78,-63,-4,-38,9624,7,29,-408,-40,35363,-101,35,127,0,0,2889,10,0,1139,0,172,25207,-4,0,69,-11,360031,0
360065,210,-2051,93,-63,-16,-15,9624,-3,55,-411,-128,35357,-100,35,127,0,0,2893,54,0,1139,0,172,25217,-4,0,69,-11,360047,0
360075,213,-2044,78,-63,-14,-6,9627,10,0,-293,-120,35368,-111,35,127,0,0,2889,-65,0,1139,0,172,25227,-4,0,69,-11,360047,0
360085,196,-2053,78,-55,-3,-1,9624,11,-10,-341,-104,35368,-111,35,127,0,0,2889,-21,0,1139,0,172,25237,-4,0,69,-11,360062,0
360095,220,-2032,72,-57,-5,0,9625,-4,-5,-329,-64,35373,-102,34,127,0,0,2891,-10,0,1139,0,172,25247,-4,0,69,-11,360125,0
360105,195,-2037,73,-40,0,5,9625,-2,6,-311,-56,35372,-105,35,127,0,0,2893,-10,0,1139,0,172,25257,-4,0,69,-11,360125,0
360115,186,-2044,80,-34,0,4,9623,-3,-6,-368,-104,35371,-126,35,127,0,0,2893,65,0,1139,0,172,25267,-4,0,69,-11,360125,0
360125,233,-2046,91,-42,2,18,9628,3,11,-274,-64,35377,-119,34,127,0,0,2893,21,0,1139,0,172,25277,-4,0,69,-11,360125,0
360135,202,-2044,93,-47,-11,24,9627,1,2,-266,-40,35368,-125,34,127,0,0,2893,10,0,1139,0,172,25287,-4,0,69,-11,360140,0
360145,223,-2046,104,-51,-18,31,9627,-9,0,-269,-32,35360,-116,35,127,0,0,2898,65,0,1139,0,172,25297,-4,0,69,-11,360140,0
360155,200,-2041,94,-55,-15,39,9633,22,23,-92,-32,35362,-128,35,127,0,0,2902,32,0,1139,0,172,25307,-4,0,69,-11,360140,0
360165,206,-2034,92,-60,-20,36,9634,-4,0,-61,16,35377,-123,35,127,0,0,2904,54,0,1139,0,172,25317,-4,0,69,-11,360140,0
360175,192,-2049,81,-59,-15,41,9638,11,-11,-7,32,35398,-126,35,127,0,0,2904,32,0,1139,0,172,25327,-4,0,69,-11,360140,0
360185,191,-2048,87,-55,-14,31,9638,-4,5,65,72,35392,-121,35,127,0,0,2909,54,0,1139,0,172,25337,-4,0,69,-11,360203,0
360195,188,-2053,77,-56,-13,41,9653,25,16,98,32,35390,-119,35,127,0,0,2911,43,0,1139,0,172,25347,-4,0,69,-11,360218,0
360205,179,-2052,84,-48,-11,24,9664,34,12,144,-8,35377,-117,34,127,0,0,2913,10,0,1139,0,172,25357,-4,0,69,-11,360218,0
360215,181,-2046,90,-46,-11,20,9683,56,15,39,16,35372,-90,34,127,0,0,2913,21,0,1139,0,172,25367,-4,0,69,-11,360218,0
360225,188,-2053,93,-57,-17,18,9696,12,14,-53,48,35377,-88,35,127,0,0,2915,10,0,1139,0,172,25377,-4,0,69,-11,360218,0
360235,180,-2049,81,-56,-10,12,9697,3,-37,48,24,35372,-58,34,127,0,0,2920,43,0,1139,0,172,25387,-4,0,69,-11,360218,0
360245,186,-2053,90,-53,-8,14,9705,21,-10,77,24,35374,-66,35,127,0,0,2920,21,0,1139,0,172,25397,-4,0,69,-11,360218,0
360255,176,-2037,87,-52,-14,-2,9708,20,4,161,32,35371,-72,35,127,0,0,2920,-21,0,1139,0,172,25407,-4,0,69,-11,360218,0
360265,185,-2044,78,-52,-14,-5,9706,3,-12,150,48,35375,-84,35,127,0,0,2922,21,0,1139,0,172,25417,-4,0,69,-11,360281,0
360275,179,-2049,88,-53,-16,-6,9711,3,5,156,40,35375,-85,35,127,0,0,2924,32,0,1139,0,172,25427,-4,0,69,-11,360281,0
360285,193,-2049,85,-53,-10,-9,9715,-2,2,166,40,35369,-85,35,127,0,0,2924,32,0,1139,0,172,25437,-4,0,69,-11,360281,0
360295,184,-2038,79,-52,-7,-16,9719,19,-5,243,104,35368,-77,35,127,0,0,2926,10,0,1139,0,172,25447,-4,0,69,-11,360281,0
360305,187,-2042,92,-51,-16,-21,9740,57,34,156,24,35370,-78,35,127,0,0,2928,10,0,1139,0,172,25457,-4,0,69,-11,360281,0
360315,179,-2045,90,-54,-14,-15,9749,11,8,46,-32,35368,-77,35,127,0,0,2928,21,0,1139,0,172,25467,-4,0,69,-11,360281,0
360325,180,-2040,75,-56,-13,-28,9749,12,-41,112,64,35368,-79,35,127,0,0,2926,-21,0,1139,0,172,25477,-4,0,69,-11,360312,0
360335,205,-2049,82,-53,-7,-34,9750,-3,-15,85,56,35366,-72,35,127,0,0,2931,-10,0,1139,0,172,25487,-4,0,69,-11,360312,0
360345,181,-2043,77,-45,-19,-32,9752,2,-4,94,56,35359,-82,34,127,0,0,2928,-32,0,1139,0,172,25497,-4,0,69,-11,360312,0
360355,188,-2045,78,-45,-8,-36,9752,7,-1,85,56,35362,-77,34,127,0,0,2931,0,0,1139,0,172,25507,-4,0,69,-11,360328,0
360365,180,-2046,73,-42,-15,-31,9753,3,5,102,48,35370,-81,35,127,0,0,2933,32,0,1139,0,172,25517,-4,0,69,-11,360343,0
360375,189,-2043,86,-38,-8,-33,9757,8,-3,150,40,35385,-69,34,127,0,0,2933,21,0,1139,0,172,25527,-4,0,69,-11,360437,0
360385,188,-2048,79,-40,-8,-37,9756,1,6,156,32,35378,-74,34,127,0,0,2933,21,0,1139,0,172,25537,-4,0,69,-11,360437,0
360395,182,-2048,82,-37,-7,-38,9755,-4,-3,153,64,35365,-77,35,127,0,0,2933,21,0,1139,0,172,25547,-4,0,69,-11,360437,0
360405,204,-2050,83,-37,-12,-46,9756,0,0,153,64,35362,-78,35,127,0,0,2931,10,0,1139,0,172,25557,-4,0,69,-11,360437,0
360415,207,-2048,85,-40,-10,-45,9756,-3,-10,119,32,35357,-81,35,127,0,0,2933,21,0,1139,0,172,25567,-4,0,69,-11,360437,0
360425,205,-2036,87,-39,-9,-46,9759,6,2,159,48,35362,-88,34,127,0,0,2933,21,0,1139,0,172,25577,-4,0,69,-11,360453,0
360435,194,-2047,82,-35,-8,-44,9757,-3,-5,170,56,35354,-82,34,127,0,0,2931,0,0,1139,0,172,25587,-4,0,69,-11,360453,0
360445,180,-2042,84,-31,-5,-46,9756,-7,-8,107,32,35357,-76,35,127,0,0,2931,0,0,1139,0,172,25597,-4,0,69,-11,360453,0
360455,183,-2047,76,-30,-14,-45,9757,5,0,146,56,35358,-73,34,127,0,0,2931,-10,0,1139,0,172,25607,-4,0,69,-11,360453,0
360465,159,-2038,88,-29,-11,-52,9756,-5,0,133,56,35364,-87,35,127,0,0,2933,10,0,1139,0,172,25617,-4,0,69,-11,360453,0
360475,169,-2041,89,-34,-8,-54,9760,7,3,142,48,35362,-93,35,127,0,0,2933,21,0,1139,0,172,25627,-4,0,69,-11,360453,0
360485,185,-2041,95,-32,-2,-68,9758,-4,3,170,56,35371,-87,35,127,0,0,2931,-10,0,1139,0,172,25637,-4,0,69,-11,360453,0
360495,176,-2050,103,-35,-10,-72,9757,-10,-7,116,24,35387,-93,35,127,0,0,2933,21,0,1139,0,172,25647,-4,0,69,-11,360484,0
360505,206,-2043,87,-37,-7,-76,9757,-9,-3,133,32,35398,-90,35,127,0,0,2933,32,0,1139,0,172,25657,-4,0,69,-11,360484,0
360515,200,-2041,88,-35,-3,-66,9760,13,3,156,48,35386,-94,34,127,0,0,2933,21,0,1139,0,172,25667,-4,0,69,-11,360484,0
360525,189,-2031,93,-41,-11,-78,9757,-10,3,165,24,35377,-90,34,127,0,0,2928,-21,0,1139,0,172,25677,-4,0,69,-11,360531,0
360535,193,-2043,90,-39,-9,-76,9758,0,-2,94,0,35369,-81,35,127,0,0,2933,21,0,1139,0,172,25687,-4,0,69,-11,360531,0
360545,192,-2049,84,-44,-16,-77,9761,18,8,171,48,35374,-86,34,127,0,0,2931,-32,0,1139,0,172,25697,-4,0,69,-11,360531,0
360555,181,-2042,86,-43,-10,-84,9758,-1,-1,102,32,35366,-99,34,127,0,0,2931,-10,0,1139,0,172,25707,-4,0,69,-11,360531,0
360565,178,-2043,92,-44,-11,-91,9757,0,-4,52,48,35360,-83,35,127,0,0,2928,0,0,1139,0,172,25717,-4,0,69,-11,360531,0
360575,188,-2049,97,-51,-7,-97,9757,5,8,35,48,35371,-90,34,127,0,0,2928,10,0,1139,0,172,25727,-4,0,69,-11,360562,0
360585,185,-2042,107,-57,3,-123,9758,-1,-5,43,8,35377,-89,35,127,0,0,2928,-10,0,1139,0,172,25737,-4,0,69,-11,360562,0
360595,163,-2046,101,-59,-3,-131,9757,3,-3,32,16,35379,-106,34,127,0,0,2922,-98,0,1139,0,172,25747,-4,0,69,-11,360562,0
360605,194,-2031,102,-58,2,-147,9746,-34,-22,-168,-32,35368,-90,34,127,0,0,2922,0,0,1139,0,172,25757,-4,0,69,-11,360578,0
360615,195,-2062,99,-72,-13,-131,9749,3,-7,-238,-48,35362,-87,35,127,0,0,2917,-21,0,1139,0,172,25767,-4,0,69,-11,360593,0
360625,186,-2041,88,-72,-8,-140,9742,-14,8,-279,-64,35372,-82,34,127,0,0,2915,-32,0,1139,0,172,25777,-4,0,69,-11,360625,0
360635,199,-2044,95,-73,-8,-144,9738,-18,-12,-345,-80,35379,-86,35,127,0,0,2911,-54,0,1139,0,172,25787,-4,0,69,-11,360625,0
360645,203,-2045,99,-80,-8,-142,9728,-35,-1,-420,-120,35370,-93,34,127,0,0,2909,-21,0,1139,0,172,25797,-4,0,69,-11,360625,0
360655,195,-2048,96,-83,-4,-151,9709,-47,-36,-305,-80,35357,-85,34,127,0,0,2909,-10,0,1139,0,172,25807,-4,0,69,-11,360625,0
360665,201,-2037,93,-82,-9,-144,9700,0,3,-306,-120,35361,-80,35,127,0,0,2902,-65,0,1139,0,172,25817,-4,0,69,-11,360640,0
360675,223,-2040,87,-92,-15,-144,9694,-27,43,-443,-104,35380,-76,35,127,0,0,2900,-21,0,1139,0,172,25827,-4,0,69,-11,360671,0
360685,196,-2046,84,-90,-7,-140,9689,-9,5,-461,-160,35386,-80,35,127,0,0,2900,0,0,1139,0,172,25837,-4,0,69,-11,360671,0
360695,204,-2038,89,-86,-8,-137,9688,-4,10,-509,-168,35372,-97,35,127,0,0,2895,-21,0,1139,0,172,25847,-4,0,69,-11,360687,0
360705,214,-2048,82,-83,-16,-136,9680,-17,-7,-557,-168,35354,-72,35,127,0,0,2891,-21,0,1139,0,172,25857,-4,0,69,-11,360687,0
360715,219,-2041,75,-83,-13,-135,9673,-23,-4,-577,-192,35361,-72,34,127,0,0,2893,-21,0,1139,0,172,25867,-4,0,69,-11,360687,0
360725,230,-2038,76,-84,-18,-118,9661,-38,-14,-608,-200,35380,-72,34,127,0,0,2887,0,0,1139,0,172,25877,-4,0,69,-11,360703,0
360735,212,-2031,75,-79,-10,-132,9626,-74,-50,-386,-160,35382,-89,35,127,0,0,2885,-32,0,1139,0,172,25887,-4,0,69,-11,360718,0
360745,214,-2041,74,-67,-7,-116,9616,5,-1,-434,-128,35380,-109,34,127,0,0,2882,-32,0,1139,0,172,25897,-4,0,69,-11,360718,0
360755,250,-2040,89,-68,-8,-109,9615,-8,61,-513,-144,35382,-132,35,127,0,0,2880,-32,0,1139,0,172,25907,-4,0,69,-11,360796,0
360765,227,-2051,59,-55,-12,-93,9608,-17,10,-572,-152,35379,-138,34,127,0,0,2880,0,0,1139,0,172,25917,-4,0,69,-11,360796,0
360775,223,-2049,60,-50,-1,-84,9604,-12,-15,-505,-144,35373,-141,34,127,0,0,2878,-21,0,1139,0,172,25927,-4,0,69,-11,360796,0
360785,254,-2044,66,-41,-8,-64,9597,-22,11,-557,-120,35357,-142,35,127,0,0,2880,32,0,1139,0,172,25937,-4,0,69,-11,360796,0
360795,256,-2042,58,-31,-12,-48,9589,-14,-14,-432,-104,35352,-151,34,127,0,0,2876,-32,0,1139,0,172,25947,-4,0,69,-11,360796,0
360805,234,-2040,47,-14,2,-27,9576,-28,-14,-393,-80,35359,-154,35,127,0,0,2880,10,0,1139,0,172,25957,-4,0,69,-11,360796,0
360815,249,-2039,48,-3,0,-13,9576,13,18,-336,-88,35367,-150,34,127,0,0,2878,-32,0,1139,0,172,25967,-4,0,69,-11,360796,0
360825,225,-2034,59,10,2,1,9574,0,16,-355,-88,35366,-158,34,127,0,0,2880,0,0,1139,0,172,25977,-4,0,69,-11,360796,0
360835,234,-2040,66,22,11,9,9574,-3,-1,-332,-88,35383,-173,35,127,0,0,2880,0,0,1139,0,172,25987,-4,0,69,-11,360812,0
360845,221,-2054,65,35,20,23,9574,0,1,-309,-96,35403,-170,35,127,0,0,2880,0,0,1139,0,172,25997,-4,0,69,-11,360843,0
360855,233,-2046,79,47,19,44,9576,8,-4,-264,-80,35408,-162,35,127,0,0,2882,-10,0,1139,0,172,26007,-4,0,69,-11,360843,0
360865,248,-2033,77,52,-2,82,9575,-2,-3,-258,-48,35395,-145,35,127,0,0,2887,32,0,1139,0,172,26017,-4,0,69,-11,360843,0
360875,233,-2038,66,61,5,91,9580,16,7,-128,-16,35372,-118,34,127,0,0,2893,65,0,1139,0,172,26027,-4,0,69,-11,360859,0
360885,224,-2037,64,71,6,104,9590,17,30,-2,8,35375,-117,35,127,0,0,2898,54,0,1139,0,172,26037,-4,0,69,-11,360859,0
360895,208,-2046,80,81,12,99,9605,52,13,158,48,35377,-118,34,127,0,0,2902,32,0,1139,0,172,26047,-4,0,69,-11,360890,0
360905,247,-2045,100,82,-4,120,9633,36,34,-7,72,35376,-125,34,127,0,0,2906,87,0,1139,0,172,26057,-4,0,69,-11,360890,0
360915,191,-2062,84,85,1,125,9634,-1,-26,210,64,35370,-121,35,127,0,0,2913,54,0,1139,0,172,26067,-4,0,69,-11,360890,0
360925,187,-2038,82,99,12,118,9643,36,-34,327,128,35375,-116,35,127,0,0,2915,32,0,1139,0,172,26077,-4,0,69,-11,360921,0
360935,212,-2034,86,94,12,128,9667,56,43,312,120,35381,-108,35,127,0,0,2924,87,0,1139,0,172,26087,-4,0,69,-11,360921,0
360945,203,-2035,105,87,-5,142,9715,92,82,173,64,35377,-94,35,127,0,0,2928,76,0,1139,0,172,26097,-4,0,69,-11,360921,0
360955,169,-2041,106,94,3,115,9737,39,-3,225,112,35375,-88,35,127,0,0,2933,43,0,1139,0,172,26107,-4,0,69,-11,360921,0
360965,194,-2040,112,87,11,109,9764,52,-50,210,64,35367,-72,35,127,0,0,2937,43,0,1139,0,172,26117,-4,0,69,-11,360953,0
360975,173,-2053,120,75,7,96,9764,-6,-37,301,112,35371,-70,35,127,0,0,2939,43,0,1139,0,172,26127,-4,0,69,-11,360953,0
360985,160,-2054,118,77,2,84,9768,14,-36,388,144,35370,-86,34,127,0,0,2946,32,0,1139,0,172,26137,-4,0,69,-11,360984,0
360995,165,-2048,122,69,1,67,9776,19,8,477,168,35364,-86,34,127,0,0,2953,54,0,1139,0,172,26147,-4,0,69,-11,360984,0
361005,146,-2047,125,62,3,41,9794,52,19,523,144,35372,-85,35,127,0,0,2955,10,0,1139,0,172,26157,-4,0,69,-11,360984,0
361015,146,-2047,132,51,5,30,9825,79,50,363,168,35371,-78,34,127,0,0,2955,32,0,1139,0,172,26167,-4,0,69,-11,360984,0
361025,179,-2034,140,37,-8,13,9850,18,24,269,144,35383,-75,34,127,0,0,2959,76,0,1139,0,172,26177,-4,0,69,-11,361015,0
361035,130,-2051,125,31,-2,-11,9864,34,-37,342,96,35385,-86,35,127,0,0,2959,0,0,1139,0,172,26187,-4,0,69,-11,361015,0
361045,149,-2048,135,18,-3,-27,9890,54,7,203,48,35384,-58,34,127,0,0,2959,-10,0,1139,0,172,26197,-4,0,69,-11,361015,0
361055,167,-2054,142,8,-4,-48,9891,-14,-30,194,72,35380,-57,34,127,0,0,2959,0,0,1139,0,172,26207,-4,0,69,-11,361031,0
361065,133,-2048,132,-2,-4,-59,9892,5,-51,174,72,35377,-53,34,127,0,0,2959,0,0,1139,0,172,26217,-4,0,69,-11,361031,0
361075,186,-2044,126,-15,-9,-74,9892,-10,2,223,56,35378,-45,34,127,0,0,2959,-32,0,1139,0,172,26227,-4,0,69,-11,361078,0
361085,136,-2037,125,-18,-10,-81,9893,7,-7,230,48,35385,-61,35,127,0,0,2961,-21,0,1139,0,172,26237,-4,0,69,-11,361078,0
361095,142,-2038,134,-21,-3,-88,9895,11,-2,254,48,35379,-49,34,127,0,0,2961,-21,0,1139,0,172,26247,-4,0,69,-11,361078,0
361105,146,-2051,126,-33,-10,-97,9893,-4,-5,218,64,35378,-56,35,127,0,0,2959,-32,0,1139,0,172,26257,-4,0,69,-11,361078,0
361115,174,-2034,134,-39,-12,-99,9892,-3,-7,174,40,35374,-52,35,127,0,0,2957,-32,0,1139,0,172,26267,-4,0,69,-11,361093,0
361125,169,-2048,128,-42,-9,-112,9887,-22,-7,49,24,35381,-53,35,127,0,0,2957,0,0,1139,0,172,26277,-4,0,69,-11,361171,0
361135,185,-2047,126,-45,-15,-119,9892,7,3,104,48,35386,-55,34,127,0,0,2959,21,0,1139,0,172,26287,-4,0,69,-11,361171,0
361145,196,-2041,122,-49,-11,-133,9888,-22,7,105,24,35389,-44,34,127,0,0,2957,-10,0,1139,0,172,26297,-4,0,69,-11,361171,0
361155,164,-2045,112,-55,-4,-141,9889,10,-11,42,0,35372,-38,34,127,0,0,2953,-43,0,1139,0,172,26307,-4,0,69,-11,361171,0
361165,205,-2034,109,-52,-10,-133,9880,-29,-3,-95,-32,35361,-51,35,127,0,0,2950,0,0,1139,0,172,26317,-4,0,69,-11,361187,0
361175,188,-2045,107,-49,-7,-125,9879,-2,1,-101,-56,35362,-43,35,127,0,0,2948,-21,0,1139,0,172,26327,-4,0,69,-11,361187,0
361185,208,-2034,109,-50,-7,-110,9878,-7,10,-155,-40,35365,-56,34,127,0,0,2948,0,0,1139,0,172,26337,-4,0,69,-11,361187,0
361195,198,-2048,98,-43,-4,-108,9878,2,-2,-175,-104,35368,-53,34,127,0,0,2946,-32,0,1139,0,172,26347,-4,0,69,-11,361187,0
361205,212,-2054,107,-39,-8,-101,9870,-22,-11,-243,-40,35362,-59,35,127,0,0,2944,0,0,1139,0,172,26357,-4,0,69,-11,361187,0
361215,208,-2055,117,-37,-8,-94,9869,0,-8,-251,-32,35367,-52,34,127,0,0,2944,-10,0,1139,0,172,26367,-4,0,69,-11,361187,0
361225,210,-2048,121,-39,-7,-86,9867,0,11,-259,-96,35370,-40,35,127,0,0,2942,-32,0,1139,0,172,26377,-4,0,69,-11,361203,0
361235,201,-2042,105,-38,-8,-75,9859,-27,-14,-268,-80,35385,-53,34,127,0,0,2939,-10,0,1139,0,172,26387,-4,0,69,-11,361218,0
361245,191,-2041,109,-33,-13,-68,9848,-36,-17,-257,0,35377,-44,34,127,0,0,2939,-21,0,1139,0,172,26397,-4,0,69,-11,361218,0
361255,202,-2037,114,-27,-12,-70,9834,-27,-10,-172,-8,35374,-67,35,127,0,0,2939,-21,0,1139,0,172,26407,-4,0,69,-11,361218,0
361265,204,-2038,110,-23,-11,-60,9834,1,20,-152,-48,35371,-65,35,127,0,0,2939,-10,0,1139,0,172,26417,-4,0,69,-11,361249,0
361275,193,-2032,108,-27,-21,-52,9832,-5,12,-179,-32,35373,-65,34,127,0,0,2939,21,0,1139,0,172,26427,-4,0,69,-11,361249,0
361285,204,-2035,99,-17,-13,-56,9832,7,7,-181,-32,35375,-77,34,127,0,0,2939,0,0,1139,0,172,26437,-4,0,69,-11,361249,0
361295,198,-2039,104,-14,-4,-45,9832,0,4,-190,-16,35373,-75,35,127,0,0,2939,0,0,1139,0,172,26447,-4,0,69,-11,361281,0
361305,201,-2042,108,-10,-13,-42,9830,-11,2,-189,-48,35376,-77,35,127,0,0,2939,10,0,1139,0,172,26457,-4,0,69,-11,361281,0
361315,203,-2044,104,-2,-10,-39,9830,-2,3,-174,-64,35381,-69,35,127,0,0,2937,-32,0,1139,0,172,26467,-4,0,69,-11,361281,0
361325,195,-2039,111,1,-6,-43,9828,-1,-8,-174,-24,35368,-70,35,127,0,0,2939,10,0,1139,0,172,26477,-4,0,69,-11,361296,0
361335,189,-2041,113,3,-13,-36,9831,5,4,-141,-56,35365,-84,35,127,0,0,2939,-21,0,1139,0,172,26487,-4,0,69,-11,361343,0
361345,214,-2051,109,12,3,-40,9828,0,-2,-147,-24,35368,-77,35,127,0,0,2939,10,0,1139,0,172,26497,-4,0,69,-11,361343,0
361355,188,-2041,117,6,3,-38,9827,-15,-1,-181,-48,35369,-79,34,127,0,0,2937,10,0,1139,0,172,26507,-4,0,69,-11,361343,0
361365,213,-2050,126,10,-6,-40,9828,0,4,-160,-56,35375,-78,34,127,0,0,2939,10,0,1139,0,172,26517,-4,0,69,-11,361343,0
361375,171,-2049,128,20,3,-37,9828,0,-5,-181,-8,35366,-72,35,127,0,0,2939,32,0,1139,0,172,26527,-4,0,69,-11,361343,0
361385,189,-2039,119,15,1,-41,9830,4,2,-129,-24,35381,-82,34,127,0,0,2937,-32,0,1139,0,172,26537,-4,0,69,-11,361421,0
361395,180,-2040,121,17,3,-46,9828,4,2,-120,-32,35379,-85,35,127,0,0,2939,-10,0,1139,0,172,26547,-4,0,69,-11,361421,0
361405,183,-2041,117,14,-2,-43,9829,-8,-8,-159,-48,35381,-90,34,127,0,0,2937,-10,0,1139,0,172,26557,-4,0,69,-11,361421,0
361415,207,-2023,123,11,5,-42,9829,4,6,-188,-16,35363,-85,34,127,0,0,2939,21,0,1139,0,172,26567,-4,0,69,-11,361421,0
361425,222,-2028,155,-10,2,-30,9828,0,2,-136,-56,35354,-80,35,127,0,0,2939,0,0,1139,0,172,26577,-4,0,69,-11,361421,0
361435,222,-2076,175,-19,-10,-24,9827,-5,-3,-156,-40,35354,-80,34,127,0,0,2937,0,0,1139,0,172,26587,-4,0,69,-11,361437,0
361445,182,-2079,165,-23,-12,-26,9826,-3,-8,-178,-16,35356,-80,35,127,0,0,2939,32,0,1139,0,172,26597,-4,0,69,-11,361437,0
361455,153,-2042,138,-21,-16,-37,9829,2,7,-133,-56,35360,-83,34,127,0,0,2939,0,0,1139,0,172,26607,-4,0,69,-11,361437,0
361465,155,-2033,61,-21,-14,-58,9827,6,-2,-125,-24,35362,-86,34,127,0,0,2939,21,0,1139,0,172,26617,-4,0,69,-11,361437,0
361475,117,-2054,80,-18,0,-74,9829,0,6,-121,-56,35364,-83,35,127,0,0,2939,0,0,1139,0,172,26627,-4,0,69,-11,361546,0
361485,209,-2052,140,-10,19,-93,9828,0,0,-115,-24,35364,-64,34,127,0,0,2937,-21,0,1139,0,172,26637,-4,0,69,-11,361546,0
361495,257,-2051,161,-19,3,-81,9825,-18,-7,-195,-40,35359,-70,34,127,0,0,2939,32,0,1139,0,172,26647,-4,0,69,-11,361546,0
361505,265,-2032,140,-23,-15,-54,9829,8,2,-135,-24,35367,-84,35,127,0,0,2937,-10,0,1139,0,172,26657,-4,0,69,-11,361546,0
361515,213,-2046,137,-26,-10,-47,9824,-9,3,-159,-16,35378,-74,35,127,0,0,2937,0,0,1139,0,172,26667,-4,0,69,-11,361546,0
361525,170,-2039,163,-25,-11,-42,9828,1,-4,-160,-16,35387,-64,34,127,0,0,2939,0,0,1139,0,172,26677,-4,0,69,-11,361562,0
361535,166,-2037,152,-44,-8,-47,9827,15,4,-143,-24,35375,-68,34,127,0,0,2937,0,0,1139,0,172,26687,-4,0,69,-11,361562,0
361545,171,-2023,130,-49,-9,-63,9825,-6,-2,-187,-8,35357,-65,35,127,0,0,2939,32,0,1139,0,172,26697,-4,0,69,-11,361562,0
361555,204,-2027,117,-45,-6,-62,9830,3,1,-137,-56,35354,-77,34,127,0,0,2939,-10,0,1139,0,172,26707,-4,0,69,-11,361562,0
361565,206,-2024,117,-37,-7,-57,9825,-3,-4,-159,-40,35355,-78,35,127,0,0,2937,0,0,1139,0,172,26717,-4,0,69,-11,361562,0
361575,214,-2033,126,-41,-10,-56,9825,-3,-6,-192,-40,35358,-94,34,127,0,0,2939,21,0,1139,0,172,26727,-4,0,69,-11,361562,0
361585,204,-2042,114,-39,-6,-48,9827,5,6,-182,-40,35359,-91,34,127,0,0,2939,21,0,1139,0,172,26737,-4,0,69,-11,361562,0
361595,182,-2043,122,-44,-7,-52,9828,13,2,-155,-48,35366,-83,35,127,0,0,2937,-21,0,1139,0,172,26747,-4,0,69,-11,361577,0
361605,223,-2042,125,-41,-3,-52,9826,2,-10,-200,-40,35377,-96,35,127,0,0,2937,21,0,1139,0,172,26757,-4,0,69,-11,361593,0
361615,233,-2033,132,-38,-5,-36,9826,4,1,-193,-40,35375,-95,35,127,0,0,2937,-10,0,1139,0,172,26767,-4,0,69,-11,361593,0
361625,219,-2049,124,-38,-17,-16,9827,14,-2,-197,-40,35368,-105,34,127,0,0,2935,-21,0,1139,0,172,26777,-4,0,69,-11,361624,0
361635,204,-2053,121,-26,-7,-12,9825,3,-6,-205,-40,35352,-86,34,127,0,0,2939,21,0,1139,0,172,26787,-4,0,69,-11,361624,0
361645,187,-2046,112,-23,-10,-17,9826,-4,0,-172,-40,35354,-80,35,127,0,0,2937,-10,0,1139,0,172,26797,-4,0,69,-11,361624,0
361655,167,-2040,115,-22,0,-24,9825,3,4,-160,-16,35356,-76,34,127,0,0,2939,21,0,1139,0,172,26807,-4,0,69,-11,361624,0
361665,170,-2033,122,-26,-12,-38,9826,-24,2,-135,-16,35360,-78,34,127,0,0,2937,-10,0,1139,0,172,26817,-4,0,69,-11,361671,0
361675,183,-2046,133,-31,-2,-35,9825,-4,-11,-186,-8,35358,-81,35,127,0,0,2937,0,0,1139,0,172,26827,-4,0,69,-11,361671,0
361685,179,-2040,144,-28,0,-29,9826,2,2,-177,-40,35361,-64,34,127,0,0,2939,0,0,1139,0,172,26837,-4,0,69,-11,361671,0
361695,202,-2051,152,-29,-1,-19,9827,8,-4,-143,-56,35362,-64,35,127,0,0,2937,0,0,1139,0,172,26847,-4,0,69,-11,361687,0
361705,203,-2045,147,-33,-4,-22,9825,-19,-2,-136,-16,35365,-83,35,127,0,0,2939,21,0,1139,0,172,26857,-4,0,69,-11,361687,0
361715,198,-2041,131,-37,-2,-22,9827,-4,2,-127,-56,35369,-92,35,127,0,0,2939,-10,0,1139,0,172,26867,-4,0,69,-11,361687,0
361725,198,-2049,124,-35,-1,-18,9825,5,0,-167,-40,35384,-94,34,127,0,0,2939,32,0,1139,0,172,26877,-4,0,69,-11,361702,0
361735,182,-2052,121,-38,1,-21,9827,0,5,-114,-24,35394,-75,35,127,0,0,2939,10,0,1139,0,172,26887,-4,0,69,-11,361734,0
361745,190,-2051,126,-32,1,-28,9826,-6,2,-106,-16,35393,-74,35,127,0,0,2939,0,0,1139,0,172,26897,-4,0,69,-11,361734,0
361755,181,-2043,129,-34,-6,-29,9827,-7,-7,-135,-24,35375,-63,35,127,0,0,2939,21,0,1139,0,172,26907,-4,0,69,-11,361734,0
361765,187,-2030,143,-37,-7,-39,9828,8,4,-129,8,35361,-77,35,127,0,0,2939,21,0,1139,0,172,26917,-4,0,69,-11,361734,0
361775,190,-2030,143,-38,-2,-41,9827,-12,-3,-110,-24,35358,-62,34,127,0,0,2942,10,0,1139,0,172,26927,-4,0,69,-11,361765,0
361785,204,-2040,147,-42,2,-42,9828,0,2,-85,-24,35368,-59,35,127,0,0,2939,0,0,1139,0,172,26937,-4,0,69,-11,361765,0
361795,188,-2040,149,-56,-1,-45,9825,1,-1,-120,-16,35364,-54,34,127,0,0,2939,10,0,1139,0,172,26947,-4,0,69,-11,361765,0
361805,194,-2038,152,-58,-6,-50,9827,-6,1,-108,-24,35366,-59,34,127,0,0,2939,10,0,1139,0,172,26957,-4,0,69,-11,361796,0
361815,205,-2042,142,-65,-4,-52,9830,21,4,-34,-16,35364,-50,35,127,0,0,2942,-21,0,1139,0,172,26967,-4,0,69,-11,361796,0
361825,181,-2038,128,-63,-14,-47,9828,-10,-5,-63,-32,35372,-59,34,127,0,0,2944,43,0,1139,0,172,26977,-4,0,69,-11,361796,0
361835,177,-2035,135,-69,-13,-46,9830,1,0,-47,-40,35374,-71,34,127,0,0,2939,-10,0,1139,0,172,26987,-4,0,69,-11,361827,0
361845,162,-2046,132,-67,-16,-52,9826,4,3,-114,-48,35371,-88,35,127,0,0,2942,10,0,1139,0,172,26997,-4,0,69,-11,361827,0
361855,155,-2047,136,-66,-15,-51,9830,20,-2,-86,-8,35371,-77,34,127,0,0,2939,0,0,1139,0,172,27007,-4,0,69,-11,361827,0
361865,164,-2042,153,-75,-14,-61,9827,-15,10,-114,24,35371,-58,34,127,0,0,2937,-32,0,1139,0,172,27017,-4,0,69,-11,361859,0
361875,204,-2036,142,-79,-13,-62,9826,-7,-5,-158,8,35378,-72,34,127,0,0,2939,32,0,1139,0,172,27027,-4,0,69,-11,361874,0
361885,194,-2041,145,-81,-18,-56,9828,-9,4,-124,-56,35371,-54,34,127,0,0,2942,32,0,1139,0,172,27037,-4,0,69,-11,361874,0
361895,197,-2045,131,-84,-14,-47,9830,14,-3,-98,-56,35369,-75,35,127,0,0,2939,10,0,1139,0,172,27047,-4,0,69,-11,361874,0
361905,202,-2037,126,-81,-19,-45,9825,-6,-1,-139,-56,35357,-65,34,127,0,0,2939,32,0,1139,0,172,27057,-4,0,69,-11,361890,0
361915,222,-2037,123,-90,-21,-43,9827,-3,11,-145,-48,35364,-86,34,127,0,0,2942,43,0,1139,0,172,27067,-4,0,69,-11,361890,0
361925,229,-2037,114,-88,-15,-40,9832,21,11,-74,-24,35366,-80,34,127,0,0,2937,-43,0,1139,0,172,27077,-4,0,69,-11,361937,0
361935,200,-2040,111,-82,-14,-34,9823,-19,-14,-166,-8,35370,-78,35,127,0,0,2939,32,0,1139,0,172,27087,-4,0,69,-11,361937,0
361945,214,-2040,116,-72,-12,-37,9828,-5,6,-159,-16,35369,-69,35,127,0,0,2937,10,0,1139,0,172,27097,-4,0,69,-11,361937,0
361955,215,-2047,110,-67,-8,-37,9827,5,3,-155,-8,35371,-69,35,127,0,0,2939,10,0,1139,0,172,27107,-4,0,69,-11,361937,0
361965,205,-2040,123,-61,-10,-29,9828,3,-7,-121,-24,35366,-81,34,127,0,0,2939,10,0,1139,0,172,27117,-4,0,69,-11,361952,0
361975,212,-2046,115,-57,-5,-27,9827,-2,6,-90,8,35363,-86,34,127,0,0,2939,-21,0,1139,0,172,27127,-4,0,69,-11,361952,0
361985,185,-2037,109,-42,0,-26,9828,9,-4,-123,-24,35377,-89,35,127,0,0,2939,0,0,1139,0,172,27137,-4,0,69,-11,361968,0
361995,198,-2042,116,-46,-2,-19,9827,-2,-6,-120,-24,35392,-91,35,127,0,0,2939,0,0,1139,0,172,27147,-4,0,69,-11,361968,0
362005,196,-2042,119,-40,-6,-17,9827,0,4,-120,-24,35391,-99,35,127,0,0,2939,0,0,1139,0,172,27157,-4,0,69,-11,361968,0
362015,195,-2041,120,-35,1,-15,9828,1,-3,-95,-32,35378,-105,35,127,0,0,2942,21,0,1139,0,172,27167,-4,0,69,-11,361999,0
362025,214,-2044,126,-36,5,-12,9828,-10,1,-75,8,35373,-82,35,127,0,0,2939,0,0,1139,0,172,27177,-4,0,69,-11,361999,0
362035,201,-2038,121,-31,7,-10,9828,12,2,-97,-32,35387,-72,35,127,0,0,2937,-32,0,1139,0,172,27187,-4,0,69,-11,362030,0
362045,174,-2041,129,-30,-2,-4,9827,-3,-7,-90,0,35386,-75,34,127,0,0,2944,43,0,1139,0,172,27197,-4,0,69,-11,362030,0
362055,186,-2043,137,-31,-11,11,9830,-8,4,-43,-8,35377,-71,34,127,0,0,2946,76,0,1139,0,172,27207,-4,0,69,-11,362030,0
362065,191,-2047,120,-27,-10,17,9832,7,13,36,8,35373,-74,35,127,0,0,2948,76,0,1139,0,172,27217,-4,0,69,-11,362077,0
362075,168,-2047,112,-26,-2,10,9836,12,2,126,24,35378,-70,34,127,0,0,2946,0,0,1139,0,172,27227,-4,0,69,-11,362077,0
362085,170,-2039,118,-25,-5,-5,9836,4,-4,123,48,35379,-71,35,127,0,0,2948,21,0,1139,0,172,27237,-4,0,69,-11,362077,0
362095,189,-2043,135,-21,-5,2,9841,2,10,147,32,35377,-79,34,127,0,0,2950,21,0,1139,0,172,27247,-4,0,69,-11,362077,0
362105,179,-2048,126,-15,-8,2,9840,-2,0,171,104,35360,-73,34,127,0,0,2950,21,0,1139,0,172,27257,-4,0,69,-11,362077,0
362115,177,-2036,125,-23,-4,-3,9842,2,-8,166,88,35369,-66,35,127,0,0,2953,43,0,1139,0,172,27267,-4,0,69,-11,362093,0
362125,180,-2045,134,-21,-6,-2,9849,27,16,247,64,35377,-58,34,127,0,0,2955,32,0,1139,0,172,27277,-4,0,69,-11,362109,0
362135,184,-2045,134,-23,-7,-4,9863,23,25,210,56,35376,-68,34,127,0,0,2957,43,0,1139,0,172,27287,-4,0,69,-11,362109,0
362145,189,-2046,135,-21,-14,-8,9880,39,15,118,56,35374,-78,35,127,0,0,2957,32,0,1139,0,172,27297,-4,0,69,-11,362109,0
362155,189,-2042,136,-22,-11,-2,9881,-16,-15,96,48,35378,-61,34,127,0,0,2957,0,0,1139,0,172,27307,-4,0,69,-11,362140,0
362165,167,-2040,130,-23,-4,-9,9885,20,-35,138,64,35381,-45,34,127,0,0,2959,21,0,1139,0,172,27317,-4,0,69,-11,362140,0
362175,183,-2035,136,-19,-5,-12,9885,0,-7,127,32,35377,-37,34,127,0,0,2959,32,0,1139,0,172,27327,-4,0,69,-11,362155,0
362185,183,-2045,136,-21,-1,-15,9888,4,-3,139,24,35375,-50,35,127,0,0,2961,54,0,1139,0,172,27337,-4,0,69,-11,362155,0
362195,151,-2054,129,-27,-6,-19,9889,10,13,230,32,35385,-47,34,127,0,0,2959,-10,0,1139,0,172,27347,-4,0,69,-11,362187,0
362205,162,-2042,141,-28,2,-22,9889,-2,0,205,64,35382,-43,35,127,0,0,2964,43,0,1139,0,172,27357,-4,0,69,-11,362187,0
362215,169,-2043,143,-35,-2,-30,9895,7,-1,249,88,35372,-55,34,127,0,0,2964,21,0,1139,0,172,27367,-4,0,69,-11,362187,0
362225,173,-2042,136,-40,-10,-34,9895,1,6,273,72,35364,-56,34,127,0,0,2964,10,0,1139,0,172,27377,-4,0,69,-11,362280,0
362235,159,-2045,150,-33,-8,-36,9893,0,-7,245,56,35363,-69,35,127,0,0,2964,32,0,1139,0,172,27387,-4,0,69,-11,362280,0
362245,187,-2047,150,-47,-8,-41,9898,12,-2,289,72,35371,-58,34,127,0,0,2964,0,0,1139,0,172,27397,-4,0,69,-11,362280,0
362255,184,-2059,139,-50,-8,-37,9896,-1,8,269,48,35366,-48,35,127,0,0,2964,21,0,1139,0,172,27407,-4,0,69,-11,362280,0
362265,200,-2045,131,-52,-7,-38,9898,4,-4,311,88,35367,-57,34,127,0,0,2964,-10,0,1139,0,172,27417,-4,0,69,-11,362280,0
362275,178,-2036,137,-48,3,-41,9900,4,6,312,56,35363,-57,34,127,0,0,2964,-32,0,1139,0,172,27427,-4,0,69,-11,362296,0
362285,185,-2041,128,-52,-5,-35,9897,3,-15,272,104,35366,-64,35,127,0,0,2961,0,0,1139,0,172,27437,-4,0,69,-11,362296,0
362295,212,-2034,138,-54,-7,-36,9898,1,-1,283,88,35368,-50,34,127,0,0,2966,0,0,1139,0,172,27447,-4,0,69,-11,362296,0
362305,196,-2035,134,-55,-5,-29,9900,-3,4,312,88,35364,-55,34,127,0,0,2966,10,0,1139,0,172,27457,-4,0,69,-11,362296,0
362315,174,-2047,136,-53,0,-25,9900,1,-3,305,88,35363,-63,35,127,0,0,2966,21,0,1139,0,172,27467,-4,0,69,-11,362296,0
362325,177,-2048,137,-53,-5,-17,9902,5,5,313,88,35386,-55,34,127,0,0,2964,-10,0,1139,0,172,27477,-4,0,69,-11,362296,0
362335,194,-2047,136,-50,-10,-23,9900,0,-4,318,80,35403,-55,35,127,0,0,2966,0,0,1139,0,172,27487,-4,0,69,-11,362327,0
362345,179,-2044,132,-56,-16,-12,9901,-11,-3,333,72,35396,-63,35,127,0,0,2968,21,0,1139,0,172,27497,-4,0,69,-11,362327,0
362355,173,-2046,133,-52,-16,-11,9905,0,2,337,112,35380,-71,35,127,0,0,2968,21,0,1139,0,172,27507,-4,0,69,-11,362327,0
362365,175,-2042,135,-56,-12,-18,9905,8,10,374,128,35372,-59,35,127,0,0,2970,21,0,1139,0,172,27517,-4,0,69,-11,362343,0
362375,174,-2038,132,-53,-11,-15,9910,2,8,364,152,35381,-54,35,127,0,0,2968,0,0,1139,0,172,27527,-4,0,69,-11,362343,0
362385,168,-2036,141,-60,-15,-15,9911,6,-1,352,88,35385,-45,34,127,0,0,2970,10,0,1139,0,172,27537,-4,0,69,-11,362374,0
362395,162,-2028,130,-56,-9,-20,9912,5,-2,394,72,35372,-40,34,127,0,0,2970,0,0,1139,0,172,27547,-4,0,69,-11,362390,0
362405,162,-2040,129,-60,-11,-22,9914,8,2,406,128,35363,-32,35,127,0,0,2972,0,0,1139,0,172,27557,-4,0,69,-11,362390,0
362415,175,-2040,139,-59,-5,-24,9922,6,13,363,104,35364,-31,34,127,0,0,2972,21,0,1139,0,172,27567,-4,0,69,-11,362390,0
362425,181,-2048,134,-60,-11,-24,9933,26,14,317,80,35370,-20,35,127,0,0,2975,32,0,1139,0,172,27577,-4,0,69,-11,362390,0
362435,177,-2046,135,-61,-13,-21,9952,33,23,201,56,35371,-30,34,127,0,0,2972,10,0,1139,0,172,27587,-4,0,69,-11,362421,0
362445,152,-2048,133,-62,-12,-22,9950,-4,-29,236,80,35360,-18,34,127,0,0,2975,0,0,1139,0,172,27597,-4,0,69,-11,362421,0
362455,159,-2054,138,-63,-12,-25,9950,-1,-29,213,48,35363,-16,35,127,0,0,2975,21,0,1139,0,172,27607,-4,0,69,-11,362437,0
362465,172,-2045,128,-63,-12,-30,9950,9,4,217,48,35369,-9,35,127,0,0,2972,0,0,1139,0,172,27617,-4,0,69,-11,362437,0
362475,156,-2048,132,-63,-8,-41,9949,-2,-8,198,48,35372,-20,35,127,0,0,2975,21,0,1139,0,172,27627,-4,0,69,-11,362452,0
362485,169,-2047,141,-66,-14,-48,9952,0,0,241,32,35367,-37,35,127,0,0,2972,10,0,1139,0,172,27637,-4,0,69,-11,362468,0
362495,185,-2052,133,-73,-13,-51,9951,-4,1,223,80,35361,-29,34,127,0,0,2972,10,0,1139,0,172,27647,-4,0,69,-11,362468,0
362505,156,-2047,142,-69,-16,-59,9951,-2,-3,210,80,35360,-19,35,127,0,0,2975,32,0,1139,0,172,27657,-4,0,69,-11,362483,0
362515,174,-2046,143,-73,-11,-53,9954,6,6,246,96,35362,-24,34,127,0,0,2972,-10,0,1139,0,172,27667,-4,0,69,-11,362483,0
362525,151,-2043,133,-77,-19,-56,9951,0,-5,181,48,35364,-29,34,127,0,0,2975,32,0,1139,0,172,27677,-4,0,69,-11,362515,0
362535,180,-2038,132,-76,-21,-54,9952,2,2,224,48,35365,-40,34,127,0,0,2972,0,0,1139,0,172,27687,-4,0,69,-11,362530,0
362545,170,-2035,124,-78,-16,-60,9951,4,-5,217,40,35367,-28,34,127,0,0,2972,-10,0,1139,0,172,27697,-4,0,69,-11,362530,0
362555,167,-2031,122,-74,-18,-56,9953,8,2,257,24,35361,-19,35,127,0,0,2975,-21,0,1139,0,172,27707,-4,0,69,-11,362530,0
362565,187,-2050,124,-83,-17,-47,9952,-1,-4,220,80,35374,-18,34,127,0,0,2972,10,0,1139,0,172,27717,-4,0,69,-11,362530,0
362575,199,-2039,120,-75,-12,-59,9952,-5,2,217,64,35377,-18,34,127,0,0,2975,10,0,1139,0,172,27727,-4,0,69,-11,362562,0
362585,185,-2042,125,-64,-14,-42,9954,14,2,238,32,35384,-28,34,127,0,0,2972,-32,0,1139,0,172,27737,-4,0,69,-11,362562,0
362595,171,-2046,120,-65,-9,-44,9952,11,-4,197,48,35378,-11,35,127,0,0,2972,0,0,1139,0,172,27747,-4,0,69,-11,362562,0
362605,175,-2048,118,-69,-13,-37,9954,2,0,195,40,35374,-24,34,127,0,0,2972,10,0,1139,0,172,27757,-4,0,69,-11,362593,0
362615,195,-2046,124,-65,-12,-39,9951,-1,1,198,48,35360,-18,34,127,0,0,2972,0,0,1139,0,172,27767,-4,0,69,-11,362608,0
362625,187,-2044,126,-58,-4,-34,9952,3,6,218,64,35362,-23,35,127,0,0,2972,-10,0,1139,0,172,27777,-4,0,69,-11,362624,0
362635,182,-2041,126,-54,-9,-36,9950,-14,-4,187,48,35362,-12,35,127,0,0,2975,21,0,1139,0,172,27787,-4,0,69,-11,362624,0
362645,186,-2043,123,-55,-6,-25,9953,13,0,206,72,35360,-18,34,127,0,0,2972,10,0,1139,0,172,27797,-4,0,69,-11,362624,0
362655,196,-2043,118,-48,-1,-29,9951,-9,1,209,80,35359,-30,35,127,0,0,2977,54,0,1139,0,172,27807,-4,0,69,-11,362624,0
362665,201,-2035,117,-48,-6,-23,9953,-10,2,232,72,35369,-35,35,127,0,0,2972,10,0,1139,0,172,27817,-4,0,69,-11,362702,0
362675,192,-2041,120,-46,-1,-22,9954,6,-3,228,32,35368,-21,35,127,0,0,2975,0,0,1139,0,172,27827,-4,0,69,-11,362702,0
362685,173,-2043,126,-46,-6,-20,9953,-5,-5,215,72,35365,-31,34,127,0,0,2977,43,0,1139,0,172,27837,-4,0,69,-11,362702,0
362695,166,-2046,129,-43,-5,-15,9955,7,4,227,72,35353,-12,34,127,0,0,2975,0,0,1139,0,172,27847,-4,0,69,-11,362702,0
362705,166,-2053,129,-44,-12,-9,9954,13,0,240,96,35349,-25,35,127,0,0,2977,32,0,1139,0,172,27857,-4,0,69,-11,362702,0
362715,180,-2038,130,-52,-15,-9,9955,-3,6,288,80,35354,-20,34,127,0,0,2977,0,0,1139,0,172,27867,-4,0,69,-11,362702,0
362725,169,-2050,121,-45,-15,-11,9956,1,2,315,104,35353,-12,35,127,0,0,2979,21,0,1139,0,172,27877,-4,0,69,-11,362702,0
362735,171,-2031,129,-47,-12,-14,9957,-11,0,322,96,35356,-21,35,127,0,0,2977,-10,0,1139,0,172,27887,-4,0,69,-11,362718,0
362745,163,-2044,130,-42,-14,-12,9959,-5,-7,304,96,35363,-13,35,127,0,0,2979,0,0,1139,0,172,27897,-4,0,69,-11,362718,0
362755,172,-2041,128,-46,-7,-11,9959,-7,-2,331,96,35377,-27,35,127,0,0,2981,21,0,1139,0,172,27907,-4,0,69,-11,362749,0
362765,166,-2048,120,-48,-11,-15,9962,9,0,378,112,35374,-9,35,127,0,0,2981,10,0,1139,0,172,27917,-4,0,69,-11,362749,0
362775,157,-2045,126,-42,-10,-19,9961,2,-3,387,112,35369,-19,35,127,0,0,2981,0,0,1139,0,172,27927,-4,0,69,-11,362765,0
362785,167,-2045,137,-41,-2,-25,9960,-1,-4,399,144,35365,-25,35,127,0,0,2983,32,0,1139,0,172,27937,-4,0,69,-11,362765,0
362795,163,-2043,145,-49,-11,-21,9965,12,5,438,160,35380,-37,35,127,0,0,2983,0,0,1139,0,172,27947,-4,0,69,-11,362765,0
362805,152,-2041,133,-51,-10,-26,9966,-1,5,453,144,35388,-20,34,127,0,0,2983,-10,0,1139,0,172,27957,-4,0,69,-11,362796,0
362815,165,-2046,133,-46,-3,-36,9967,2,-6,468,144,35377,-11,34,127,0,0,2986,0,0,1139,0,172,27967,-4,0,69,-11,362796,0
362825,157,-2041,135,-50,-12,-33,9970,-5,-6,476,136,35365,7,35,127,0,0,2986,0,0,1139,0,172,27977,-4,0,69,-11,362796,0
362835,165,-2051,134,-55,-13,-40,9970,1,-2,486,128,35371,-3,34,127,0,0,2986,-10,0,1139,0,172,27987,-4,0,69,-11,362827,0
362845,160,-2038,128,-55,-13,-41,9970,0,-1,476,168,35371,-2,35,127,0,0,2988,21,0,1139,0,172,27997,-4,0,69,-11,362827,0
362855,160,-2044,128,-55,-10,-43,9972,5,1,475,136,35369,-16,34,127,0,0,2983,-21,0,1139,0,172,28007,-4,0,69,-11,362827,0
362865,160,-2034,120,-59,-16,-48,9971,0,-4,475,120,35368,-27,34,127,0,0,2988,10,0,1139,0,172,28017,-4,0,69,-11,362843,0
362875,149,-2033,126,-55,-9,-44,9973,10,4,478,160,35364,-45,35,127,0,0,2986,10,0,1139,0,172,28027,-4,0,69,-11,362843,0
362885,163,-2043,126,-50,-12,-42,9972,-3,3,468,136,35376,-37,34,127,0,0,2988,0,0,1139,0,172,28037,-4,0,69,-11,362874,0
362895,160,-2048,124,-54,-14,-37,9972,-4,6,448,136,35362,-24,35,127,0,0,2986,0,0,1139,0,172,28047,-4,0,69,-11,362874,0
362905,157,-2052,120,-61,-9,-38,9974,11,2,459,168,35367,-39,35,127,0,0,2988,0,0,1139,0,172,28057,-4,0,69,-11,362921,0
362915,163,-2052,120,-50,-10,-35,9975,0,2,473,88,35365,-41,35,127,0,0,2986,0,0,1139,0,172,28067,-4,0,69,-11,362921,0
362925,164,-2057,116,-49,-7,-33,9974,2,0,445,128,35376,-49,35,127,0,0,2988,32,0,1139,0,172,28077,-4,0,69,-11,362921,0
362935,178,-2045,130,-52,-8,-33,9977,7,2,476,184,35380,-26,34,127,0,0,2986,-21,0,1139,0,172,28087,-4,0,69,-11,362921,0
362945,166,-2049,128,-50,-15,-35,9974,-9,0,436,160,35362,-28,34,127,0,0,2986,0,0,1139,0,172,28097,-4,0,69,-11,362921,0
362955,176,-2048,131,-45,-13,-27,9976,3,-10,479,104,35366,-34,35,127,0,0,2988,10,0,1139,0,172,28107,-4,0,69,-11,362921,0
362965,162,-2038,126,-48,-14,-19,9978,11,5,506,168,35384,-33,35,127,0,0,2990,10,0,1139,0,172,28117,-4,0,69,-11,362999,0
362975,171,-2037,126,-44,-12,-19,9982,1,7,499,160,35389,-31,34,127,0,0,2992,21,0,1139,0,172,28127,-4,0,69,-11,363015,0
362985,164,-2043,118,-38,-7,-22,9990,26,8,510,176,35383,-27,34,127,0,0,2992,32,0,1139,0,172,28137,-4,0,69,-11,363015,0
362995,166,-2040,123,-43,-9,-24,10010,55,32,405,96,35367,-23,35,127,0,0,2990,-21,0,1139,0,172,28147,-4,0,69,-11,363015,0
363005,173,-2039,123,-37,-9,-14,10025,19,26,315,80,35366,-19,34,127,0,0,2994,21,0,1139,0,172,28157,-4,0,69,-11,363015,0
363015,164,-2037,125,-40,-13,-11,10023,-17,-45,308,104,35368,-32,35,127,0,0,2997,98,0,1139,0,172,28167,-4,0,69,-11,363015,0
363025,179,-2048,131,-41,-13,-10,10029,14,-18,365,144,35365,-55,34,127,0,0,2997,43,0,1139,0,172,28177,-4,0,69,-11,363015,0
363035,170,-2048,124,-41,-15,-12,10032,1,13,430,120,35360,-53,34,127,0,0,2997,0,0,1139,0,172,28187,-4,0,69,-11,363015,0
363045,163,-2045,118,-38,-13,-12,10031,-4,-10,453,136,35368,-57,35,127,0,0,2999,10,0,1139,0,172,28197,-4,0,69,-11,363015,0
363055,165,-2045,126,-42,-5,-9,10033,-9,1,432,136,35392,-63,34,127,0,0,2999,21,0,1139,0,172,28207,-4,0,69,-11,363030,0
363065,165,-2048,128,-31,-9,-13,10034,-2,-2,429,144,35399,-46,35,127,0,0,3001,32,0,1139,0,172,28217,-4,0,69,-11,363046,0
363075,155,-2048,126,-33,-11,-17,10038,16,1,457,160,35390,-55,34,127,0,0,3001,32,0,1139,0,172,28227,-4,0,69,-11,363061,0
363085,155,-2046,128,-38,-9,-17,10042,9,10,461,152,35383,-33,35,127,0,0,3001,0,0,1139,0,172,28237,-4,0,69,-11,363061,0
363095,150,-2043,126,-40,-6,-16,10044,1,-4,456,176,35377,-41,35,127,0,0,3003,54,0,1139,0,172,28247,-4,0,69,-11,363077,0
363105,169,-2044,126,-36,-7,-19,10054,29,4,492,144,35375,-17,34,127,0,0,3003,0,0,1139,0,172,28257,-4,0,69,-11,363093,0
363115,166,-2043,132,-37,-9,-23,10071,50,41,409,96,35366,-39,34,127,0,0,3003,-32,0,1139,0,172,28267,-4,0,69,-11,363093,0
363125,177,-2045,135,-38,-10,-13,10092,23,21,260,88,35364,-72,35,127,0,0,3008,54,0,1139,0,172,28277,-4,0,69,-11,363108,0
363135,146,-2055,130,-37,-8,-12,10093,-12,-36,317,80,35374,-95,34,127,0,0,3005,0,0,1139,0,172,28287,-4,0,69,-11,363124,0
363145,143,-2044,126,-43,-10,-16,10096,18,-37,352,64,35378,-87,35,127,0,0,3005,-43,0,1139,0,172,28297,-4,0,69,-11,363124,0
363155,169,-2032,129,-40,-10,-15,10095,-3,-3,346,104,35380,-88,35,127,0,0,3008,0,0,1139,0,172,28307,-4,0,69,-11,363124,0
363165,159,-2041,134,-39,-9,-13,10097,-2,-7,325,96,35386,-89,35,127,0,0,3008,0,0,1139,0,172,28317,-4,0,69,-11,363171,0
363175,153,-2045,128,-40,-8,-22,10098,9,5,349,96,35384,-96,34,127,0,0,3010,10,0,1139,0,172,28327,-4,0,69,-11,363171,0
363185,158,-2046,130,-45,-10,-18,10099,2,-1,391,88,35388,-90,35,127,0,0,3010,0,0,1139,0,172,28337,-4,0,69,-11,363171,0
363195,155,-2048,133,-41,-5,-27,10103,22,6,440,96,35374,-87,34,127,0,0,3012,-10,0,1139,0,172,28347,-4,0,69,-11,363171,0
363205,159,-2045,136,-44,-12,-23,10110,11,11,404,152,35376,-91,34,127,0,0,3014,21,0,1139,0,172,28357,-4,0,69,-11,363171,0
363215,148,-2050,130,-47,-9,-29,10115,13,4,405,136,35375,-98,35,127,0,0,3014,0,0,1139,0,172,28367,-4,0,69,-11,363202,0
363225,153,-2035,133,-45,-4,-27,10133,48,22,339,96,35378,-95,34,127,0,0,3014,10,0,1139,0,172,28377,-4,0,69,-11,363202,0
363235,173,-2041,134,-50,-17,-21,10156,21,38,133,48,35380,-77,35,127,0,0,3014,10,0,1139,0,172,28387,-4,0,69,-11,363233,0
363245,132,-2048,128,-51,-10,-32,10153,12,-45,250,40,35375,-94,35,127,0,0,3014,-21,0,1139,0,172,28397,-4,0,69,-11,363233,0
363255,155,-2046,131,-48,-3,-29,10153,-6,-39,196,48,35370,-95,35,127,0,0,3016,32,0,1139,0,172,28407,-4,0,69,-11,363233,0
363265,182,-2042,133,-49,-14,-33,10156,-4,7,235,64,35374,-96,35,127,0,0,3014,10,0,1139,0,172,28417,-4,0,69,-11,363233,0
363275,184,-2050,134,-53,-8,-31,10154,-1,2,239,32,35385,-98,35,127,0,0,3014,-21,0,1139,0,172,28427,-4,0,69,-11,363265,0
363285,150,-2040,131,-51,-7,-36,10156,12,-4,246,96,35384,-109,35,127,0,0,3019,21,0,1139,0,172,28437,-4,0,69,-11,363265,0
363295,155,-2042,129,-46,-7,-34,10156,-2,1,259,32,35386,-124,35,127,0,0,3016,0,0,1139,0,172,28447,-4,0,69,-11,363265,0
363305,154,-2044,126,-52,-10,-30,10157,18,-3,263,96,35378,-101,34,127,0,0,3016,10,0,1139,0,172,28457,-4,0,69,-11,363374,0
363315,164,-2042,126,-49,-7,-33,10156,-15,3,246,64,35375,-87,35,127,0,0,3021,65,0,1139,0,172,28467,-4,0,69,-11,363374,0
363325,165,-2046,132,-48,-6,-28,10162,18,7,311,80,35371,-97,34,127,0,0,3019,-10,0,1139,0,172,28477,-4,0,69,-11,363374,0
363335,152,-2053,121,-49,-11,-33,10159,2,1,320,32,35362,-97,34,127,0,0,3021,21,0,1139,0,172,28487,-4,0,69,-11,363389,0
363345,167,-2046,128,-50,-10,-38,10161,-1,-12,316,72,35365,-111,35,127,0,0,3019,10,0,1139,0,172,28497,-4,0,69,-11,363389,0
363355,172,-2050,124,-53,-10,-33,10161,0,-4,300,80,35368,-101,35,127,0,0,3019,0,0,1139,0,172,28507,-4,0,69,-11,363389,0
363365,156,-2041,130,-48,-13,-26,10160,0,3,267,88,35368,-98,35,127,0,0,3021,43,0,1139,0,172,28517,-4,0,69,-11,363389,0
363375,159,-2046,129,-52,-15,-31,10163,7,2,352,88,35369,-109,34,127,0,0,3021,-10,0,1139,0,172,28527,-4,0,69,-11,363389,0
363385,149,-2069,108,-53,-12,-34,10163,10,0,341,96,35370,-89,34,127,0,0,3019,-32,0,1139,0,172,28537,-4,0,69,-11,363389,0
363395,155,-2026,124,-44,-8,-45,10162,3,-10,330,128,35374,-94,35,127,0,0,3021,0,0,1139,0,172,28547,-4,0,69,-11,363389,0
363405,418,-1987,26,-103,-34,-193,10162,-16,-3,306,64,35371,-74,35,127,0,0,3023,32,0,1139,0,172,28557,-4,0,69,-11,363389,0
363415,668,-1965,-60,-151,-60,-406,10167,22,11,400,64,35377,-94,35,127,0,0,3019,-65,0,1139,0,172,28567,-4,0,69,-11,363389,0
363425,126,-1887,103,-177,-58,-495,10162,-26,-8,296,8,35385,-103,35,127,0,0,3005,-208,0,1139,0,172,28577,-4,0,69,-11,363389,0
363435,78,-2041,289,-225,-102,-161,10138,-77,-65,-187,-72,35397,-91,35,127,0,0,2999,-32,0,1139,0,172,28587,-4,0,69,-11,363436,0
363445,432,-2033,5,-151,15,-302,10124,-14,-19,-236,-64,35396,-89,34,127,0,0,2990,-98,0,1139,0,172,28597,-4,0,69,-11,363436,0
363455,852,-1932,-131,-184,43,-574,10117,-37,43,-394,-144,35374,-82,34,127,0,0,2979,-175,0,1139,0,172,28607,-4,0,69,-11,363436,0
363465,611,-1859,12,-248,-69,-637,10075,-125,-77,-449,-232,35357,-80,35,127,0,0,2966,-164,0,1139,0,172,28617,-4,0,69,-11,363436,0
363475,267,-1909,71,-267,-117,-478,10008,-169,-118,-460,-264,35368,-84,34,127,0,0,2948,-120,0,1139,0,172,28627,-4,0,69,-11,363468,0
363485,395,-2062,7,-182,13,-506,9935,-150,-49,-382,-256,35371,-51,35,127,0,0,2937,-109,0,1139,0,172,28637,-4,0,69,-11,363468,0
363495,668,-1982,-107,-187,27,-595,9878,-118,33,-434,-208,35372,-54,34,127,0,0,2922,-142,0,1139,0,172,28647,-4,0,69,-11,363468,0
363505,721,-1933,-17,-243,-52,-678,9838,-104,62,-608,-320,35360,-44,34,127,0,0,2904,-197,0,1139,0,172,28657,-4,0,69,-11,363499,0
363515,513,-2000,52,-248,-74,-580,9764,-183,-31,-580,-352,35359,-71,35,127,0,0,2887,-142,0,1139,0,172,28667,-4,0,69,-11,363499,0
363525,562,-2024,-9,-178,-52,-417,9682,-178,-86,-516,-296,35364,-69,34,127,0,0,2880,-65,0,1139,0,172,28677,-4,0,69,-11,363499,0
363535,627,-2006,-101,-139,-43,-348,9620,-141,12,-476,-224,35357,-71,35,127,0,0,2871,-76,0,1139,0,172,28687,-4,0,69,-11,363499,0
363545,702,-1949,-78,-110,-35,-366,9572,-104,55,-476,-192,35354,-96,35,127,0,0,2869,-10,0,1139,0,172,28697,-4,0,69,-11,363530,0
363555,562,-1981,-41,-100,-37,-376,9547,-20,63,-526,-216,35353,-129,35,127,0,0,2863,-54,0,1139,0,172,28707,-4,0,69,-11,363546,0
363565,428,-1965,-32,-78,-46,-297,9543,-7,96,-723,-248,35359,-149,35,127,0,0,2854,-76,0,1139,0,172,28717,-4,0,69,-11,363546,0
363575,351,-2064,-8,-55,-28,-283,9522,-59,0,-695,-240,35368,-143,34,127,0,0,2854,-32,0,1139,0,172,28727,-4,0,69,-11,363546,0
363585,335,-2037,46,-56,6,-360,9488,-51,-60,-486,-200,35361,-134,34,127,0,0,2852,-32,0,1139,0,172,28737,-4,0,69,-11,363577,0
363595,369,-2016,91,-88,-7,-423,9477,-20,25,-636,-240,35357,-132,35,127,0,0,2845,-43,0,1139,0,172,28747,-4,0,69,-11,363577,0
363605,267,-2037,111,-123,-44,-508,9450,-74,18,-570,-200,35360,-107,35,127,0,0,2838,-43,0,1139,0,172,28757,-4,0,69,-11,363577,0
363615,142,-2064,115,-148,-31,-559,9411,-84,-51,-508,-248,35374,-97,35,127,0,0,2830,-43,0,1139,0,172,28767,-4,0,69,-11,363593,0
363625,169,-2084,104,-226,-9,-650,9375,-86,-16,-503,-224,35370,-90,35,127,0,0,2819,-109,0,1139,0,172,28777,-4,0,69,-11,363608,0
363635,133,-2091,17,-291,2,-709,9345,-49,8,-632,-240,35364,-101,35,127,0,0,2812,-76,0,1139,0,172,28787,-4,0,69,-11,363608,0
363645,116,-2420,82,-461,8,-724,9310,-89,26,-609,-232,35357,-92,34,127,0,0,2810,-21,0,1139,0,172,28797,-4,0,69,-11,363639,0
363655,10,-2609,265,-387,45,-845,9280,-45,-2,-518,-176,35359,-91,35,127,0,0,2810,-10,0,1139,0,172,28807,-4,0,69,-11,363639,0
363665,-16,-2675,318,-452,169,-960,9275,0,64,-588,-168,35358,-90,34,127,0,0,2814,54,0,1139,0,172,28817,-4,0,69,-11,363639,0
363675,-2,-2130,366,-561,-2,-907,9277,17,55,-404,-24,35348,-89,34,127,0,0,2830,175,0,1139,0,172,28827,-4,0,-36,0,363639,0
363685,-72,-2187,358,-722,-181,-1153,9310,82,78,-126,32,35356,-105,35,127,0,0,2843,142,0,1139,0,172,28837,-4,0,-36,0,363671,0
363695,-96,-2289,352,-802,-248,-1344,9343,77,62,165,88,35363,-112,34,127,0,0,2854,109,0,1139,0,172,28847,-4,0,-36,0,363686,0
363705,-170,-2373,414,-916,-315,-1700,9394,89,32,131,80,35369,-103,35,127,0,0,2863,98,0,1139,0,172,28857,-4,0,-36,0,363718,0
363715,-332,-2356,492,-985,-327,-1953,9426,73,-8,169,40,35364,-112,34,127,0,0,2865,43,0,1139,0,172,28867,-4,0,-36,0,363718,0
363725,-308,-2363,438,-1132,-416,-2291,9434,-7,-77,212,32,35358,-106,34,127,0,0,2867,21,0,1139,0,172,28877,-4,0,-36,0,363718,0
363735,-315,-2422,389,-1212,-470,-2505,9435,14,-64,216,40,35366,-117,35,127,0,0,2867,10,0,1139,0,172,28887,-4,0,-36,0,363718,0
363745,-306,-2534,289,-1311,-500,-2861,9434,-8,-16,225,32,35366,-93,34,127,0,0,2865,0,0,1139,0,172,28897,-4,0,-36,0,363718,0
363755,-292,-2576,267,-1325,-516,-3075,9434,0,2,236,64,35364,-92,34,127,0,0,2865,-32,0,1139,0,172,28907,-4,0,-35,0,363733,0
363765,-220,-2732,158,-1342,-612,-3303,9434,-5,-1,222,96,35365,-101,35,127,0,0,2876,120,0,1139,0,172,28917,-4,0,-35,0,363764,0
363775,-95,-2920,172,-1332,-711,-3496,9451,54,38,435,128,35368,-94,35,127,0,0,2887,98,0,1139,0,172,28927,-4,0,-34,0,363764,0
363785,-228,-3093,193,-1375,-761,-3612,9486,111,73,495,272,35370,-88,34,127,0,0,2911,263,0,1139,0,172,28937,-4,0,-33,0,363764,0
363795,-300,-3160,230,-1440,-778,-3608,9574,231,130,486,472,35361,-95,34,127,0,0,2953,428,0,1139,0,172,28947,-4,0,-32,0,363764,0
363805,-234,-3205,319,-1485,-726,-3838,9703,312,182,576,744,35364,-104,35,127,0,0,3016,670,0,1139,0,172,28957,-4,0,-31,0,363796,0
363815,-164,-3050,428,-1469,-680,-3898,9885,428,178,596,1136,35369,-108,35,127,0,0,3091,736,0,1139,0,172,28967,-4,0,-30,0,363796,0
363825,120,-2714,449,-1514,-706,-3944,10121,550,199,665,1456,35371,-80,35,127,0,0,3179,878,0,1139,0,172,28977,-4,0,-27,0,363796,0
363835,737,-2519,83,-1551,-655,-3984,10415,690,217,690,1808,35360,-66,34,127,0,0,3271,933,0,1139,0,172,28987,-4,0,-26,0,363811,0
363845,823,-2941,-75,-1346,-231,-4153,10774,825,238,557,1704,35352,-34,34,127,0,0,3311,296,0,1139,0,172,28997,-4,0,-23,0,363827,0
363855,69,-2504,352,-933,148,-3570,11111,697,90,309,1272,35349,-57,35,127,0,0,3333,208,0,1139,0,172,29007,-4,0,-22,0,363843,0
363865,-74,-1324,186,-625,1057,-2935,11383,561,-172,308,984,35355,-62,34,127,0,0,3359,285,0,1139,0,172,29017,-4,0,-19,0,363843,0
363875,-221,-1002,113,-470,1218,-2491,11599,455,-232,355,688,35356,-44,35,127,0,0,3357,10,0,1139,0,172,29027,-4,0,-17,0,363843,0
363885,-64,-1075,76,-181,1270,-1555,11761,327,-198,268,208,35355,-64,34,127,0,0,3348,-109,0,1139,0,172,29037,-4,0,-13,0,363874,0
363895,-6,-1231,207,103,1156,-822,11829,49,-282,88,16,35352,-62,34,127,0,0,3346,10,0,1139,0,172,29047,-4,0,-10,0,363874,0
363905,-30,-1273,291,428,935,70,11806,-34,-377,292,32,35361,-103,35,127,0,0,3339,-76,0,1139,0,172,29057,-4,0,-6,0,363874,0
363915,53,-1314,305,591,751,719,11804,-1,-124,34,-56,35371,-101,34,127,0,0,3331,-98,0,1139,0,172,29067,-4,0,-3,0,363905,0
363925,80,-1327,253,804,478,1663,11775,-84,-2,-133,-104,35368,-87,34,127,0,0,3320,-120,0,1139,0,172,29077,-4,0,1,0,363905,0
363935,121,-1316,171,937,309,2265,11719,-119,-114,-151,-104,35365,-95,35,127,0,0,3309,-98,0,1139,0,172,29087,-4,0,4,0,363905,0
363945,108,-1344,42,1122,131,3150,11681,-84,-22,-339,-184,35368,-87,34,127,0,0,3295,-76,0,1139,0,172,29097,-4,0,9,0,363967,0
363955,90,-1382,-26,1256,104,3667,11646,-63,48,-363,-136,35368,-101,35,127,0,0,3291,-76,0,1139,0,172,29107,-4,0,12,0,363967,0
363965,127,-1400,-71,1423,153,4392,11602,-125,-10,-343,-112,35369,-80,35,127,0,0,3284,-65,0,1139,0,172,29117,-4,0,18,0,363967,0
363975,101,-1422,-83,1527,235,4829,11558,-94,-27,-255,-64,35361,-56,35,127,0,0,3284,-21,0,1139,0,172,29127,-4,0,21,0,363967,0
363985,144,-1510,-98,1644,469,5379,11547,4,65,-177,-32,35365,-35,35,127,0,0,3284,0,0,1139,0,172,29137,-4,0,27,0,363983,0
363995,147,-1545,-122,1713,660,5718,11549,-13,99,-226,-32,35366,-23,35,127,0,0,3284,10,0,1139,0,172,29147,-4,0,31,0,363983,0
364005,104,-1631,-138,1819,931,6208,11550,14,20,-168,-56,35369,-20,35,127,0,0,3291,65,0,1139,0,172,29157,-4,0,36,0,363983,0
364015,153,-1701,-131,1881,1123,6481,11560,48,19,126,88,35388,-36,35,127,0,0,3306,164,0,1139,0,172,29167,-4,0,40,0,363983,0
364025,144,-1796,-98,1998,1391,6815,11603,128,77,415,256,35393,-38,35,127,0,0,3333,252,0,1139,0,172,29177,-4,0,46,0,364014,0
364035,200,-1858,-84,2049,1552,6983,11686,194,150,505,384,35402,-62,35,127,0,0,3361,285,0,1139,0,172,29187,-4,0,50,0,364014,0
364045,242,-1949,-70,2120,1751,7228,11801,260,142,514,560,35389,-62,35,127,0,0,3403,428,0,1139,0,172,29197,-4,0,56,0,364077,0
364055,229,-2006,-62,2160,1875,7335,11941,335,105,577,744,35374,-76,35,127,0,0,3445,472,0,1139,0,172,29207,-4,0,60,0,364077,0
364065,291,-2104,-52,2180,2074,7417,12103,369,98,594,952,35374,-96,35,127,0,0,3498,527,0,1139,0,172,29217,-4,0,66,0,364092,0
364075,328,-2160,-49,2166,2216,7411,12293,430,99,604,1072,35381,-95,35,127,0,0,3548,527,0,1139,0,172,29227,-4,0,70,23,364108,0
364085,412,-2241,-23,2094,2428,7310,12512,496,107,648,1168,35386,-75,34,127,0,0,3599,450,0,1139,0,172,29237,-4,0,75,19,364108,0
364095,447,-2287,11,2003,2534,7223,12750,515,95,505,1280,35372,-66,34,127,0,0,3654,549,0,1139,0,172,29247,-4,0,79,18,364108,0
364105,534,-2380,-3,1819,2612,7023,12993,535,40,536,1312,35359,-82,35,127,0,0,3704,505,0,1139,0,172,29257,-4,0,84,15,364108,0
364115,575,-2428,3,1662,2597,6874,13242,545,25,570,1312,35360,-63,34,127,0,0,3752,516,0,1139,0,172,29267,-4,0,87,14,364108,0
364125,696,-2516,62,1391,2537,6572,13501,572,30,513,1368,35365,-29,35,127,0,0,3803,505,0,1139,0,172,29277,-4,0,91,13,364108,0
364135,725,-2556,88,1204,2466,6335,13761,572,15,529,1352,35378,-23,34,127,0,0,3854,483,0,1139,0,172,29287,-4,0,94,12,364108,0
364145,738,-2625,142,907,2332,5938,14026,584,12,547,1384,35389,-31,34,127,0,0,3908,571,0,1139,0,172,29297,-4,0,97,12,364171,0
364155,769,-2681,130,735,2259,5668,14297,605,17,541,1440,35394,-81,35,127,0,0,3961,538,0,1139,0,172,29307,-4,0,99,11,364171,0
364165,831,-2682,179,612,1974,5165,14572,607,22,552,1480,35388,-71,35,127,0,0,4016,560,0,1139,0,172,29317,-4,0,102,11,364171,0
364175,857,-2615,227,598,1719,4628,14855,627,27,525,1440,35366,-63,34,127,0,0,4058,406,0,1139,0,172,29327,-4,0,104,11,364171,0
364185,958,-2399,239,614,1282,3731,15133,592,7,427,1232,35359,-75,34,127,0,0,4093,263,0,1139,0,172,29337,-4,0,105,11,364186,0
364195,954,-2159,239,598,987,3135,15379,508,-73,352,928,35359,-65,34,127,0,0,4108,164,0,1139,0,172,29347,-4,0,106,11,364186,0
364205,929,-1886,177,545,543,2171,15580,409,-156,352,584,35366,-91,35,127,0,0,4111,32,0,1139,0,172,29357,-4,0,106,11,364186,0
364215,860,-1805,139,470,264,1539,15735,296,-175,270,248,35372,-72,34,127,0,0,4115,-10,0,1139,0,172,29367,-4,0,106,11,364186,0
364225,726,-1909,134,365,-13,624,15827,162,-212,185,80,35377,-94,34,127,0,0,4113,-54,0,1139,0,172,29377,-4,0,106,10,364217,0
364235,667,-1990,171,213,-100,-13,15823,-62,-302,227,88,35383,-120,34,127,0,0,4113,-10,0,1139,0,172,29387,-4,0,105,10,364217,0
364245,634,-2163,197,8,-45,-918,15823,24,-177,282,72,35386,-133,35,127,0,0,4111,-65,0,1139,0,172,29397,-4,0,104,9,364217,0
364255,647,-2240,180,-149,72,-1488,15819,-19,8,226,56,35391,-132,34,127,0,0,4111,-32,0,1139,0,172,29407,-4,0,103,9,364264,0
364265,629,-2231,135,-320,245,-2266,15818,-23,-11,105,-16,35380,-115,34,127,0,0,4104,-43,0,1139,0,172,29417,-4,0,101,8,364264,0
364275,647,-2127,117,-445,323,-2712,15808,-41,-11,-115,-80,35373,-127,35,127,0,0,4093,-98,0,1139,0,172,29427,-4,0,99,7,364264,0
364285,745,-1984,121,-564,376,-3279,15778,-80,-55,-319,-176,35373,-116,34,127,0,0,4078,-153,0,1139,0,172,29437,-4,0,97,6,364264,0
364295,-2081,-5037,-645,-799,-89,-2974,15713,-153,-103,-305,-176,35375,-114,35,127,0,0,4067,-164,0,1124,19,173,7,1,0,95,6,364280,0
364305,-1795,-2504,1368,35,630,-794,15642,-103,-88,150,304,35385,-113,34,127,0,0,4102,384,0,1124,19,173,17,1,0,92,5,364280,0
364315,-2090,-1748,1165,374,353,-739,15708,146,263,130,-152,35387,-114,34,127,0,0,4062,-362,0,1124,19,173,27,1,0,91,5,364280,0
364325,-591,-1526,936,521,-1335,856,15648,-157,27,-102,288,35396,-117,35,127,0,0,4146,988,0,1124,19,173,37,1,0,89,5,364311,0
364335,-400,-1320,824,509,-1503,1209,15774,463,81,1242,1784,35392,-92,34,127,0,0,4328,1878,0,1124,19,173,47,1,0,88,5,364311,0
364345,-859,-2879,-436,347,-491,620,16168,1033,894,1542,3160,35366,-54,35,127,0,0,4519,1889,0,1124,19,173,57,1,0,86,4,364311,0
364355,-470,-1983,-945,763,429,273,16773,1407,927,1093,3488,35342,-12,35,127,0,0,4645,1164,0,1124,19,173,67,1,0,85,4,364327,0
364365,-1333,-1295,-219,316,290,-441,17420,1381,487,525,3096,35330,-3,35,127,0,0,4719,725,0,1124,19,173,77,1,0,84,4,364342,0
364375,-1337,-1944,-116,307,743,-836,17985,1203,-92,379,2712,35344,-5,35,127,0,0,4787,714,0,1124,19,173,87,1,0,83,4,364358,0
364385,-733,-2067,-139,321,1162,-1341,18479,1037,-293,383,2296,35357,-31,34,127,0,0,4833,494,0,1124,19,173,97,1,0,81,4,364358,0
364395,-95,-1799,-171,340,773,-1586,18901,876,-268,343,1808,35357,-46,34,127,0,0,4858,219,0,1124,19,173,107,1,0,80,3,364358,0
364405,-747,-2206,228,241,284,-1572,19237,667,-303,279,1200,35354,-72,35,127,0,0,4871,120,0,1124,19,173,117,1,0,79,3,364389,0
364415,-935,-2258,442,168,-12,-1605,19465,507,-334,319,840,35357,-53,35,127,0,0,4886,153,0,1124,19,173,127,1,0,78,3,364389,0
364425,-608,-2161,589,124,-455,-1607,19645,361,-312,481,720,35364,-64,34,127,0,0,4908,197,0,1124,19,173,137,1,0,76,2,364389,0
364435,-455,-2123,634,175,-489,-1675,19795,319,-189,608,632,35369,-88,34,127,0,0,4930,175,0,1124,19,173,147,1,0,75,2,364467,0
364445,-560,-1929,706,206,-259,-1829,19934,291,-73,570,472,35372,-110,35,127,0,0,4932,0,0,1124,19,173,157,1,0,73,2,364483,0
364455,-407,-1885,799,162,-43,-1835,20032,173,-101,478,240,35371,-109,35,127,0,0,4928,-32,0,1124,19,173,167,1,0,72,2,364483,0
364465,-332,-2009,872,47,240,-2080,20078,77,-186,304,32,35371,-89,35,127,0,0,4908,-208,0,1124,19,173,177,1,0,71,2,364483,0
364475,-198,-2042,709,-68,250,-2148,20043,-131,-256,-163,-168,35363,-71,34,127,0,0,4877,-351,0,1124,19,173,187,1,0,70,1,364483,0
364485,-338,-2072,559,-183,131,-2046,19936,-281,-296,-287,-400,35355,-71,34,127,0,0,4840,-395,0,1124,19,173,197,1,0,68,1,364483,0
364495,-483,-1992,272,-194,74,-2014,19799,-309,-177,-340,-464,35351,-69,35,127,0,0,4807,-351,0,1124,19,173,207,1,0,67,1,364483,0
364505,-607,-1925,-97,-193,154,-2125,19657,-311,-51,-410,-552,35362,-101,34,127,0,0,4768,-439,0,1124,19,173,217,1,0,66,1,364483,0
364515,-541,-1911,-156,-130,217,-2255,19497,-367,-9,-431,-704,35368,-95,35,127,0,0,4724,-461,0,1124,19,173,227,1,0,66,1,364499,0
364525,-343,-1883,-74,-31,213,-2318,19318,-416,-82,-503,-920,35366,-94,34,127,0,0,4671,-505,0,1124,19,173,237,1,0,66,1,364499,0
364535,-236,-1865,28,9,92,-2250,19113,-474,-118,-516,-1096,35365,-63,34,127,0,0,4616,-549,0,1124,19,173,247,1,0,66,1,364530,0
364545,-29,-2011,139,40,34,-2187,18879,-521,-105,-503,-1208,35357,-71,34,127,0,0,4561,-538,0,1124,19,173,257,1,0,66,1,364530,0
364555,-143,-1923,202,60,46,-2073,18626,-564,-97,-490,-1344,35366,-74,34,127,0,0,4497,-637,0,1124,19,173,267,1,0,66,1,364530,0
364565,33,-2020,428,91,82,-1944,18351,-619,-76,-528,-1448,35352,-68,34,127,0,0,4436,-604,0,1124,19,173,277,1,0,66,1,364561,0
364575,176,-1940,512,70,81,-1862,18054,-668,-84,-484,-1504,35347,-79,35,127,0,0,4374,-593,0,1124,19,173,287,1,0,66,1,364561,0
364585,59,-2024,536,15,-26,-1542,17752,-664,-60,-447,-1472,35345,-53,34,127,0,0,4322,-538,0,1124,19,173,297,1,0,66,1,364592,0
364595,58,-2088,507,15,-59,-1378,17450,-661,-14,-405,-1416,35348,-69,35,127,0,0,4271,-483,0,1124,19,173,307,1,0,66,1,364592,0
364605,-17,-2046,323,36,-9,-1268,17150,-655,10,-353,-1232,35345,-66,35,127,0,0,4231,-417,0,1124,19,173,317,1,0,66,1,364592,0
364615,-60,-2048,244,68,8,-1202,16878,-574,55,-319,-1176,35339,-65,35,127,0,0,4192,-417,0,1124,19,173,327,1,0,66,1,364592,0
364625,-94,-2088,217,101,-22,-1064,16625,-545,89,-346,-992,35344,-78,35,127,0,0,4152,-373,0,1124,19,173,337,1,0,66,1,364608,0
364635,-111,-2064,207,119,-51,-1013,16390,-498,82,-360,-912,35364,-78,35,127,0,0,4117,-384,0,1124,19,173,347,1,0,66,1,364608,0
364645,-116,-2025,150,128,23,-1045,16172,-472,65,-359,-832,35376,-72,35,127,0,0,4084,-340,0,1124,19,173,357,1,0,66,1,364639,0
364655,-146,-2033,200,134,56,-1060,15974,-436,65,-407,-800,35377,-64,35,127,0,0,4047,-373,0,1124,19,173,367,1,0,66,1,364639,0
364665,-91,-1991,405,124,-18,-1041,15784,-417,55,-422,-824,35364,-77,35,127,0,0,4014,-340,0,1124,19,173,377,1,0,66,1,364639,0
364675,-86,-1996,480,95,-104,-964,15600,-406,22,-441,-776,35355,-87,34,127,0,0,3979,-296,0,1124,19,173,387,1,0,66,1,364639,0
364685,-50,-1980,512,65,-183,-931,15425,-388,28,-446,-720,35368,-87,35,127,0,0,3950,-274,0,1124,19,173,397,1,0,66,1,364670,0
364695,-75,-1968,515,38,-183,-960,15263,-346,43,-496,-720,35360,-78,34,127,0,0,3922,-307,0,1124,19,173,407,1,0,66,1,364686,0
364705,-106,-1971,574,-55,-180,-975,15098,-352,22,-495,-624,35360,-71,34,127,0,0,3895,-263,0,1124,19,173,417,1,0,66,1,364686,0
364715,-81,-1982,557,-118,-187,-973,14938,-347,11,-513,-656,35356,-96,35,127,0,0,3864,-285,0,1124,19,173,427,1,0,66,1,364686,0
364725,-120,-1987,473,-180,-168,-1031,14782,-333,12,-452,-624,35369,-103,34,127,0,0,3838,-274,0,1124,19,173,437,1,0,66,1,364717,0
364735,-108,-1994,413,-222,-153,-1078,14635,-324,21,-529,-632,35361,-96,35,127,0,0,3805,-329,0,1124,19,173,447,1,0,66,1,364717,0
364745,-138,-2026,404,-252,-133,-1136,14485,-330,21,-557,-712,35360,-93,35,127,0,0,3777,-329,0,1124,19,173,457,1,0,66,1,364717,0
364755,-129,-2059,390,-266,-113,-1199,14328,-339,-25,-520,-680,35356,-77,34,127,0,0,3741,-351,0,1124,19,173,467,1,0,66,1,364749,0
364765,-62,-2029,371,-275,-63,-1273,14170,-345,-7,-522,-752,35365,-92,35,127,0,0,3711,-329,0,1124,19,173,477,1,0,66,1,364749,0
364775,-15,-2008,381,-290,-61,-1297,14011,-361,0,-519,-840,35363,-100,34,127,0,0,3671,-384,0,1124,19,173,487,1,0,66,1,364749,0
364785,83,-1993,357,-298,-72,-1325,13840,-393,-25,-557,-880,35359,-88,34,127,0,0,3636,-373,0,1124,19,173,497,1,0,66,1,364749,0
364795,94,-1971,319,-319,-83,-1326,13663,-406,-37,-560,-944,35363,-71,34,127,0,0,3599,-373,0,1124,19,173,507,1,0,66,1,364842,0
364805,77,-1963,276,-337,-73,-1319,13470,-422,-42,-496,-952,35366,-74,34,127,0,0,3561,-373,0,1124,19,173,517,1,0,66,1,364842,0
364815,107,-1972,255,-350,-83,-1292,13279,-429,-23,-512,-912,35358,-83,35,127,0,0,3524,-362,0,1124,19,173,527,1,0,66,1,364842,0
364825,130,-2048,245,-323,-83,-1273,13086,-428,-1,-479,-920,35351,-71,35,127,0,0,3487,-395,0,1124,19,173,537,1,0,66,1,364842,0
364835,121,-2042,244,-292,-70,-1256,12897,-423,0,-514,-920,35351,-67,35,127,0,0,3451,-351,0,1124,19,173,547,1,0,66,1,364858,0
364845,149,-2028,240,-260,-59,-1250,12705,-422,-4,-482,-944,35357,-71,34,127,0,0,3410,-406,0,1124,19,173,557,1,0,66,1,364858,0
364855,183,-2035,230,-236,-63,-1208,12514,-424,-4,-506,-864,35359,-76,35,127,0,0,3379,-340,0,1124,19,173,567,1,0,66,1,364858,0
364865,216,-2002,208,-205,-73,-1157,12331,-405,9,-534,-816,35358,-72,34,127,0,0,3346,-340,0,1124,19,173,577,1,0,66,1,364858,0
364875,152,-1980,193,-180,-71,-1117,12149,-394,18,-484,-872,35358,-83,34,127,0,0,3311,-351,0,1124,19,173,587,1,0,66,1,364858,0
364885,192,-1977,223,-152,-55,-1070,11967,-397,3,-529,-800,35369,-94,35,127,0,0,3280,-307,0,1124,19,173,597,1,0,66,1,364858,0
364895,186,-1992,229,-130,-55,-1057,11791,-379,12,-523,-840,35389,-98,34,127,0,0,3249,-318,0,1124,19,173,607,1,0,66,1,364889,0
364905,181,-2014,267,-118,-52,-1048,11619,-378,28,-577,-800,35387,-104,34,127,0,0,3218,-285,0,1124,19,173,617,1,0,66,1,364889,0
364915,176,-2011,298,-120,-41,-1064,11442,-382,-9,-510,-808,35380,-91,35,127,0,0,3188,-329,0,1124,19,173,627,1,0,66,1,364889,0
364925,202,-2015,307,-102,-29,-1078,11266,-380,-5,-475,-720,35374,-67,34,127,0,0,3157,-285,0,1124,19,173,637,1,0,66,1,364920,0
364935,196,-2007,298,-80,-39,-1086,11101,-355,24,-515,-736,35373,-49,35,127,0,0,3124,-318,0,1124,19,173,647,1,0,66,1,364920,0
364945,148,-1983,293,-75,-54,-1116,10942,-354,42,-538,-744,35369,-67,34,127,0,0,3089,-329,0,1124,19,173,657,1,0,66,1,364936,0
364955,82,-1994,279,-71,-62,-1119,10784,-353,8,-576,-768,35355,-67,34,127,0,0,3056,-329,0,1124,19,173,667,1,0,66,1,364936,0
364965,57,-2004,250,-73,-60,-1174,10626,-336,-2,-586,-792,35360,-77,35,127,0,0,3019,-362,0,1124,19,173,677,1,0,66,1,364936,0
364975,105,-1977,239,-54,-31,-1258,10458,-372,-12,-585,-800,35378,-45,35,127,0,0,2979,-373,0,1124,19,173,687,1,0,66,1,364952,0
364985,12,-1972,241,-63,-60,-1285,10291,-372,-20,-598,-856,35375,-45,35,127,0,0,2942,-384,0,1124,19,173,697,1,0,66,1,364967,0
364995,254,-2057,264,-61,-34,-1417,10122,-383,-3,-582,-824,35365,-61,35,127,0,0,2906,-373,0,1124,19,173,707,1,0,66,1,364967,0
365005,105,-1987,323,-73,-27,-1589,9954,-389,4,-630,-928,35357,-78,35,127,0,0,2863,-439,0,1124,19,173,717,1,0,66,1,364983,0
365015,102,-2005,400,-108,-66,-1575,9766,-423,-33,-621,-928,35368,-68,34,127,0,0,2823,-395,0,1124,19,173,727,1,0,66,1,364983,0
365025,143,-2023,410,-127,-98,-1626,9578,-421,-40,-612,-968,35380,-58,35,127,0,0,2779,-406,0,1124,19,173,737,1,0,66,1,365014,0
365035,180,-1957,339,-132,-77,-1758,9390,-410,0,-639,-1016,35370,-77,34,127,0,0,2735,-439,0,1124,19,173,747,1,0,66,1,365014,0
365045,172,-1965,398,-182,-101,-1838,9191,-447,-15,-642,-1048,35367,-95,34,127,0,0,2687,-483,0,1124,19,173,757,1,0,66,1,365014,0
365055,185,-1941,411,-221,-136,-1848,8987,-457,-31,-613,-1096,35366,-92,34,127,0,0,2641,-472,0,1124,19,173,767,1,0,66,1,365030,0
365065,268,-1968,393,-272,-216,-1853,8774,-471,-21,-665,-1064,35375,-75,34,127,0,0,2597,-417,0,1124,19,173,777,1,0,66,1,365030,0
365075,298,-1985,394,-310,-234,-1882,8562,-469,-10,-625,-1088,35380,-81,34,127,0,0,2555,-373,0,1124,19,173,787,1,0,66,1,365077,0
365085,353,-1987,452,-367,-274,-1947,8350,-474,2,-588,-1040,35381,-95,35,127,0,0,2509,-450,0,1124,19,173,797,1,0,66,1,365077,0
365095,356,-1993,430,-391,-356,-1958,8144,-458,14,-616,-1080,35380,-62,34,127,0,0,2465,-450,0,1124,19,173,807,1,0,66,1,365077,0
365105,450,-2027,399,-423,-557,-1949,7937,-456,7,-613,-1016,35380,-68,35,127,0,0,2427,-329,0,1124,19,173,817,1,0,66,1,365077,0
365115,286,-2100,289,-463,-837,-1902,7739,-426,9,-537,-896,35381,-88,35,127,0,0,2403,-208,0,1124,19,173,827,1,0,66,1,365108,0
365125,792,-2326,713,-495,-1772,-1793,7555,-393,41,-469,-672,35385,-90,35,127,0,0,2388,-131,0,1124,19,173,837,1,0,66,1,365108,0
365135,161,-3803,694,-442,-1489,-1557,7405,-313,91,-464,-464,35386,-94,35,127,0,0,2377,-65,0,1124,19,173,847,1,0,66,1,365108,0
365145,-296,-3109,424,-399,-1006,-1495,7294,-203,132,-373,-160,35383,-67,34,127,0,0,2401,274,0,1124,19,173,857,1,0,66,1,365108,0
365155,-85,-2388,363,-471,-758,-1711,7281,90,259,264,208,35379,-45,35,127,0,0,2436,362,0,1124,19,173,867,1,0,66,1,365248,0
365165,374,-2244,116,-579,-1074,-1921,7386,275,436,356,384,35379,-60,35,127,0,0,2476,395,0,1124,19,173,877,1,0,66,1,365248,0
365175,227,-2266,131,-601,-1223,-2026,7513,281,261,462,576,35378,-70,34,127,0,0,2522,461,0,1124,19,173,887,1,0,66,1,365264,0
365185,-46,-2742,297,-645,-1259,-2119,7670,344,85,479,680,35375,-80,35,127,0,0,2568,461,0,1124,19,173,897,1,0,5,0,365264,0
365195,-45,-3062,474,-637,-1117,-2112,7839,386,83,465,776,35371,-51,34,127,0,0,2621,604,0,1124,19,173,907,1,0,6,0,365264,0
365205,19,-2921,441,-747,-808,-2311,8031,448,62,513,1032,35357,-48,34,127,0,0,2691,714,0,1124,19,173,917,1,0,8,0,365264,0
365215,51,-2516,321,-859,-761,-2491,8256,520,113,574,1288,35354,-74,35,127,0,0,2768,758,0,1124,19,173,927,1,0,9,0,365264,0
365225,-68,-2244,249,-866,-991,-2558,8525,619,146,598,1568,35359,-61,35,127,0,0,2852,856,0,1124,19,173,937,1,0,11,0,365264,0
365235,16,-2308,266,-832,-1166,-2606,8840,715,172,570,1808,35365,-63,34,127,0,0,2944,966,0,1124,19,173,947,1,0,13,0,365264,0
365245,54,-2308,267,-739,-1207,-2976,9200,820,170,606,2064,35362,-40,34,127,0,0,3052,1087,0,1124,19,173,957,1,0,15,0,365264,0
365255,-114,-2407,159,-798,-1179,-3184,9614,943,193,643,2328,35351,-55,35,127,0,0,3161,1054,0,1124,19,173,967,1,0,17,0,365280,0
365265,-543,-2512,203,-735,-990,-3245,10071,1033,190,584,2544,35351,-50,35,127,0,0,3276,1153,0,1124,19,173,977,1,0,20,0,365280,0
365275,-591,-2445,80,-734,-989,-3359,10573,1136,166,617,2848,35355,-38,35,127,0,0,3401,1274,0,1124,19,173,987,1,0,22,0,365280,0
365285,-382,-2241,-51,-617,-964,-3890,11124,1234,186,591,3024,35355,-26,34,127,0,0,3524,1252,0,1124,19,173,997,1,0,25,0,365280,0
365295,-77,-2234,-150,-592,-1029,-4275,11708,1296,151,580,3048,35358,-17,34,127,0,0,3647,1263,0,1124,19,173,1007,1,0,27,0,365280,0
365305,-27,-2311,-172,-617,-1083,-4726,12307,1319,85,601,3208,35367,-31,35,127,0,0,3766,1175,0,1124,19,173,1017,1,0,31,0,365280,0
365315,-175,-2682,-164,-638,-1001,-4790,12908,1321,37,552,3232,35378,-45,35,127,0,0,3880,1120,0,1124,19,173,1027,1,0,33,0,365280,0
365325,341,-2636,1,-443,-973,-5201,13501,1318,-11,613,3392,35377,0,35,127,0,0,4010,1318,0,1124,19,173,1037,1,0,37,0,365311,0
365335,541,-2607,91,-493,-1152,-5589,14117,1367,34,588,3296,35367,10,34,127,0,0,4115,1021,0,1124,19,173,1047,1,0,39,0,365311,0
365345,648,-3159,354,-474,-1463,-5544,14723,1307,27,460,3128,35360,12,34,127,0,0,4220,1087,0,1124,19,173,1057,1,0,43,0,365311,0
365355,346,-3189,449,-387,-1693,-5235,15309,1276,-60,530,3120,35359,-43,35,127,0,0,4341,1285,0,1124,19,173,1067,1,0,46,0,365358,0
365365,316,-2889,191,-299,-2103,-4929,15910,1348,-9,739,3392,35363,-54,34,127,0,0,4484,1494,0,1124,19,173,1077,1,0,50,0,365358,0
365375,164,-2666,171,-214,-2321,-4718,16562,1472,125,930,3712,35342,-29,34,127,0,0,4642,1549,0,1124,19,173,1087,1,0,53,0,365358,0
365385,176,-2368,357,-133,-2720,-4319,17270,1598,211,958,4144,35336,-14,35,127,0,0,4816,1735,0,1124,19,173,1097,1,0,58,0,365358,0
365395,120,-2303,468,-149,-3035,-3880,18038,1732,225,1021,4512,35333,21,34,127,0,0,5003,1889,0,1124,19,173,1107,1,0,62,0,365358,0
365405,44,-2252,544,-221,-3665,-3039,18884,1912,264,1033,4976,35341,32,35,127,0,0,5205,2032,0,1124,19,173,1117,1,0,67,0,365389,0
365415,-83,-1771,705,-151,-4119,-2440,19715,2072,305,1016,5384,35325,55,35,127,0,0,5431,2230,0,1124,19,173,1127,1,0,71,0,365405,0
365425,1700,-1675,172,-145,-2992,-2994,20704,2201,289,670,3856,35316,58,35,127,0,0,5521,637,0,1124,19,173,1137,1,0,77,0,365405,0
365435,920,-1382,-6,-85,-2453,-2563,21453,1263,-395,-2066,-120,35332,-12,35,127,0,0,5429,-1065,0,1124,19,173,1147,1,0,81,0,365405,0
365445,490,-1183,15,252,-1640,-2497,21575,265,-1786,1273,1064,35362,-64,35,127,0,0,5227,-2175,0,1124,19,173,1157,0,0,87,67,365436,0
365455,221,-1135,289,265,-1951,-1539,21666,-102,-1099,-1508,-1720,35371,-80,35,127,0,0,4987,-2329,0,1124,19,173,1167,0,0,91,65,365436,0
365465,165,-1544,414,302,-2107,-675,21307,-1005,-1005,-1504,-3384,35353,-5,35,127,0,0,4761,-2252,0,1124,19,173,1177,0,0,97,61,365436,0
365475,83,-1728,328,379,-2269,-24,20663,-1569,-1393,-1200,-4320,35330,26,35,127,0,0,4563,-1944,0,1124,19,173,1187,0,0,101,59,365452,0
365485,170,-1836,101,457,-2395,914,19840,-1883,-852,-671,-4640,35332,23,34,127,0,0,4390,-1746,0,1124,19,173,1197,0,0,108,55,365452,0
365495,220,-1875,-6,538,-2301,1484,18968,-1910,-395,-374,-4376,35342,8,35,127,0,0,4253,-1329,0,1124,19,173,1207,0,0,112,53,365483,0
365505,398,-1819,38,663,-1818,2171,18139,-1774,22,-228,-3960,35344,-37,34,127,0,0,4141,-1109,0,1124,19,173,1217,0,0,119,49,365483,0
365515,422,-1585,-3,720,-1411,2549,17378,-1626,394,-200,-3568,35343,-67,34,127,0,0,4025,-1142,0,1124,19,173,1227,0,0,123,46,365483,0
365525,568,-1393,37,849,-782,3101,16676,-1519,316,-268,-3416,35345,-84,35,127,0,0,3900,-1252,0,1124,19,173,1237,0,0,130,43,365498,0
365535,550,-1264,-25,903,-474,3512,16005,-1482,-8,-434,-3408,35360,-68,34,127,0,0,3777,-1263,0,1124,19,173,1247,0,0,135,40,365581,0
365545,452,-1201,-130,974,-123,4212,15344,-1444,65,-491,-3368,35352,-48,34,127,0,0,3660,-1142,0,1124,19,173,1257,0,0,142,37,365581,0
365555,458,-1244,-171,1013,76,4682,14703,-1386,57,-445,-3136,35343,-61,35,127,0,0,3574,-812,0,1124,19,173,1267,0,0,146,35,365596,0
365565,468,-1469,-219,1172,549,5274,14120,-1233,144,-296,-2696,35340,-44,34,127,0,0,3506,-670,0,1124,19,173,1277,0,0,154,31,365596,0
365575,454,-1560,-228,1231,953,5593,13615,-1064,264,-256,-2240,35347,-40,35,127,0,0,3458,-472,0,1124,19,173,1287,0,0,158,29,365596,0
365585,458,-1598,-188,1313,1589,6001,13183,-898,289,-257,-1904,35351,-59,34,127,0,0,3412,-439,0,1124,19,173,1297,0,0,165,26,365596,0
365595,489,-1630,-143,1360,1960,6276,12814,-772,269,-293,-1544,35344,-59,34,127,0,0,3370,-373,0,1124,19,173,1307,0,0,170,25,365596,0
365605,524,-1745,-82,1409,2411,6683,12499,-656,225,-333,-1304,35346,-88,35,127,0,0,3337,-296,0,1124,19,173,1317,0,0,178,22,365596,0
365615,544,-1837,-54,1457,2653,6950,12234,-546,197,-354,-1040,35351,-80,35,127,0,0,3313,-263,0,1124,19,173,1327,0,0,182,21,365596,0
365625,559,-1926,-24,1513,2978,7332,12007,-465,168,-349,-864,35353,-86,34,127,0,0,3293,-186,0,1124,19,173,1337,0,0,190,18,365596,0
365635,560,-1978,-4,1535,3160,7551,11825,-368,159,-404,-592,35351,-72,34,127,0,0,3284,-87,0,1124,19,173,1347,0,0,195,17,365612,0
365645,572,-2087,72,1582,3380,7829,11677,-291,152,-324,-296,35353,-66,35,127,0,0,3284,0,0,1124,19,173,1357,0,0,202,15,365628,0
365655,659,-2104,103,1576,3504,7947,11588,-173,183,-305,-104,35354,-65,34,127,0,0,3282,10,0,1124,19,173,1367,0,0,207,14,365643,0
365665,623,-2151,124,1518,3595,8135,11551,-44,202,-155,-48,35358,-50,35,127,0,0,3287,21,0,1124,19,173,1377,0,0,214,13,365643,0
365675,713,-2185,114,1441,3566,8322,11565,44,202,-65,104,35350,-40,35,127,0,0,3304,175,0,1124,19,173,1387,0,0,219,12,365643,0
365685,709,-2243,122,1364,3512,8429,11609,137,154,312,304,35347,-29,35,127,0,0,3335,296,0,1124,19,173,1397,0,0,226,11,365659,0
365695,801,-2304,99,1294,3404,8472,11704,240,159,431,424,35358,-33,35,127,0,0,3372,373,0,1124,19,173,1407,0,0,231,10,365690,0
365705,874,-2430,117,1178,3175,8446,11833,300,161,525,656,35365,-43,34,127,0,0,3421,494,0,1124,19,173,1417,0,0,237,9,365690,0
365715,920,-2523,135,1103,2984,8356,11994,382,121,533,912,35366,-64,34,127,0,0,3473,494,0,1124,19,173,1427,0,0,241,9,365690,0
365725,1006,-2601,172,1003,2648,8148,12186,438,129,517,960,35354,-71,35,127,0,0,3524,483,0,1124,19,173,1437,0,0,247,8,365690,0
365735,1085,-2632,178,919,2411,7950,12398,487,92,525,1032,35359,-53,35,127,0,0,3568,428,0,1124,19,173,1447,0,0,251,8,365721,0
365745,1109,-2652,151,787,2037,7521,12617,489,56,443,992,35366,-42,35,127,0,0,3601,351,0,1124,19,173,1457,0,0,256,8,365721,0
365755,1145,-2665,130,694,1786,7134,12827,448,-3,410,912,35360,-63,34,127,0,0,3627,274,0,1124,19,173,1467,0,0,259,8,365737,0
365765,1154,-2634,119,581,1497,6436,13020,398,-51,343,680,35354,-81,34,127,0,0,3645,175,0,1124,19,173,1477,0,0,263,8,365737,0
365775,1154,-2611,117,519,1338,5893,13191,350,-74,319,456,35362,-85,35,127,0,0,3654,98,0,1124,19,173,1487,0,0,265,7,365768,0
365785,1149,-2531,97,468,1185,4994,13323,274,-114,265,224,35366,-65,34,127,0,0,3654,0,0,1124,19,173,1497,0,0,268,7,365768,0
365795,1215,-2441,78,455,1105,4400,13402,120,-175,155,72,35366,-68,35,127,0,0,3654,0,0,1124,19,173,1507,0,0,270,7,365768,0
365805,1258,-2296,56,448,1032,3465,13422,6,-220,61,32,35359,-90,35,127,0,0,3654,21,0,1124,19,173,1517,0,0,271,7,365768,0
365815,1269,-2224,37,436,995,2852,13421,10,-161,143,32,35360,-103,35,127,0,0,3656,21,0,1124,19,173,1527,0,0,272,7,365799,0
365825,1356,-2147,26,389,976,2009,13422,0,-26,161,16,35363,-112,34,127,0,0,3656,10,0,1124,19,173,1537,0,0,273,7,365799,0
365835,1381,-2127,25,337,965,1458,13421,11,3,147,64,35360,-96,35,127,0,0,3656,32,0,1124,19,173,1547,0,0,273,7,365799,0
365845,1490,-2139,45,259,885,729,13421,-8,3,135,32,35357,-97,35,127,0,0,3654,0,0,1124,19,173,1557,0,0,273,7,365831,0
365855,1529,-2148,52,212,803,274,13420,7,-2,125,32,35356,-112,35,127,0,0,3654,0,0,1124,19,173,1567,0,0,273,7,365831,0
365865,1617,-2136,92,126,663,-326,13420,-6,-2,105,32,35361,-106,35,127,0,0,3654,0,0,1124,19,173,1577,0,0,272,6,365831,0
365875,1676,-2190,133,82,566,-736,13421,3,2,97,32,35369,-93,34,127,0,0,3654,0,0,1124,19,173,1587,0,0,271,6,365862,0
365885,1146,-4626,-561,-407,-397,-1075,13420,-7,-4,108,136,35362,-73,34,127,0,0,3697,571,0,1124,19,173,1597,0,0,269,6,365878,0
365895,2030,-3268,636,-192,188,-1715,13493,289,127,1142,1440,35359,-77,35,127,0,0,3838,1406,0,3260,510,174,7,1,1,269,6,365878,0
365905,2524,-2924,445,-142,157,-3262,13790,807,577,1443,3088,35347,-74,34,127,0,0,3974,1373,0,3260,510,174,17,1,1,269,6,365878,0
365915,1907,-2503,668,-47,47,-3874,14385,1491,997,1479,4248,35349,-25,35,127,0,0,4064,856,0,3260,510,174,27,1,1,269,6,365878,0
365925,821,-2820,479,208,103,-4005,15171,1795,963,778,4288,35340,14,34,127,0,0,4078,43,0,3260,510,174,37,1,1,269,6,365893,0
365935,927,-2442,494,583,298,-3327,15965,1698,387,310,3712,35338,20,34,127,0,0,4071,-109,0,3260,510,174,47,1,1,269,6,365924,0
365945,-463,-1410,106,291,-735,-2217,16673,1497,-169,410,3504,35338,-27,34,127,0,0,4086,197,0,3260,510,174,57,1,1,269,6,365924,0
365955,-527,-1130,-109,-310,-810,-1685,17339,1492,-262,932,4120,35342,-28,34,127,0,0,4168,889,0,3260,510,174,67,1,1,269,6,365924,0
365965,-799,-2094,-293,-860,-617,-2026,18109,1787,125,1216,4744,35340,18,35,127,0,0,4264,922,0,3260,510,174,77,1,1,269,6,365940,0
365975,-645,-2584,-461,-615,5,-2437,18997,1994,442,769,4472,35341,34,35,127,0,0,4337,681,0,3260,510,174,87,1,1,269,6,365987,0
365985,395,-2546,-145,-386,538,-3021,19825,1721,130,83,3200,35343,10,35,127,0,0,4359,197,0,3260,510,174,97,1,1,269,6,365987,0
365995,709,-2008,217,-305,576,-3129,20466,1268,-485,-59,1792,35363,-63,35,127,0,0,4341,-208,0,3260,510,174,107,1,1,269,6,365987,0
366005,1002,-2101,58,-477,120,-3473,20888,787,-786,-128,472,35367,-84,34,127,0,0,4286,-593,0,3260,510,174,117,1,1,269,6,365987,0
366015,1160,-1600,-344,-461,68,-3618,21024,-52,-940,-1436,-856,35369,-92,34,127,0,0,4183,-1098,0,3260,510,174,127,1,1,269,6,366003,0
366025,298,-1703,-580,-392,-97,-2972,20818,-524,-1270,-477,-232,35369,-83,35,127,0,0,4082,-966,620,3260,510,174,137,1,1,269,6,366003,0
366035,-148,-2053,-236,-157,-402,-2243,20658,-274,-566,472,32,35378,-62,35,127,0,0,4027,-461,820,3260,510,174,147,1,1,269,6,366034,0
366045,458,-2368,100,88,-533,-1936,20529,-338,181,560,-96,35389,-84,34,127,0,0,3999,-241,1020,3260,510,174,157,1,1,269,6,366034,0
366055,423,-2388,159,134,-151,-2102,20237,-785,-260,468,-760,35384,-100,34,127,0,0,3950,-560,1220,3260,510,174,167,1,1,269,6,366034,0
366065,-204,-1970,-42,224,236,-2491,19760,-1129,-687,553,-1168,35376,-118,35,127,0,0,3862,-878,1420,3260,510,174,177,1,1,269,6,366034,0
366075,-206,-1982,2,256,561,-2430,19255,-1068,-423,723,-656,35384,-125,34,127,0,0,3763,-1010,1500,3260,510,174,187,1,1,269,6,366065,0
366085,178,-2045,441,218,130,-1860,18881,-680,195,1038,40,35390,-116,34,127,0,0,3693,-659,1500,3260,510,174,197,1,1,269,6,366065,0
366095,460,-1992,503,117,-213,-1286,18745,-181,732,1228,152,35386,-114,34,127,0,0,3665,-241,1500,3260,510,174,207,1,1,269,6,366065,0
366105,502,-1947,268,117,-493,-1055,18674,-200,597,921,48,35366,-89,34,127,0,0,3651,-120,1500,3260,510,174,217,1,1,269,6,366081,0
366115,97,-1951,74,181,-91,-1260,18484,-516,-125,799,-152,35371,-91,35,127,0,0,3621,-373,1500,3260,510,174,227,1,1,269,6,366096,0
366125,-36,-2004,186,256,407,-1620,18161,-777,-489,657,-344,35380,-105,34,127,0,0,3563,-615,1500,3260,510,174,237,1,1,269,6,366096,0
366135,51,-2165,425,203,544,-1550,17825,-688,-288,859,-64,35382,-108,35,127,0,0,3491,-725,1500,3260,510,174,247,1,1,269,6,366112,0
366145,261,-2150,555,41,-151,-969,17637,-276,261,1188,144,35373,-108,34,127,0,0,3456,-340,1500,3260,510,174,257,1,1,269,6,366128,0
366155,221,-2193,559,0,-403,-741,17572,-104,551,914,168,35368,-106,34,127,0,0,3443,-109,1500,3260,510,174,267,1,1,269,6,366143,0
366165,41,-2018,40,4,-257,-834,17510,-180,247,915,72,35372,-106,35,127,0,0,3434,-131,1500,3260,510,174,277,1,1,269,6,366143,0
366175,-21,-1936,-83,92,-5,-1057,17362,-409,-171,863,-80,35376,-119,34,127,0,0,3405,-329,1500,3260,510,174,287,1,1,269,6,366174,0
366185,63,-2035,150,247,252,-1305,17098,-643,-396,692,-224,35371,-100,34,127,0,0,3359,-516,1500,3260,510,174,297,1,1,269,6,366174,0
366195,-61,-1922,62,246,327,-1287,16803,-603,-299,829,32,35371,-112,35,127,0,0,3300,-582,1500,3260,510,174,307,1,1,269,6,366174,0
366205,280,-2017,235,138,-15,-960,16645,-226,204,1115,152,35374,-112,34,127,0,0,3269,-263,1500,3260,510,174,317,1,1,269,6,366174,0
366215,410,-2060,371,132,-349,-793,16583,-124,471,911,144,35385,-118,34,127,0,0,3258,-109,1500,3260,510,174,327,1,1,269,6,366190,0
366225,165,-2057,154,114,-279,-794,16509,-191,150,897,80,35380,-97,34,127,0,0,3247,-131,1500,3260,510,174,337,1,1,269,6,366206,0
366235,155,-2034,97,143,-25,-1046,16359,-398,-177,841,-48,35382,-92,34,127,0,0,3216,-329,1500,3260,510,174,347,1,1,269,6,366206,0
366245,231,-2036,280,254,198,-1263,16118,-569,-328,757,-120,35373,-85,35,127,0,0,3172,-461,1500,3260,510,174,357,1,1,269,6,366221,0
366255,215,-1913,255,180,158,-1225,15865,-519,-200,888,-8,35390,-101,35,127,0,0,3122,-505,1500,3260,510,174,367,1,1,269,6,366315,0
366265,251,-2025,298,87,-182,-892,15714,-244,174,1020,136,35377,-94,35,127,0,0,3091,-274,1500,3260,510,174,377,1,1,269,6,366315,0
366275,376,-1968,322,75,-305,-776,15641,-147,364,920,120,35373,-85,35,127,0,0,3078,-120,1500,3260,510,174,387,1,1,269,6,366315,0
366285,223,-1974,156,65,-172,-847,15559,-205,135,906,72,35360,-91,35,127,0,0,3060,-164,1500,3260,510,174,397,1,1,269,6,366315,0
366295,350,-1962,162,87,-21,-1028,15426,-343,-112,868,-32,35365,-90,34,127,0,0,3032,-274,1500,3260,510,174,407,1,1,269,6,366315,0
366305,361,-1960,274,109,73,-1175,15229,-457,-233,832,-40,35373,-84,35,127,0,0,2992,-395,1580,3260,510,174,417,1,1,269,6,366331,0
366315,255,-2028,306,67,-22,-1133,15034,-396,-118,1011,32,35367,-90,34,127,0,0,2955,-362,1700,3260,510,174,427,1,1,269,6,366331,0
366325,163,-2073,312,-7,-211,-959,14912,-211,150,1100,144,35364,-115,34,127,0,0,2933,-208,1820,3260,510,174,437,1,1,269,6,366331,0
366335,177,-2003,268,-25,-300,-966,14840,-152,244,1117,160,35365,-124,35,127,0,0,2920,-175,1930,3260,510,174,447,1,1,269,6,366331,0
366345,155,-1990,183,-52,-301,-1133,14763,-187,89,1211,120,35364,-104,34,127,0,0,2904,-142,2070,3260,510,174,457,1,1,269,6,366331,0
366355,113,-1918,188,-41,-228,-1334,14645,-306,-87,1268,16,35360,-50,34,127,0,0,2882,-230,2220,3260,510,174,467,1,1,269,6,366331,0
366365,-6,-1983,282,-56,-159,-1620,14465,-425,-204,1341,0,35362,-58,35,127,0,0,2849,-329,2410,3260,510,174,477,1,1,269,6,366362,0
366375,-67,-2004,310,-84,-158,-1788,14257,-458,-171,1446,8,35365,-67,35,127,0,0,2810,-373,2630,3260,510,174,487,1,1,269,6,366362,0
366385,41,-2040,361,-138,-299,-1935,14073,-373,-8,1704,80,35370,-94,35,127,0,0,2772,-351,2830,3260,510,174,497,1,1,269,6,366362,0
366395,183,-2035,235,-241,-544,-2000,13928,-297,133,1762,120,35365,-101,34,127,0,0,2746,-252,2940,3260,510,174,507,1,1,269,6,366362,0
366405,182,-2381,361,-474,-686,-1994,13801,-275,104,1805,152,35357,-63,34,127,0,0,2720,-208,3050,3260,510,174,517,1,1,269,6,366409,0
366415,199,-2061,641,-287,-1155,-2236,13710,-199,79,1889,248,35355,-60,35,127,0,0,2704,-153,3180,3260,510,174,527,1,1,269,6,366409,0
366425,619,-3482,788,-200,-1611,-2053,13649,-92,145,1934,360,35356,-57,34,127,0,0,2691,-109,3310,3260,510,174,537,1,1,269,6,366409,0
366435,-506,-3152,1002,-154,-1267,-2153,13630,-15,165,1992,528,35352,-74,34,127,0,0,2689,0,3440,3260,510,174,547,1,1,269,6,366424,0
366445,-504,-2590,287,-486,-790,-2544,13653,74,159,2056,744,35346,-75,34,127,0,0,2696,87,3600,3260,510,174,557,1,1,269,6,366424,0
366455,-166,-2524,233,-462,-787,-2769,13709,149,140,2125,1048,35343,-55,34,127,0,0,2707,142,3780,3260,510,174,567,1,1,269,6,366424,0
366465,-163,-2492,235,-410,-1096,-2991,13808,249,148,2229,1408,35354,-42,35,127,0,0,2724,208,3990,3260,510,174,577,1,1,269,6,366456,0
366475,-140,-2528,15,-571,-1311,-3102,13969,399,204,2386,1784,35355,19,35,127,0,0,2755,340,4230,3260,510,174,587,1,1,269,6,366456,0
366485,-457,-2885,306,-722,-1272,-3288,14214,608,288,2502,2480,35337,47,34,127,0,0,2801,483,4520,3260,510,174,597,1,1,269,6,366471,0
366495,-492,-3282,319,-848,-1117,-3371,14572,866,386,2800,3168,35317,81,34,127,0,0,2871,725,4880,3260,510,174,607,1,1,269,6,366471,0
366505,-816,-3293,403,-937,-829,-3551,15055,1139,465,3057,3856,35308,121,35,127,0,0,2961,955,5320,3260,510,174,617,1,1,269,6,366534,0
366515,-885,-3007,302,-974,-676,-3766,15650,1389,451,3290,4488,35298,186,34,127,0,0,3084,1296,5880,3260,510,174,627,1,1,269,6,366534,0
366525,-565,-2667,227,-943,-787,-4052,16368,1664,283,3663,5264,35263,296,34,127,0,0,3218,1395,6600,3260,510,174,637,1,1,269,6,366534,0
366535,-385,-2795,99,-1020,-937,-4145,17217,1964,542,4047,6264,35216,387,35,127,0,0,3381,1625,7520,3260,510,174,647,1,1,269,6,366534,0
366545,-846,-2799,328,-1049,-1338,-4215,18213,2302,676,4596,7256,35168,535,34,127,0,0,3572,1933,8520,3260,510,174,657,1,1,269,6,366534,0
366555,-1176,-3162,317,-1022,-1317,-4377,19376,2670,597,5215,8264,35111,720,35,127,0,0,3788,2208,9290,3260,510,174,667,1,1,269,6,366534,0
366565,-1393,-3152,151,-1123,-1416,-4824,20662,2862,565,5701,8880,35044,938,34,127,0,0,4023,2351,10150,3260,510,174,677,1,1,269,6,366549,0
366575,-1568,-2647,189,-1166,-981,-5188,21958,2842,250,5944,9120,34990,1141,34,127,0,0,4273,2504,11060,3260,510,174,687,1,1,269,6,366549,0
366585,-1833,-2383,-184,-823,-1515,-6498,23299,3017,93,6635,9648,34950,1312,35,127,0,0,4537,2658,12010,3260,510,174,697,1,1,269,6,366565,0
366595,-568,-3701,299,-815,-1950,-6274,24733,3201,272,6935,9536,34904,1478,34,127,0,0,4779,2438,11680,3260,510,174,707,1,1,269,6,366565,0
366605,-981,-4316,157,-590,-1599,-6792,26223,3297,289,6618,9544,34852,1610,35,127,0,0,5027,2504,11090,3260,510,174,717,1,1,269,6,366643,0
366615,-91,-4770,-386,-823,-1784,-7373,27692,3171,78,6367,8912,34829,1650,34,127,0,0,5273,2449,10190,3260,510,174,727,1,1,269,6,366659,0
366625,109,-4566,1075,-964,-2122,-7467,29001,2728,-347,5455,7576,34866,1495,34,127,0,0,5506,2318,8540,3260,510,174,737,1,1,269,6,366659,0
366635,279,-4358,711,-915,-2452,-7446,30062,2138,-792,4042,5504,34963,1177,35,127,0,0,5704,1933,4020,3260,510,174,747,1,1,269,6,366659,0
366645,268,-3751,684,-899,-3287,-7644,30747,1214,-1188,1848,2424,35097,738,34,127,0,0,5833,1241,1440,3260,510,174,757,1,1,269,6,366659,0
366655,-257,-3235,866,-749,-4054,-7453,31018,378,-1534,505,208,35212,343,34,127,0,0,5888,461,190,3260,510,174,767,1,1,269,6,366659,0
366665,-3315,-1079,2397,-132,-7054,-3519,30989,-361,-1346,-1365,-2080,35295,70,35,127,0,0,6013,1461,0,3260,510,174,777,1,1,269,6,366659,0
366675,2533,-3671,233,-311,-5913,-2650,30584,-993,-1313,-1112,-3640,35328,-10,35,127,0,0,6275,2515,0,3260,510,174,787,1,1,269,6,366659,0
366685,1009,-2516,119,-360,-4019,-3489,29845,-1983,-1334,-2137,-4656,35316,54,34,127,0,0,6251,-505,0,3260,510,174,797,1,1,269,6,366659,0
366695,561,-1804,-45,6,-2995,-3180,28960,-1892,-1007,-273,-4664,35316,42,34,127,0,0,6044,-2219,0,3260,510,174,807,0,1,269,6,366674,0
366705,238,-1502,131,285,-2085,-2335,28030,-2174,-299,-1249,-5896,35317,50,35,127,0,0,5752,-2966,0,3260,510,174,817,0,1,269,6,366705,0
366715,12,-1658,286,395,-1837,-1493,26879,-2685,-532,-1411,-7072,35316,51,34,127,0,0,5440,-3142,0,3260,510,174,827,0,1,269,6,366705,0
366725,-34,-1898,269,568,-1615,-99,25540,-3029,-796,-1004,-7480,35306,123,35,127,0,0,5172,-2559,0,3260,510,174,837,0,1,269,6,366705,0
366735,93,-1905,187,677,-1399,746,24130,-3105,-502,-533,-7016,35285,136,34,127,0,0,4954,-2120,0,3260,510,174,847,0,1,269,6,366705,0
366745,328,-1687,-4,800,-1040,1819,22783,-2878,-14,-277,-6288,35301,89,34,127,0,0,4768,-1790,0,3260,510,174,857,0,1,269,6,366721,0
366755,471,-1546,-69,865,-635,2408,21581,-2548,412,-83,-5592,35320,17,35,127,0,0,4596,-1735,0,3260,510,174,867,0,1,269,6,366737,0
366765,596,-1233,-83,983,145,3180,20496,-2334,514,-110,-5304,35341,-30,34,127,0,0,4405,-1944,0,3260,510,174,877,0,1,269,6,366737,0
366775,583,-1046,-160,1039,679,3704,19477,-2216,344,-288,-5256,35339,-35,35,127,0,0,4198,-2098,0,3260,510,174,887,0,1,269,6,366752,0
366785,371,-975,-151,1048,1147,4574,18480,-2189,166,-496,-5232,35337,-39,34,127,0,0,4007,-1922,0,3260,510,174,897,0,1,269,6,366768,0
366795,273,-1042,-120,1079,1309,5212,17504,-2136,74,-392,-5000,35328,-25,34,127,0,0,3843,-1593,0,3260,510,174,907,0,1,269,6,366768,0
366805,273,-1171,13,1188,1532,6158,16560,-2044,89,-218,-4400,35336,-38,35,127,0,0,3726,-1109,0,3260,510,174,917,0,1,269,6,366768,0
366815,326,-1223,-31,1233,1760,6691,15701,-1810,224,-72,-3512,35347,-48,34,127,0,0,3647,-747,0,3260,510,174,927,0,1,269,6,366799,0
366825,381,-1304,-113,1309,2226,7301,14987,-1466,440,-7,-2576,35353,-60,34,127,0,0,3592,-527,0,3260,510,174,937,0,1,269,6,366799,0
366835,447,-1316,-110,1388,2574,7614,14439,-1098,600,-17,-1816,35355,-77,35,127,0,0,3557,-395,0,3260,510,174,947,0,1,269,6,366815,0
366845,519,-1348,-55,1533,3043,8049,14036,-797,603,-83,-1352,35356,-79,34,127,0,0,3515,-406,0,3260,510,174,957,0,1,269,6,366830,0
366855,525,-1369,-62,1594,3280,8330,13744,-581,496,-221,-1088,35363,-79,35,127,0,0,3478,-384,0,3260,510,174,967,0,1,269,6,366830,0
366865,499,-1416,69,1675,3487,8776,13515,-469,328,-303,-896,35359,-81,35,127,0,0,3449,-318,0,3260,510,174,977,0,1,269,6,366830,0
366875,472,-1452,118,1734,3559,9053,13329,-382,203,-382,-648,35345,-84,35,127,0,0,3425,-219,0,3260,510,174,987,0,1,269,6,366862,0
366885,500,-1574,139,1823,3639,9432,13178,-304,148,-355,-368,35341,-82,35,127,0,0,3416,-65,0,3260,510,174,997,0,1,269,6,366862,0
366895,603,-1651,135,1897,3726,9590,13071,-184,152,-193,-96,35351,-68,35,127,0,0,3416,-10,0,3260,510,174,1007,0,1,269,6,366862,0
366905,515,-1769,137,2029,3751,9791,13066,71,283,41,64,35360,-18,35,127,0,0,3418,21,0,3260,510,174,1017,0,1,269,6,366877,0
366915,742,-1846,171,2036,3715,9971,13125,161,336,163,216,35360,-8,35,127,0,0,3443,252,0,3260,510,174,1027,0,1,269,6,366893,0
366925,811,-1923,273,2089,3510,10161,13209,207,168,507,552,35363,-22,35,127,0,0,3476,351,0,3260,510,174,1037,0,1,269,6,366909,0
366935,922,-1993,281,2109,3329,10220,13341,342,142,582,864,35366,-64,34,127,0,0,3526,560,0,3260,510,174,1047,0,1,269,6,366909,0
366945,1182,-2188,258,2086,3000,10276,13528,454,211,623,1224,35372,-72,35,127,0,0,3585,604,0,3260,510,174,1057,0,1,269,6,366924,0
366955,1375,-2375,228,2046,2805,10217,13768,561,212,654,1544,35367,-78,35,127,0,0,3649,648,0,3260,510,174,1067,0,1,269,6,366955,0
366965,1684,-2593,201,1932,2508,9949,14065,679,210,605,1728,35350,-62,35,127,0,0,3706,582,0,3260,510,174,1077,0,1,269,6,366955,0
366975,1905,-2735,202,1813,2333,9660,14390,729,163,500,1656,35356,-60,35,127,0,0,3752,406,0,3260,510,174,1087,0,1,269,6,366955,0
366985,2134,-3006,200,1662,2150,9031,14719,715,58,372,1440,35356,-46,34,127,0,0,3779,219,0,3260,510,174,1097,0,1,269,6,366955,0
366995,2262,-3142,103,1439,2019,8496,15021,631,-52,245,1088,35371,-64,34,127,0,0,3785,87,0,3260,510,174,1107,0,1,269,6,367049,0
367005,2500,-3403,219,1098,1788,7591,15269,509,-149,196,664,35367,-87,35,127,0,0,3785,-10,0,3260,510,174,1117,0,1,269,6,367049,0
367015,2805,-3482,340,899,1706,6835,15462,396,-204,211,296,35371,-77,34,127,0,0,3777,-120,0,3260,510,174,1127,0,1,269,6,367049,0
367025,2774,-3451,410,601,1541,5513,15582,199,-243,-8,-16,35369,-88,35,127,0,0,3757,-197,0,3260,510,174,1137,0,1,269,6,367049,0
367035,2909,-3362,369,384,1389,4585,15564,-118,-403,-279,-200,35366,-73,34,127,0,0,3733,-219,0,3260,510,174,1147,0,1,269,6,367065,0
367045,2998,-2917,366,106,981,3251,15498,-139,-372,-220,-104,35355,-78,34,127,0,0,3722,-76,0,3260,510,174,1157,0,1,269,6,367065,0
367055,3095,-2678,301,55,790,2249,15473,23,-12,69,72,35356,-79,35,127,0,0,3722,21,0,3260,510,174,1167,0,1,269,6,367065,0
367065,3079,-2342,108,6,517,732,15513,63,226,65,112,35362,-63,35,127,0,0,3722,43,0,3260,510,174,1177,0,1,269,6,367065,0
367075,3040,-2142,33,-6,344,-277,15539,78,70,339,152,35361,-66,34,127,0,0,3722,0,0,3260,510,174,1187,0,1,269,6,367065,0
367085,3146,-1839,-60,21,202,-1695,15585,90,21,301,128,35359,-74,34,127,0,0,3717,-43,0,3260,510,174,1197,0,1,269,6,367065,0
367095,2950,-1682,-90,100,201,-2610,15622,69,15,173,72,35365,-80,34,127,0,0,3702,-142,0,3260,510,174,1207,0,1,269,6,367065,0
367105,-614,-10987,-3137,-1239,-141,-2269,15606,-73,-121,48,64,35386,-89,35,127,0,0,3759,736,0,12083,5142,175,1,1,1,446,6,367096,0
367115,1206,-5439,2559,9,3529,-2733,15704,446,77,1688,2688,35388,-55,35,127,0,0,3999,2351,0,12083,5142,175,11,1,1,446,6,367096,0
367125,1649,2138,-410,1183,15,-3563,16235,1359,1083,1521,3696,35361,-16,34,127,0,0,4108,1043,0,12083,5142,175,21,1,1,446,6,367096,0
367135,-340,-1015,6,-1941,-1218,-2050,16919,1519,1142,871,3968,35328,10,34,127,0,0,4234,1373,0,12083,5142,175,31,1,1,446,6,367112,0
367145,-1124,-2917,-133,-1676,-885,-1891,17696,1816,419,1291,5072,35323,51,35,127,0,0,4412,1790,0,12083,5142,175,41,1,1,446,6,367159,0
367155,-1666,-2256,-1251,-1456,-398,-3118,18630,2127,502,878,5200,35331,65,34,127,0,0,4526,1043,0,12083,5142,175,51,1,1,446,6,367174,0
367165,-765,-2487,-1666,-678,1222,-3849,19585,2072,360,430,4784,35333,53,34,127,0,0,4607,812,0,12083,5142,175,61,1,1,446,6,367174,0
367175,-880,-2148,-394,-351,1544,-4056,20469,1875,-106,398,4312,35330,10,35,127,0,0,4660,483,0,12083,5142,175,71,1,1,446,6,367174,0
367185,405,-3211,819,-170,1682,-4455,21243,1639,-358,304,3680,35340,-26,34,127,0,0,4673,87,0,12083,5142,175,81,1,1,446,6,367174,0
367195,1415,-2104,254,-304,750,-4869,21887,1308,-452,44,2040,35354,-49,35,127,0,0,4620,-571,0,12083,5142,175,91,1,1,446,6,367174,0
367205,1894,-1435,-908,-546,-380,-4515,22329,820,-635,-224,328,35363,-76,35,127,0,0,4546,-791,0,12083,5142,175,101,1,1,446,6,367190,0
367215,1832,-1843,-1444,-302,-146,-4423,22417,-192,-1048,-1616,-936,35371,-82,35,127,0,0,4423,-1340,540,12083,5142,175,111,1,1,446,6,367190,0
367225,609,-1180,67,264,-733,-2921,22259,-344,-1231,388,-72,35382,-104,34,127,0,0,4335,-692,740,12083,5142,175,121,1,1,446,6,367205,0
367235,929,-2141,365,316,-565,-2964,22038,-600,-539,470,-552,35383,-82,34,127,0,0,4286,-461,940,12083,5142,175,131,1,1,446,6,367221,0
367245,533,-2288,658,198,-118,-3057,21576,-1191,-592,459,-1832,35373,-84,35,127,0,0,4198,-933,1140,12083,5142,175,141,1,1,446,6,367221,0
367255,-135,-2159,406,229,321,-3241,20913,-1530,-867,511,-2232,35376,-99,34,127,0,0,4078,-1274,1340,12083,5142,175,151,1,1,446,6,367221,0
367265,-236,-2223,258,216,673,-3017,20243,-1411,-408,623,-1448,35380,-128,34,127,0,0,3950,-1252,1500,12083,5142,175,161,1,1,446,6,367252,0
367275,113,-2215,589,200,236,-2490,19738,-956,313,799,-88,35389,-141,34,127,0,0,3858,-933,1500,12083,5142,175,171,1,1,446,6,367252,0
367285,198,-2136,551,45,-462,-1405,19538,-203,899,1485,296,35384,-125,34,127,0,0,3816,-384,1500,12083,5142,175,181,1,1,446,6,367268,0
367295,426,-2052,317,64,-944,-1063,19537,-15,999,930,200,35367,-87,34,127,0,0,3816,32,1500,12083,5142,175,191,1,1,446,6,367268,0
367305,201,-1885,-96,133,-280,-1255,19440,-329,178,925,-104,35360,-86,34,127,0,0,3801,-175,1500,12083,5142,175,201,1,1,446,6,367283,0
367315,50,-1828,-161,259,132,-1633,19133,-831,-599,623,-712,35366,-65,35,127,0,0,3746,-582,1500,12083,5142,175,211,1,1,446,6,367299,0
367325,-137,-2089,94,442,360,-1810,18677,-1024,-709,678,-720,35376,-108,34,127,0,0,3662,-845,1500,12083,5142,175,221,1,1,446,6,367299,0
367335,-245,-2063,208,342,458,-1519,18292,-720,-162,874,104,35377,-97,34,127,0,0,3588,-692,1500,12083,5142,175,231,1,1,446,6,367315,0
367345,455,-2156,498,184,-240,-775,18187,-47,693,1308,280,35367,-115,35,127,0,0,3563,-186,1500,12083,5142,175,241,1,1,446,6,367330,0
367355,528,-2126,467,181,-737,-613,18191,-22,785,933,192,35366,-122,34,127,0,0,3568,65,1500,12083,5142,175,251,1,1,446,6,367330,0
367365,-122,-1967,108,205,-309,-724,18142,-130,75,903,128,35366,-136,35,127,0,0,3557,-120,1500,12083,5142,175,261,1,1,446,6,367377,0
367375,-160,-1962,28,320,16,-970,18023,-326,-219,874,16,35366,-140,34,127,0,0,3535,-241,1500,12083,5142,175,271,1,1,446,6,367393,0
367385,208,-1881,214,359,157,-1181,17803,-554,-332,779,-112,35357,-118,34,127,0,0,3491,-472,1500,12083,5142,175,281,1,1,446,6,367393,0
367395,101,-2007,417,289,106,-1185,17524,-615,-317,758,-96,35357,-125,35,127,0,0,3443,-516,1600,12083,5142,175,291,1,1,446,6,367393,0
367405,-89,-2015,407,171,-98,-909,17351,-254,90,1209,112,35362,-129,34,127,0,0,3405,-318,1710,12083,5142,175,301,1,1,446,6,367393,0
367415,264,-2026,484,63,-317,-684,17322,-19,504,1025,304,35360,-116,35,127,0,0,3401,-32,1800,12083,5142,175,311,1,1,446,6,367393,0
367425,136,-2043,385,36,-416,-599,17313,-33,310,1126,224,35352,-114,34,127,0,0,3396,-43,1890,12083,5142,175,321,1,1,446,6,367408,0
367435,136,-2074,213,109,-151,-844,17236,-248,-120,1174,48,35345,-84,34,127,0,0,3379,-208,1980,12083,5142,175,331,1,1,446,6,367408,0
367445,288,-1927,51,188,122,-1219,17040,-496,-383,1104,-40,35361,-94,35,127,0,0,3342,-373,2120,12083,5142,175,341,1,1,446,6,367455,0
367455,259,-1934,209,177,108,-1293,16772,-607,-353,1144,-64,35371,-76,34,127,0,0,3291,-527,2270,12083,5142,175,351,1,1,446,6,367455,0
367465,-100,-2006,322,113,-121,-1084,16541,-434,-32,1533,48,35374,-107,34,127,0,0,3254,-384,2430,12083,5142,175,361,1,1,446,6,367455,0
367475,-22,-1997,293,76,-268,-940,16436,-167,347,1553,224,35359,-123,35,127,0,0,3232,-186,2570,12083,5142,175,371,1,1,446,6,367471,0
367485,9,-1986,200,51,-394,-1007,16371,-133,309,1568,192,35357,-118,35,127,0,0,3214,-153,2710,12083,5142,175,381,1,1,446,6,367471,0
367495,-63,-1942,162,48,-320,-1263,16264,-293,-32,1652,88,35360,-93,34,127,0,0,3194,-219,2880,12083,5142,175,391,1,1,446,6,367471,0
367505,-199,-1935,235,77,-135,-1786,16050,-550,-316,1638,-32,35370,-89,34,127,0,0,3150,-461,3120,12083,5142,175,401,1,1,446,6,367487,0
367515,-285,-1953,387,69,-62,-2140,15715,-798,-447,1660,-136,35375,-123,35,127,0,0,3084,-659,3450,12083,5142,175,411,1,1,446,6,367502,0
367525,-477,-2109,509,-24,-160,-2345,15357,-736,-175,2170,-48,35381,-144,35,127,0,0,3012,-703,3760,12083,5142,175,421,1,1,446,6,367502,0
367535,-332,-2130,585,-126,-367,-2220,15136,-382,198,2638,192,35384,-138,35,127,0,0,2966,-417,3920,12083,5142,175,431,1,1,446,6,367518,0
367545,-23,-1998,504,-171,-656,-2364,14979,-380,330,2421,96,35375,-119,34,127,0,0,2935,-329,4080,12083,5142,175,441,1,1,446,6,367518,0
367555,-30,-2039,358,-182,-576,-2669,14739,-598,-50,2324,16,35365,-106,34,127,0,0,2889,-505,4260,12083,5142,175,451,1,1,446,6,367533,0
367565,155,-1643,894,151,-1084,-3296,14405,-766,-354,2423,-64,35363,-127,35,127,0,0,2825,-637,4460,12083,5142,175,461,1,1,446,6,367565,0
367575,732,-3307,633,119,-1812,-3086,14098,-607,-134,2882,88,35369,-146,35,127,0,0,2768,-538,4650,12083,5142,175,471,1,1,446,6,367565,0
367585,-1217,-3129,937,-370,-1461,-2842,13934,-234,339,2998,512,35363,-112,35,127,0,0,2742,-241,4830,12083,5142,175,481,1,1,446,6,367565,0
367595,-1006,-3172,129,-716,-1004,-3074,13939,74,611,2747,1096,35345,-80,34,127,0,0,2742,43,5050,12083,5142,175,491,1,1,446,6,367565,0
367605,-418,-2625,326,-597,-805,-3520,13988,116,412,3087,1200,35323,-13,34,127,0,0,2748,32,5320,12083,5142,175,501,1,1,446,6,367580,0
367615,-174,-2616,356,-652,-1177,-3707,14064,185,129,3178,1528,35318,14,35,127,0,0,2768,153,5650,12083,5142,175,511,1,1,446,6,367580,0
367625,-286,-3002,402,-910,-1555,-3849,14195,346,144,3323,2112,35319,48,34,127,0,0,2794,274,6050,12083,5142,175,521,1,1,446,6,367612,0
367635,-486,-3502,437,-1098,-1373,-3917,14441,628,324,3645,3024,35303,85,34,127,0,0,2845,538,6530,12083,5142,175,531,1,1,446,6,367612,0
367645,-977,-3603,734,-1190,-985,-3908,14865,1073,561,4059,4200,35275,165,35,127,0,0,2922,867,7140,12083,5142,175,541,1,1,446,6,367612,0
367655,-675,-3041,733,-1209,-1090,-3959,15508,1550,772,4511,5392,35238,305,35,127,0,0,3045,1274,7960,12083,5142,175,551,1,1,446,6,367627,0
367665,-351,-2999,417,-1313,-1578,-3879,16360,1997,820,5005,6608,35195,485,35,127,0,0,3212,1658,9110,12083,5142,175,561,1,1,446,6,367643,0
367675,-585,-3044,426,-1194,-1810,-3915,17389,2386,737,5652,7680,35130,720,35,127,0,0,3407,1955,10680,12083,5142,175,571,1,1,446,6,367643,0
367685,-1222,-3209,241,-1143,-2061,-3885,18607,2819,700,6634,9272,35033,1011,35,127,0,0,3636,2340,12690,12083,5142,175,581,1,1,446,6,367674,0
367695,-1441,-3411,26,-1265,-2008,-3732,20061,3357,824,7743,10576,34907,1409,35,127,0,0,3906,2724,14160,12083,5142,175,591,1,1,446,6,367674,0
367705,-2529,-2162,-247,-1037,-1724,-4374,21690,3648,807,8466,12032,34765,1868,35,127,0,0,4214,3142,15830,12083,5142,175,601,1,1,446,6,367674,0
367715,-1386,-2660,-371,-929,-2047,-4589,23393,3809,462,9530,12600,34622,2335,35,127,0,0,4543,3306,17740,12083,5142,175,611,1,1,446,6,367705,0
367725,-1694,-3169,33,-895,-1944,-4861,25231,4169,390,10489,13832,34484,2805,35,127,0,0,4855,3131,19310,12083,5142,175,621,1,1,446,6,367705,0
367735,-1419,-3719,-32,-939,-1741,-5357,27276,4641,665,11025,14672,34329,3303,35,127,0,0,5194,3438,18870,12083,5142,175,631,1,1,446,6,367705,0
367745,-391,-4351,129,-614,-1678,-5917,29388,4539,566,10714,13528,34205,3690,34,127,0,0,5567,3691,17900,12083,5142,175,641,1,1,446,6,367752,0
367755,29,-4573,338,-1151,-1783,-6165,31218,3812,-438,9949,11504,34186,3725,35,127,0,0,5899,3295,16100,12083,5142,175,651,1,1,446,6,367752,0
367765,-384,-4274,1038,-831,-2121,-6673,32770,3235,-1092,8760,9208,34296,3289,35,127,0,0,6176,2702,12670,12083,5142,175,661,1,1,446,6,367783,0
367775,83,-3879,838,-885,-2548,-6910,33991,2448,-1142,6468,6400,34517,2482,35,127,0,0,6400,2175,6840,12083,5142,175,671,1,1,446,6,367799,0
367785,536,-3537,630,-881,-3633,-7113,34727,1211,-1547,3049,2320,34794,1535,35,127,0,0,6543,1340,2320,12083,5142,175,681,1,1,446,6,367799,0
367795,211,-2724,481,-881,-4523,-7149,34838,-143,-2160,640,-72,35061,699,34,127,0,0,6572,208,90,12083,5142,175,691,1,1,446,6,367799,0
367805,-2728,-226,1744,-360,-6782,-5337,34625,-522,-1855,-490,-2728,35240,152,34,127,0,0,6569,10,0,12083,5142,175,701,0,1,446,6,367799,0
367815,819,-2043,570,-204,-6780,-3068,34065,-1507,-1217,-1741,-4768,35299,-18,35,127,0,0,6695,1263,0,12083,5142,175,711,0,1,446,6,367799,0
367825,1301,-3094,-505,-289,-3877,-4040,33085,-2526,-1476,-2660,-7088,35288,90,34,127,0,0,6587,-1384,0,12083,5142,175,721,0,1,446,6,367799,0
367835,215,-2192,-369,199,-3019,-3494,31760,-2915,-1514,-491,-7040,35281,136,35,127,0,0,6332,-2658,0,12083,5142,175,731,0,1,446,6,367799,0
367845,139,-1735,-88,828,-2216,-2365,30442,-2921,-611,-906,-7608,35282,156,34,127,0,0,6040,-2955,0,12083,5142,175,741,0,1,446,6,367846,0
367855,5,-1698,218,1021,-1716,-1644,29041,-3174,-129,-936,-8176,35283,124,34,127,0,0,5734,-3065,0,12083,5142,175,751,0,1,446,6,367893,0
367865,-138,-1568,279,1103,-1253,-408,27497,-3474,-448,-801,-8392,35284,104,35,127,0,0,5442,-2900,0,12083,5142,175,761,0,1,446,6,367893,0
367875,-79,-1576,129,1250,-1050,438,25921,-3434,-350,-520,-7976,35288,108,35,127,0,0,5198,-2329,0,12083,5142,175,771,0,1,446,6,367893,0
367885,223,-1423,-152,1508,-759,1549,24417,-3237,83,-195,-7048,35297,67,35,127,0,0,5003,-1944,0,12083,5142,175,781,0,1,446,6,367893,0
367895,421,-1307,-196,1676,-516,2141,23045,-2899,389,-81,-6000,35322,18,35,127,0,0,4833,-1669,0,12083,5142,175,791,0,1,446,6,367893,0
367905,427,-1099,-279,1882,-65,2964,21865,-2481,632,-75,-5528,35336,-31,35,127,0,0,4669,-1647,0,12083,5142,175,801,0,1,446,6,367893,0
367915,470,-946,-285,1966,355,3430,20811,-2259,615,-112,-5080,35349,-55,34,127,0,0,4497,-1735,0,12083,5142,175,811,0,1,446,6,367893,0
367925,362,-738,-390,2065,850,4197,19829,-2128,375,-260,-5008,35353,-43,34,127,0,0,4308,-1845,0,12083,5142,175,821,0,1,446,6,367893,0
367935,188,-725,-415,2085,1055,4800,18878,-2073,193,-406,-4888,35346,-6,34,127,0,0,4135,-1669,0,12083,5142,175,831,0,1,446,6,367908,0
367945,70,-905,-382,2112,1227,5819,17962,-1979,135,-281,-4480,35350,19,35,127,0,0,3999,-1340,0,12083,5142,175,841,0,1,446,6,367940,0
