state_time,accelx,accely,accelz,gyrox,gyroy,gyroz,mot_ang,mot_vel,mot_acc,mot_cur,mot_volt,batt_volt,batt_curr,temperature,status_mn,status_ex,status_re,ank_ang,ank_vel,ank_torque,peak_ank_torque,step_energy,step_count,step_time,gait_state,movement,speed,incline,sys_time,eventFlags
292557,137,-2083,130,-95,40,100,11843,-6,3,-468,-152,35192,25,35,127,0,0,3333,10,0,1410,453,141,11213,-4,0,7,0,292537,0
292567,138,-2078,132,-92,37,98,11840,-9,4,-420,-120,35190,20,35,127,0,0,3331,-21,0,1410,453,141,11223,-4,0,7,0,292552,0
292577,147,-2084,137,-90,35,106,11835,-14,-5,-460,-136,35187,8,35,127,0,0,3331,0,0,1410,453,141,11233,-4,0,7,0,292552,0
292587,140,-2077,133,-84,32,118,11822,-30,-17,-352,-88,35184,14,35,127,0,0,3331,-10,0,1410,453,141,11243,-4,0,7,0,292552,0
292597,130,-2087,130,-80,43,119,11807,-30,-17,-278,-80,35191,27,35,127,0,0,3328,-21,0,1410,453,141,11253,-4,0,7,0,292568,0
292607,161,-2081,128,-75,40,119,11806,3,25,-302,-96,35199,41,35,127,0,0,3333,32,0,1410,453,141,11263,-4,0,7,0,292568,0
292617,156,-2076,129,-74,37,130,11808,9,33,-217,-56,35202,38,35,127,0,0,3333,0,0,1410,453,141,11273,-4,0,7,0,292599,0
292627,137,-2081,126,-69,41,139,11805,-7,-2,-237,-40,35198,10,35,127,0,0,3331,0,0,1410,453,141,11283,-4,0,7,0,292599,0
292637,133,-2084,130,-62,39,138,11806,2,-5,-235,-56,35191,5,34,127,0,0,3331,-21,0,1410,453,141,11293,-4,0,7,0,292599,0
292647,153,-2077,133,-52,40,143,11805,-5,-1,-236,-88,35196,24,35,127,0,0,3333,21,0,1410,453,141,11303,-4,0,7,0,292615,0
292658,147,-2074,146,-54,38,153,11806,0,-2,-214,-56,35201,40,35,127,0,0,3333,0,0,1410,453,141,11314,-4,0,7,0,292630,0
292668,137,-2079,141,-52,32,163,11808,11,5,-150,-8,35194,44,35,127,0,0,3334,-5,0,1410,453,141,11324,-4,0,7,0,292646,0
292678,134,-2081,149,-51,33,173,11806,-14,-4,-143,-8,35194,28,35,127,0,0,3337,38,0,1410,453,141,11334,-4,0,7,0,292646,0
292688,115,-2088,145,-50,35,180,11810,0,1,-57,8,35187,25,34,127,0,0,3339,38,0,1410,453,141,11344,-4,0,7,0,292662,0
292698,112,-2095,138,-51,30,172,11813,2,7,36,0,35193,23,34,127,0,0,3343,27,0,1410,453,141,11354,-4,0,7,0,292677,0
292708,111,-2105,138,-48,39,159,11818,11,-2,94,16,35188,18,35,127,0,0,3342,0,0,1410,453,141,11364,-4,0,7,0,292677,0
292718,106,-2093,157,-50,42,144,11820,8,1,106,32,35194,16,35,127,0,0,3340,-38,0,1410,453,141,11374,-4,0,7,0,292693,0
292728,126,-2086,161,-59,42,143,11820,-3,-10,70,32,35194,28,34,127,0,0,3344,21,0,1410,453,141,11384,-4,0,7,0,292693,0
292738,120,-2071,145,-59,34,129,11823,7,1,118,32,35192,29,34,127,0,0,3344,5,0,1410,453,141,11394,-4,0,7,0,292708,0
292748,111,-2059,138,-61,34,126,11825,-2,5,79,24,35199,21,34,127,0,0,3344,16,0,1410,453,141,11404,-4,0,7,0,292724,0
292758,123,-2064,136,-59,34,124,11827,11,-2,144,24,35196,18,35,127,0,0,3344,-21,0,1410,453,141,11414,-4,0,7,0,292724,0
292768,142,-2066,144,-58,32,122,11831,-3,0,24,16,35198,16,35,127,0,0,3344,0,0,1410,453,141,11424,-4,0,7,0,292740,0
292778,117,-2079,147,-57,39,130,11831,16,-6,64,40,35196,26,35,127,0,0,3343,-21,0,1410,453,141,11434,-4,0,7,0,292740,0
292788,131,-2086,148,-56,32,129,11836,11,4,68,24,35193,24,35,127,0,0,3343,-27,0,1410,453,141,11444,-4,0,7,0,292802,0
292798,145,-2097,145,-58,35,125,11837,-8,-1,-12,0,35199,19,35,127,0,0,3347,32,0,1410,453,141,11454,-4,0,7,0,292802,0
292808,117,-2102,139,-54,34,131,11839,5,-4,33,24,35197,18,34,127,0,0,3346,43,0,1410,453,141,11464,-4,0,7,0,292802,0
292818,139,-2088,152,-51,35,128,11844,11,4,22,8,35208,15,35,127,0,0,3346,0,0,1410,453,141,11474,-4,0,7,0,292802,0
292828,132,-2085,158,-42,32,123,11847,9,-3,25,-16,35213,19,34,127,0,0,3344,-49,0,1410,453,141,11484,-4,0,7,0,292802,0
292838,112,-2075,145,-44,36,125,11844,-1,-8,-31,8,35216,25,34,127,0,0,3346,32,0,1410,453,141,11494,-4,0,7,0,292833,0
292848,123,-2076,139,-42,34,123,11846,-3,-1,-10,8,35213,15,35,127,0,0,3349,60,0,1410,453,141,11504,-4,0,7,0,292849,0
292858,130,-2077,148,-41,36,117,11849,0,4,18,-24,35207,23,35,127,0,0,3347,5,0,1410,453,141,11514,-4,0,7,0,292865,0
292868,109,-2074,150,-44,44,108,11850,10,-5,15,-24,35201,28,34,127,0,0,3347,-16,0,1410,453,141,11524,-4,0,7,0,292865,0
292878,79,-2095,164,-46,34,117,11849,7,-4,8,0,35198,37,35,127,0,0,3346,0,0,1410,453,141,11534,-4,0,7,0,292865,0
292888,102,-2094,166,-48,31,104,11848,0,1,0,0,35198,42,34,127,0,0,3346,0,0,1410,453,141,11544,-4,0,7,0,292865,0
292898,125,-2104,157,-46,36,100,11849,-4,2,-5,0,35198,40,35,127,0,0,3343,-32,0,1410,453,141,11554,-4,0,7,0,292865,0
292909,104,-2092,159,-55,32,97,11850,7,-2,-9,32,35202,31,35,127,0,0,3346,0,0,1410,453,141,11565,-4,0,7,0,292880,0
292919,131,-2089,158,-59,30,85,11849,-3,2,-3,0,35201,25,35,127,0,0,3346,0,0,1410,453,141,11575,-4,0,7,0,292896,0
292929,115,-2071,160,-59,35,73,11848,-11,0,-35,-24,35203,20,35,127,0,0,3344,-10,0,1410,453,141,11585,-4,0,7,0,292896,0
292939,109,-2059,153,-65,38,71,11848,-2,-1,-35,-32,35200,10,35,127,0,0,3344,-10,0,1410,453,141,11595,-4,0,7,0,292912,0
292949,102,-2074,157,-64,38,66,11848,2,3,-78,-8,35201,29,35,127,0,0,3344,-21,0,1410,453,141,11605,-4,0,7,0,292927,0
292959,126,-2073,156,-65,44,59,11847,0,0,-133,-40,35206,45,35,127,0,0,3342,10,0,1410,453,141,11615,-4,0,7,0,292927,0
292969,140,-2087,161,-65,42,58,11847,-4,1,-148,-40,35204,41,35,127,0,0,3342,0,0,1410,453,141,11625,-4,0,7,0,292927,0
292979,137,-2098,159,-73,46,64,11843,-11,4,-202,-88,35204,35,35,127,0,0,3342,21,0,1410,453,141,11635,-4,0,7,0,292958,0
292989,140,-2093,156,-76,40,73,11841,-10,-8,-240,-80,35207,22,35,127,0,0,3335,-21,0,1410,453,141,11645,-4,0,7,0,292958,0
292999,144,-2092,155,-70,39,70,11835,-15,-8,-302,-56,35208,21,35,127,0,0,3335,0,0,1410,453,141,11655,-4,0,7,0,292958,0
293009,143,-2095,157,-80,34,82,11826,-27,-7,-325,-96,35207,26,35,127,0,0,3333,10,0,1410,453,141,11665,-4,0,7,0,292990,0
293019,131,-2072,150,-76,43,80,11810,-35,-22,-255,-80,35204,30,35,127,0,0,3333,0,0,1410,453,141,11675,-4,0,7,0,292990,0
293029,134,-2071,145,-76,46,83,11805,14,7,-220,-88,35204,31,35,127,0,0,3331,-10,0,1410,453,141,11685,-4,0,7,0,293005,0
293039,145,-2072,157,-73,38,87,11802,-13,34,-259,-80,35200,52,35,127,0,0,3331,10,0,1410,453,141,11695,-4,0,7,0,293021,0
293049,141,-2072,149,-76,33,92,11804,-2,7,-260,-104,35198,27,35,127,0,0,3328,-21,0,1410,453,141,11705,-4,0,7,0,293021,0
293059,141,-2071,151,-80,40,95,11803,0,1,-269,-72,35195,36,34,127,0,0,3328,-21,0,1410,453,141,11715,-4,0,7,0,293037,0
293069,143,-2078,160,-78,41,95,11803,-2,-6,-306,-56,35196,19,35,127,0,0,3326,-10,0,1410,453,141,11725,-4,0,7,0,293037,0
293079,178,-2086,161,-82,31,103,11802,-6,-1,-346,-80,35199,24,35,127,0,0,3331,10,0,1410,453,141,11735,-4,0,7,0,293068,0
293089,135,-2086,152,-73,39,113,11803,11,6,-295,-48,35206,37,35,127,0,0,3328,0,0,1410,453,141,11745,-4,0,7,0,293068,0
293099,131,-2091,162,-85,33,109,11802,3,-3,-310,-80,35207,46,35,127,0,0,3326,-21,0,1410,453,141,11755,-4,0,7,0,293068,0
293109,156,-2099,151,-77,40,115,11801,-6,0,-307,-120,35201,45,34,127,0,0,3326,-54,0,1410,453,141,11765,-4,0,7,0,293083,0
293119,139,-2090,153,-80,33,115,11798,0,-1,-346,-120,35198,32,35,127,0,0,3326,-10,0,1410,453,141,11775,-4,0,7,0,293099,0
293129,137,-2087,146,-74,41,129,11798,3,0,-357,-72,35205,38,35,127,0,0,3326,-10,0,1410,453,141,11785,-4,0,7,0,293099,0
293139,153,-2080,147,-69,38,131,11797,-8,6,-347,-32,35204,34,35,127,0,0,3328,21,0,1410,453,141,11795,-4,0,7,0,293115,0
293149,165,-2063,137,-54,48,139,11799,-7,-1,-305,-56,35202,35,35,127,0,0,3326,-21,0,1410,453,141,11805,-4,0,7,0,293115,0
293160,182,-2047,138,-51,55,141,11800,3,-3,-337,-80,35201,15,35,127,0,0,3325,-54,0,1410,453,141,11816,-4,0,7,0,293146,0
293170,136,-2055,152,-45,43,164,11799,6,1,-309,-88,35207,5,35,127,0,0,3328,-16,0,1410,453,141,11826,-4,0,7,0,293146,0
293180,148,-2067,155,-47,45,169,11800,9,-2,-256,-88,35203,16,35,127,0,0,3332,-10,0,1410,453,141,11836,-4,0,7,0,293146,0
293190,122,-2077,160,-46,41,172,11800,7,0,-198,-64,35195,18,35,127,0,0,3331,-21,0,1410,453,141,11846,-4,0,7,0,293162,0
293200,139,-2070,160,-46,35,174,11799,-6,-1,-178,-16,35196,31,35,127,0,0,3335,65,0,1410,453,141,11856,-4,0,7,0,293240,0
293210,150,-2072,164,-48,27,177,11802,-19,1,-143,-24,35202,30,35,127,0,0,3338,87,0,1410,453,141,11866,-4,0,7,0,293255,0
293220,98,-2073,147,-59,34,177,11807,6,4,-45,-8,35205,44,35,127,0,0,3337,27,0,1410,453,141,11876,-4,0,7,0,293255,0
293230,133,-2074,164,-57,35,170,11806,-7,-4,-37,16,35195,35,34,127,0,0,3339,65,0,1410,453,141,11886,-4,0,7,0,293255,0
293240,123,-2080,168,-61,40,182,11811,1,-3,33,8,35187,31,35,127,0,0,3343,43,0,1410,453,141,11896,-4,0,7,0,293255,0
293250,135,-2076,161,-61,32,184,11811,-2,3,90,32,35181,25,35,127,0,0,3342,43,0,1410,453,141,11906,-4,0,7,0,293255,0
293260,117,-2093,154,-62,37,180,11818,21,-1,188,24,35186,18,35,127,0,0,3348,21,0,1410,453,141,11916,-4,0,7,0,293255,0
293270,137,-2102,150,-64,37,178,11829,23,20,196,40,35190,9,35,127,0,0,3349,32,0,1410,453,141,11926,-4,0,7,0,293255,0
293280,119,-2104,161,-58,38,175,11845,42,19,120,32,35192,6,34,127,0,0,3348,27,0,1410,453,141,11936,-4,0,7,0,293255,0
293290,142,-2104,173,-59,26,179,11856,6,2,-7,8,35191,20,35,127,0,0,3348,0,0,1410,453,141,11946,-4,0,7,0,293271,0
293300,113,-2102,163,-62,28,163,11860,27,-27,139,24,35190,46,34,127,0,0,3350,-43,0,1410,453,141,11956,-4,0,7,0,293271,0
293310,124,-2097,161,-65,32,155,11860,-7,-12,128,24,35202,72,34,127,0,0,3350,-16,0,1410,453,141,11966,-4,0,7,0,293271,0
293320,108,-2094,159,-63,31,144,11863,8,-7,161,64,35211,68,35,127,0,0,3351,0,0,1410,453,141,11976,-4,0,7,0,293302,0
293330,101,-2092,159,-59,26,121,11868,4,13,228,80,35213,67,34,127,0,0,3354,-10,0,1410,453,141,11986,-4,0,7,0,293302,0
293340,94,-2083,158,-62,26,109,11868,-10,-3,222,48,35205,49,34,127,0,0,3355,0,0,1410,453,141,11996,-4,0,7,0,293318,0
293350,92,-2071,162,-66,37,82,11868,0,-7,220,72,35197,43,35,127,0,0,3354,5,0,1410,453,141,12006,-4,0,7,0,293318,0
293360,106,-2070,164,-69,32,76,11871,0,-5,266,56,35198,35,35,127,0,0,3358,0,0,1410,453,141,12016,-4,0,7,0,293349,0
293370,137,-2064,163,-72,26,70,11869,-9,-5,230,56,35198,22,35,127,0,0,3355,38,0,1410,453,141,12026,-4,0,7,0,293349,0
293380,147,-2069,150,-69,28,68,11868,-9,-1,192,56,35203,19,35,127,0,0,3351,-16,0,1410,453,141,12036,-4,0,7,0,293349,0
293390,152,-2054,149,-63,32,78,11869,0,0,165,32,35196,29,35,127,0,0,3353,-27,0,1410,453,141,12046,-4,0,7,0,293349,0
293400,149,-2066,148,-57,36,94,11870,12,-2,178,48,35192,53,35,127,0,0,3348,-27,0,1410,453,141,12056,-4,0,7,0,293365,0
293411,172,-2071,136,-46,34,105,11869,10,1,174,56,35200,50,35,127,0,0,3355,21,0,1410,453,141,12067,-4,0,7,0,293411,0
293421,158,-2065,136,-35,36,134,11870,0,-3,233,56,35208,42,35,127,0,0,3355,-10,0,1410,453,141,12077,-4,0,7,0,293411,0
293431,156,-2084,131,-24,56,147,11869,1,1,200,56,35203,43,35,127,0,0,3355,10,0,1410,453,141,12087,-4,0,7,0,293411,0
293441,148,-2076,150,-10,52,153,11870,7,3,235,80,35189,37,35,127,0,0,3355,0,0,1410,453,141,12097,-4,0,7,0,293411,0
293451,171,-2082,167,-11,54,161,11872,9,-4,257,40,35178,31,34,127,0,0,3355,-21,0,1410,453,141,12107,-4,0,7,0,293411,0
293461,112,-2086,173,-13,40,188,11870,-1,-2,296,72,35189,29,35,127,0,0,3359,21,0,1410,453,141,12117,-4,0,7,0,293443,0
293471,130,-2086,177,-18,28,194,11873,2,3,348,48,35196,13,35,127,0,0,3361,32,0,1410,453,141,12127,-4,0,7,0,293443,0
293481,100,-2089,171,-17,34,187,11877,13,5,366,80,35200,17,35,127,0,0,3361,10,0,1410,453,141,12137,-4,0,7,0,293443,0
293491,83,-2085,175,-23,39,171,11882,8,4,390,96,35194,11,35,127,0,0,3364,21,0,1410,453,141,12147,-4,0,7,0,293474,0
293501,108,-2088,179,-38,40,158,11888,18,2,389,144,35189,34,35,127,0,0,3366,54,0,1410,453,141,12157,-4,0,7,0,293474,0
293511,95,-2091,192,-44,34,139,11912,73,43,336,72,35193,40,35,127,0,0,3364,-21,0,1410,453,141,12167,-4,0,7,0,293490,0
293521,115,-2090,197,-56,27,132,11937,19,35,121,64,35192,54,35,127,0,0,3366,10,0,1410,453,141,12177,-4,0,7,0,293490,0
293531,72,-2091,185,-62,33,108,11933,4,-68,225,32,35192,57,34,127,0,0,3368,10,0,1410,453,141,12187,-4,0,7,0,293490,0
293541,99,-2089,186,-76,40,86,11934,-12,-32,212,40,35189,68,35,127,0,0,3366,10,0,1410,453,141,12197,-4,0,7,0,293521,0
293551,97,-2083,196,-82,26,75,11935,11,10,238,56,35197,62,34,127,0,0,3366,-10,0,1410,453,141,12207,-4,0,7,0,293536,0
293561,105,-2087,185,-91,27,57,11933,-8,-1,226,32,35191,66,34,127,0,0,3366,-10,0,1410,453,141,12217,-4,0,7,0,293536,0
293571,124,-2085,166,-93,21,52,11933,-2,-6,194,72,35187,57,35,127,0,0,3366,-21,0,1410,453,141,12227,-4,0,7,0,293536,0
293581,133,-2077,151,-85,30,45,11933,0,2,194,32,35185,54,35,127,0,0,3364,-21,0,1410,453,141,12237,-4,0,7,0,293568,0
293591,153,-2074,162,-84,26,48,11932,-8,-4,140,16,35189,54,35,127,0,0,3364,-43,0,1410,453,141,12247,-4,0,7,0,293583,0
293601,146,-2068,163,-86,24,49,11931,-4,-5,78,24,35191,54,35,127,0,0,3364,10,0,1410,453,141,12257,-4,0,7,0,293583,0
293611,126,-2069,161,-82,23,55,11930,-5,3,67,-8,35182,59,35,127,0,0,3359,-32,0,1410,453,141,12267,-4,0,7,0,293599,0
293621,125,-2071,147,-72,34,62,11929,-2,-3,20,0,35176,56,35,127,0,0,3361,-32,0,1410,453,141,12277,-4,0,7,0,293599,0
293631,152,-2072,155,-74,32,67,11929,6,4,-30,-24,35179,54,35,127,0,0,3357,-43,0,1410,453,141,12287,-4,0,7,0,293599,0
293641,145,-2073,163,-70,26,78,11927,-2,7,-70,-16,35191,55,35,127,0,0,3359,-10,0,1410,453,141,12297,-4,0,7,0,293646,0
293651,138,-2073,171,-67,29,96,11923,-15,0,-138,-32,35195,63,35,127,0,0,3357,21,0,1410,453,141,12307,-4,0,7,0,293646,0
293661,143,-2077,171,-65,28,95,11923,0,1,-130,-32,35195,62,35,127,0,0,3357,0,0,1410,453,141,12317,-4,0,7,0,293646,0
293671,125,-2081,164,-65,37,90,11923,5,4,-128,-64,35186,50,34,127,0,0,3357,0,0,1410,453,141,12327,-4,0,7,0,293646,0
293681,124,-2075,169,-67,27,91,11923,1,0,-119,-32,35181,56,34,127,0,0,3355,-21,0,1410,453,141,12337,-4,0,7,0,293661,0
293692,126,-2084,173,-63,36,91,11923,7,1,-162,-56,35181,60,35,127,0,0,3355,-43,0,1410,453,141,12348,-4,0,7,0,293661,0
293702,118,-2090,173,-64,40,80,11920,0,-1,-210,-72,35191,80,34,127,0,0,3356,-5,0,1410,453,141,12358,-4,0,7,0,293677,0
293712,118,-2088,177,-71,43,81,11917,-11,-1,-271,-88,35199,83,35,127,0,0,3354,38,0,1410,453,141,12368,-4,0,7,0,293693,0
293722,120,-2089,174,-72,46,70,11915,6,2,-232,-88,35203,67,34,127,0,0,3350,-38,0,1410,453,141,12378,-4,0,7,0,293693,0
293732,133,-2088,183,-70,42,68,11911,-16,0,-321,-80,35194,62,35,127,0,0,3350,27,0,1410,453,141,12388,-4,0,7,0,293693,0
293742,140,-2085,179,-73,41,69,11909,-7,-3,-322,-96,35185,54,35,127,0,0,3348,-5,0,1410,453,141,12398,-4,0,7,0,293724,0
293752,132,-2084,179,-76,40,68,11906,-13,3,-348,-88,35187,43,34,127,0,0,3342,-60,0,1410,453,141,12408,-4,0,7,0,293724,0
293762,136,-2079,175,-77,41,68,11894,-46,-25,-397,-112,35187,42,35,127,0,0,3344,0,0,1410,453,141,12418,-4,0,7,0,293724,0
293772,129,-2082,177,-79,41,57,11862,-82,-59,-187,-48,35191,31,35,127,0,0,3340,-27,0,1410,453,141,12428,-4,0,7,0,293755,0
293782,104,-2082,172,-82,53,54,11853,10,0,-211,-80,35184,22,35,127,0,0,3339,-38,0,1410,453,141,12438,-4,0,7,0,293755,0
293792,160,-2072,183,-86,38,54,11852,-8,69,-286,-96,35184,24,35,127,0,0,3340,-5,0,1410,453,141,12448,-4,0,7,0,293755,0
293802,139,-2081,178,-92,38,49,11854,9,12,-308,-128,35190,24,35,127,0,0,3335,-43,0,1410,453,141,12458,-4,0,7,0,293818,0
293812,126,-2071,174,-90,41,46,11849,-1,0,-380,-136,35192,39,34,127,0,0,3333,-76,0,1410,453,141,12468,-4,0,7,0,293833,0
293822,124,-2082,181,-92,51,41,11842,-14,-14,-395,-128,35193,33,35,127,0,0,3329,-38,0,1410,453,141,12478,-4,0,7,0,293833,0
293832,143,-2081,185,-91,41,43,11835,-18,-4,-438,-112,35190,34,35,127,0,0,3326,-43,0,1410,453,141,12488,-4,0,7,0,293833,0
293842,138,-2081,174,-97,39,45,11818,-48,-15,-386,-144,35180,31,35,127,0,0,3326,-65,0,1410,453,141,12498,-4,0,7,0,293833,0
293852,140,-2082,170,-94,43,33,11791,-53,-42,-329,-112,35182,33,35,127,0,0,3324,-21,0,1410,453,141,12508,-4,0,7,0,293833,0
293862,153,-2077,175,-97,49,43,11790,9,34,-405,-136,35181,30,35,127,0,0,3322,-32,0,1410,453,141,12518,-4,0,7,0,293833,0
293872,169,-2077,172,-97,43,35,11788,0,51,-425,-176,35183,38,35,127,0,0,3321,-43,0,1410,453,141,12528,-4,0,7,0,293833,0
293882,149,-2085,174,-100,44,43,11785,-13,-2,-484,-176,35190,41,35,127,0,0,3314,-65,0,1410,453,141,12538,-4,0,7,0,293849,0
293892,152,-2076,164,-100,47,53,11774,-34,-20,-530,-176,35206,51,35,127,0,0,3315,0,0,1410,453,141,12548,-4,0,7,0,293864,0
293902,160,-2077,165,-94,39,59,11749,-73,-42,-418,-144,35208,49,34,127,0,0,3313,-5,0,1410,453,141,12558,-4,0,7,0,293864,0
293913,133,-2073,158,-87,50,63,11711,-51,-48,-236,-72,35195,58,35,127,0,0,3311,-32,0,1410,453,141,12569,-4,0,7,0,293880,0
293923,179,-2077,172,-92,39,66,11698,-32,34,-272,-104,35193,65,34,127,0,0,3309,-32,0,1410,453,141,12579,-4,0,7,0,293958,0
293933,145,-2075,169,-82,49,67,11676,-49,14,-162,-48,35199,89,34,127,0,0,3309,0,0,1410,453,141,12589,-4,0,7,0,293958,0
293943,145,-2086,170,-89,47,81,11676,8,26,-216,-72,35193,80,34,127,0,0,3306,-21,0,1410,453,141,12599,-4,0,7,0,293958,0
293953,157,-2075,169,-87,35,79,11675,10,45,-238,-104,35193,70,35,127,0,0,3304,-21,0,1410,453,141,12609,-4,0,7,0,293974,0
293963,155,-2079,169,-85,38,81,11675,8,1,-242,-72,35186,65,35,127,0,0,3304,-21,0,1410,453,141,12619,-4,0,7,0,293974,0
293973,145,-2081,171,-82,37,86,11672,-6,-1,-290,-88,35185,47,35,127,0,0,3304,-10,0,1410,453,141,12629,-4,0,7,0,293974,0
293983,150,-2084,161,-82,38,86,11671,-1,-5,-321,-120,35188,52,35,127,0,0,3304,10,0,1410,453,141,12639,-4,0,7,0,293974,0
293993,140,-2078,168,-79,34,95,11670,1,16,-325,-104,35195,57,35,127,0,0,3302,-21,0,1410,453,141,12649,-4,0,7,0,293974,0
294003,136,-2081,166,-76,34,88,11669,-2,0,-359,-104,35200,52,35,127,0,0,3302,0,0,1410,453,141,12659,-4,0,7,0,293974,0
294013,145,-2083,168,-82,34,85,11667,1,4,-365,-136,35209,51,35,127,0,0,3300,-32,0,1410,453,141,12669,-4,0,7,0,293974,0
294023,142,-2081,186,-85,36,78,11665,-7,2,-374,-128,35211,51,35,127,0,0,3300,-10,0,1410,453,141,12679,-4,0,7,0,294005,0
294033,134,-2079,182,-90,36,76,11664,-1,1,-402,-112,35209,46,34,127,0,0,3298,-32,0,1410,453,141,12689,-4,0,7,0,294021,0
294043,152,-2077,172,-91,31,75,11663,-3,-1,-426,-104,35196,52,35,127,0,0,3295,-43,0,1410,453,141,12699,-4,0,7,0,294021,0
294053,142,-2074,170,-88,35,70,11659,-16,-8,-489,-104,35190,40,34,127,0,0,3298,21,0,1410,453,141,12709,-4,0,7,0,294021,0
294063,128,-2072,168,-97,33,76,11660,-11,-3,-449,-232,35202,52,34,127,0,0,3293,-21,0,1410,453,141,12719,-4,0,7,0,294068,0
294073,137,-2073,170,-90,41,66,11652,-17,-10,-441,-184,35204,51,35,127,0,0,3291,-54,0,1410,453,141,12729,-4,0,7,0,294068,0
294083,164,-2069,174,-87,32,65,11648,-11,-3,-523,-144,35202,62,34,127,0,0,3289,-21,0,1410,453,141,12739,-4,0,7,0,294068,0
294093,153,-2078,157,-90,38,67,11637,-30,-11,-501,-152,35204,50,35,127,0,0,3289,-21,0,1410,453,141,12749,-4,0,7,0,294083,0
294103,146,-2083,163,-86,39,71,11615,-67,-31,-416,-168,35209,44,34,127,0,0,3287,-10,0,1410,453,141,12759,-4,0,7,0,294083,0
294113,148,-2080,183,-95,48,68,11599,-14,-23,-374,-160,35210,19,34,127,0,0,3287,0,0,1410,453,141,12769,-4,0,7,0,294083,0
294123,172,-2079,178,-99,45,74,11599,-6,52,-461,-144,35211,13,35,127,0,0,3284,10,0,1410,453,141,12779,-4,0,7,0,294114,0
294133,160,-2088,172,-95,37,79,11598,0,30,-473,-144,35208,8,34,127,0,0,3284,0,0,1410,453,141,12789,-4,0,7,0,294114,0
294143,158,-2079,158,-87,45,82,11596,0,-1,-504,-168,35210,-4,34,127,0,0,3280,-43,0,1410,453,141,12799,-4,0,7,0,294114,0
294153,157,-2088,169,-92,46,90,11587,-20,-19,-517,-168,35202,2,35,127,0,0,3278,-43,0,1410,453,141,12809,-4,0,7,0,294114,0
294164,179,-2079,157,-90,41,95,11563,-63,-35,-422,-104,35209,19,34,127,0,0,3279,-5,0,1410,453,141,12820,-4,0,7,0,294146,0
294174,175,-2078,145,-85,48,96,11532,-53,-46,-201,-88,35205,12,35,127,0,0,3281,5,0,1410,453,141,12830,-4,0,7,0,294146,0
294184,174,-2082,154,-76,52,114,11534,15,54,-274,-64,35200,14,35,127,0,0,3280,32,0,1410,453,141,12840,-4,0,7,0,294146,0
294194,198,-2092,149,-73,42,132,11533,-5,61,-213,-40,35196,8,35,127,0,0,3282,32,0,1410,453,141,12850,-4,0,7,0,294177,0
294204,185,-2086,159,-70,45,143,11535,0,1,-185,-88,35193,23,34,127,0,0,3281,-43,0,1410,453,141,12860,-4,0,7,0,294177,0
294214,161,-2070,162,-55,52,156,11533,-3,-6,-214,-64,35201,15,35,127,0,0,3280,-5,0,1410,453,141,12870,-4,0,7,0,294192,0
294224,189,-2066,162,-55,50,163,11534,-2,-1,-188,-64,35202,26,35,127,0,0,3280,-43,0,1410,453,141,12880,-4,0,7,0,294192,0
294234,137,-2075,155,-36,50,181,11537,17,1,-193,-40,35199,8,35,127,0,0,3282,-5,0,1410,453,141,12890,-4,0,7,0,294208,0
294244,158,-2074,149,-35,47,185,11533,-5,5,-195,-24,35205,35,35,127,0,0,3284,54,0,1410,453,141,12900,-4,0,7,0,294239,0
294254,151,-2085,167,-33,38,200,11540,11,8,-86,-32,35192,28,35,127,0,0,3284,0,0,1410,453,141,12910,-4,0,7,0,294239,0
294264,151,-2084,169,-35,43,189,11539,8,1,-11,16,35192,25,35,127,0,0,3289,21,0,1410,453,141,12920,-4,0,7,0,294239,0
294274,175,-2085,176,-34,49,189,11546,1,6,54,8,35184,12,34,127,0,0,3292,27,0,1410,453,141,12930,-4,0,7,0,294239,0
294284,139,-2091,182,-40,48,197,11547,11,-3,148,48,35187,18,34,127,0,0,3296,76,0,1410,453,141,12940,-4,0,7,0,294255,0
294294,158,-2086,186,-41,42,207,11554,9,10,203,64,35195,15,35,127,0,0,3295,21,0,1410,453,141,12950,-4,0,7,0,294271,0
294304,149,-2095,183,-44,42,204,11557,24,8,291,72,35200,18,35,127,0,0,3298,-5,0,1410,453,141,12960,-4,0,7,0,294286,0
294314,154,-2087,196,-49,39,208,11562,12,-4,314,96,35199,17,34,127,0,0,3300,43,0,1410,453,141,12970,-4,0,7,0,294286,0
294324,146,-2075,192,-55,43,213,11574,36,17,307,112,35192,6,35,127,0,0,3307,104,0,1410,453,141,12980,-4,0,7,0,294286,0
294334,126,-2074,191,-75,37,220,11616,119,71,213,80,35188,29,34,127,0,0,3305,5,0,1410,453,141,12990,-4,0,7,0,294317,0
294344,190,-2054,207,-81,32,215,11650,50,52,15,32,35192,33,35,127,0,0,3311,27,0,1410,453,141,13000,-4,0,7,0,294317,0
294354,123,-2063,194,-90,26,223,11663,17,-56,-2,0,35194,40,35,127,0,0,3311,0,0,1410,453,141,13010,-4,0,7,0,294333,0
294364,112,-2049,181,-89,42,201,11664,3,-73,76,24,35193,21,35,127,0,0,3316,49,0,1410,453,141,13020,-4,0,7,0,294333,0
294374,137,-2061,186,-95,38,199,11671,17,-2,189,56,35190,23,35,127,0,0,3317,21,0,1410,453,141,13030,-4,0,7,0,294333,0
294384,139,-2061,188,-93,35,205,11674,5,2,237,72,35195,15,35,127,0,0,3316,10,0,1410,453,141,13040,-4,0,7,0,294380,0
294394,136,-2085,165,-99,38,188,11675,-3,-10,243,88,35201,32,35,127,0,0,3318,-10,0,1410,453,141,13050,-4,0,7,0,294380,0
294404,128,-2096,164,-104,42,181,11679,7,-1,299,112,35207,27,35,127,0,0,3324,10,0,1410,453,141,13060,-4,0,7,0,294380,0
294414,128,-2106,178,-100,48,174,11685,10,6,377,120,35200,32,35,127,0,0,3326,-5,0,1410,453,141,13070,-4,0,7,0,294380,0
294425,136,-2100,181,-101,38,178,11689,7,-6,389,120,35199,38,35,127,0,0,3328,32,0,1410,453,141,13081,-4,0,7,0,294396,0
294435,134,-2104,165,-96,46,176,11692,13,-5,438,168,35203,57,35,127,0,0,3331,32,0,1410,453,141,13091,-4,0,7,0,294458,0
294445,143,-2089,141,-88,43,182,11703,35,19,443,160,35207,62,35,127,0,0,3333,10,0,1410,453,141,13101,-4,0,7,0,294458,0
294455,142,-2086,150,-81,45,182,11735,77,49,286,96,35198,67,35,127,0,0,3335,32,0,1410,453,141,13111,-4,0,7,0,294458,0
294465,160,-2082,182,-72,34,194,11757,37,25,256,72,35189,51,35,127,0,0,3337,32,0,1410,453,141,13121,-4,0,7,0,294458,0
294475,126,-2063,171,-78,40,200,11761,15,-55,296,80,35185,40,35,127,0,0,3337,0,0,1410,453,141,13131,-4,0,7,0,294474,0
294485,128,-2057,172,-82,46,200,11774,44,-12,311,72,35186,44,35,127,0,0,3342,0,0,1410,453,141,13141,-4,0,7,0,294474,0
294495,140,-2065,193,-78,41,218,11810,78,64,161,56,35185,41,35,127,0,0,3344,32,0,1410,453,141,13151,-4,0,7,0,294474,0
294505,114,-2068,183,-87,29,208,11822,3,-12,206,56,35192,36,35,127,0,0,3348,32,0,1410,453,141,13161,-4,0,7,0,294474,0
294515,91,-2079,175,-86,42,205,11825,22,-62,326,72,35197,19,34,127,0,0,3350,43,0,1410,453,141,13171,-4,0,7,0,294474,0
294525,118,-2076,176,-90,45,188,11844,54,30,280,80,35207,8,34,127,0,0,3353,10,0,1410,453,141,13181,-4,0,7,0,294505,0
294535,147,-2072,185,-98,31,185,11869,39,33,168,16,35204,18,35,127,0,0,3355,0,0,1410,453,141,13191,-4,0,7,0,294505,0
294545,73,-2081,181,-98,36,172,11868,0,-50,281,80,35191,27,35,127,0,0,3355,0,0,1410,453,141,13201,-4,0,7,0,294505,0
294555,112,-2085,175,-99,40,163,11869,-18,-37,264,80,35192,23,34,127,0,0,3357,21,0,1410,453,141,13211,-4,0,7,0,294552,0
294565,133,-2088,187,-103,38,146,11870,-1,-2,303,72,35191,15,35,127,0,0,3357,10,0,1410,453,141,13221,-4,0,7,0,294552,0
294575,110,-2089,188,-106,28,142,11873,8,1,367,88,35192,23,35,127,0,0,3357,-54,0,1410,453,141,13231,-4,0,7,0,294552,0
294585,85,-2096,183,-111,35,123,11874,3,-3,348,80,35192,25,35,127,0,0,3357,-32,0,1410,453,141,13241,-4,0,7,0,294552,0
294595,116,-2091,184,-110,26,108,11875,2,-6,348,56,35192,33,35,127,0,0,3357,-32,0,1410,453,141,13251,-4,0,7,0,294567,0
294605,116,-2095,162,-113,29,104,11876,1,3,363,72,35205,20,35,127,0,0,3357,-32,0,1410,453,141,13261,-4,0,7,0,294583,0
294615,126,-2082,160,-107,30,97,11876,7,1,368,40,35207,15,35,127,0,0,3357,-65,0,1410,453,141,13271,-4,0,7,0,294583,0
294625,95,-2083,152,-104,25,97,11874,-2,-1,346,80,35208,29,34,127,0,0,3359,10,0,1410,453,141,13281,-4,0,7,0,294599,0
294635,104,-2069,159,-94,31,83,11878,4,6,350,80,35203,41,35,127,0,0,3357,-54,0,1410,453,141,13291,-4,0,7,0,294599,0
294645,100,-2072,151,-95,26,90,11874,-2,-4,287,64,35207,43,35,127,0,0,3357,0,0,1410,453,141,13301,-4,0,7,0,294614,0
294655,120,-2065,162,-88,23,86,11876,-2,0,287,64,35210,53,35,127,0,0,3359,21,0,1410,453,141,13311,-4,0,7,0,294630,0
294666,128,-2064,162,-90,19,87,11877,0,4,275,64,35212,51,35,127,0,0,3357,16,0,1410,453,141,13322,-4,0,7,0,294708,0
294676,110,-2068,155,-87,21,82,11876,5,1,278,64,35203,58,35,127,0,0,3357,0,0,1410,453,141,13332,-4,0,7,0,294708,0
294686,141,-2072,168,-77,24,81,11874,-8,-1,291,64,35199,52,35,127,0,0,3357,0,0,1410,453,141,13342,-4,0,7,0,294708,0
294696,147,-2080,171,-74,29,90,11877,4,1,287,64,35191,49,34,127,0,0,3357,0,0,1410,453,141,13352,-4,0,7,0,294708,0
294706,141,-2081,159,-70,17,104,11877,2,2,244,64,35184,31,34,127,0,0,3354,-21,0,1410,453,141,13362,-4,0,7,0,294724,0
294716,118,-2082,154,-71,23,112,11874,1,-4,217,40,35181,24,35,127,0,0,3351,-32,0,1410,453,141,13372,-4,0,7,0,294724,0
294726,119,-2084,158,-60,25,113,11871,-8,-5,141,72,35194,16,34,127,0,0,3354,10,0,1410,453,141,13382,-4,0,7,0,294724,0
294736,149,-2084,155,-53,24,123,11874,-7,5,157,16,35196,18,35,127,0,0,3356,10,0,1410,453,141,13392,-4,0,7,0,294724,0
294746,149,-2080,181,-51,28,115,11872,1,0,146,48,35194,16,35,127,0,0,3351,10,0,1410,453,141,13402,-4,0,7,0,294724,0
294756,151,-2083,175,-54,29,117,11871,-2,-4,173,72,35190,26,35,127,0,0,3354,16,0,1410,453,141,13412,-4,0,7,0,294724,0
294766,145,-2083,187,-56,27,113,11873,-7,2,223,24,35202,37,35,127,0,0,3349,-87,0,1410,453,141,13422,-4,0,7,0,294739,0
294776,147,-2082,189,-58,31,110,11870,1,-17,145,24,35222,33,35,127,0,0,3356,5,0,1410,453,141,13432,-4,0,7,0,294770,0
294786,91,-2081,196,-56,18,119,11873,0,8,200,48,35226,38,35,127,0,0,3355,5,0,1410,453,141,13442,-4,0,7,0,294770,0
294796,77,-2080,185,-66,21,125,11872,5,8,217,24,35216,42,35,127,0,0,3356,-5,0,1410,453,141,13452,-4,0,7,0,294770,0
294806,121,-2091,174,-67,32,113,11869,-9,-10,176,32,35200,37,35,127,0,0,3356,32,0,1410,453,141,13462,-4,0,7,0,294770,0
294816,158,-2078,161,-70,34,105,11874,0,5,234,40,35198,33,35,127,0,0,3351,-49,0,1410,453,141,13472,-4,0,7,0,294802,0
294826,119,-2088,170,-62,27,106,11871,-1,2,150,48,35205,35,35,127,0,0,3351,-10,0,1410,453,141,13482,-4,0,7,0,294802,0
294836,147,-2078,173,-59,35,114,11870,-9,-10,101,72,35204,27,35,127,0,0,3354,43,0,1410,453,141,13492,-4,0,7,0,294802,0
294846,168,-2078,182,-58,42,117,11873,-6,7,163,24,35208,52,35,127,0,0,3353,-21,0,1410,453,141,13502,-4,0,7,0,294833,0
294856,148,-2073,181,-63,35,117,11873,12,-10,165,24,35198,47,35,127,0,0,3353,-32,0,1410,453,141,13512,-4,0,7,0,294833,0
294866,92,-2070,183,-64,31,135,11872,9,-2,219,72,35197,40,35,127,0,0,3350,-54,0,1410,453,141,13522,-4,0,7,0,294833,0
294876,134,-2071,178,-65,38,133,11872,0,4,203,48,35192,32,35,127,0,0,3355,-38,0,1410,453,141,13532,-4,0,7,0,294849,0
294886,137,-2077,172,-65,35,139,11873,4,1,224,48,35198,28,35,127,0,0,3358,32,0,1410,453,141,13542,-4,0,7,0,294864,0
294896,115,-2076,183,-62,42,142,11872,-8,0,180,48,35200,27,35,127,0,0,3355,32,0,1410,453,141,13552,-4,0,7,0,294864,0
294906,141,-2086,177,-63,37,143,11872,1,-1,172,48,35201,21,35,127,0,0,3355,16,0,1410,453,141,13562,-4,0,7,0,294880,0
294917,144,-2074,185,-66,49,131,11872,-2,-3,217,72,35201,26,35,127,0,0,3357,43,0,1410,453,141,13573,-4,0,7,0,294895,0
294927,136,-2083,183,-67,44,136,11875,0,1,245,40,35205,48,35,127,0,0,3355,-10,0,1410,453,141,13583,-4,0,7,0,294895,0
294937,120,-2079,177,-66,46,129,11874,6,-2,244,80,35208,52,35,127,0,0,3357,0,0,1410,453,141,13593,-4,0,7,0,294895,0
294947,114,-2090,183,-68,42,124,11873,-1,-2,238,80,35206,51,34,127,0,0,3355,10,0,1410,453,141,13603,-4,0,7,0,294927,0
294957,126,-2085,178,-60,42,126,11873,-9,4,233,48,35201,50,34,127,0,0,3355,-21,0,1410,453,141,13613,-4,0,7,0,294927,0
294967,129,-2085,173,-66,45,128,11874,1,1,239,32,35204,43,35,127,0,0,3357,21,0,1410,453,141,13623,-4,0,7,0,294942,0
294977,128,-2089,175,-67,44,121,11873,-9,-1,254,112,35202,46,35,127,0,0,3357,32,0,1410,453,141,13633,-4,0,7,0,294942,0
294987,148,-2084,178,-63,41,120,11874,-10,-6,226,80,35198,30,35,127,0,0,3357,32,0,1410,453,141,13643,-4,0,7,0,294958,0
294997,126,-2078,179,-62,39,111,11877,9,2,281,64,35208,24,35,127,0,0,3357,-10,0,1410,453,141,13653,-4,0,7,0,294958,0
295007,101,-2081,181,-67,39,118,11873,-12,-4,251,80,35207,22,35,127,0,0,3359,54,0,1410,453,141,13663,-4,0,7,0,294989,0
295017,146,-2083,173,-70,48,103,11877,5,-4,283,64,35207,41,35,127,0,0,3357,0,0,1410,453,141,13673,-4,0,7,0,295005,0
295027,124,-2077,176,-66,49,107,11875,2,7,283,32,35203,37,34,127,0,0,3357,0,0,1410,453,141,13683,-4,0,7,0,295005,0
295037,139,-2080,179,-66,41,102,11875,-3,-5,270,32,35197,35,35,127,0,0,3357,21,0,1410,453,141,13693,-4,0,7,0,295005,0
295047,133,-2080,178,-65,38,101,11876,4,1,291,64,35200,27,34,127,0,0,3357,0,0,1410,453,141,13703,-4,0,7,0,295020,0
295057,128,-2073,188,-71,37,101,11875,-1,1,285,64,35205,35,34,127,0,0,3357,0,0,1410,453,141,13713,-4,0,7,0,295083,0
295067,126,-2083,192,-70,38,105,11875,0,-3,287,96,35211,41,35,127,0,0,3357,0,0,1410,453,141,13723,-4,0,7,0,295083,0
295077,119,-2080,191,-74,38,102,11874,-4,-5,280,64,35208,39,35,127,0,0,3357,0,0,1410,453,141,13733,-4,0,7,0,295083,0
295087,134,-2081,187,-72,34,102,11875,-3,4,284,64,35198,29,35,127,0,0,3357,0,0,1410,453,141,13743,-4,0,7,0,295083,0
295097,124,-2076,182,-74,33,108,11877,6,0,294,24,35191,36,35,127,0,0,3357,-10,0,1410,453,141,13753,-4,0,7,0,295099,0
295107,100,-2080,183,-77,33,112,11874,-1,-2,262,80,35191,33,35,127,0,0,3357,0,0,1410,453,141,13763,-4,0,7,0,295099,0
295117,132,-2074,165,-74,34,104,11876,11,-1,267,24,35190,24,35,127,0,0,3355,-21,0,1410,453,141,13773,-4,0,7,0,295099,0
295127,120,-2080,172,-74,39,102,11876,6,-2,273,64,35190,27,35,127,0,0,3357,-10,0,1410,453,141,13783,-4,0,7,0,295099,0
295137,116,-2082,177,-69,37,104,11875,0,-3,280,64,35204,35,34,127,0,0,3357,-10,0,1410,453,141,13793,-4,0,7,0,295099,0
295147,115,-2084,188,-72,36,105,11873,-3,1,229,40,35218,73,35,127,0,0,3357,32,0,1410,453,141,13803,-4,0,7,0,295145,0
295157,148,-2078,184,-75,32,105,11873,-15,0,227,40,35217,67,35,127,0,0,3355,10,0,1410,453,141,13813,-4,0,7,0,295145,0
295167,142,-2082,180,-76,41,111,11874,7,5,221,72,35208,53,35,127,0,0,3357,32,0,1410,453,141,13823,-4,0,7,0,295161,0
295177,139,-2080,180,-77,39,103,11875,-4,1,282,64,35197,21,35,127,0,0,3355,-21,0,1410,453,141,13833,-4,0,7,0,295161,0
295187,134,-2075,185,-82,42,113,11873,-2,-5,239,64,35194,33,35,127,0,0,3355,0,0,1410,453,141,13843,-4,0,7,0,295161,0
295198,134,-2080,196,-77,42,103,11874,-3,-3,226,72,35195,38,35,127,0,0,3354,-10,0,1410,453,141,13854,-4,0,7,0,295161,0
295208,118,-2078,196,-84,35,104,11876,5,2,243,64,35196,44,35,127,0,0,3354,-38,0,1410,453,141,13864,-4,0,7,0,295177,0
295218,113,-2075,186,-82,38,102,11874,6,3,246,64,35205,39,35,127,0,0,3354,-38,0,1410,453,141,13874,-4,0,7,0,295192,0
295228,120,-2085,186,-86,36,102,11875,5,-1,248,64,35211,48,35,127,0,0,3354,-38,0,1410,453,141,13884,-4,0,7,0,295208,0
295238,129,-2082,175,-88,34,96,11874,0,1,237,64,35202,47,34,127,0,0,3357,21,0,1410,453,141,13894,-4,0,7,0,295208,0
295248,126,-2077,168,-85,44,96,11874,-2,3,265,64,35203,35,35,127,0,0,3357,27,0,1410,453,141,13904,-4,0,7,0,295239,0
295258,145,-2083,179,-86,45,102,11874,-3,1,249,16,35207,27,35,127,0,0,3353,-54,0,1410,453,141,13914,-4,0,7,0,295239,0
295268,141,-2075,175,-81,48,92,11872,10,-4,135,24,35208,35,35,127,0,0,3353,-27,0,1410,453,141,13924,-4,0,7,0,295239,0
295278,147,-2088,180,-83,43,109,11873,12,6,122,24,35202,41,35,127,0,0,3353,-10,0,1410,453,141,13934,-4,0,7,0,295239,0
295288,129,-2086,191,-83,36,111,11873,16,13,197,16,35195,32,35,127,0,0,3356,-21,0,1410,453,141,13944,-4,0,7,0,295270,0
295298,125,-2090,188,-85,35,112,11870,-8,-2,164,48,35200,30,35,127,0,0,3358,65,0,1410,453,141,13954,-4,0,7,0,295270,0
295308,121,-2083,188,-86,49,129,11871,-20,-3,160,24,35202,18,35,127,0,0,3359,104,0,1410,453,141,13964,-4,0,7,0,295270,0
295318,135,-2077,172,-88,44,125,11873,-1,4,215,48,35200,22,34,127,0,0,3355,-5,0,1410,453,141,13974,-4,0,7,0,295286,0
295328,122,-2084,182,-86,41,123,11875,8,-3,253,64,35192,16,35,127,0,0,3354,-38,0,1410,453,141,13984,-4,0,7,0,295302,0
295338,114,-2081,177,-86,44,118,11875,1,-5,271,64,35199,16,34,127,0,0,3357,-10,0,1410,453,141,13994,-4,0,7,0,295302,0
295348,123,-2079,182,-85,45,115,11875,3,-1,287,64,35199,27,34,127,0,0,3357,0,0,1410,453,141,14004,-4,0,7,0,295317,0
295358,124,-2079,185,-93,42,115,11874,-5,-3,264,40,35198,39,35,127,0,0,3355,-21,0,1410,453,141,14014,-4,0,7,0,295348,0
295368,141,-2071,186,-93,39,109,11874,6,0,213,16,35199,30,35,127,0,0,3359,16,0,1410,453,141,14024,-4,0,7,0,295348,0
295378,121,-2084,185,-88,35,126,11873,-1,4,201,40,35209,22,35,127,0,0,3358,60,0,1410,453,141,14034,-4,0,7,0,295348,0
295388,120,-2086,192,-93,39,121,11873,-3,5,195,48,35214,26,35,127,0,0,3355,27,0,1410,453,141,14044,-4,0,7,0,295364,0
295398,154,-2082,186,-98,44,112,11875,12,5,233,16,35208,38,35,127,0,0,3356,-21,0,1410,453,141,14054,-4,0,7,0,295364,0
295409,143,-2081,187,-101,43,122,11875,22,1,249,64,35206,50,35,127,0,0,3357,10,0,1410,453,141,14065,-4,0,7,0,295380,0
295419,132,-2080,185,-97,39,114,11874,4,5,269,24,35205,41,35,127,0,0,3357,-10,0,1410,453,141,14075,-4,0,7,0,295395,0
295429,123,-2082,179,-98,35,120,11875,5,-3,256,72,35214,35,35,127,0,0,3355,-10,0,1410,453,141,14085,-4,0,7,0,295411,0
295439,143,-2078,183,-104,35,116,11871,-13,-3,194,16,35205,40,35,127,0,0,3353,-32,0,1410,453,141,14095,-4,0,7,0,295427,0
295449,105,-2081,193,-103,42,123,11873,12,1,188,32,35203,41,35,127,0,0,3355,0,0,1410,453,141,14105,-4,0,7,0,295427,0
295459,121,-2065,190,-102,33,124,11870,-26,-3,173,48,35200,36,35,127,0,0,3357,65,0,1410,453,141,14115,-4,0,7,0,295442,0
295469,135,-2068,194,-116,36,118,11876,17,2,222,72,35196,44,35,127,0,0,3357,10,0,1410,453,141,14125,-4,0,7,0,295442,0
295479,112,-2075,184,-117,35,121,11875,1,5,216,16,35194,30,35,127,0,0,3357,21,0,1410,453,141,14135,-4,0,7,0,295442,0
295489,160,-2073,174,-121,39,126,11875,21,-4,215,56,35183,44,34,127,0,0,3357,21,0,1410,453,141,14145,-4,0,7,0,295505,0
295499,128,-2085,162,-122,41,121,11874,4,10,214,56,35195,40,35,127,0,0,3357,21,0,1410,453,141,14155,-4,0,7,0,295505,0
295509,161,-2073,167,-119,42,120,11876,10,4,269,-8,35194,40,35,127,0,0,3357,0,0,1410,453,141,14165,-4,0,7,0,295505,0
295519,108,-2098,166,-113,39,123,11874,3,-2,277,64,35193,31,35,127,0,0,3357,21,0,1410,453,141,14175,-4,0,7,0,295505,0
295529,125,-2083,176,-113,44,118,11874,-5,0,251,80,35180,18,35,127,0,0,3357,10,0,1410,453,141,14185,-4,0,7,0,295505,0
295539,140,-2094,184,-117,41,114,11875,5,6,271,32,35180,21,34,127,0,0,3355,-21,0,1410,453,141,14195,-4,0,7,0,295505,0
295549,139,-2085,185,-119,38,116,11873,-3,-3,202,56,35189,32,35,127,0,0,3353,-10,0,1410,453,141,14205,-4,0,7,0,295520,0
295559,154,-2088,185,-120,40,119,11875,10,2,156,16,35200,34,35,127,0,0,3357,21,0,1410,453,141,14215,-4,0,7,0,295552,0
295569,147,-2086,183,-121,39,119,11876,14,15,269,24,35207,35,34,127,0,0,3355,-21,0,1410,453,141,14225,-4,0,7,0,295552,0
295579,119,-2090,173,-115,29,120,11874,-1,2,272,64,35204,40,35,127,0,0,3357,0,0,1410,453,141,14235,-4,0,7,0,295552,0
295589,124,-2086,156,-108,35,116,11875,-5,-5,289,64,35196,34,35,127,0,0,3357,0,0,1410,453,141,14245,-4,0,7,0,295552,0
295599,138,-2083,152,-107,39,118,11874,-5,-5,217,88,35193,48,35,127,0,0,3355,0,0,1410,453,141,14255,-4,0,7,0,295583,0
295609,182,-2089,143,-86,42,120,11874,-6,1,167,88,35202,51,34,127,0,0,3357,43,0,1410,453,141,14265,-4,0,7,0,295583,0
295619,188,-2085,131,-81,38,130,11876,12,5,267,64,35200,52,35,127,0,0,3357,-21,0,1410,453,141,14275,-4,0,7,0,295583,0
295629,128,-2073,136,-61,41,152,11874,2,-5,254,64,35198,51,35,127,0,0,3357,-10,0,1410,453,141,14285,-4,0,7,0,295598,0
295639,141,-2063,139,-51,39,161,11872,-24,-14,215,80,35197,56,35,127,0,0,3357,32,0,1410,453,141,14295,-4,0,7,0,295598,0
295649,182,-2064,147,-30,41,182,11876,1,6,231,72,35203,53,35,127,0,0,3357,10,0,1410,453,141,14305,-4,0,7,0,295614,0
295660,133,-2065,150,-29,34,195,11876,3,7,286,64,35204,80,34,127,0,0,3357,-5,0,1410,453,141,14316,-4,0,7,0,295645,0
295670,148,-2077,158,-17,25,224,11876,3,-4,294,88,35209,62,35,127,0,0,3362,71,0,1410,453,141,14326,-4,0,7,0,295645,0
295680,135,-2077,158,-7,20,232,11878,3,2,385,128,35204,61,35,127,0,0,3364,60,0,1410,453,141,14336,-4,0,7,0,295645,0
295690,133,-2082,155,8,26,237,11887,23,22,480,152,35198,32,35,127,0,0,3368,21,0,1410,453,141,14346,-4,0,7,0,295661,0
295700,117,-2082,162,17,33,233,11916,86,57,353,120,35193,42,35,127,0,0,3370,16,0,1410,453,141,14356,-4,0,7,0,295723,0
295710,152,-2085,184,15,25,247,11949,40,45,244,80,35205,63,34,127,0,0,3376,5,0,1410,453,141,14366,-4,0,7,0,295723,0
295720,92,-2096,180,19,34,238,11948,-10,-78,383,152,35206,62,35,127,0,0,3379,71,0,1410,453,141,14376,-4,0,7,0,295739,0
295730,95,-2087,179,22,36,225,11959,32,-30,457,152,35200,68,34,127,0,0,3381,32,0,1410,453,141,14386,-4,0,7,0,295739,0
295740,97,-2081,188,25,36,217,11988,80,55,324,112,35183,42,34,127,0,0,3387,49,0,1410,453,141,14396,-4,0,7,0,295739,0
295750,109,-2073,214,11,25,202,12004,9,3,360,104,35181,40,35,127,0,0,3389,38,0,1410,453,141,14406,-4,0,7,0,295739,0
295760,68,-2072,202,7,29,186,12009,13,-56,429,144,35181,35,35,127,0,0,3387,0,0,1410,453,141,14416,-4,0,7,0,295739,0
295770,80,-2078,211,-3,43,157,12014,13,-16,423,152,35187,43,35,127,0,0,3389,16,0,1410,453,141,14426,-4,0,7,0,295739,0
295780,88,-2079,209,-4,39,152,12036,55,38,318,112,35197,41,35,127,0,0,3395,43,0,1410,453,141,14436,-4,0,7,0,295755,0
295790,116,-2073,214,-19,22,143,12069,41,51,190,40,35207,39,35,127,0,0,3395,27,0,1410,453,141,14446,-4,0,7,0,295786,0
295800,72,-2078,194,-28,33,128,12066,-5,-56,311,72,35208,31,35,127,0,0,3394,-5,0,1410,453,141,14456,-4,0,7,0,295801,0
295810,89,-2079,172,-28,46,107,12068,2,-58,279,64,35208,20,35,127,0,0,3394,0,0,1410,453,141,14466,-4,0,7,0,295801,0
295820,105,-2074,191,-28,46,102,12067,-1,6,278,72,35198,16,35,127,0,0,3398,32,0,1410,453,141,14476,-4,0,7,0,295801,0
295830,118,-2082,206,-27,35,102,12067,-3,-1,274,72,35187,8,35,127,0,0,3394,16,0,1410,453,141,14486,-4,0,7,0,295801,0
295840,102,-2092,202,-31,36,109,12065,-5,-4,234,72,35190,-6,35,127,0,0,3394,54,0,1410,453,141,14496,-4,0,7,0,295801,0
295850,122,-2089,210,-35,45,97,12066,-4,4,277,72,35198,3,34,127,0,0,3394,0,0,1410,453,141,14506,-4,0,7,0,295848,0
295860,122,-2082,210,-43,37,97,12067,-5,0,279,72,35203,9,34,127,0,0,3394,0,0,1410,453,141,14516,-4,0,7,0,295848,0
295870,111,-2089,204,-48,31,101,12066,-1,3,277,72,35205,5,35,127,0,0,3394,0,0,1410,453,141,14526,-4,0,7,0,295848,0
295880,104,-2087,204,-50,37,100,12067,0,2,264,72,35199,7,35,127,0,0,3388,-60,0,1410,453,141,14536,-4,0,7,0,295848,0
295890,107,-2083,209,-58,35,91,12066,3,0,219,72,35197,7,35,127,0,0,3388,-60,0,1410,453,141,14546,-4,0,7,0,295848,0
295900,153,-2074,217,-56,35,89,12064,-16,-4,189,72,35204,5,35,127,0,0,3394,10,0,1410,453,141,14556,-4,0,7,0,295864,0
295911,130,-2066,210,-69,32,91,12066,-10,1,252,40,35209,14,35,127,0,0,3394,21,0,1410,453,141,14567,-4,0,7,0,295895,0
295921,128,-2060,197,-78,32,87,12064,-14,-2,216,56,35215,8,35,127,0,0,3396,76,0,1410,453,141,14577,-4,0,7,0,295895,0
295931,106,-2069,202,-76,40,95,12067,-1,0,212,56,35211,15,35,127,0,0,3390,0,0,1410,453,141,14587,-4,0,7,0,295895,0
295941,129,-2071,204,-82,30,88,12065,1,-1,176,64,35202,20,34,127,0,0,3394,43,0,1410,453,141,14597,-4,0,7,0,295926,0
295951,113,-2078,201,-81,31,96,12064,-11,1,211,16,35203,20,35,127,0,0,3390,0,0,1410,453,141,14607,-4,0,7,0,295926,0
295961,116,-2084,201,-85,33,92,12065,9,0,172,32,35206,33,35,127,0,0,3390,-21,0,1410,453,141,14617,-4,0,7,0,295942,0
295971,102,-2075,198,-90,38,90,12065,10,1,155,32,35207,23,35,127,0,0,3392,21,0,1410,453,141,14627,-4,0,7,0,295942,0
295981,115,-2086,196,-94,31,87,12065,-1,0,164,32,35209,23,35,127,0,0,3390,0,0,1410,453,141,14637,-4,0,7,0,295942,0
295991,112,-2084,194,-88,35,89,12064,-2,3,178,56,35214,16,35,127,0,0,3388,-32,0,1410,453,141,14647,-4,0,7,0,295973,0
296001,123,-2083,198,-90,42,78,12062,-17,-6,124,32,35211,23,35,127,0,0,3388,-21,0,1410,453,141,14657,-4,0,7,0,295973,0
296011,146,-2072,204,-91,37,83,12062,-9,-1,55,-8,35205,14,34,127,0,0,3385,-43,0,1410,453,141,14667,-4,0,7,0,295989,0
296021,102,-2071,190,-91,34,88,12059,14,3,39,0,35195,15,35,127,0,0,3385,-21,0,1410,453,141,14677,-4,0,7,0,295989,0
296031,115,-2073,194,-90,40,78,12060,11,6,37,-8,35202,19,35,127,0,0,3385,-32,0,1410,453,141,14687,-4,0,7,0,296020,0
296041,93,-2079,189,-88,40,84,12057,4,-1,-33,8,35203,12,35,127,0,0,3385,0,0,1410,453,141,14697,-4,0,7,0,296036,0
296051,112,-2083,199,-93,39,82,12057,-8,2,-60,-24,35201,7,35,127,0,0,3385,21,0,1410,453,141,14707,-4,0,7,0,296036,0
296061,133,-2084,204,-97,35,78,12057,1,7,-23,-72,35196,-3,35,127,0,0,3381,-43,0,1410,453,141,14717,-4,0,7,0,296036,0
296071,123,-2084,196,-93,42,69,12051,-3,-8,-105,-32,35190,4,35,127,0,0,3381,-21,0,1410,453,141,14727,-4,0,7,0,296036,0
296081,133,-2091,191,-92,42,70,12050,-9,3,-162,-64,35199,11,35,127,0,0,3379,-10,0,1410,453,141,14737,-4,0,7,0,296051,0
296091,130,-2084,194,-100,35,76,12048,-9,2,-229,-72,35201,9,35,127,0,0,3377,0,0,1410,453,141,14747,-4,0,7,0,296067,0
296101,134,-2082,193,-95,41,88,12046,-3,0,-254,-72,35208,12,35,127,0,0,3377,0,0,1410,453,141,14757,-4,0,7,0,296067,0
296111,141,-2082,187,-92,38,88,12045,-2,-1,-304,-80,35208,18,35,127,0,0,3375,-10,0,1410,453,141,14767,-4,0,7,0,296083,0
296121,132,-2066,180,-89,33,100,12040,-5,1,-302,-80,35205,20,35,127,0,0,3372,-21,0,1410,453,141,14777,-4,0,7,0,296098,0
296131,152,-2068,168,-87,33,112,12038,-9,1,-357,-104,35199,7,35,127,0,0,3375,32,0,1410,453,141,14787,-4,0,7,0,296098,0
296141,152,-2068,176,-78,38,119,12039,7,3,-287,-112,35195,0,35,127,0,0,3375,0,0,1410,453,141,14797,-4,0,7,0,296114,0
296151,131,-2068,177,-76,36,128,12039,12,11,-284,-80,35203,1,35,127,0,0,3372,-21,0,1410,453,141,14807,-4,0,7,0,296114,0
296162,131,-2075,183,-77,40,135,12037,6,4,-295,-56,35204,9,35,127,0,0,3373,-16,0,1410,453,141,14818,-4,0,7,0,296161,0
296172,138,-2071,195,-68,33,142,12037,-8,-2,-288,-72,35206,20,35,127,0,0,3375,0,0,1410,453,141,14828,-4,0,7,0,296161,0
296182,150,-2072,190,-70,37,151,12038,5,5,-285,-80,35199,13,34,127,0,0,3378,43,0,1410,453,141,14838,-4,0,7,0,296161,0
296192,117,-2073,191,-71,40,150,12036,-14,3,-252,-72,35193,19,35,127,0,0,3371,-27,0,1410,453,141,14848,-4,0,7,0,296176,0
296202,122,-2078,192,-63,45,150,12037,0,0,-302,-72,35188,10,35,127,0,0,3378,21,0,1410,453,141,14858,-4,0,7,0,296176,0
296212,113,-2076,190,-64,43,151,12039,2,3,-241,-80,35179,12,35,127,0,0,3375,-21,0,1410,453,141,14868,-4,0,7,0,296176,0
296222,114,-2081,197,-64,41,141,12037,2,0,-249,-72,35187,10,35,127,0,0,3378,10,0,1410,453,141,14878,-4,0,7,0,296208,0
296232,125,-2077,190,-66,43,143,12039,3,3,-230,-80,35196,9,35,127,0,0,3375,-32,0,1410,453,141,14888,-4,0,7,0,296223,0
296242,103,-2088,184,-66,40,146,12038,9,3,-287,-48,35201,17,35,127,0,0,3373,5,0,1410,453,141,14898,-4,0,7,0,296223,0
296252,118,-2079,197,-55,38,139,12039,5,7,-237,-56,35191,20,35,127,0,0,3373,-43,0,1410,453,141,14908,-4,0,7,0,296223,0
296262,105,-2086,195,-59,38,134,12038,-1,-3,-247,-48,35182,14,35,127,0,0,3377,-5,0,1410,453,141,14918,-4,0,7,0,296239,0
296272,103,-2089,187,-64,38,128,12038,0,1,-224,-56,35187,13,35,127,0,0,3373,-32,0,1410,453,141,14928,-4,0,7,0,296239,0
296282,109,-2099,195,-60,44,123,12038,2,-2,-218,-56,35193,16,34,127,0,0,3377,-16,0,1410,453,141,14938,-4,0,7,0,296270,0
296292,137,-2103,198,-60,42,122,12037,-13,0,-231,-56,35197,21,34,127,0,0,3377,16,0,1410,453,141,14948,-4,0,7,0,296270,0
296302,135,-2088,190,-64,38,118,12041,13,4,-198,-56,35191,24,35,127,0,0,3373,-49,0,1410,453,141,14958,-4,0,7,0,296270,0
296312,138,-2087,196,-62,36,117,12038,-3,-3,-229,-56,35184,18,35,127,0,0,3380,21,0,1410,453,141,14968,-4,0,7,0,296286,0
296322,117,-2084,204,-58,42,132,12042,2,2,-157,-40,35184,-1,34,127,0,0,3379,5,0,1410,453,141,14978,-4,0,7,0,296301,0
296332,102,-2077,204,-55,43,132,12040,0,2,-168,-32,35188,18,34,127,0,0,3382,49,0,1410,453,141,14988,-4,0,7,0,296317,0
296342,152,-2075,188,-58,37,144,12041,-5,1,-131,-40,35190,23,35,127,0,0,3379,10,0,1410,453,141,14998,-4,0,7,0,296317,0
296352,126,-2077,186,-55,42,143,12042,13,1,-149,-40,35186,18,34,127,0,0,3376,-32,0,1410,453,141,15008,-4,0,7,0,296317,0
296362,124,-2078,182,-54,46,147,12042,9,-6,-117,-32,35189,10,35,127,0,0,3379,-32,0,1410,453,141,15018,-4,0,7,0,296348,0
296372,144,-2065,204,-52,42,152,12040,-13,-2,-143,-40,35193,-4,34,127,0,0,3379,0,0,1410,453,141,15028,-4,0,7,0,296348,0
296382,123,-2064,196,-54,45,164,12044,14,6,-108,0,35193,8,35,127,0,0,3380,0,0,1410,453,141,15038,-4,0,7,0,296364,0
296392,118,-2059,197,-49,47,171,12044,-7,4,-46,-24,35185,16,35,127,0,0,3381,0,0,1410,453,141,15048,-4,0,7,0,296364,0
296402,115,-2079,195,-46,42,161,12044,-3,-1,-28,0,35177,32,35,127,0,0,3383,21,0,1410,453,141,15058,-4,0,7,0,296364,0
296413,112,-2081,201,-42,45,164,12046,-8,-4,-39,16,35199,38,35,127,0,0,3383,21,0,1410,453,141,15069,-4,0,7,0,296411,0
296423,106,-2090,204,-51,45,163,12050,6,6,31,-8,35197,37,34,127,0,0,3385,0,0,1410,453,141,15079,-4,0,7,0,296411,0
296433,90,-2083,205,-46,47,163,12049,0,-1,38,-8,35180,22,35,127,0,0,3385,10,0,1410,453,141,15089,-4,0,7,0,296411,0
296443,92,-2081,206,-48,44,150,12053,15,-6,81,16,35173,16,34,127,0,0,3388,10,0,1410,453,141,15099,-4,0,7,0,296411,0
296453,106,-2080,201,-53,43,149,12053,3,6,151,-16,35183,8,34,127,0,0,3385,-10,0,1410,453,141,15109,-4,0,7,0,296411,0
296463,107,-2078,202,-60,45,146,12052,-2,-10,119,-16,35185,8,35,127,0,0,3390,43,0,1410,453,141,15119,-4,0,7,0,296442,0
296473,109,-2078,214,-57,38,148,12056,7,8,170,24,35190,0,35,127,0,0,3390,0,0,1410,453,141,15129,-4,0,7,0,296442,0
296483,98,-2084,211,-60,43,137,12056,12,4,200,80,35187,5,35,127,0,0,3388,-54,0,1410,453,141,15139,-4,0,7,0,296442,0
296493,98,-2094,197,-61,41,138,12057,-1,-2,165,48,35188,8,35,127,0,0,3390,0,0,1410,453,141,15149,-4,0,7,0,296489,0
296503,124,-2085,202,-57,42,144,12058,-4,-5,233,56,35186,16,35,127,0,0,3390,0,0,1410,453,141,15159,-4,0,7,0,296520,0
296513,124,-2089,200,-63,43,143,12059,-3,3,246,16,35180,9,34,127,0,0,3390,-43,0,1410,453,141,15169,-4,0,7,0,296536,0
296523,125,-2082,201,-57,35,146,12060,3,-1,221,96,35176,7,35,127,0,0,3394,10,0,1410,453,141,15179,-4,0,7,0,296536,0
296533,110,-2090,202,-51,38,159,12061,1,2,220,72,35174,17,35,127,0,0,3394,10,0,1410,453,141,15189,-4,0,7,0,296536,0
296543,107,-2086,205,-51,43,160,12062,12,4,288,80,35181,17,35,127,0,0,3394,0,0,1410,453,141,15199,-4,0,7,0,296536,0
296553,117,-2077,203,-51,33,164,12064,2,4,307,112,35179,24,35,127,0,0,3396,32,0,1410,453,141,15209,-4,0,7,0,296536,0
296563,118,-2069,204,-54,37,167,12067,13,2,351,56,35181,10,34,127,0,0,3396,0,0,1410,453,141,15219,-4,0,7,0,296536,0
296573,107,-2068,204,-54,36,176,12068,10,2,350,88,35175,20,35,127,0,0,3401,54,0,1410,453,141,15229,-4,0,7,0,296551,0
296583,112,-2071,205,-49,42,184,12070,13,3,361,120,35181,20,35,127,0,0,3399,32,0,1410,453,141,15239,-4,0,7,0,296551,0
296593,118,-2068,204,-51,36,179,12071,6,2,372,128,35191,19,35,127,0,0,3401,32,0,1410,453,141,15249,-4,0,7,0,296583,0
296603,115,-2066,214,-39,37,184,12076,16,3,434,160,35195,35,35,127,0,0,3403,10,0,1410,453,141,15259,-4,0,7,0,296583,0
296613,109,-2082,203,-54,42,190,12104,70,53,333,104,35190,40,35,127,0,0,3405,0,0,1410,453,141,15269,-4,0,7,0,296583,0
296623,133,-2084,211,-54,29,196,12127,18,27,251,96,35174,27,35,127,0,0,3407,21,0,1410,453,141,15279,-4,0,7,0,296598,0
296633,74,-2085,209,-55,40,180,12123,4,-75,346,120,35181,21,35,127,0,0,3410,43,0,1410,453,141,15289,-4,0,7,0,296598,0
296643,100,-2097,215,-52,41,178,12128,0,-15,376,104,35192,25,34,127,0,0,3412,54,0,1410,453,141,15299,-4,0,7,0,296629,0
296653,99,-2089,218,-59,34,177,12128,0,-2,428,128,35203,15,35,127,0,0,3412,10,0,1410,453,141,15309,-4,0,7,0,296629,0
296663,90,-2083,210,-65,30,171,12131,1,-3,478,160,35195,17,35,127,0,0,3416,43,0,1410,453,141,15319,-4,0,7,0,296629,0
296674,107,-2091,212,-59,34,171,12147,38,26,444,128,35190,10,35,127,0,0,3416,0,0,1410,453,141,15330,-4,0,7,0,296645,0
296684,97,-2088,214,-67,31,167,12177,75,52,280,72,35193,32,34,127,0,0,3416,-27,0,1410,453,141,15340,-4,0,7,0,296676,0
296694,106,-2083,222,-63,24,169,12188,5,-13,223,48,35198,31,35,127,0,0,3420,5,0,1410,453,141,15350,-4,0,7,0,296676,0
296704,84,-2081,212,-69,39,163,12187,8,-63,284,120,35197,46,35,127,0,0,3423,76,0,1410,453,141,15360,-4,0,7,0,296676,0
296714,98,-2064,202,-76,27,162,12194,9,4,341,104,35190,46,35,127,0,0,3423,43,0,1410,453,141,15370,-4,0,7,0,296676,0
296724,91,-2077,212,-78,30,162,12198,8,4,335,96,35198,65,35,127,0,0,3426,54,0,1410,453,141,15380,-4,0,7,0,296692,0
296734,93,-2064,209,-81,33,157,12204,23,5,383,104,35210,78,35,127,0,0,3425,16,0,1410,453,141,15390,-4,0,7,0,296708,0
296744,89,-2069,209,-82,36,155,12226,65,43,283,64,35220,80,34,127,0,0,3425,-43,0,1410,453,141,15400,-4,0,7,0,296739,0
296754,111,-2068,218,-86,35,159,12244,7,17,178,48,35210,56,35,127,0,0,3427,-10,0,1410,453,141,15410,-4,0,7,0,296739,0
296764,72,-2076,207,-88,42,151,12242,6,-61,217,56,35196,48,34,127,0,0,3431,32,0,1410,453,141,15420,-4,0,7,0,296739,0
296774,94,-2081,204,-88,40,152,12243,4,-20,261,72,35194,32,35,127,0,0,3433,54,0,1410,453,141,15430,-4,0,7,0,296754,0
296784,88,-2082,220,-91,44,150,12244,5,8,311,72,35196,35,35,127,0,0,3429,5,0,1410,453,141,15440,-4,0,7,0,296754,0
296794,85,-2081,211,-87,36,145,12243,0,-1,336,120,35202,33,35,127,0,0,3431,-5,0,1410,453,141,15450,-4,0,7,0,296754,0
296804,97,-2088,217,-92,30,153,12246,-12,0,345,112,35207,38,35,127,0,0,3434,32,0,1410,453,141,15460,-4,0,7,0,296786,0
296814,95,-2075,208,-95,37,146,12247,-2,-5,376,112,35204,35,35,127,0,0,3431,-32,0,1410,453,141,15470,-4,0,7,0,296786,0
296824,94,-2076,208,-102,38,138,12247,7,4,364,112,35197,41,35,127,0,0,3434,-10,0,1410,453,141,15480,-4,0,7,0,296786,0
296834,84,-2078,211,-101,38,136,12248,-3,-6,380,104,35201,41,35,127,0,0,3434,0,0,1410,453,141,15490,-4,0,7,0,296801,0
296844,89,-2079,209,-101,45,129,12247,1,5,379,112,35205,37,35,127,0,0,3437,32,0,1410,453,141,15500,-4,0,7,0,296832,0
296854,97,-2085,211,-108,42,132,12250,2,4,416,128,35212,43,35,127,0,0,3433,-10,0,1410,453,141,15510,-4,0,7,0,296832,0
296864,104,-2075,213,-103,39,128,12249,-1,-3,379,104,35207,24,35,127,0,0,3437,32,0,1410,453,141,15520,-4,0,7,0,296832,0
296874,103,-2077,204,-106,36,122,12250,0,-1,393,104,35208,35,35,127,0,0,3434,10,0,1410,453,141,15530,-4,0,7,0,296926,0
296884,90,-2073,207,-106,38,126,12249,0,-2,376,80,35208,33,35,127,0,0,3435,-5,0,1410,453,141,15540,-4,0,7,0,296926,0
296894,81,-2078,206,-103,40,129,12249,3,0,382,80,35205,39,35,127,0,0,3435,-5,0,1410,453,141,15550,-4,0,7,0,296926,0
296904,86,-2078,211,-102,42,126,12249,4,-4,383,104,35199,29,35,127,0,0,3434,0,0,1410,453,141,15560,-4,0,7,0,296942,0
296914,103,-2085,204,-104,38,121,12248,0,6,381,104,35195,22,35,127,0,0,3431,-32,0,1410,453,141,15570,-4,0,7,0,296942,0
296924,111,-2084,203,-101,41,125,12249,0,5,348,104,35196,24,35,127,0,0,3434,5,0,1410,453,141,15580,-4,0,7,0,296942,0
296934,106,-2079,203,-106,37,132,12251,-1,1,392,80,35192,32,34,127,0,0,3432,-43,0,1410,453,141,15590,-4,0,7,0,296942,0
296944,111,-2079,200,-103,37,130,12249,0,2,370,104,35192,22,35,127,0,0,3434,-10,0,1410,453,141,15600,-4,0,7,0,296942,0
296954,100,-2081,202,-101,38,142,12249,-9,-3,383,104,35195,11,35,127,0,0,3434,0,0,1410,453,141,15610,-4,0,7,0,296942,0
296964,99,-2068,200,-98,40,145,12249,1,-2,400,128,35196,12,35,127,0,0,3433,-5,0,1410,453,141,15620,-4,0,7,0,296942,0
296975,109,-2076,202,-100,41,139,12251,4,5,454,112,35204,13,35,127,0,0,3434,-32,0,1410,453,141,15631,-4,0,7,0,296942,0
296985,96,-2071,207,-96,43,142,12252,1,-3,427,120,35210,11,34,127,0,0,3436,0,0,1410,453,141,15641,-4,0,7,0,296957,0
296995,107,-2074,200,-96,42,151,12252,-2,2,439,120,35232,15,35,127,0,0,3438,21,0,1410,453,141,15651,-4,0,7,0,297004,0
297005,93,-2081,204,-92,38,148,12254,2,3,460,152,35236,7,35,127,0,0,3438,10,0,1410,453,141,15661,-4,0,7,0,297004,0
297015,99,-2083,203,-99,38,150,12255,11,7,490,136,35227,8,35,127,0,0,3440,21,0,1410,453,141,15671,-4,0,7,0,297004,0
297025,89,-2075,208,-96,34,150,12257,3,-1,479,144,35210,3,35,127,0,0,3438,-10,0,1410,453,141,15681,-4,0,7,0,297020,0
297035,83,-2075,198,-96,39,148,12258,4,-8,488,128,35201,13,34,127,0,0,3438,10,0,1410,453,141,15691,-4,0,7,0,297020,0
297045,94,-2078,201,-93,37,144,12259,7,0,538,144,35196,24,34,127,0,0,3440,-21,0,1410,453,141,15701,-4,0,7,0,297020,0
297055,91,-2077,206,-98,36,144,12260,5,4,496,152,35204,23,35,127,0,0,3443,21,0,1410,453,141,15711,-4,0,7,0,297020,0
297065,82,-2077,206,-94,40,139,12264,18,-1,544,208,35210,13,35,127,0,0,3443,0,0,1410,453,141,15721,-4,0,7,0,297082,0
297075,98,-2083,203,-97,40,143,12273,25,16,527,168,35212,16,35,127,0,0,3443,0,0,1410,453,141,15731,-4,0,7,0,297082,0
297085,101,-2079,197,-93,35,149,12292,41,25,413,128,35210,21,35,127,0,0,3445,10,0,1410,453,141,15741,-4,0,7,0,297082,0
297095,107,-2082,197,-87,36,158,12306,23,15,358,104,35196,14,35,127,0,0,3445,0,0,1410,453,141,15751,-4,0,7,0,297082,0
297105,95,-2084,192,-82,36,156,12305,-2,-34,395,104,35186,12,35,127,0,0,3445,0,0,1410,453,141,15761,-4,0,7,0,297082,0
297115,105,-2076,195,-81,33,165,12306,-1,-23,414,128,35182,-10,35,127,0,0,3447,21,0,1410,453,141,15771,-4,0,7,0,297098,0
297125,106,-2078,203,-78,39,174,12308,0,4,450,120,35195,1,35,127,0,0,3447,0,0,1410,453,141,15781,-4,0,7,0,297098,0
297135,100,-2077,204,-77,30,177,12309,3,-4,504,128,35210,0,35,127,0,0,3451,21,0,1410,453,141,15791,-4,0,7,0,297114,0
297145,99,-2084,208,-74,41,183,12315,4,7,492,184,35219,7,35,127,0,0,3454,32,0,1410,453,141,15801,-4,0,7,0,297114,0
297155,80,-2079,206,-76,31,185,12323,27,8,536,160,35209,8,34,127,0,0,3454,0,0,1410,453,141,15811,-4,0,7,0,297129,0
297166,90,-2086,204,-77,34,180,12335,31,19,483,152,35201,3,35,127,0,0,3456,38,0,1410,453,141,15822,-4,0,7,0,297145,0
297176,79,-2073,199,-77,38,180,12368,93,43,356,120,35207,10,35,127,0,0,3455,0,0,1410,453,141,15832,-4,0,7,0,297145,0
297186,101,-2072,208,-79,30,191,12385,0,16,264,80,35208,27,35,127,0,0,3458,5,0,1410,453,141,15842,-4,0,7,0,297161,0
297196,56,-2079,195,-74,36,185,12389,35,-68,479,96,35206,30,35,127,0,0,3460,-115,0,1410,453,141,15852,-4,0,0,0,297192,0
297206,111,-2079,204,-73,49,179,12396,7,-8,382,120,35201,17,34,127,0,0,3461,-10,0,1410,453,141,15862,-4,0,0,0,297192,0
297216,84,-2077,207,-81,31,186,12406,31,5,391,104,35197,20,34,127,0,0,3465,-16,0,1410,453,141,15872,-4,0,0,0,297192,0
297226,74,-2077,205,-83,32,180,12423,35,17,283,112,35201,28,35,127,0,0,3466,16,0,1410,453,141,15882,-4,0,0,0,297192,0
297236,72,-2078,208,-78,31,173,12426,-7,-14,308,104,35191,42,34,127,0,0,3469,32,0,1410,453,141,15892,-4,0,0,0,297223,0
297246,69,-2080,210,-79,39,172,12431,13,-33,390,120,35204,43,35,127,0,0,3471,5,0,1410,453,141,15902,-4,0,0,0,297239,0
297256,81,-2082,214,-84,39,172,12433,1,3,441,136,35204,49,34,127,0,0,3473,16,0,1410,453,141,15912,-4,0,0,0,297270,0
297266,79,-2088,213,-86,31,174,12437,2,-6,453,128,35207,53,34,127,0,0,3477,32,0,1410,453,141,15922,-4,0,0,0,297270,0
297276,64,-2086,210,-82,34,173,12437,0,-6,464,128,35191,46,35,127,0,0,3477,43,0,1410,453,141,15932,-4,0,0,0,297270,0
297286,73,-2076,206,-83,40,166,12440,12,2,502,144,35196,30,34,127,0,0,3479,16,0,1410,453,141,15942,-4,0,0,0,297270,0
297296,89,-2092,211,-84,36,167,12443,5,8,530,160,35196,42,34,127,0,0,3481,32,0,1410,453,141,15952,-4,0,0,0,297270,0
297306,91,-2083,210,-85,34,176,12447,9,15,545,192,35192,48,34,127,0,0,3479,32,0,1410,453,141,15962,-4,0,0,0,297286,0
297316,75,-2085,204,-86,33,181,12455,21,11,535,184,35188,45,35,127,0,0,3479,10,0,1410,453,141,15972,-4,0,0,0,297286,0
297326,88,-2074,195,-83,37,174,12474,57,24,455,152,35195,43,35,127,0,0,3482,-10,0,1410,453,141,15982,-4,0,0,0,297317,0
297336,82,-2076,198,-88,34,191,12505,59,53,255,112,35203,57,35,127,0,0,3484,60,0,1410,453,141,15992,-4,0,0,0,297317,0
297346,71,-2070,201,-84,33,187,12516,16,-20,326,104,35203,56,35,127,0,0,3487,-5,0,1410,453,141,16002,-4,0,0,0,297317,0
297356,78,-2075,197,-82,38,188,12522,22,-48,387,136,35191,56,35,127,0,0,3491,21,0,1410,453,141,16012,-4,0,0,0,297317,0
297366,84,-2086,207,-84,45,197,12549,77,35,305,112,35193,53,35,127,0,0,3493,32,0,1410,453,141,16022,-4,0,0,0,297348,0
297376,102,-2073,209,-83,27,210,12571,17,32,245,88,35206,36,34,127,0,0,3495,38,0,1410,453,141,16032,-4,0,0,0,297348,0
297386,49,-2084,187,-82,37,206,12569,0,-67,326,88,35207,37,34,127,0,0,3495,0,0,1410,453,141,16042,-4,0,0,0,297348,0
297396,74,-2074,197,-71,46,199,12570,0,-29,380,104,35209,22,35,127,0,0,3501,10,0,1410,453,141,16052,-4,0,0,0,297379,0
297406,86,-2082,216,-83,40,201,12575,3,11,408,144,35190,19,35,127,0,0,3502,60,0,1410,453,141,16062,-4,0,0,0,297395,0
297416,61,-2081,212,-84,30,202,12592,45,26,416,136,35193,7,35,127,0,0,3504,32,0,1410,453,141,16072,-4,0,0,0,297395,0
297426,58,-2080,209,-89,29,207,12627,74,61,268,64,35195,8,34,127,0,0,3504,-21,0,1410,453,141,16082,-4,0,0,0,297395,0
297437,35,-2085,205,-84,37,183,12627,-13,-40,348,96,35200,16,34,127,0,0,3509,32,0,1410,453,141,16093,-4,0,0,0,297410,0
297447,55,-2081,207,-87,43,183,12636,15,-63,424,48,35202,36,35,127,0,0,3513,10,0,1410,453,141,16103,-4,0,0,0,297426,0
297457,43,-2081,212,-94,34,179,12638,17,11,480,136,35206,48,34,127,0,0,3513,10,0,1410,453,141,16113,-4,0,0,0,297426,0
297467,43,-2081,218,-91,35,166,12642,15,-3,476,104,35204,52,35,127,0,0,3515,0,0,1410,453,141,16123,-4,0,0,0,297426,0
297477,41,-2082,202,-99,41,154,12657,44,24,417,112,35204,52,35,127,0,0,3517,10,0,1410,453,141,16133,-4,0,0,0,297457,0
297487,55,-2082,210,-100,46,155,12681,53,32,294,88,35204,52,35,127,0,0,3517,0,0,1410,453,141,16143,-4,0,0,0,297457,0
297497,53,-2077,206,-100,35,148,12683,-11,-26,326,80,35202,50,35,127,0,0,3520,21,0,1410,453,141,16153,-4,0,0,0,297457,0
297507,48,-2077,201,-100,44,148,12683,3,-45,325,80,35193,55,35,127,0,0,3520,21,0,1410,453,141,16163,-4,0,0,0,297504,0
297517,76,-2080,208,-99,37,143,12682,-1,0,331,120,35191,62,35,127,0,0,3517,0,0,1410,453,141,16173,-4,0,0,0,297504,0
297527,72,-2083,206,-100,34,142,12683,3,-7,325,80,35182,65,35,127,0,0,3520,10,0,1410,453,141,16183,-4,0,0,0,297504,0
297537,69,-2079,203,-104,40,149,12685,4,4,382,96,35180,47,35,127,0,0,3522,21,0,1410,453,141,16193,-4,0,0,0,297504,0
297547,54,-2081,196,-99,41,148,12686,8,4,425,120,35178,40,35,127,0,0,3522,0,0,1410,453,141,16203,-4,0,0,0,297520,0
297557,60,-2086,199,-100,36,152,12687,0,3,438,120,35187,38,35,127,0,0,3524,10,0,1410,453,141,16213,-4,0,0,0,297551,0
297567,58,-2081,191,-96,39,155,12687,12,-6,443,152,35199,33,35,127,0,0,3524,10,0,1410,453,141,16223,-4,0,0,0,297551,0
297577,53,-2080,204,-89,33,157,12689,6,5,465,144,35202,43,35,127,0,0,3524,-21,0,1410,453,141,16233,-4,0,0,0,297551,0
297587,61,-2076,197,-97,38,153,12691,12,-5,498,152,35193,50,35,127,0,0,3526,0,0,1410,453,141,16243,-4,0,0,0,297551,0
297597,61,-2083,204,-88,41,155,12695,-2,6,507,136,35180,70,35,127,0,0,3528,0,0,1410,453,141,16253,-4,0,0,0,297676,0
297607,59,-2083,203,-97,40,157,12698,12,-3,541,128,35182,87,35,127,0,0,3528,0,0,1410,453,141,16263,-4,0,0,0,297692,0
297617,50,-2082,201,-91,40,160,12701,16,2,586,144,35180,80,35,127,0,0,3531,-10,0,1410,453,141,16273,-4,0,0,0,297692,0
297627,63,-2081,200,-91,39,158,12710,24,15,522,160,35186,50,35,127,0,0,3531,0,0,1410,453,141,16283,-4,0,0,0,297692,0
297637,73,-2079,193,-89,28,164,12724,33,23,417,136,35179,46,35,127,0,0,3531,21,0,1410,453,141,16293,-4,0,0,0,297692,0
297647,66,-2078,196,-89,31,167,12744,38,20,328,80,35177,42,35,127,0,0,3533,21,0,1410,453,141,16303,-4,0,0,0,297692,0
297657,58,-2076,199,-85,32,164,12749,-7,-25,361,104,35180,48,35,127,0,0,3535,21,0,1410,453,141,16313,-4,0,0,0,297692,0
297667,41,-2095,195,-78,36,164,12753,22,-39,419,88,35179,34,35,127,0,0,3535,-32,0,1410,453,141,16323,-4,0,0,0,297692,0
297677,39,-2082,201,-80,36,161,12754,14,2,458,176,35180,29,35,127,0,0,3537,0,0,1410,453,141,16333,-4,0,0,0,297692,0
297687,55,-2084,209,-83,35,167,12760,5,7,413,128,35181,44,35,127,0,0,3537,0,0,1410,453,141,16343,-4,0,0,0,297692,0
297697,46,-2082,202,-82,38,156,12760,2,-6,444,120,35179,45,35,127,0,0,3539,21,0,1410,453,141,16353,-4,0,0,0,297707,0
297707,43,-2076,201,-82,35,155,12765,3,0,454,176,35179,46,35,127,0,0,3541,32,0,1410,453,141,16363,-4,0,0,0,297707,0
297717,50,-2078,215,-84,35,144,12783,55,33,403,128,35179,28,35,127,0,0,3539,-21,0,1410,453,141,16373,-4,0,0,0,297707,0
297728,63,-2076,208,-89,29,157,12815,51,46,205,64,35181,28,35,127,0,0,3545,21,0,1410,453,141,16384,-4,0,0,0,297707,0
297738,37,-2089,195,-86,33,143,12810,-17,-55,317,96,35181,29,35,127,0,0,3544,27,0,1410,453,141,16394,-4,0,0,0,297707,0
297748,56,-2078,193,-87,41,151,12813,-12,-50,310,88,35193,26,35,127,0,0,3544,10,0,1410,453,141,16404,-4,0,0,0,297739,0
297758,62,-2079,201,-83,46,146,12812,-1,2,325,112,35214,16,35,127,0,0,3543,0,0,1410,453,141,16414,-4,0,0,0,297739,0
297768,59,-2076,196,-85,31,145,12814,-2,-1,344,112,35219,9,35,127,0,0,3543,-16,0,1410,453,141,16424,-4,0,0,0,297739,0
297778,46,-2082,202,-82,38,138,12812,-5,-4,337,112,35212,16,35,127,0,0,3549,38,0,1410,453,141,16434,-4,0,0,0,297739,0
297788,33,-2083,203,-82,40,137,12818,9,3,427,120,35186,39,35,127,0,0,3548,0,0,1410,453,141,16444,-4,0,0,0,297770,0
297798,46,-2079,205,-83,31,132,12817,-1,-1,416,104,35184,34,35,127,0,0,3546,-10,0,1410,453,141,16454,-4,0,0,0,297770,0
297808,55,-2077,209,-86,35,122,12818,6,-6,399,120,35185,25,35,127,0,0,3548,16,0,1410,453,141,16464,-4,0,0,0,297770,0
297818,51,-2085,214,-87,36,120,12818,1,3,401,104,35186,6,35,127,0,0,3549,27,0,1410,453,141,16474,-4,0,0,0,297785,0
297828,37,-2085,205,-90,39,115,12818,10,7,407,104,35199,-16,35,127,0,0,3549,0,0,1410,453,141,16484,-4,0,0,0,297817,0
297838,32,-2099,195,-90,30,118,12819,10,-3,424,120,35198,-12,35,127,0,0,3548,-21,0,1410,453,141,16494,-4,0,0,0,297817,0
297848,42,-2085,201,-91,35,109,12818,-2,-5,373,104,35203,-12,35,127,0,0,3546,27,0,1410,453,141,16504,-4,0,0,0,297817,0
297858,67,-2091,187,-96,28,102,12819,8,2,400,96,35190,9,35,127,0,0,3546,-49,0,1410,453,141,16514,-4,0,0,0,297832,0
297868,428,-2075,135,-136,104,-93,12817,-10,1,383,104,35191,25,35,127,0,0,3546,5,0,1410,453,141,16524,-4,0,0,0,297832,0
297878,817,-1944,60,-227,80,-465,12817,-12,-6,331,56,35201,15,35,127,0,0,3535,-109,0,1410,453,141,16534,-4,0,0,0,297848,0
297888,-97,-2030,290,-241,-57,-186,12801,-60,-26,-99,-136,35208,7,35,127,0,0,3523,-104,0,1410,453,141,16544,-4,0,0,0,297863,0
297898,-92,-2133,327,-151,-31,5,12772,-49,-62,-226,-72,35209,4,35,127,0,0,3520,-16,0,1410,453,141,16554,-4,0,0,0,297863,0
297909,472,-2074,-66,-152,126,-253,12740,-54,-11,-97,-96,35191,39,35,127,0,0,3515,-32,0,1410,453,141,16565,-4,0,0,0,297895,0
297919,630,-1978,4,-172,128,-459,12728,-16,33,-245,-152,35192,50,35,127,0,0,3498,-175,0,1410,453,141,16575,-4,0,0,0,297926,0
297929,280,-2016,265,-211,-49,-368,12680,-159,-27,-413,-272,35201,53,35,127,0,0,3478,-175,0,1410,453,141,16585,-4,0,0,0,297926,0
297939,131,-2148,255,-215,-42,-252,12591,-195,-160,-299,-176,35204,41,35,127,0,0,3469,-87,0,1410,453,141,16595,-4,0,0,0,297942,0
297949,376,-2108,11,-149,105,-330,12519,-135,-50,-273,-192,35205,38,35,127,0,0,3458,-120,0,1410,453,141,16605,-4,0,0,0,297942,0
297959,617,-2056,21,-157,113,-419,12467,-107,72,-292,-200,35203,41,35,127,0,0,3443,-175,0,1410,453,141,16615,-4,0,0,0,297942,0
297969,552,-2038,149,-170,10,-441,12404,-154,17,-329,-216,35205,36,35,127,0,0,3425,-164,0,1410,453,141,16625,-4,0,0,0,297942,0
297979,372,-2066,165,-188,-28,-346,12334,-144,-39,-353,-224,35205,39,35,127,0,0,3412,-142,0,1410,453,141,16635,-4,0,0,0,297942,0
297989,311,-2082,129,-112,38,-239,12257,-177,-23,-332,-248,35208,36,35,127,0,0,3403,-87,0,1410,453,141,16645,-4,0,0,0,297957,0
297999,379,-2063,63,-94,47,-222,12192,-106,6,-291,-144,35207,35,35,127,0,0,3396,-65,0,1410,453,141,16655,-4,0,0,0,297973,0
298009,496,-2049,97,-85,29,-267,12163,-45,102,-329,-168,35204,32,35,127,0,0,3388,-98,0,1410,453,141,16665,-4,0,0,0,298004,0
298019,411,-2089,110,-94,18,-228,12146,-48,90,-485,-176,35196,32,35,127,0,0,3381,-87,0,1410,453,141,16675,-4,0,0,0,298004,0
298029,331,-2082,108,-70,34,-224,12098,-115,-41,-337,-224,35196,44,35,127,0,0,3375,-76,0,1410,453,141,16685,-4,0,0,0,298004,0
298039,301,-2097,110,-50,34,-207,12050,-110,-62,-348,-208,35193,38,35,127,0,0,3366,-65,0,1410,453,141,16695,-4,0,0,0,298020,0
298049,309,-2100,186,-57,25,-212,12010,-81,16,-408,-192,35194,36,35,127,0,0,3357,-76,0,1410,453,141,16705,-4,0,0,0,298020,0
298059,287,-2069,232,-82,25,-275,11961,-106,-5,-331,-224,35196,25,35,127,0,0,3348,-109,0,1410,453,141,16715,-4,0,0,0,298051,0
298069,175,-2099,249,-113,29,-336,11904,-120,-36,-332,-152,35202,23,35,127,0,0,3337,-76,0,1410,453,141,16725,-4,0,0,0,298051,0
298079,151,-2090,197,-135,33,-355,11855,-126,6,-333,-184,35203,30,35,127,0,0,3326,-120,0,1410,453,141,16735,-4,0,0,0,298051,0
298089,151,-2105,196,-139,52,-410,11813,-95,21,-468,-240,35198,32,35,127,0,0,3311,-142,0,1410,453,141,16745,-4,0,0,0,298051,0
298099,232,-2075,215,-139,62,-461,11763,-104,-4,-494,-288,35199,25,35,127,0,0,3298,-164,0,1410,453,141,16755,-4,0,0,0,298082,0
298109,285,-2083,211,-154,49,-457,11692,-171,-54,-437,-240,35199,37,35,127,0,0,3287,-109,0,1410,453,141,16765,-4,0,0,0,298082,0
298119,276,-2076,169,-155,38,-446,11617,-141,-49,-388,-232,35198,50,35,127,0,0,3271,-153,0,1410,453,141,16775,-4,0,0,0,298082,0
298129,288,-2136,152,-155,21,-358,11560,-124,37,-482,-232,35184,49,35,127,0,0,3265,-76,0,1410,453,141,16785,-4,0,0,0,298098,0
298139,256,-2140,129,-151,21,-320,11494,-138,18,-386,-224,35182,37,35,127,0,0,3258,-54,0,1410,453,141,16795,-4,0,0,0,298098,0
298149,182,-2212,161,-109,6,-275,11451,-42,28,-401,-200,35185,32,35,127,0,0,3254,-54,0,1410,453,141,16805,-4,0,0,0,298113,0
298160,270,-2165,171,-127,46,-254,11443,-16,126,-488,-136,35202,56,35,127,0,0,3259,10,0,1410,453,141,16816,-4,0,0,0,298145,0
298170,205,-2021,136,-106,82,-241,11440,0,55,-378,-104,35203,72,35,127,0,0,3258,0,0,1410,453,141,16826,-4,0,0,0,298145,0
298180,272,-2062,101,-100,81,-222,11440,-5,16,-379,-112,35194,61,35,127,0,0,3265,60,0,1410,453,141,16836,-4,0,0,0,298145,0
298190,275,-2080,133,-88,80,-190,11444,19,10,-296,-72,35190,51,35,127,0,0,3266,65,0,1410,453,141,16846,-4,0,0,0,298176,0
298200,289,-2062,121,-95,100,-189,11449,24,10,-150,16,35194,58,35,127,0,0,3268,60,0,1410,453,141,16856,-4,0,0,0,298176,0
298210,288,-2049,131,-98,121,-156,11475,52,50,-176,-32,35200,59,35,127,0,0,3275,38,0,1410,453,141,16866,-4,0,0,0,298176,0
298220,311,-2035,141,-92,145,-134,11479,-10,1,-63,-24,35201,55,35,127,0,0,3277,32,0,1410,453,141,16876,-4,0,0,0,298207,0
298230,312,-2012,141,-78,146,-102,11482,10,-43,28,40,35185,37,35,127,0,0,3280,65,0,1410,453,141,16886,-4,0,0,0,298207,0
298240,321,-1998,150,-72,156,-83,11490,11,12,137,48,35185,30,35,127,0,0,3286,65,0,1410,453,141,16896,-4,0,0,0,298207,0
298250,359,-1983,157,-57,154,-55,11496,11,0,235,56,35185,38,35,127,0,0,3284,5,0,1410,453,141,16906,-4,0,0,0,298223,0
298260,382,-1987,166,-46,147,-25,11497,7,-10,274,80,35202,28,35,127,0,0,3287,5,0,1410,453,141,16916,-4,0,0,0,298270,0
298270,396,-1970,180,-35,132,25,11506,18,5,293,64,35198,40,35,127,0,0,3290,0,0,1410,453,141,16926,-4,0,0,0,298270,0
298280,390,-1975,185,-19,115,58,11517,32,15,285,64,35204,29,35,127,0,0,3289,0,0,1410,453,141,16936,-4,0,0,0,298270,0
298290,415,-1999,200,-8,78,103,11533,46,15,192,32,35193,35,35,127,0,0,3289,-16,0,1410,453,141,16946,-4,0,0,0,298270,0
298300,411,-1995,196,6,51,135,11540,10,-3,190,40,35191,29,35,127,0,0,3291,-27,0,1410,453,141,16956,-4,0,0,0,298270,0
298310,364,-1992,174,20,23,188,11539,-11,-31,177,64,35185,25,35,127,0,0,3293,27,0,1410,453,141,16966,-4,0,0,0,298285,0
298320,329,-1990,186,24,13,219,11543,5,-1,199,56,35190,10,35,127,0,0,3293,10,0,1410,453,141,16976,-4,0,0,0,298395,0
298330,297,-2018,189,40,13,246,11541,-2,7,174,56,35194,8,35,127,0,0,3290,-5,0,1410,453,141,16986,-4,0,0,0,298395,0
298340,267,-2042,178,46,13,260,11542,3,-6,155,8,35198,15,35,127,0,0,3289,-32,0,1410,453,141,16996,-4,0,0,0,298395,0
298350,272,-2043,177,55,35,272,11542,12,-3,99,40,35193,17,35,127,0,0,3288,-21,0,1410,453,141,17006,-4,0,0,0,298395,0
298360,285,-2040,164,51,43,287,11542,4,1,118,40,35187,37,35,127,0,0,3294,38,0,1410,453,141,17016,-4,0,0,0,298395,0
298370,281,-2041,186,52,51,297,11542,-5,6,175,16,35182,31,35,127,0,0,3295,43,0,1410,453,141,17026,-4,0,0,0,298410,0
298380,245,-2054,191,52,46,293,11543,16,8,158,8,35184,37,35,127,0,0,3289,-10,0,1410,453,141,17036,-4,0,0,0,298410,0
298390,265,-2054,213,55,47,300,11540,-1,-3,78,16,35181,33,35,127,0,0,3286,-32,0,1410,453,141,17046,-4,0,0,0,298410,0
298400,272,-2054,214,60,49,298,11539,0,-3,40,-24,35181,34,35,127,0,0,3284,-54,0,1410,453,141,17056,-4,0,0,0,298410,0
298410,263,-2069,208,50,45,285,11536,-3,-1,-72,-48,35178,28,35,127,0,0,3282,-32,0,1410,453,141,17066,-4,0,0,0,298410,0
298420,249,-2063,212,46,40,296,11531,-1,-1,-157,-56,35181,21,35,127,0,0,3277,-65,0,1410,453,141,17076,-4,0,0,0,298410,0
298431,227,-2067,220,50,34,303,11521,-28,-6,-302,-88,35185,26,35,127,0,0,3276,0,0,1410,453,141,17087,-4,0,0,0,298410,0
298441,208,-2062,218,52,28,303,11502,-41,-26,-251,-72,35185,40,35,127,0,0,3271,-21,0,1410,453,141,17097,-4,0,0,0,298410,0
298451,194,-2076,205,46,28,281,11482,-25,-19,-196,-88,35194,44,34,127,0,0,3269,-43,0,1410,453,141,17107,-4,0,0,0,298410,0
298461,203,-2044,209,35,39,273,11482,2,44,-322,-112,35207,52,35,127,0,0,3267,-10,0,1410,453,141,17117,-4,0,0,0,298441,0
298471,174,-2043,190,32,37,255,11479,-11,31,-393,-160,35217,39,35,127,0,0,3260,-43,0,1410,453,141,17127,-4,0,0,0,298441,0
298481,184,-2085,196,23,62,228,11472,-11,-14,-509,-168,35200,40,35,127,0,0,3258,-21,0,1410,453,141,17137,-4,0,0,0,298457,0
298491,197,-2078,208,27,80,201,11465,-19,-3,-612,-240,35190,36,35,127,0,0,3249,-76,0,1410,453,141,17147,-4,0,0,0,298457,0
298501,198,-2131,242,23,72,169,11443,-63,-34,-639,-272,35194,55,35,127,0,0,3243,-76,0,1410,453,141,17157,-4,0,0,0,298488,0
298511,144,-2170,287,53,64,171,11396,-103,-77,-445,-248,35196,53,35,127,0,0,3234,-120,0,1410,453,141,17167,-4,0,0,0,298488,0
298521,176,-2088,248,51,48,178,11343,-129,-54,-346,-216,35194,44,35,127,0,0,3232,-87,0,1410,453,141,17177,-4,0,0,0,298488,0
298531,159,-2061,203,22,30,189,11304,-80,16,-329,-184,35187,51,35,127,0,0,3227,-32,0,1410,453,141,17187,-4,0,0,0,298524,0
298541,147,-2071,174,18,33,160,11272,-50,43,-298,-80,35187,40,35,127,0,0,3227,0,0,1410,453,141,17197,-4,0,0,0,298524,0
298551,139,-2102,154,16,41,153,11272,2,82,-398,-120,35191,46,35,127,0,0,3223,-10,0,1410,453,141,17207,-4,0,0,0,298524,0
298561,145,-2098,174,24,47,118,11268,-5,45,-427,-176,35192,40,35,127,0,0,3221,-32,0,1410,453,141,17217,-4,0,0,0,298524,0
298571,155,-2098,180,30,55,97,11263,-11,-12,-442,-144,35185,43,35,127,0,0,3223,0,0,1410,453,141,17227,-4,0,0,0,298540,0
298581,151,-2128,188,50,53,67,11248,-44,-21,-414,-136,35190,37,35,127,0,0,3214,-43,0,1410,453,141,17237,-4,0,0,0,298571,0
298591,179,-2120,228,65,68,32,11214,-70,-55,-311,-120,35197,44,35,127,0,0,3214,-43,0,1410,453,141,17247,-4,0,0,0,298571,0
298601,203,-2100,247,46,68,13,11202,-8,17,-383,-160,35199,44,35,127,0,0,3208,-76,0,1410,453,141,17257,-4,0,0,0,298571,0
298611,219,-2080,248,38,47,6,11193,-32,52,-528,-200,35196,67,35,127,0,0,3203,-54,0,1410,453,141,17267,-4,0,0,0,298586,0
298621,186,-2073,215,47,48,-26,11159,-90,-57,-428,-168,35199,85,34,127,0,0,3197,-43,0,1410,453,141,17277,-4,0,0,0,298602,0
298631,154,-2093,200,55,61,-55,11128,-48,-39,-443,-176,35203,101,35,127,0,0,3190,-76,0,1410,453,141,17287,-4,0,0,0,298602,0
298641,207,-2050,251,51,63,-80,11091,-101,-1,-373,-152,35209,83,35,127,0,0,3183,-76,0,1410,453,141,17297,-4,0,0,0,298618,0
298651,181,-2070,237,37,62,-96,11066,-31,6,-492,-200,35213,86,35,127,0,0,3177,-54,0,1410,453,141,17307,-4,0,0,0,298618,0
298662,257,-2037,220,38,57,-133,11045,-47,46,-533,-248,35206,59,35,127,0,0,3168,-109,0,1410,453,141,17318,-4,0,0,0,298633,0
298672,237,-2028,203,38,48,-138,11008,-67,-35,-555,-264,35209,60,35,127,0,0,3159,-82,0,1410,453,141,17328,-4,0,0,0,298649,0
298682,291,-2030,184,67,38,-110,10969,-112,-36,-543,-272,35197,71,35,127,0,0,3150,-98,0,1410,453,141,17338,-4,0,0,0,298649,0
298692,269,-2031,179,86,49,-131,10906,-137,-60,-398,-184,35200,94,35,127,0,0,3143,-32,0,1410,453,141,17348,-4,0,0,0,298664,0
298702,220,-1960,205,109,41,-131,10867,-47,20,-432,-240,35195,95,34,127,0,0,3133,-98,0,1410,453,141,17358,-4,0,0,0,298680,0
298712,305,-1980,182,106,58,-120,10832,-98,58,-492,-232,35193,81,35,127,0,0,3116,-159,0,1410,453,141,17368,-4,0,0,0,298680,0
298722,267,-2097,190,99,45,-95,10783,-120,-35,-524,-256,35191,45,35,127,0,0,3113,-87,0,1410,453,141,17378,-4,0,0,0,298696,0
298732,253,-2061,258,116,61,-113,10725,-113,-42,-433,-232,35196,43,35,127,0,0,3101,-120,0,1410,453,141,17388,-4,0,0,0,298711,0
298742,265,-2050,276,75,55,-144,10681,-78,17,-505,-224,35190,43,35,127,0,0,3086,-137,0,1410,453,141,17398,-4,0,0,0,298711,0
298752,267,-2078,280,54,36,-152,10642,-104,40,-593,-256,35192,72,35,127,0,0,3078,-131,0,1410,453,141,17408,-4,0,0,0,298727,0
298762,186,-2081,283,55,27,-177,10588,-123,-30,-530,-296,35203,59,35,127,0,0,3066,-104,0,1410,453,141,17418,-4,0,0,0,298758,0
298772,240,-2065,281,59,44,-227,10524,-141,-39,-458,-272,35207,40,35,127,0,0,3052,-192,0,1410,453,141,17428,-4,0,0,0,298758,0
298782,261,-2036,271,51,17,-233,10455,-152,-35,-433,-264,35203,35,35,127,0,0,3045,-120,0,1410,453,141,17438,-4,0,0,0,298758,0
298792,258,-2051,276,40,-9,-216,10383,-149,-16,-403,-224,35202,46,35,127,0,0,3031,-87,0,1410,453,141,17448,-4,0,0,0,298758,0
298802,251,-2033,257,44,1,-239,10318,-135,20,-382,-224,35204,78,35,127,0,0,3017,-153,0,1410,453,141,17458,-4,0,0,0,298789,0
298812,242,-1977,221,29,44,-290,10272,-58,46,-468,-240,35204,91,35,127,0,0,3006,-159,0,1410,453,141,17468,-4,0,0,0,298805,0
298822,292,-2063,271,-12,65,-281,10236,-96,72,-607,-272,35205,76,35,127,0,0,2995,-109,0,1410,453,141,17478,-4,0,0,0,298805,0
298832,303,-2127,280,-15,54,-288,10189,-133,0,-626,-288,35195,71,35,127,0,0,2988,-49,0,1410,453,141,17488,-4,0,0,0,298805,0
298842,311,-2083,304,-34,36,-319,10116,-157,-77,-397,-264,35201,76,35,127,0,0,2971,-148,0,1410,453,141,17498,-4,0,0,0,298805,0
298852,331,-2081,329,-54,27,-302,10060,-110,-11,-471,-240,35212,66,35,127,0,0,2956,-142,0,1410,453,141,17508,-4,0,0,0,298836,0
298862,321,-2065,331,-74,-13,-269,10002,-130,36,-473,-272,35219,39,35,127,0,0,2947,-164,0,1410,453,141,17518,-4,0,0,0,298836,0
298872,341,-2026,306,-89,-2,-277,9938,-125,-16,-413,-232,35214,28,35,127,0,0,2938,-120,0,1410,453,141,17528,-4,0,0,0,298852,0
298882,371,-1976,225,-102,43,-343,9883,-94,6,-429,-224,35205,34,35,127,0,0,2924,-170,0,1410,453,141,17538,-4,0,0,0,298852,0
298892,337,-2033,231,-108,50,-349,9834,-108,39,-476,-232,35202,53,35,127,0,0,2913,-142,0,1410,453,141,17548,-4,0,0,0,298852,0
298902,354,-2023,328,-125,49,-381,9786,-117,13,-544,-288,35217,34,35,127,0,0,2898,-159,0,1410,453,141,17558,-4,0,0,0,298868,0
298913,226,-2118,368,-189,9,-349,9709,-173,-44,-449,-296,35219,39,35,127,0,0,2887,-120,0,1410,453,141,17569,-4,0,0,0,298930,0
298923,279,-2107,336,-198,13,-398,9631,-167,-63,-395,-256,35219,37,35,127,0,0,2874,-98,0,1410,453,141,17579,-4,0,0,0,298930,0
298933,343,-2054,322,-250,55,-524,9564,-153,2,-388,-264,35204,48,35,127,0,0,2856,-164,0,1410,453,141,17589,-4,0,0,0,298930,0
298943,333,-2040,329,-300,44,-580,9492,-139,5,-403,-232,35204,59,35,127,0,0,2841,-175,0,1410,453,141,17599,-4,0,0,0,298930,0
298953,376,-2087,332,-347,10,-593,9440,-140,30,-587,-304,35204,81,35,127,0,0,2825,-142,0,1410,453,141,17609,-4,0,0,0,298930,0
298963,361,-2117,297,-347,-3,-598,9366,-174,-11,-458,-304,35204,82,35,127,0,0,2810,-131,0,1410,453,141,17619,-4,0,0,0,298930,0
298973,384,-2089,256,-382,48,-659,9295,-132,-42,-454,-288,35203,72,35,127,0,0,2794,-175,0,1410,453,141,17629,-4,0,0,0,298946,0
298983,405,-2131,236,-418,58,-668,9222,-158,7,-470,-304,35215,56,35,127,0,0,2781,-142,0,1410,453,141,17639,-4,0,0,0,298946,0
298993,147,-2370,219,-446,177,-600,9142,-169,-19,-424,-248,35231,35,35,127,0,0,2770,-87,0,1410,453,141,17649,-4,0,0,0,298961,0
299003,221,-2152,251,-417,118,-612,9074,-129,17,-360,-176,35230,35,35,127,0,0,2766,-32,0,1410,453,141,17659,-4,0,0,0,298977,0
299013,467,-2053,227,-372,-13,-644,9047,-17,100,-331,-112,35217,27,35,127,0,0,2766,-21,0,1410,453,141,17669,-4,0,0,0,298993,0
299023,467,-2044,201,-386,-100,-643,9051,3,146,-404,-152,35206,30,35,127,0,0,2768,-10,0,1410,453,141,17679,-4,0,0,0,298993,0
299033,302,-2075,182,-415,-79,-685,9049,2,45,-390,-104,35220,35,35,127,0,0,2768,0,0,1410,453,141,17689,-4,0,0,0,299024,0
299043,319,-2088,202,-419,-13,-734,9049,0,0,-398,-168,35221,43,35,127,0,0,2766,-10,0,1410,453,141,17699,-4,0,0,0,299024,0
299053,467,-2036,216,-436,12,-790,9050,10,2,-385,-144,35219,53,35,127,0,0,2764,-43,0,1410,453,141,17709,-4,0,0,0,299024,0
299063,506,-2001,249,-456,-4,-820,9048,-7,-6,-394,-144,35211,40,35,127,0,0,2766,-32,0,1410,453,141,17719,-4,0,0,0,299039,0
299073,466,-2038,266,-468,-38,-832,9048,0,-3,-431,-152,35221,23,35,127,0,0,2759,-65,0,1410,453,141,17729,-4,0,0,0,299039,0
299083,490,-2089,290,-452,-47,-838,9041,-32,-14,-541,-184,35227,16,35,127,0,0,2757,-10,0,1410,453,141,17739,-4,0,0,0,299133,0
299093,512,-2030,288,-457,-61,-865,9018,-66,-40,-454,-184,35227,37,35,127,0,0,2755,-21,0,1410,453,141,17749,-4,0,0,0,299133,0
299103,520,-1972,276,-472,-97,-901,8983,-54,-59,-256,-104,35218,39,35,127,0,0,2755,-43,0,1410,453,141,17759,-4,0,0,0,299133,0
299113,483,-2011,227,-485,-141,-915,8970,-27,18,-306,-104,35212,25,35,127,0,0,2753,0,0,1410,453,141,17769,-4,0,0,0,299133,0
299123,445,-2024,224,-489,-148,-930,8950,-57,31,-247,-112,35214,1,35,127,0,0,2748,-32,0,1410,453,141,17779,-4,0,0,0,299133,0
299133,443,-2033,181,-492,-122,-1017,8931,-8,-17,-227,-80,35216,19,35,127,0,0,2742,-65,0,1410,453,141,17789,-4,0,0,0,299149,0
299143,509,-2057,169,-504,-138,-1039,8929,-21,46,-408,-152,35210,30,35,127,0,0,2739,-21,0,1410,453,141,17799,-4,0,0,0,299149,0
299153,491,-2061,184,-506,-168,-1079,8922,-20,14,-484,-200,35212,34,35,127,0,0,2731,-54,0,1410,453,141,17809,-4,0,0,0,299149,0
299163,475,-2077,155,-504,-206,-1084,8903,-46,-32,-515,-176,35218,26,35,127,0,0,2729,-32,0,1410,453,141,17819,-4,0,0,0,299149,0
299174,449,-2139,171,-505,-227,-1114,8866,-85,-53,-379,-128,35217,52,35,127,0,0,2729,21,0,1410,453,141,17830,-4,0,0,0,299149,0
299184,439,-2146,165,-500,-212,-1168,8858,-1,18,-381,-104,35218,59,35,127,0,0,2729,0,0,1410,453,141,17840,-4,0,0,0,299149,0
299194,447,-2137,170,-514,-200,-1251,8859,0,67,-398,-104,35227,54,35,127,0,0,2729,0,0,1410,453,141,17850,-4,0,0,0,299164,0
299204,430,-2151,189,-534,-193,-1300,8858,-1,12,-368,-104,35239,26,35,127,0,0,2732,10,0,1410,453,141,17860,-4,0,0,0,299196,0
299214,448,-2090,179,-533,-236,-1363,8860,0,-1,-310,-64,35234,32,35,127,0,0,2736,65,0,1410,453,141,17870,-4,0,0,0,299196,0
299224,320,-1592,101,-703,-360,-1511,8867,20,13,-220,-56,35229,53,35,127,0,0,2738,38,0,1410,453,141,17880,-4,0,0,0,299196,0
299234,556,-2434,50,-662,-254,-1551,8867,7,2,-160,-32,35214,64,35,127,0,0,2737,32,0,1410,453,141,17890,-4,0,0,0,299211,0
299244,539,-2446,172,-578,-191,-1493,8870,23,-4,-53,24,35212,61,35,127,0,0,2744,43,0,1410,453,141,17900,-4,0,1,0,299211,0
299254,571,-2084,314,-623,-250,-1535,8884,38,32,127,136,35207,68,35,127,0,0,2759,142,0,1410,453,141,17910,-4,0,1,0,299227,0
299264,572,-2094,308,-676,-300,-1594,8927,125,69,303,160,35213,84,35,127,0,0,2777,142,0,1410,453,141,17920,-4,0,1,0,299227,0
299274,608,-2147,283,-726,-367,-1618,8988,123,90,344,200,35213,59,35,127,0,0,2798,197,0,1410,453,141,17930,-4,0,1,0,299258,0
299284,529,-2134,317,-741,-397,-1675,9062,184,51,405,248,35213,32,35,127,0,0,2817,181,0,1410,453,141,17940,-4,0,2,0,299258,0
299294,574,-2090,315,-804,-451,-1755,9160,219,76,321,288,35211,24,35,127,0,0,2842,280,0,1410,453,141,17950,-4,0,2,0,299258,0
299304,519,-2071,265,-890,-484,-1817,9261,228,51,388,320,35214,21,35,127,0,0,2863,219,0,1410,453,141,17960,-4,0,2,0,299274,0
299314,524,-2195,181,-938,-456,-1839,9370,253,23,363,360,35215,37,35,127,0,0,2892,263,0,1410,453,141,17970,-4,0,3,0,299289,0
299324,552,-2195,118,-906,-423,-1842,9481,249,22,429,456,35211,55,35,127,0,0,2932,406,0,1410,453,141,17980,-4,0,3,0,299305,0
299334,666,-2143,2,-868,-442,-1799,9617,302,53,453,608,35214,69,35,127,0,0,2969,439,0,1410,453,141,17990,-4,0,4,0,299305,0
299344,751,-2101,-26,-870,-470,-1781,9773,359,88,461,744,35210,88,35,127,0,0,3019,461,0,1410,453,141,18000,-4,0,4,0,299321,0
299354,691,-2082,-44,-914,-540,-1726,9959,427,95,451,960,35217,81,35,127,0,0,3084,642,0,1410,453,141,18010,-4,0,5,0,299321,0
299364,658,-2159,-17,-905,-540,-1725,10175,497,109,547,1192,35217,73,35,127,0,0,3153,686,0,1410,453,141,18020,-4,0,6,0,299352,0
299374,486,-2132,21,-816,-516,-1678,10433,602,141,554,1408,35207,73,35,127,0,0,3228,703,0,1410,453,141,18030,-4,0,6,0,299352,0
299384,539,-2184,-40,-795,-686,-1519,10731,692,169,552,1696,35196,64,35,127,0,0,3318,922,0,1410,453,141,18040,-4,0,7,0,299352,0
299394,807,-1996,-39,-776,-538,-1941,11082,806,171,622,2072,35199,76,35,127,0,0,3416,988,0,1410,453,141,18050,-4,0,8,0,299383,0
299404,-152,-1933,145,-851,-498,-1960,11482,886,201,469,2008,35205,96,35,127,0,0,3489,714,0,1410,453,141,18060,-4,0,9,0,299383,0
299414,603,-2569,105,-1121,-926,-1746,11880,883,88,482,2256,35209,86,35,127,0,0,3605,1197,0,1410,453,141,18070,-4,0,10,0,299383,0
299425,154,-2508,181,-1072,-578,-2415,12363,999,77,631,2480,35208,82,35,127,0,0,3706,878,0,1410,453,141,18081,-4,0,11,0,299383,0
299435,258,-2316,-29,-1046,-563,-2593,12824,1019,130,492,2552,35215,79,35,127,0,0,3794,922,0,1410,453,141,18091,-4,0,12,0,299414,0
299445,303,-2350,-48,-1100,-609,-3086,13297,1046,58,499,2504,35213,100,35,127,0,0,3873,769,0,1410,453,141,18101,-4,0,13,0,299414,0
299455,317,-2525,112,-1044,-697,-3269,13761,1003,11,417,2328,35213,98,35,127,0,0,3944,714,0,1410,453,141,18111,-4,0,14,0,299430,0
299465,391,-3065,206,-950,-712,-3529,14162,967,-59,441,2184,35205,75,35,127,0,0,4016,714,0,1410,453,141,18121,-4,0,16,0,299446,0
299475,374,-3106,113,-918,-683,-3698,14593,938,-67,402,2000,35199,72,35,127,0,0,4082,659,0,1410,453,141,18131,-4,0,17,0,299446,0
299485,251,-2670,44,-876,-760,-3869,14998,885,-74,410,1880,35203,76,35,127,0,0,4157,725,0,1410,453,141,18141,-4,0,19,0,299461,0
299495,297,-2467,-24,-831,-815,-3914,15383,838,-85,482,1872,35208,95,35,127,0,0,4229,725,0,1410,453,141,18151,-4,0,20,0,299477,0
299505,414,-2333,-81,-735,-1122,-3935,15760,837,-54,559,2000,35206,79,35,127,0,0,4313,834,0,1410,453,141,18161,-4,0,22,0,299477,0
299515,620,-2334,-37,-659,-1339,-3903,16150,860,17,608,2184,35206,81,35,127,0,0,4412,999,0,1410,453,141,18171,-4,0,24,0,299492,0
299525,626,-2453,-13,-541,-1901,-3777,16571,957,89,744,2400,35202,69,35,127,0,0,4517,966,0,1410,453,141,18181,-4,0,26,0,299492,0
299535,524,-2452,51,-437,-2309,-3491,17030,1021,140,692,2608,35208,86,35,127,0,0,4625,1109,0,1410,453,141,18191,-4,0,28,0,299555,0
299545,345,-2386,154,-330,-2916,-2901,17524,1126,133,772,2968,35207,68,35,127,0,0,4761,1406,0,1410,453,141,18201,-4,0,31,0,299555,0
299555,346,-2327,156,-307,-3218,-2504,18092,1321,226,977,3552,35201,85,35,127,0,0,4932,1746,0,1410,453,141,18211,-4,0,32,0,299555,0
299565,825,-1734,530,-88,-3450,-2103,18773,1571,376,1043,4144,35187,110,35,127,0,0,5108,1757,0,1410,453,141,18221,-4,0,36,0,299571,0
299575,1982,-1798,90,-106,-2762,-2685,19544,1712,390,580,3704,35170,144,35,127,0,0,5159,318,0,1410,453,141,18231,-4,0,38,0,299571,0
299585,1154,-1646,31,-141,-2568,-2632,20232,1393,-34,-38,1784,35169,116,35,127,0,0,5071,-1010,0,1410,453,141,18241,-4,0,41,0,299571,0
299595,813,-1632,140,0,-2499,-2626,20676,735,-699,-1609,-848,35175,67,35,127,0,0,4880,-2010,0,1410,453,141,18251,-4,0,43,0,299571,0
299605,410,-1693,255,43,-2803,-2109,20473,-737,-1779,-1493,-2864,35185,30,35,127,0,0,4656,-2318,0,1410,453,141,18261,-4,0,46,0,299571,0
299615,346,-1856,222,47,-3262,-1437,19927,-1402,-1858,-1309,-4112,35186,68,35,127,0,0,4449,-2021,0,1410,453,141,18271,-4,0,48,0,299602,0
299625,302,-1868,58,77,-3823,-425,19153,-1802,-1028,-732,-4472,35186,114,35,127,0,0,4282,-1549,0,1410,453,141,18281,-4,0,52,0,299602,0
299635,259,-1773,-14,105,-3963,152,18304,-1860,-524,-284,-4024,35183,137,35,127,0,0,4172,-1043,0,1410,453,141,18291,-4,0,54,0,299602,0
299645,353,-1646,-23,242,-3819,755,17504,-1698,-1,-66,-3288,35176,110,35,127,0,0,4089,-802,0,1410,453,141,18301,-4,0,58,80,299617,0
299655,376,-1541,-72,323,-3671,1074,16808,-1458,315,-17,-2696,35178,76,35,127,0,0,4014,-725,0,1410,453,141,18311,-4,0,60,77,299649,0
299666,522,-1488,-131,445,-3281,1509,16156,-1235,389,-41,-2304,35197,63,35,127,0,0,3922,-818,0,1410,453,141,18322,-4,0,64,72,299649,0
299676,455,-1431,-216,544,-3041,1813,15644,-1085,330,-154,-2192,35202,51,35,127,0,0,3839,-823,0,1410,453,141,18332,-4,0,68,67,299649,0
299686,421,-1274,-361,696,-2576,2305,15178,-1004,221,-278,-2152,35202,47,35,127,0,0,3756,-834,0,1410,453,141,18342,-4,0,71,64,299649,0
299696,437,-1195,-423,841,-2207,2631,14729,-983,109,-329,-2048,35197,43,35,127,0,0,3681,-736,0,1410,453,141,18352,-4,0,75,60,299680,0
299706,421,-1135,-449,1077,-1593,3066,14301,-927,69,-306,-1968,35183,69,35,127,0,0,3615,-697,0,1410,453,141,18362,-4,0,77,57,299680,0
299716,414,-1115,-451,1224,-1177,3353,13897,-876,84,-275,-1768,35181,71,35,127,0,0,3555,-604,0,1410,453,141,18372,-4,0,82,52,299680,0
299726,420,-1102,-486,1442,-538,3777,13524,-788,106,-225,-1512,35185,65,35,127,0,0,3510,-466,0,1410,453,141,18382,-4,0,84,50,299695,0
299736,439,-1139,-496,1580,-148,4056,13197,-683,154,-228,-1280,35191,59,35,127,0,0,3478,-340,0,1410,453,141,18392,-4,0,89,45,299727,0
299746,493,-1266,-463,1781,403,4433,12913,-599,170,-214,-1024,35199,47,35,127,0,0,3447,-274,0,1410,453,141,18402,-4,0,92,43,299727,0
299756,506,-1347,-443,1917,799,4663,12674,-504,162,-244,-792,35193,40,35,127,0,0,3420,-241,0,1410,453,141,18412,-4,0,96,39,299727,0
299766,510,-1449,-375,2088,1417,5012,12474,-416,193,-283,-632,35187,34,35,127,0,0,3395,-247,0,1410,453,141,18422,-4,0,99,36,299742,0
299776,552,-1521,-328,2174,1829,5224,12302,-356,101,-285,-560,35186,49,35,127,0,0,3376,-252,0,1410,453,141,18432,-4,0,103,33,299742,0
299786,537,-1623,-265,2287,2395,5534,12156,-306,56,-347,-472,35186,46,35,127,0,0,3353,-225,0,1410,453,141,18442,-4,0,106,30,299758,0
299796,559,-1699,-251,2328,2728,5727,12029,-275,83,-380,-456,35188,44,35,127,0,0,3337,-170,0,1410,453,141,18452,-4,0,111,27,299789,0
299806,566,-1825,-210,2382,3157,6010,11903,-272,40,-345,-360,35184,34,35,127,0,0,3322,-87,0,1410,453,141,18462,-4,0,114,25,299820,0
299816,584,-1906,-178,2405,3417,6190,11794,-221,32,-298,-256,35186,40,35,127,0,0,3314,-32,0,1410,453,141,18472,-4,0,119,22,299836,0
299826,669,-2036,-124,2417,3760,6446,11721,-145,100,-254,-112,35186,46,35,127,0,0,3311,0,0,1410,453,141,18482,-4,0,122,21,299836,0
299836,662,-2116,-81,2425,3971,6565,11683,-59,135,-132,-40,35194,48,35,127,0,0,3311,0,0,1410,453,141,18492,-4,0,127,18,299836,0
299846,670,-2240,-61,2363,4097,6797,11682,25,136,-80,8,35195,47,35,127,0,0,3318,87,0,1410,453,141,18502,-4,0,130,17,299836,0
299856,737,-2316,-5,2292,4125,6946,11693,30,92,226,128,35198,46,35,127,0,0,3332,115,0,1410,453,141,18512,-4,0,135,15,299836,0
299866,723,-2442,45,2212,4125,7103,11736,130,73,388,272,35190,40,35,127,0,0,3360,241,0,1410,453,141,18522,-4,0,138,14,299836,0
299876,744,-2521,76,2124,4084,7177,11831,245,164,377,360,35190,36,35,127,0,0,3383,241,0,1410,453,141,18532,-4,0,143,12,299852,0
299886,750,-2655,124,1976,4008,7265,11956,277,161,308,360,35197,29,35,127,0,0,3407,236,0,1410,453,141,18542,-4,0,146,11,299883,0
299896,705,-2718,162,1875,3920,7287,12072,256,29,312,392,35212,38,35,127,0,0,3431,241,0,1410,453,141,18552,-4,0,151,10,299883,0
299906,690,-2781,185,1708,3715,7286,12193,265,-5,334,392,35210,32,35,127,0,0,3458,247,0,1410,453,141,18562,-4,0,154,10,299883,0
299916,647,-2788,198,1564,3513,7304,12318,258,13,367,456,35203,21,35,127,0,0,3492,302,0,1410,453,141,18572,-4,0,158,9,299883,0
299927,613,-2797,201,1404,3148,7298,12455,281,1,454,560,35190,10,35,127,0,0,3535,406,0,1410,453,141,18583,-4,0,161,9,299899,0
299937,543,-2801,195,1316,2747,7248,12601,346,44,463,712,35194,29,35,127,0,0,3579,472,0,1410,453,141,18593,-4,0,165,8,299930,0
299947,497,-2773,197,1305,2496,7183,12771,377,86,489,864,35202,37,35,127,0,0,3629,483,0,1410,453,141,18603,-4,0,168,8,299930,0
299957,395,-2679,198,1348,2123,6995,12962,438,83,541,1088,35202,47,35,127,0,0,3682,527,0,1410,453,141,18613,-4,0,172,8,299930,0
299967,342,-2606,188,1406,1883,6848,13182,494,94,533,1224,35192,44,35,127,0,0,3739,604,0,1410,453,141,18623,-4,0,174,8,299930,0
299977,265,-2510,173,1522,1540,6540,13427,572,104,537,1328,35188,39,35,127,0,0,3794,538,0,1410,453,141,18633,-4,0,178,8,299945,0
299987,292,-2460,138,1594,1343,6286,13699,602,99,507,1384,35195,46,35,127,0,0,3849,527,0,1410,453,141,18643,-4,0,180,8,299977,0
299997,248,-2407,190,1674,1130,5836,13979,619,74,483,1328,35205,50,35,127,0,0,3886,340,0,1410,453,141,18653,-4,0,183,8,299977,0
300007,209,-2377,232,1685,1026,5543,14255,596,6,369,1112,35201,57,35,127,0,0,3919,274,0,1410,453,141,18663,-4,0,184,8,299977,0
300017,130,-2422,248,1638,836,5166,14500,512,-68,320,872,35196,52,35,127,0,0,3939,197,0,1410,453,141,18673,-4,0,187,8,300008,0
300027,58,-2443,255,1576,688,4940,14712,434,-129,314,664,35186,56,35,127,0,0,3961,197,0,1410,453,141,18683,-4,0,189,8,300008,0
300037,10,-2448,242,1440,462,4590,14890,369,-130,306,544,35184,49,35,127,0,0,3983,252,0,1410,453,141,18693,-4,0,191,8,300008,0
300047,-40,-2447,215,1348,324,4312,15053,347,-93,336,488,35191,47,35,127,0,0,4014,285,0,1410,453,141,18703,-4,0,192,8,300008,0
300057,-51,-2468,208,1167,153,3751,15198,317,-64,372,440,35198,31,35,127,0,0,4038,274,0,1410,453,141,18713,-4,0,194,8,300039,0
300067,-35,-2489,213,1039,69,3314,15336,300,-49,374,456,35208,34,35,127,0,0,4053,142,0,1410,453,141,18723,-4,0,195,8,300039,0
300077,-42,-2449,192,842,-44,2740,15458,247,-37,333,248,35206,31,35,127,0,0,4060,10,0,1410,453,141,18733,-4,0,196,8,300055,0
300087,-123,-2374,163,712,-125,2403,15532,127,-127,260,96,35206,31,35,127,0,0,4058,-21,0,1410,453,141,18743,-4,0,197,9,300055,0
300097,-90,-2242,94,533,-214,1949,15566,63,-174,110,40,35193,40,35,127,0,0,4060,-10,0,1410,453,141,18753,-4,0,197,9,300070,0
300107,-51,-2194,17,459,-258,1725,15565,-18,-140,134,32,35186,57,35,127,0,0,4060,-10,0,1410,453,141,18763,-4,0,198,9,300070,0
300117,-25,-2079,-23,313,-281,1561,15568,2,-60,169,72,35182,67,35,127,0,0,4064,43,0,1410,453,141,18773,-4,0,198,9,300086,0
300127,-63,-2017,26,244,-285,1466,15572,3,13,264,88,35194,62,35,127,0,0,4071,87,0,1410,453,141,18783,-4,0,199,9,300102,0
300137,-98,-1924,58,239,-288,1317,15584,32,15,401,160,35196,50,35,127,0,0,4075,43,0,1410,453,141,18793,-4,0,199,9,300117,0
300147,-63,-1867,43,277,-319,1282,15590,6,6,433,144,35197,50,35,127,0,0,4075,-10,0,1410,453,141,18803,-4,0,199,9,300117,0
300158,-65,-1718,45,353,-411,1326,15589,3,-31,432,144,35197,48,35,127,0,0,4069,-49,0,1410,453,141,18814,-4,0,199,9,300117,0
300168,-43,-1619,36,373,-493,1355,15589,5,-6,462,184,35197,56,34,127,0,0,4077,0,0,1410,453,141,18824,-4,0,199,9,300149,0
300178,-34,-1572,21,404,-602,1337,15602,35,25,538,208,35202,56,34,127,0,0,4084,16,0,1410,453,141,18834,-4,0,199,9,300164,0
300188,-26,-1638,6,408,-650,1272,15636,87,54,407,144,35200,61,35,127,0,0,4088,32,0,1410,453,141,18844,-4,0,199,9,300180,0
300198,12,-1789,35,417,-661,1169,15653,4,13,337,80,35196,65,35,127,0,0,4079,-60,0,1410,453,141,18854,-4,0,199,9,300180,0
300208,-32,-1795,92,392,-580,974,15641,-29,-99,172,-32,35197,63,35,127,0,0,4066,-148,0,1410,453,141,18864,-4,0,198,9,300242,0
300218,50,-1894,57,315,-465,740,15615,-64,-72,-209,-168,35201,54,35,127,0,0,4045,-230,0,1410,453,141,18874,-4,0,198,9,300242,0
300228,65,-1946,39,244,-411,542,15549,-163,-106,-284,-192,35201,37,35,127,0,0,4029,-203,0,1410,453,141,18884,-4,0,197,9,300242,0
300238,133,-2017,36,137,-360,140,15468,-184,-106,-293,-264,35204,51,35,127,0,0,4011,-186,0,1410,453,141,18894,-4,0,197,9,300258,0
300248,228,-2045,46,56,-356,-188,15366,-230,-66,-261,-216,35200,47,35,127,0,0,3995,-131,0,1410,453,141,18904,-4,0,196,9,300258,0
300258,337,-2050,51,-89,-359,-728,15279,-161,-14,-225,-192,35198,41,35,127,0,0,3980,-181,0,1410,453,141,18914,-4,0,196,9,300258,0
300268,369,-2052,29,-205,-316,-1119,15219,-123,87,-303,-208,35195,36,35,127,0,0,3963,-164,0,1410,453,141,18924,-4,0,196,9,300258,0
300278,411,-2046,-10,-415,-166,-1735,15154,-168,40,-361,-216,35193,22,35,127,0,0,3953,-109,0,1410,453,141,18934,-4,0,193,9,300258,0
300288,423,-2079,-25,-538,-18,-2159,15080,-153,-41,-330,-184,35186,26,35,127,0,0,3939,-120,0,1410,453,141,18944,-4,0,192,8,300273,0
300298,580,-2157,-100,-742,260,-2763,15009,-172,-7,-338,-216,35187,16,35,127,0,0,3930,-98,0,4626,547,142,2,1,0,190,8,300289,0
300308,448,-2443,-159,-856,483,-3148,14935,-149,-15,-274,-152,35196,29,35,127,0,0,3925,5,0,4626,547,142,12,1,0,189,8,300305,0
300318,-299,-7908,730,-1943,-16,-529,14927,169,94,1056,1936,35193,44,35,127,0,0,4228,3526,0,4626,547,142,22,1,0,187,8,300305,0
300328,-302,-2719,2599,391,2034,-1825,15405,1375,1060,1907,3688,35185,58,35,127,0,0,4403,1565,0,4626,547,142,32,1,0,186,8,300305,0
300338,663,-554,2577,514,-1969,-1882,16098,1495,1424,443,3424,35162,107,35,127,0,0,4520,1263,0,4626,547,142,42,1,0,184,8,300305,0
300348,766,-2534,1849,180,-2505,-320,16759,1500,295,945,4208,35162,111,35,127,0,0,4744,2334,0,4626,547,142,52,1,0,182,8,300320,0
300358,-2080,-948,-446,-884,-3108,-884,17580,1952,241,1254,5232,35150,146,35,127,0,0,4994,2466,0,4626,547,142,62,1,0,181,8,300320,0
300368,-3258,-2078,-2011,-975,59,-2221,18581,2273,670,807,5280,35156,154,35,127,0,0,5152,1466,0,4626,547,142,72,1,0,179,8,300352,0
300378,-1916,-2313,-1157,-345,2383,-4099,19570,2088,339,163,4256,35156,182,35,127,0,0,5225,626,0,4626,547,142,82,1,0,177,8,300352,0
300388,-1429,-2158,-142,-250,3454,-4182,20388,1678,-366,-15,2992,35158,145,35,127,0,0,5258,269,0,4626,547,142,92,1,0,175,8,300352,0
300398,842,-3473,1106,-436,2040,-4058,21013,1257,-700,-65,2144,35164,95,35,127,0,0,5299,444,0,4626,547,142,102,1,0,174,8,300367,0
300409,1942,-2397,395,-1023,499,-4487,21516,883,-666,-29,1088,35189,42,35,127,0,0,5271,-340,0,4626,547,142,113,1,0,172,9,300367,0
300419,1562,-2274,-144,-1318,-354,-4302,21809,513,-596,-281,-136,35200,29,35,127,0,0,5205,-670,0,4626,547,142,123,1,0,171,9,300398,0
300429,92,-1956,-920,-1019,82,-4630,21754,-330,-969,-972,-1136,35187,36,35,127,0,0,5080,-1340,0,4626,547,142,133,1,0,168,9,300398,0
300439,-874,-1626,-437,-456,247,-3970,21483,-713,-1106,-1003,-2064,35179,43,34,127,0,0,4954,-1219,0,4626,547,142,143,1,0,166,9,300398,0
300449,749,-2115,227,-215,403,-3678,21081,-926,-641,-709,-2408,35176,48,34,127,0,0,4849,-1109,0,4626,547,142,153,1,0,164,9,300445,0
300459,992,-1852,403,-193,38,-3121,20668,-1046,-364,-567,-2680,35171,88,35,127,0,0,4748,-1021,0,4626,547,142,163,1,0,162,9,300445,0
300469,268,-2430,418,-173,-252,-2308,20176,-1096,-180,-431,-2576,35175,82,35,127,0,0,4671,-736,0,4626,547,142,173,1,0,160,9,300477,0
300479,-362,-2230,363,-43,-170,-2081,19679,-1090,-65,-296,-2336,35168,83,35,127,0,0,4601,-692,0,4626,547,142,183,1,0,158,10,300477,0
300489,-365,-2090,115,-14,65,-2009,19207,-1013,45,-227,-2088,35179,69,35,127,0,0,4539,-626,0,4626,547,142,193,1,0,156,10,300477,0
300499,-237,-1963,-13,14,76,-1985,18771,-923,125,-243,-1824,35188,59,35,127,0,0,4475,-637,0,4626,547,142,203,1,0,154,10,300477,0
300509,-218,-1941,101,57,-36,-1796,18371,-861,143,-255,-1760,35193,54,35,127,0,0,4412,-626,0,4626,547,142,213,1,0,152,10,300477,0
300519,-249,-1952,258,112,-55,-1714,17996,-804,113,-301,-1648,35186,38,35,127,0,0,4354,-538,0,4626,547,142,223,1,0,152,10,300477,0
300529,-150,-1963,350,112,6,-1693,17646,-749,99,-257,-1568,35172,65,35,127,0,0,4295,-582,0,4626,547,142,233,1,0,152,10,300508,0
300539,-108,-1973,398,61,45,-1696,17320,-703,95,-329,-1504,35164,72,35,127,0,0,4240,-582,0,4626,547,142,243,1,0,152,10,300508,0
300549,-98,-2040,563,-24,40,-1647,17011,-673,70,-329,-1424,35171,70,35,127,0,0,4187,-527,0,4626,547,142,253,1,0,152,10,300508,0
300559,-60,-2052,649,-70,37,-1640,16707,-662,34,-307,-1312,35175,52,35,127,0,0,4133,-538,0,4626,547,142,263,1,0,152,10,300602,0
300569,-8,-2055,647,-216,15,-1644,16419,-623,38,-365,-1296,35182,51,35,127,0,0,4080,-538,0,4626,547,142,273,1,0,152,10,300602,0
300579,37,-2044,570,-314,-5,-1662,16131,-640,28,-310,-1304,35184,48,35,127,0,0,4025,-560,0,4626,547,142,283,1,0,152,10,300602,0
300589,3,-1989,438,-445,-24,-1684,15852,-606,13,-353,-1296,35175,41,35,127,0,0,3972,-560,0,4626,547,142,293,1,0,152,10,300602,0
300599,-82,-1965,367,-482,-30,-1688,15571,-610,16,-385,-1288,35168,47,35,127,0,0,3917,-549,0,4626,547,142,303,1,0,152,10,300602,0
300609,-27,-2002,338,-480,-4,-1750,15289,-619,-7,-377,-1320,35166,56,35,127,0,0,3860,-604,0,4626,547,142,313,1,0,152,10,300602,0
300619,45,-2026,275,-502,15,-1790,15003,-635,-15,-446,-1376,35169,56,35,127,0,0,3803,-615,0,4626,547,142,323,1,0,152,10,300602,0
300629,117,-2054,281,-531,24,-1824,14709,-652,-23,-429,-1384,35174,74,35,127,0,0,3746,-571,0,4626,547,142,333,1,0,152,10,300602,0
300639,150,-2066,236,-548,19,-1819,14406,-661,-32,-404,-1392,35178,77,35,127,0,0,3691,-527,0,4626,547,142,343,1,0,152,10,300617,0
300649,285,-2061,138,-525,26,-1818,14107,-656,-3,-361,-1392,35191,61,35,127,0,0,3632,-604,0,4626,547,142,353,1,0,152,10,300617,0
300660,327,-2053,59,-489,19,-1804,13781,-654,10,-377,-1400,35203,22,34,127,0,0,3568,-626,0,4626,547,142,364,1,0,152,10,300633,0
300670,322,-2086,56,-429,3,-1702,13486,-643,6,-359,-1368,35208,29,34,127,0,0,3516,-571,0,4626,547,142,374,1,0,152,10,300664,0
300680,336,-2081,119,-386,2,-1612,13204,-616,30,-372,-1360,35199,42,35,127,0,0,3465,-549,0,4626,547,142,384,1,0,152,10,300664,0
300690,437,-2080,171,-326,-16,-1529,12928,-603,32,-380,-1272,35179,62,35,127,0,0,3415,-466,0,4626,547,142,394,1,0,152,10,300664,0
300700,410,-2079,184,-292,-11,-1483,12665,-569,37,-369,-1240,35173,58,35,127,0,0,3370,-444,0,4626,547,142,404,1,0,152,10,300664,0
300710,385,-2061,173,-245,2,-1434,12412,-547,47,-405,-1240,35179,52,35,127,0,0,3325,-444,0,4626,547,142,414,1,0,152,10,300695,0
300720,380,-2028,137,-207,-9,-1411,12165,-536,29,-437,-1184,35187,45,35,127,0,0,3280,-411,0,4626,547,142,424,1,0,152,10,300695,0
300730,289,-2063,100,-181,-24,-1397,11926,-518,24,-459,-1168,35190,37,35,127,0,0,3236,-433,0,4626,547,142,434,1,0,152,10,300695,0
300740,212,-2049,139,-156,-24,-1407,11686,-523,12,-450,-1200,35176,46,35,127,0,0,3191,-450,0,4626,547,142,444,1,0,152,10,300727,0
300750,257,-2031,121,-138,-17,-1503,11450,-524,6,-499,-1168,35168,72,35,127,0,0,3147,-428,0,4626,547,142,454,1,0,152,10,300727,0
300760,187,-1996,210,-137,-11,-1602,11219,-504,15,-459,-1152,35171,69,35,127,0,0,3094,-521,0,4626,547,142,464,1,0,152,10,300727,0
300770,112,-2044,211,-140,-29,-1707,10981,-522,20,-517,-1208,35188,72,35,127,0,0,3043,-532,0,4626,547,142,474,1,0,152,10,300742,0
300780,165,-2013,261,-151,-59,-1797,10741,-527,-42,-533,-1240,35188,57,35,127,0,0,2990,-516,0,4626,547,142,484,1,0,152,10,300742,0
300790,139,-1831,339,-257,-133,-2096,10499,-530,-6,-522,-1248,35189,61,35,127,0,0,2939,-560,0,4626,547,142,494,1,0,152,10,300758,0
300800,34,-1970,409,-386,-180,-2296,10245,-562,-29,-531,-1304,35188,62,35,127,0,0,2874,-637,0,4626,547,142,504,1,0,152,10,300773,0
300810,105,-2180,446,-378,-274,-2363,9982,-590,-33,-561,-1392,35186,73,35,127,0,0,2810,-593,0,4626,547,142,514,1,0,152,10,300773,0
300820,382,-2284,490,-413,-715,-2383,9702,-620,-52,-503,-1336,35190,71,35,127,0,0,2764,-472,0,4626,547,142,524,1,0,152,10,300851,0
300830,-107,-2738,482,-467,-579,-2313,9429,-587,-20,-425,-1224,35176,57,35,127,0,0,2721,-313,0,4626,547,142,534,1,0,152,10,300851,0
300840,-137,-2375,370,-562,-465,-2481,9182,-523,60,-401,-1016,35178,44,35,127,0,0,2687,-324,0,4626,547,142,544,1,0,152,10,300851,0
300850,98,-2075,234,-644,-381,-2769,8966,-453,114,-371,-872,35179,41,35,127,0,0,2659,-346,0,4626,547,142,554,1,0,152,10,300851,0
300860,236,-2069,227,-685,-536,-2886,8769,-428,94,-403,-800,35179,56,35,127,0,0,2627,-285,0,4626,547,142,564,1,0,152,10,300867,0
300870,274,-2364,253,-713,-714,-2955,8591,-383,80,-428,-736,35177,59,35,127,0,0,2593,-313,0,4626,547,142,574,1,0,152,10,300867,0
300880,236,-2487,235,-741,-687,-3021,8422,-364,57,-404,-600,35178,53,35,127,0,0,2575,-181,0,4626,547,142,584,1,0,152,10,300867,0
300890,218,-2506,152,-792,-563,-3087,8263,-333,26,-353,-464,35186,42,35,127,0,0,2558,-98,0,4626,547,142,594,1,0,152,10,300867,0
300900,274,-2397,103,-775,-534,-3097,8120,-294,60,-232,-240,35198,41,35,127,0,0,2555,-49,0,4626,547,142,604,1,0,152,10,300867,0
300911,345,-2207,-28,-841,-503,-3187,8014,-164,118,-33,0,35206,54,35,127,0,0,2557,32,0,4626,547,142,615,1,0,152,10,300883,0
300921,222,-2469,99,-952,-455,-3170,8015,45,274,-87,32,35211,60,35,127,0,0,2562,87,0,4626,547,142,625,1,0,152,10,300961,0
300931,340,-2708,313,-974,-369,-3197,8027,27,210,133,160,35210,67,35,127,0,0,2588,285,0,4626,547,142,635,1,0,152,10,300961,0
300941,444,-2543,482,-965,-349,-3254,8067,110,52,563,408,35204,57,35,127,0,0,2623,395,0,4626,547,142,645,1,0,152,10,300976,0
300951,479,-2354,469,-1052,-492,-3245,8174,272,176,518,568,35194,63,35,127,0,0,2671,516,0,4626,547,142,655,1,0,152,10,300976,0
300961,348,-2520,452,-1210,-703,-3214,8324,357,212,506,824,35181,55,35,127,0,0,2733,626,0,4626,547,142,665,1,0,152,10,300976,0
300971,131,-2690,400,-1241,-705,-3204,8514,447,163,569,1128,35179,40,35,127,0,0,2814,823,0,4626,547,142,675,1,0,152,10,300976,0
300981,-46,-2573,305,-1260,-649,-3283,8756,575,175,644,1536,35178,36,35,127,0,0,2911,1010,0,4626,547,142,685,1,0,152,10,300976,0
300991,65,-2397,249,-1277,-693,-3388,9068,732,234,662,2000,35178,42,35,127,0,0,3021,1109,0,4626,547,142,695,1,0,152,10,300976,0
301001,68,-2200,240,-1240,-956,-3479,9455,896,280,673,2400,35176,56,35,127,0,0,3157,1428,0,4626,547,142,705,1,0,37,0,300976,0
301011,33,-2186,172,-1212,-1260,-3566,9933,1116,308,759,2944,35184,80,35,127,0,0,3313,1549,0,4626,547,142,715,1,0,40,0,300992,0
301021,67,-2000,93,-1204,-1643,-3838,10513,1349,369,805,3424,35190,88,35,127,0,0,3469,1636,0,4626,547,142,725,1,0,44,0,300992,0
301031,61,-1930,135,-1199,-1410,-4093,11176,1490,368,618,3696,35208,108,35,127,0,0,3616,1439,0,4626,547,142,735,1,0,47,0,301008,0
301041,-964,-2136,-140,-1155,-817,-4469,11869,1521,210,498,3800,35193,108,35,127,0,0,3759,1417,0,4626,547,142,745,1,0,52,0,301008,0
301051,-384,-2442,-474,-1110,-819,-5164,12571,1551,54,545,3976,35182,102,35,127,0,0,3897,1384,0,4626,547,142,755,1,0,55,0,301039,0
301061,-260,-3298,206,-1343,-1447,-5768,13287,1559,48,386,3672,35172,103,35,127,0,0,4005,1076,0,4626,547,142,765,1,0,60,0,301039,0
301071,557,-4584,327,-1244,-1404,-5967,13980,1513,-21,458,3640,35177,112,35,127,0,0,4144,1395,0,4626,547,142,775,1,0,63,0,301039,0
301081,-411,-4618,566,-966,-1556,-6672,14682,1537,-28,437,3344,35177,112,35,127,0,0,4238,878,0,4626,547,142,785,1,0,69,0,301070,0
301091,-645,-3843,620,-853,-2119,-6092,15340,1404,-64,354,3256,35166,109,35,127,0,0,4379,1472,0,4626,547,142,795,1,0,73,0,301070,0
301101,-639,-3435,396,-845,-2479,-6262,15989,1470,-112,780,3736,35165,112,35,127,0,0,4543,1614,0,4626,547,142,805,1,0,81,0,301070,0
301111,-330,-3423,376,-822,-2943,-6084,16692,1582,97,816,4048,35170,122,35,127,0,0,4719,1779,0,4626,547,142,815,1,0,86,0,301070,0
301121,-534,-3586,736,-626,-3883,-5160,17462,1754,230,962,4544,35173,172,35,127,0,0,4910,1933,0,4626,547,142,825,1,0,95,0,301101,0
301131,-841,-3436,944,-499,-4930,-4123,18325,1974,304,1062,5120,35158,206,35,127,0,0,5152,2438,0,4626,547,142,835,1,0,101,0,301101,0
301141,1018,-3146,912,-273,-5033,-3159,19321,2297,432,1306,6248,35149,237,35,127,0,0,5451,3087,0,4626,547,142,845,1,0,111,0,301117,0
301151,1546,-2601,287,-288,-3305,-3956,20460,2509,551,570,4280,35149,232,35,127,0,0,5545,615,0,4626,547,142,855,1,0,118,58,301117,0
301162,998,-1719,-209,-136,-1958,-3574,21311,1096,-458,-3052,-544,35180,139,35,127,0,0,5421,-1367,0,4626,547,142,866,0,0,129,55,301148,0
301172,777,-1578,-145,-109,-1449,-3566,21341,236,-2252,1558,1224,35197,82,35,127,0,0,5189,-2406,0,4626,547,142,876,0,0,139,51,301148,0
301182,42,-1728,333,-4,-1906,-2406,21434,-92,-1085,-1462,-1752,35204,14,35,127,0,0,4950,-2351,0,4626,547,142,886,0,0,146,49,301148,0
301192,871,-2226,197,-93,-2386,-1419,21063,-1011,-783,-1303,-3040,35189,69,35,127,0,0,4775,-1604,0,4626,547,142,896,0,0,157,46,301164,0
301202,594,-2204,268,151,-2715,-80,20496,-1322,-1293,-758,-3408,35177,126,35,127,0,0,4657,-1153,0,4626,547,142,906,0,0,164,44,301164,0
301212,624,-1972,168,303,-2718,519,19871,-1386,-477,-375,-3176,35173,149,35,127,0,0,4562,-873,0,4626,547,142,916,0,0,175,41,301180,0
301222,738,-1677,100,436,-2325,1209,19254,-1334,-95,-212,-2840,35175,139,35,127,0,0,4480,-862,0,4626,547,142,926,0,0,182,39,301211,0
301232,857,-1583,31,500,-1996,1640,18676,-1236,97,-211,-2672,35184,113,34,127,0,0,4382,-999,0,4626,547,142,936,0,0,192,36,301211,0
301242,845,-1429,-139,687,-1325,2214,18134,-1182,147,-288,-2656,35192,91,35,127,0,0,4275,-1093,0,4626,547,142,946,0,0,199,34,301211,0
301252,786,-1268,-271,736,-919,2609,17603,-1180,87,-397,-2744,35192,93,35,127,0,0,4172,-1016,0,4626,547,142,956,0,0,210,31,301211,0
301262,737,-1083,-382,759,-345,3208,17070,-1175,17,-415,-2712,35180,104,35,127,0,0,4064,-1005,0,4626,547,142,966,0,0,217,30,301242,0
301272,722,-993,-404,794,56,3581,16537,-1164,-10,-319,-2616,35180,102,35,127,0,0,3974,-933,0,4626,547,142,976,0,0,227,27,301242,0
301282,685,-968,-394,803,688,4120,16018,-1139,22,-273,-2432,35185,96,35,127,0,0,3893,-840,0,4626,547,142,986,0,0,233,26,301242,0
301292,668,-1025,-367,795,1095,4481,15520,-1073,69,-277,-2184,35187,106,35,127,0,0,3826,-637,0,4626,547,142,996,0,0,243,23,301289,0
301302,650,-1186,-326,836,1662,4992,15058,-986,107,-222,-1944,35183,114,35,127,0,0,3767,-576,0,4626,547,142,1006,0,0,250,22,301289,0
301312,630,-1245,-308,856,1978,5308,14644,-881,159,-215,-1696,35181,103,35,127,0,0,3718,-505,0,4626,547,142,1016,0,0,260,19,301289,0
301322,654,-1330,-257,899,2368,5751,14279,-773,189,-205,-1408,35185,91,35,127,0,0,3673,-395,0,4626,547,142,1026,0,0,266,18,301289,0
301332,710,-1368,-231,935,2597,6017,13961,-663,191,-216,-1184,35192,74,35,127,0,0,3640,-351,0,4626,547,142,1036,0,0,276,16,301320,0
301342,780,-1387,-186,994,2840,6365,13684,-579,172,-203,-952,35191,67,35,127,0,0,3603,-368,0,4626,547,142,1046,0,0,283,14,301320,0
301352,805,-1380,-175,1024,2934,6593,13452,-488,161,-268,-856,35188,58,35,127,0,0,3568,-373,0,4626,547,142,1056,0,0,292,13,301320,0
301362,805,-1382,-144,1069,2973,6910,13240,-447,126,-307,-784,35194,39,35,127,0,0,3536,-313,0,4626,547,142,1066,0,0,299,11,301320,0
301372,844,-1410,-139,1082,2956,7116,13046,-418,74,-279,-728,35198,32,35,127,0,0,3506,-307,0,4626,547,142,1076,0,0,308,10,301367,0
301382,812,-1462,-111,1111,2973,7401,12867,-376,61,-357,-656,35198,47,35,127,0,0,3478,-263,0,4626,547,142,1086,0,0,314,9,301367,0
301392,790,-1495,-109,1135,3026,7559,12699,-359,52,-320,-560,35188,53,35,127,0,0,3450,-258,0,4626,547,142,1096,0,0,324,7,301383,0
301402,745,-1524,-118,1204,3192,7777,12541,-331,41,-305,-488,35184,69,35,127,0,0,3433,-230,0,4626,547,142,1106,0,0,330,6,301383,0
301413,809,-1567,-135,1277,3452,7986,12397,-288,70,-318,-368,35191,68,35,127,0,0,3416,-131,0,4626,547,142,1117,0,0,339,5,301383,0
301423,823,-1605,-147,1326,3624,8109,12292,-207,89,-304,-224,35202,63,35,127,0,0,3410,-65,0,4626,547,142,1127,0,0,345,4,301383,0
301433,978,-1713,-104,1386,3921,8264,12211,-142,98,-244,-160,35196,64,35,127,0,0,3403,-43,0,4626,547,142,1137,0,0,353,3,301414,0
301443,1145,-1783,-47,1440,4110,8331,12190,-26,161,-262,-64,35191,62,35,127,0,0,3403,-21,0,4626,547,142,1147,0,0,359,3,301414,0
301453,1289,-1892,-4,1538,4303,8416,12191,3,153,-297,-56,35190,59,35,127,0,0,3405,21,0,4626,547,142,1157,0,0,368,2,301429,0
301463,1498,-1967,19,1600,4335,8480,12192,-1,45,-195,-16,35191,58,35,127,0,0,3410,43,0,4626,547,142,1167,0,0,373,1,301445,0
301473,1798,-2058,80,1728,4254,8543,12199,19,11,-6,64,35188,53,35,127,0,0,3423,131,0,4626,547,142,1177,0,0,381,1,301445,0
301483,1980,-2136,113,1838,4059,8504,12239,121,78,139,48,35188,57,35,127,0,0,3434,109,0,4626,547,142,1187,0,0,386,0,301461,0
301493,2275,-2256,161,1969,3581,8321,12276,54,54,249,136,35187,41,35,127,0,0,3447,131,0,4626,547,142,1197,0,0,393,0,301476,0
301503,2390,-2347,225,1994,3111,8118,12316,109,-14,392,208,35193,25,35,127,0,0,3460,98,0,4626,547,142,1207,0,0,398,0,301476,0
301513,2711,-2513,252,1842,2307,7687,12379,167,69,371,224,35198,24,35,127,0,0,3482,175,0,4626,547,142,1217,0,0,404,0,301476,0
301523,2887,-2666,280,1690,1776,7311,12469,194,95,345,312,35196,50,35,127,0,0,3504,252,0,4626,547,142,1227,0,0,407,0,301508,0
301533,3108,-3006,257,1458,1004,6419,12569,238,61,351,320,35200,59,35,127,0,0,3524,164,0,4626,547,142,1237,0,0,411,-1,301508,0
301543,3219,-3228,318,1311,522,5663,12684,249,58,260,248,35202,61,35,127,0,0,3531,32,0,4626,547,142,1247,0,0,414,-1,301508,0
301553,3340,-3346,457,1056,-205,4492,12769,152,-45,95,8,35199,69,35,127,0,0,3531,-10,0,4626,547,142,1257,0,0,416,-1,301523,0
301563,3405,-3200,542,879,-596,3474,12786,11,-203,-85,-104,35190,79,35,127,0,0,3517,-153,0,4626,547,142,1267,0,0,417,-1,301554,0
301573,3384,-2623,334,516,-1191,1948,12751,-115,-227,-359,-256,35191,71,34,127,0,0,3489,-263,0,4626,547,142,1277,0,0,417,-1,301554,0
301583,3390,-2339,90,294,-1473,841,12664,-219,-200,-401,-440,35189,63,35,127,0,0,3454,-384,0,4626,547,142,1287,0,0,417,-1,301554,0
301593,3076,-2028,-210,63,-1675,-768,12549,-266,-145,-514,-664,35193,63,35,127,0,0,3399,-571,0,4626,547,142,1297,0,0,415,-1,301554,0
301603,1952,-6072,-1688,-522,-2126,-1426,12398,-373,-119,-567,-832,35197,86,35,127,0,0,3403,208,0,4626,547,142,1307,0,0,414,-2,301601,0
301613,2469,-4106,763,-689,-591,-3704,12266,-171,-20,743,768,35205,86,35,127,0,0,3544,1395,0,1573,626,143,5,1,1,412,-2,301601,0
301623,3627,-1666,803,-142,52,-5990,12469,639,760,1196,2328,35198,75,35,127,0,0,3592,340,0,1573,626,143,15,1,1,412,-2,301601,0
301633,1475,-1136,-305,-754,-1750,-6109,12885,947,1048,550,2216,35189,78,35,127,0,0,3541,-560,0,1573,626,143,25,1,1,412,-2,301601,0
301643,340,-1588,-407,-1412,-1924,-4941,13293,865,305,363,1952,35180,85,35,127,0,0,3500,-373,0,1573,626,143,35,1,1,412,-2,301617,0
301653,-2888,-2638,-171,-1690,-4123,-3448,13672,839,-96,647,2496,35183,113,35,127,0,0,3548,648,0,1573,626,143,45,1,1,412,-2,301617,0
301664,-3188,-2164,-994,-1473,-2462,-4569,14229,1273,264,1069,3392,35187,110,35,127,0,0,3616,510,0,1573,626,143,56,1,1,412,-2,301711,0
301674,-784,-1371,-978,-1726,684,-6850,14893,1487,573,454,3128,35197,121,35,127,0,0,3581,-379,0,1573,626,143,66,1,1,412,-2,301711,0
301684,4400,-1493,-1076,-1870,2935,-9181,15530,1357,174,17,1376,35192,118,35,127,0,0,3331,-2933,0,1573,626,143,76,1,1,412,-2,301726,0
301694,-1301,-3024,462,-1585,-1188,-5909,15791,-150,-885,-2326,-160,35191,114,35,127,0,0,3124,-1609,600,1573,626,143,86,1,1,412,-2,301726,0
301704,3707,-383,305,-1478,-1292,-5523,15339,-1371,-2333,348,-2792,35187,80,35,127,0,0,3028,-1005,800,1573,626,143,96,1,1,412,-2,301742,0
301714,1500,-1206,-1369,-1428,-715,-5247,14319,-2561,-2414,340,-5176,35193,49,35,127,0,0,2876,-1691,1000,1573,626,143,106,1,1,412,-2,301758,0
301724,-1962,-1850,-2302,-767,143,-5650,13095,-2623,-1405,332,-4592,35202,33,35,127,0,0,2665,-2092,1200,1573,626,143,116,1,1,412,-2,301758,0
301734,1361,-3187,-1474,-149,3627,-5749,12094,-2011,215,642,-2712,35211,10,35,127,0,0,2463,-2114,1400,1573,626,143,126,1,1,412,-2,301758,0
301744,3623,-2878,714,11,880,-4636,11404,-1312,1076,839,-896,35213,6,35,127,0,0,2326,-1274,1500,1573,626,143,136,1,1,412,-2,301758,0
301754,1955,-2943,1470,-279,-1100,-2514,11049,-519,1249,1434,128,35212,2,35,127,0,0,2241,-758,1500,1573,626,143,146,1,1,412,-2,301758,0
301764,1701,-2869,1293,-627,-1999,-1588,11037,51,1302,1076,248,35216,1,35,127,0,0,2251,93,1500,1573,626,143,156,1,1,412,-2,301758,0
301774,1406,-2845,-1464,-377,-546,-1487,10985,-196,485,1001,32,35215,23,35,127,0,0,2254,-38,1500,1573,626,143,166,1,1,412,-2,301758,0
301784,598,-1886,-1700,171,214,-1844,10748,-664,-470,745,-392,35213,34,35,127,0,0,2210,-499,1500,1573,626,143,176,1,1,412,-2,301758,0
301794,1374,-2061,-851,738,1375,-1916,10335,-965,-703,650,-560,35210,10,35,127,0,0,2124,-928,1500,1573,626,143,186,1,1,412,-2,301758,0
301804,1652,-2608,-290,678,2224,-1279,9976,-643,-256,1059,72,35234,-11,35,127,0,0,2034,-906,1500,1573,626,143,196,1,1,412,-2,301789,0
301814,2323,-2536,676,486,244,-73,9938,130,748,1112,552,35231,-6,35,127,0,0,2026,49,1500,1573,626,143,206,1,1,412,-2,301789,0
301824,1863,-2685,394,75,-407,663,10077,373,982,767,1184,35230,18,35,127,0,0,2066,406,1500,1573,626,143,216,1,1,412,-2,301789,0
301834,1150,-5517,1078,-190,-1145,1536,10348,704,557,879,2120,35207,60,35,127,0,0,2203,1477,1500,1573,626,143,226,1,1,412,-2,301804,0
301844,-899,-5776,1163,378,-774,1911,10788,1083,584,999,3096,35199,97,35,127,0,0,2386,1955,1500,1573,626,143,236,1,1,412,-2,301820,0
301854,-585,-3974,764,327,-479,1722,11387,1408,638,917,3880,35186,149,35,127,0,0,2613,2252,1500,1573,626,143,246,1,1,412,-2,301820,0
301864,-615,-3801,736,410,-617,1369,12117,1686,566,895,4568,35175,162,35,127,0,0,2856,2362,1500,1573,626,143,256,1,1,412,-2,301851,0
301874,-891,-3684,573,767,-1004,1219,12955,1914,455,892,5168,35171,165,35,127,0,0,3115,2724,1500,1573,626,143,266,1,1,412,-2,301851,0
301884,-1427,-3263,208,500,-1395,815,13916,2211,444,931,5728,35167,156,35,127,0,0,3410,2927,1500,1573,626,143,276,1,1,412,-2,301851,0
301894,-2652,-3022,545,-77,-1853,-17,15040,2576,554,987,6384,35168,193,35,127,0,0,3693,2834,1500,1573,626,143,286,1,1,412,-2,301883,0
301904,-2868,-3399,341,-341,-1794,-797,16286,2788,555,900,6832,35155,240,35,127,0,0,3986,2944,1500,1573,626,143,296,1,1,412,-2,301883,0
301914,-2159,-2953,114,-664,-1424,-2653,17591,2913,345,826,7320,35149,258,35,127,0,0,4256,2565,1500,1573,626,143,306,1,1,412,-2,301883,0
301925,-1309,-1879,-301,-1758,-970,-4853,19136,3169,299,908,7832,35149,249,35,127,0,0,4473,1900,1500,1573,626,143,317,1,1,412,-2,301898,0
301935,-1339,-1544,209,-2307,-1031,-6218,20587,3174,283,778,8040,35164,256,35,127,0,0,4568,867,1500,1573,626,143,327,1,1,412,-2,301898,0
301945,-2313,-2014,567,-2451,-920,-6841,22051,3274,78,810,8376,35164,266,35,127,0,0,4647,802,1500,1573,626,143,337,1,1,412,-2,301929,0
301955,-1982,-2408,317,-2512,-731,-7487,23646,3601,275,979,8840,35165,285,35,127,0,0,4732,834,1500,1573,626,143,347,1,1,412,-2,301929,0
301965,-7238,-2082,1604,-2500,-1949,-5412,25279,3502,365,1045,8152,35144,286,35,127,0,0,4853,1241,1500,1573,626,143,357,1,1,412,-2,301929,0
301975,-587,-3011,-106,-3283,-1719,-6306,26625,2694,-464,1026,5888,35139,286,35,127,0,0,5084,2208,1500,1573,626,143,367,1,1,412,-2,301961,0
301985,-1223,-2098,1042,-2770,-2131,-7479,27485,1519,-1495,919,2872,35143,274,35,127,0,0,5227,1329,1500,1573,626,143,377,1,1,412,-2,301961,0
301995,-935,-1346,1102,-2852,-2304,-7429,27766,211,-2055,764,0,35163,228,35,127,0,0,5275,362,1500,1573,626,143,387,1,1,412,-2,301961,0
302005,-794,-1887,301,-2878,-2655,-7718,27485,-905,-2202,668,-1264,35184,140,35,127,0,0,5227,-549,1500,1573,626,143,397,1,1,412,-2,301976,0
302015,-521,-2104,410,-2662,-3292,-7772,26827,-1641,-1807,1207,-1328,35207,61,35,127,0,0,5113,-1219,0,1573,626,143,407,0,1,412,-2,301976,0
302025,511,-2319,601,-2693,-4035,-7262,26056,-2050,-918,-1260,-7472,35226,1,35,127,0,0,4985,-1351,0,1573,626,143,417,0,1,412,-2,302070,0
302035,-125,-1900,990,-2480,-3984,-7914,24498,-4004,-1746,-2686,-9864,35190,182,34,127,0,0,4724,-2768,0,1573,626,143,427,0,1,412,-2,302070,0
302045,-737,-1973,553,-2532,-3926,-7207,22602,-4146,-2294,-249,-9408,35146,313,34,127,0,0,4403,-3208,0,1573,626,143,437,0,1,412,-2,302070,0
302055,-895,-2367,220,-2704,-4179,-6422,20842,-3758,-336,-304,-9344,35125,369,35,127,0,0,4097,-3032,0,1573,626,143,447,0,1,412,-2,302070,0
302065,-199,-3088,171,-2800,-5055,-5136,19137,-3772,395,-237,-8392,35143,271,35,127,0,0,3882,-2032,0,1573,626,143,457,0,1,412,-2,302070,0
302075,188,-3123,441,-2682,-5055,-3784,17488,-3499,176,238,-6440,35179,133,35,127,0,0,3796,-758,0,1573,626,143,467,0,1,412,-2,302117,0
302085,514,-2479,342,-2297,-3824,-2258,16121,-2756,643,1060,-4000,35201,82,35,127,0,0,3777,-120,0,1573,626,143,477,0,1,412,-2,302117,0
302095,595,-2134,231,-1991,-2723,-1599,15151,-1880,1313,926,-2144,35224,5,35,127,0,0,3761,-186,0,1573,626,143,487,0,1,412,-2,302117,0
302105,845,-1871,-18,-1324,-698,-914,14511,-1241,1405,400,-1488,35241,-42,35,127,0,0,3693,-736,0,1573,626,143,497,0,1,412,-2,302117,0
302115,1032,-1650,-114,-928,437,-192,14058,-911,990,30,-1576,35239,-44,35,127,0,0,3592,-1054,0,1573,626,143,507,0,1,412,-2,302117,0
302125,1390,-1319,-198,-347,2111,1333,13679,-824,500,-283,-1824,35235,10,35,127,0,0,3491,-988,0,1573,626,143,517,0,1,412,-2,302117,0
302135,1582,-987,-277,50,3208,2516,13304,-827,140,-386,-1912,35234,52,35,127,0,0,3405,-867,0,1573,626,143,527,0,1,412,-2,302117,0
302145,1757,-493,-414,593,4520,4251,12926,-832,-3,-328,-1840,35223,72,35,127,0,0,3337,-681,0,1573,626,143,537,0,1,412,-2,302117,0
302155,1783,-276,-415,872,5054,5299,12560,-798,18,-295,-1744,35216,67,35,127,0,0,3271,-637,0,1573,626,143,547,0,1,412,-2,302132,0
302166,1748,-163,-237,1189,5328,6751,12187,-724,73,-295,-1552,35211,67,35,127,0,0,3210,-571,0,1573,626,143,558,0,1,412,-2,302132,0
302176,1713,-355,-68,1367,5123,7704,11874,-688,101,-344,-1440,35217,50,35,127,0,0,3150,-499,0,1573,626,143,568,0,1,412,-2,302164,0
302186,1631,-736,91,1762,4470,9001,11584,-617,84,-297,-1208,35224,65,35,127,0,0,3106,-439,0,1573,626,143,578,0,1,412,-2,302164,0
302196,1540,-819,121,2031,3940,9776,11331,-524,108,-288,-896,35222,56,35,127,0,0,3082,-269,0,1573,626,143,588,0,1,412,-2,302164,0
302206,1583,-664,62,2546,3011,10877,11117,-444,151,-234,-472,35213,67,35,127,0,0,3075,-120,0,1573,626,143,598,0,1,412,-2,302179,0
302216,1809,-612,-103,2978,2423,11492,10970,-245,200,-96,-64,35205,67,35,127,0,0,3081,16,0,1573,626,143,608,0,1,412,-2,302195,0
302226,1848,-575,-315,3596,1269,12284,10957,72,389,215,160,35213,75,35,127,0,0,3088,137,0,1573,626,143,618,0,1,412,-2,302195,0
302236,2010,-595,-419,3940,670,12666,11027,185,438,271,288,35214,67,35,127,0,0,3100,197,0,1573,626,143,628,0,1,412,-2,302195,0
302246,1783,-635,-560,4390,137,12833,11142,247,235,275,312,35210,72,35,127,0,0,3123,225,0,1573,626,143,638,0,1,412,-2,302211,0
302256,1739,-768,-648,4566,25,12628,11268,277,104,295,392,35214,75,35,127,0,0,3145,241,0,1573,626,143,648,0,1,412,-2,302242,0
302266,1748,-1113,-625,4578,319,12008,11407,306,41,343,480,35219,68,35,127,0,0,3169,252,0,1573,626,143,658,0,1,412,-2,302242,0
302276,1874,-1392,-441,4257,729,11413,11569,361,70,313,520,35217,46,35,127,0,0,3193,252,0,1573,626,143,668,0,1,412,-2,302242,0
302286,1999,-2006,-174,3555,1506,10255,11738,368,62,282,520,35217,32,35,127,0,0,3218,247,0,1573,626,143,678,0,1,412,-2,302273,0
302296,2127,-2460,-158,3054,1972,9368,11907,384,11,301,536,35215,41,35,127,0,0,3236,153,0,1573,626,143,688,0,1,412,-2,302273,0
302306,2336,-2965,-248,2434,2396,7949,12075,362,0,274,544,35209,46,35,127,0,0,3264,258,0,1573,626,143,698,0,1,412,-2,302273,0
302316,2520,-3147,-235,2040,2510,7012,12243,377,-10,318,600,35207,42,35,127,0,0,3292,307,0,1573,626,143,708,0,1,412,-2,302289,0
302326,2702,-3067,14,1374,2581,5515,12410,370,-2,355,632,35204,55,35,127,0,0,3312,263,0,1573,626,143,718,0,1,412,-2,302304,0
302336,2668,-2594,98,931,2451,4436,12579,375,5,310,528,35197,58,35,127,0,0,3322,65,0,1573,626,143,728,0,1,412,-2,302320,0
302346,2586,-1800,17,625,2030,2720,12739,334,-6,225,304,35197,65,35,127,0,0,3318,-49,0,1573,626,143,738,0,1,412,-2,302320,0
302356,2470,-1111,-84,624,1595,1536,12858,220,-94,67,72,35199,36,35,127,0,0,3310,-98,0,1573,626,143,748,0,1,412,-2,302320,0
