state_time,accelx,accely,accelz,gyrox,gyroy,gyroz,mot_ang,mot_vel,mot_acc,mot_cur,mot_volt,batt_volt,batt_curr,temperature,status_mn,status_ex,status_re,ank_ang,ank_vel,ank_torque,peak_ank_torque,step_energy,step_count,step_time,gait_state,movement,speed,incline,sys_time,eventFlags
219111,198,-2032,176,-38,-10,-34,12918,-10,-6,-395,-96,35401,-88,35,127,0,0,3546,21,0,15422,4790,86,57879,-4,0,0,0,219110,0
219121,190,-2024,187,-33,-10,-32,12919,-11,3,-394,-48,35400,-78,35,127,0,0,3546,10,0,15422,4790,86,57889,-4,0,0,0,219110,0
219131,186,-2044,178,-36,-7,-36,12919,2,-1,-408,-96,35396,-67,35,127,0,0,3546,0,0,15422,4790,86,57899,-4,0,0,0,219125,0
219141,165,-2036,183,-33,-7,-23,12919,6,4,-376,-64,35397,-82,35,127,0,0,3548,10,0,15422,4790,86,57909,-4,0,0,0,219125,0
219151,177,-2041,177,-31,-9,-17,12919,-9,-1,-331,-72,35400,-88,35,127,0,0,3546,0,0,15422,4790,86,57919,-4,0,0,0,219157,0
219161,156,-2033,181,-28,-5,-33,12919,-5,-6,-375,-64,35392,-74,35,127,0,0,3546,10,0,15422,4790,86,57929,-4,0,0,0,219157,0
219171,193,-2030,187,-35,-7,-31,12920,0,3,-338,-88,35390,-58,34,127,0,0,3550,32,0,15422,4790,86,57939,-4,0,0,0,219157,0
219181,166,-2033,198,-30,-11,-22,12920,0,1,-315,-80,35388,-59,34,127,0,0,3548,0,0,15422,4790,86,57949,-4,0,0,0,219157,0
219191,159,-2042,187,-31,-2,-20,12919,2,-3,-336,-32,35394,-87,35,127,0,0,3548,10,0,15422,4790,86,57959,-4,0,0,0,219188,0
219201,156,-2047,184,-37,-4,-21,12920,-7,-2,-334,-64,35413,-95,35,127,0,0,3546,-32,0,15422,4790,86,57969,-4,0,0,0,219188,0
219211,171,-2037,185,-34,-9,-17,12919,-2,-3,-344,-72,35406,-83,35,127,0,0,3546,-21,0,15422,4790,86,57979,-4,0,0,0,219188,0
219221,153,-2051,179,-31,-12,-22,12920,-4,3,-346,-72,35406,-89,35,127,0,0,3548,0,0,15422,4790,86,57989,-4,0,0,0,219203,0
219231,170,-2035,193,-37,-4,-19,12922,9,7,-263,-88,35392,-65,35,127,0,0,3550,0,0,15422,4790,86,57999,-4,0,0,0,219203,0
219241,178,-2035,192,-38,-6,-16,12921,3,3,-258,-56,35411,-71,35,127,0,0,3548,0,0,15422,4790,86,58009,-4,0,0,0,219235,0
219251,196,-2042,187,-42,-6,-17,12922,4,-3,-246,-56,35411,-63,35,127,0,0,3550,-21,0,15422,4790,86,58019,-4,0,0,0,219235,0
219261,163,-2039,178,-44,-10,-18,12922,-4,1,-229,-56,35404,-74,35,127,0,0,3552,21,0,15422,4790,86,58029,-4,0,0,0,219235,0
219271,159,-2033,179,-43,-8,-11,12923,7,-1,-205,-24,35398,-87,35,127,0,0,3552,10,0,15422,4790,86,58039,-4,0,0,0,219344,0
219281,172,-2041,178,-40,-9,-14,12924,1,4,-174,-40,35390,-76,35,127,0,0,3552,10,0,15422,4790,86,58049,-4,0,0,0,219344,0
219291,179,-2036,183,-40,-18,-10,12925,-2,0,-163,-8,35396,-65,35,127,0,0,3555,21,0,15422,4790,86,58059,-4,0,0,0,219344,0
219301,149,-2035,181,-44,-6,-4,12927,14,-3,-126,-8,35391,-52,35,127,0,0,3552,-32,0,15422,4790,86,58069,-4,0,0,0,219344,0
219311,170,-2035,185,-45,-6,-17,12924,-13,-3,-128,-48,35392,-72,35,127,0,0,3555,10,0,15422,4790,86,58079,-4,0,0,0,219344,0
219321,175,-2044,187,-38,-9,-19,12927,-3,-3,-62,0,35393,-87,34,127,0,0,3557,32,0,15422,4790,86,58089,-4,0,0,0,219360,0
219331,172,-2041,192,-42,-7,-18,12931,3,11,19,16,35397,-73,35,127,0,0,3559,0,0,15422,4790,86,58099,-4,0,0,0,219360,0
219341,170,-2039,194,-46,-8,-23,12932,-4,-2,19,8,35389,-56,35,127,0,0,3559,10,0,15422,4790,86,58109,-4,0,0,0,219360,0
219351,160,-2030,178,-50,-10,-22,12932,-3,-12,-23,24,35384,-60,35,127,0,0,3561,43,0,15422,4790,86,58119,-4,0,0,0,219360,0
219361,165,-2046,185,-47,-10,-17,12933,5,2,27,8,35382,-75,35,127,0,0,3561,21,0,15422,4790,86,58129,-4,0,0,0,219360,0
219371,142,-2039,184,-43,-8,-23,12934,9,5,79,0,35388,-90,34,127,0,0,3561,0,0,15422,4790,86,58139,-4,0,0,0,219360,0
219381,158,-2039,187,-52,-12,-25,12935,-3,2,98,24,35385,-87,34,127,0,0,3559,-21,0,15422,4790,86,58149,-4,0,0,0,219360,0
219391,165,-2047,183,-48,-12,-34,12934,-4,-4,53,72,35394,-102,35,127,0,0,3561,21,0,15422,4790,86,58159,-4,0,0,0,219360,0
219401,176,-2041,191,-51,-4,-34,12938,-4,7,69,56,35416,-95,35,127,0,0,3561,10,0,15422,4790,86,58169,-4,0,0,0,219391,0
219411,170,-2041,187,-50,-9,-31,12937,-5,0,76,56,35437,-114,35,127,0,0,3563,32,0,15422,4790,86,58179,-4,0,0,0,219391,0
219421,173,-2032,185,-54,-3,-35,12939,-5,-5,82,56,35434,-104,34,127,0,0,3566,54,0,15422,4790,86,58189,-4,0,0,0,219391,0
219431,155,-2038,189,-55,-11,-32,12941,3,5,132,8,35423,-87,34,127,0,0,3563,21,0,15422,4790,86,58199,-4,0,0,0,219422,0
219441,164,-2042,183,-60,-7,-41,12941,7,1,171,24,35421,-93,35,127,0,0,3566,10,0,15422,4790,86,58209,-4,0,0,0,219422,0
219451,155,-2042,181,-53,-14,-34,12944,1,4,123,32,35424,-82,35,127,0,0,3566,21,0,15422,4790,86,58219,-4,0,0,0,219422,0
219461,181,-2038,180,-53,-3,-37,12944,7,-3,131,32,35415,-84,35,127,0,0,3563,0,0,15422,4790,86,58229,-4,0,0,0,219438,0
219471,158,-2038,179,-52,-2,-40,12945,8,-5,129,64,35401,-71,34,127,0,0,3563,0,0,15422,4790,86,58239,-4,0,0,0,219453,0
219481,161,-2046,181,-50,-13,-40,12943,-4,2,99,32,35394,-75,35,127,0,0,3563,0,0,15422,4790,86,58249,-4,0,0,0,219469,0
219491,163,-2042,186,-47,-8,-34,12945,1,-1,143,16,35406,-99,35,127,0,0,3563,-10,0,15422,4790,86,58259,-4,0,0,0,219469,0
219501,161,-2039,183,-51,-7,-33,12943,-5,2,102,64,35402,-92,35,127,0,0,3563,0,0,15422,4790,86,58269,-4,0,0,0,219485,0
219511,183,-2039,180,-50,-7,-37,12945,1,3,112,64,35397,-75,35,127,0,0,3563,-21,0,15422,4790,86,58279,-4,0,0,0,219500,0
219521,156,-2039,182,-47,-9,-37,12947,0,3,141,16,35383,-38,35,127,0,0,3566,-10,0,15422,4790,86,58289,-4,0,0,0,219500,0
219531,156,-2035,189,-49,-3,-27,12945,0,1,102,72,35388,-43,35,127,0,0,3563,10,0,15422,4790,86,58299,-4,0,0,0,219531,0
219541,159,-2039,186,-44,-11,-26,12947,6,4,147,80,35406,-59,35,127,0,0,3566,0,0,15422,4790,86,58309,-4,0,0,0,219531,0
219551,170,-2040,183,-49,-4,-27,12956,16,20,108,32,35398,-59,35,127,0,0,3566,0,0,15422,4790,86,58319,-4,0,0,0,219531,0
219561,152,-2040,183,-51,-8,-29,12959,0,-1,82,24,35396,-66,35,127,0,0,3568,21,0,15422,4790,86,58329,-4,0,0,0,219531,0
219571,137,-2037,179,-54,-9,-29,12963,14,-12,104,48,35384,-55,34,127,0,0,3566,-21,0,15422,4790,86,58339,-4,0,0,0,219563,0
219581,144,-2037,184,-48,-12,-31,12966,15,5,43,8,35385,-66,35,127,0,0,3566,-21,0,15422,4790,86,58349,-4,0,0,0,219563,0
219591,147,-2046,190,-52,-11,-36,12966,9,-4,45,8,35388,-72,35,127,0,0,3566,10,0,15422,4790,86,58359,-4,0,0,0,219563,0
219601,142,-2044,186,-52,-8,-44,12967,3,2,45,8,35393,-54,35,127,0,0,3568,21,0,15422,4790,86,58369,-4,0,0,0,219578,0
219611,156,-2044,185,-53,-17,-36,12971,0,4,78,24,35401,-75,35,127,0,0,3566,-10,0,15422,4790,86,58379,-4,0,0,0,219594,0
219621,146,-2043,188,-52,-11,-41,12970,-4,-8,36,-8,35401,-69,34,127,0,0,3566,-10,0,15422,4790,86,58389,-4,0,0,0,219610,0
219631,150,-2039,180,-54,-11,-43,12970,-7,-10,32,-8,35397,-69,35,127,0,0,3566,-10,0,15422,4790,86,58399,-4,0,0,0,219641,0
219641,147,-2039,177,-53,-11,-36,12971,5,2,56,-8,35384,-67,35,127,0,0,3568,-10,0,15422,4790,86,58409,-4,0,0,0,219672,0
219651,137,-2041,179,-45,-11,-33,12972,1,-1,39,32,35388,-66,35,127,0,0,3566,-10,0,15422,4790,86,58419,-4,0,0,0,219672,0
219661,163,-2043,180,-44,-2,-44,12970,-5,2,16,72,35395,-72,35,127,0,0,3568,32,0,15422,4790,86,58429,-4,0,0,0,219672,0
219671,183,-2049,180,-49,-5,-46,12974,-3,5,0,24,35399,-68,34,127,0,0,3566,-21,0,15422,4790,86,58439,-4,0,0,0,219672,0
219681,165,-2039,184,-46,-8,-39,12972,-3,2,18,-16,35388,-64,34,127,0,0,3566,-10,0,15422,4790,86,58449,-4,0,0,0,219672,0
219691,149,-2036,181,-43,-13,-45,12972,-1,-6,4,32,35385,-84,35,127,0,0,3566,0,0,15422,4790,86,58459,-4,0,0,0,219688,0
219701,138,-2041,187,-43,-10,-36,12972,-1,1,2,-8,35390,-74,35,127,0,0,3568,10,0,15422,4790,86,58469,-4,0,0,0,219688,0
219711,151,-2043,182,-44,-13,-36,12973,-7,-7,12,0,35398,-90,35,127,0,0,3566,0,0,15422,4790,86,58479,-4,0,0,0,219688,0
219721,149,-2038,179,-45,-9,-37,12974,3,1,4,0,35401,-56,34,127,0,0,3566,-21,0,15422,4790,86,58489,-4,0,0,0,219719,0
219731,144,-2047,174,-47,-11,-41,12973,-1,-3,26,24,35406,-65,34,127,0,0,3568,10,0,15422,4790,86,58499,-4,0,0,0,219734,0
219741,153,-2039,175,-47,-13,-42,12974,-1,0,35,-16,35406,-69,34,127,0,0,3566,-21,0,15422,4790,86,58509,-4,0,0,0,219734,0
219751,167,-2041,173,-35,-9,-45,12975,11,-1,55,-16,35403,-82,35,127,0,0,3570,0,0,15422,4790,86,58519,-4,0,0,0,219734,0
219761,187,-2043,175,-38,-11,-42,12976,10,2,80,-16,35394,-78,34,127,0,0,3568,-10,0,15422,4790,86,58529,-4,0,0,0,219734,0
219771,143,-2044,175,-40,-10,-42,12974,7,0,41,-16,35396,-73,34,127,0,0,3568,10,0,15422,4790,86,58539,-4,0,0,0,219750,0
219781,177,-2045,181,-37,-11,-44,12975,-7,7,57,16,35390,-66,35,127,0,0,3568,-10,0,15422,4790,86,58549,-4,0,0,0,219766,0
219791,154,-2050,178,-38,-6,-40,12976,18,-4,30,16,35402,-78,34,127,0,0,3566,-32,0,15422,4790,86,58559,-4,0,0,0,219781,0
219801,151,-2041,181,-34,-10,-39,12974,3,-6,24,8,35396,-61,35,127,0,0,3570,32,0,15422,4790,86,58569,-4,0,0,0,219781,0
219811,155,-2036,183,-30,-7,-30,12980,15,10,94,-8,35393,-67,35,127,0,0,3570,0,0,15422,4790,86,58579,-4,0,0,0,219797,0
219821,153,-2041,187,-26,-12,-23,12981,12,2,132,32,35390,-47,35,127,0,0,3570,-32,0,15422,4790,86,58589,-4,0,0,0,219797,0
219831,162,-2041,180,-31,-10,-31,12980,9,-7,114,24,35400,-53,35,127,0,0,3570,-21,0,15422,4790,86,58599,-4,0,0,0,219828,0
219841,149,-2046,181,-28,-14,-20,12981,0,-4,110,24,35418,-62,35,127,0,0,3572,10,0,15422,4790,86,58609,-4,0,0,0,219828,0
219851,155,-2041,179,-33,-14,-20,12980,-6,-2,106,56,35405,-79,35,127,0,0,3572,21,0,15422,4790,86,58619,-4,0,0,0,219844,0
219861,160,-2041,175,-30,-8,-21,12982,11,8,123,56,35405,-96,35,127,0,0,3572,10,0,15422,4790,86,58629,-4,0,0,0,219844,0
219871,157,-2044,179,-25,-13,-19,12983,0,3,168,40,35405,-89,35,127,0,0,3572,0,0,15422,4790,86,58639,-4,0,0,0,219859,0
219881,154,-2040,186,-26,-13,-20,12986,3,-2,180,72,35405,-72,35,127,0,0,3572,-21,0,15422,4790,86,58649,-4,0,0,0,219859,0
219891,157,-2032,185,-28,-12,-26,12986,4,-1,186,24,35402,-71,35,127,0,0,3572,-10,0,15422,4790,86,58659,-4,0,0,0,219875,0
219901,153,-2035,183,-25,-7,-28,12986,3,-4,194,24,35389,-72,35,127,0,0,3574,10,0,15422,4790,86,58669,-4,0,0,0,219922,0
219911,148,-2043,182,-22,-8,-21,12987,2,1,198,56,35401,-94,35,127,0,0,3572,-32,0,15422,4790,86,58679,-4,0,0,0,219922,0
219921,147,-2044,190,-21,-9,-23,12985,1,3,180,96,35410,-103,35,127,0,0,3574,0,0,15422,4790,86,58689,-4,0,0,0,219922,0
219931,166,-2028,185,-27,-14,-31,12989,-6,3,190,56,35410,-105,35,127,0,0,3574,0,0,15422,4790,86,58699,-4,0,0,0,219953,0
219941,144,-2041,184,-27,-10,-27,12988,1,2,219,120,35395,-88,35,127,0,0,3574,-10,0,15422,4790,86,58709,-4,0,0,0,219953,0
219951,162,-2041,177,-25,-9,-30,12993,4,-2,258,64,35398,-84,35,127,0,0,3577,-10,0,15422,4790,86,58719,-4,0,0,0,219953,0
219961,155,-2040,183,-20,-7,-30,12992,-2,-2,244,64,35416,-90,34,127,0,0,3579,32,0,15422,4790,86,58729,-4,0,0,0,219953,0
219971,154,-2039,183,-21,-13,-31,12996,4,1,300,48,35416,-77,35,127,0,0,3581,10,0,15422,4790,86,58739,-4,0,0,0,219953,0
219981,164,-2038,182,-17,-14,-25,12997,5,4,279,56,35410,-67,34,127,0,0,3577,-21,0,15422,4790,86,58749,-4,0,0,0,219969,0
219991,152,-2043,185,-17,-4,-36,12997,12,-4,303,40,35400,-54,34,127,0,0,3581,-10,0,15422,4790,86,58759,-4,0,0,0,219969,0
220001,157,-2041,183,-19,-13,-29,13003,9,15,317,104,35397,-53,35,127,0,0,3581,10,0,15422,4790,86,58769,-4,0,0,0,220047,0
220011,160,-2041,181,-25,-5,-24,13008,15,11,336,80,35412,-73,34,127,0,0,3581,-21,0,15422,4790,86,58779,-4,0,0,0,220063,0
220021,157,-2041,183,-16,-12,-24,13014,16,1,263,104,35407,-70,34,127,0,0,3581,0,0,15422,4790,86,58789,-4,0,0,0,220063,0
220031,169,-2046,184,-16,-11,-21,13025,33,6,228,40,35410,-92,35,127,0,0,3581,0,0,15422,4790,86,58799,-4,0,0,0,220063,0
220041,154,-2035,186,-16,-8,-16,13044,43,32,86,80,35399,-78,34,127,0,0,3581,-21,0,15422,4790,86,58809,-4,0,0,0,220063,0
220051,169,-2036,185,-17,-10,-25,13047,-3,-20,93,56,35403,-86,35,127,0,0,3585,10,0,15422,4790,86,58819,-4,0,0,0,220063,0
220061,149,-2038,189,-16,-8,-27,13048,-11,-36,89,56,35404,-61,35,127,0,0,3583,0,0,15422,4790,86,58829,-4,0,0,0,220063,0
220071,154,-2048,192,-14,-6,-33,13050,10,-10,128,48,35399,-50,35,127,0,0,3583,-21,0,15422,4790,86,58839,-4,0,0,0,220063,0
220081,138,-2040,197,-13,-5,-35,13052,5,1,139,40,35398,-61,35,127,0,0,3585,0,0,15422,4790,86,58849,-4,0,0,0,220063,0
220091,142,-2034,193,-16,-12,-40,13052,0,3,176,32,35397,-57,35,127,0,0,3585,-10,0,15422,4790,86,58859,-4,0,0,0,220078,0
220101,147,-2040,184,-19,-7,-43,13054,4,-1,176,40,35412,-60,35,127,0,0,3588,21,0,15422,4790,86,58869,-4,0,0,0,220078,0
220111,144,-2042,188,-17,-9,-48,13054,1,-2,182,32,35420,-46,35,127,0,0,3588,21,0,15422,4790,86,58879,-4,0,0,0,220109,0
220121,164,-2051,187,-16,-12,-46,13055,11,5,216,24,35419,-44,35,127,0,0,3588,-10,0,15422,4790,86,58889,-4,0,0,0,220109,0
220131,130,-2048,195,-20,-14,-41,13054,1,-2,176,72,35417,-48,35,127,0,0,3588,32,0,15422,4790,86,58899,-4,0,0,0,220109,0
220141,164,-2044,197,-13,-11,-45,13058,2,5,216,48,35408,-33,35,127,0,0,3588,0,0,15422,4790,86,58909,-4,0,0,0,220125,0
220151,155,-2039,197,-21,-11,-45,13058,-7,-1,189,64,35400,-40,35,127,0,0,3585,-10,0,15422,4790,86,58919,-4,0,0,0,220125,0
220161,174,-2024,189,-21,-8,-48,13057,-3,-11,129,104,35405,-41,35,127,0,0,3585,0,0,15422,4790,86,58929,-4,0,0,0,220172,0
220171,174,-2037,189,-14,-8,-42,13058,4,4,118,64,35415,-56,35,127,0,0,3588,10,0,15422,4790,86,58939,-4,0,0,0,220172,0
220181,155,-2034,183,-18,-6,-30,13060,9,7,191,96,35418,-50,34,127,0,0,3588,-10,0,15422,4790,86,58949,-4,0,0,0,220172,0
220191,164,-2038,190,-14,-3,-28,13058,-7,-4,186,48,35401,-52,34,127,0,0,3590,21,0,15422,4790,86,58959,-4,0,0,0,220172,0
220201,176,-2037,191,-15,-13,-16,13062,7,-2,213,80,35387,-58,35,127,0,0,3592,43,0,15422,4790,86,58969,-4,0,0,0,220172,0
220211,145,-2039,190,-13,-11,-10,13063,7,5,268,64,35403,-61,35,127,0,0,3592,10,0,15422,4790,86,58979,-4,0,0,0,220203,0
220221,155,-2042,189,-19,-11,-14,13066,14,1,289,48,35416,-73,34,127,0,0,3592,10,0,15422,4790,86,58989,-4,0,0,0,220203,0
220231,154,-2042,189,-12,-8,-13,13069,14,8,312,80,35413,-74,34,127,0,0,3592,-10,0,15422,4790,86,58999,-4,0,0,0,220203,0
220241,142,-2036,188,-3,-10,-6,13075,15,12,304,56,35401,-63,34,127,0,0,3592,-32,0,15422,4790,86,59009,-4,0,0,0,220234,0
220251,147,-2038,203,-10,-13,-9,13083,20,7,251,72,35399,-60,35,127,0,0,3594,10,0,15422,4790,86,59019,-4,0,0,0,220234,0
220261,140,-2046,203,-14,-12,-3,13102,49,26,180,32,35408,-56,35,127,0,0,3596,0,0,15422,4790,86,59029,-4,0,0,0,220234,0
220271,149,-2034,205,-14,-10,-8,13105,-2,-8,171,48,35408,-44,35,127,0,0,3599,54,0,15422,4790,86,59039,-4,0,0,0,220250,0
220281,152,-2036,193,-16,0,-10,13111,15,-22,265,24,35406,-18,35,127,0,0,3596,-32,0,15422,4790,86,59049,-4,0,0,0,220281,0
220291,150,-2036,197,-21,-8,-17,13110,0,-4,249,104,35407,-28,35,127,0,0,3596,-10,0,15422,4790,86,59059,-4,0,0,0,220281,0
220301,156,-2039,210,-22,-10,-26,13112,-12,-4,224,64,35411,-38,35,127,0,0,3599,0,0,15422,4790,86,59069,-4,0,0,0,220281,0
220311,151,-2044,201,-24,-3,-25,13114,16,1,257,96,35403,-32,35,127,0,0,3599,-10,0,15422,4790,86,59079,-4,0,0,0,220312,0
220321,153,-2042,208,-33,-9,-29,13112,-9,-3,275,88,35394,-14,34,127,0,0,3599,10,0,15422,4790,86,59089,-4,0,0,0,220312,0
220331,171,-2042,195,-32,-6,-27,13113,-2,-4,263,128,35392,-14,34,127,0,0,3599,-21,0,15422,4790,86,59099,-4,0,0,0,220312,0
220341,144,-2036,204,-32,-6,-35,13112,-3,-4,260,88,35395,-22,35,127,0,0,3599,0,0,15422,4790,86,59109,-4,0,0,0,220312,0
220351,160,-2028,202,-35,-5,-29,13114,-1,-2,305,72,35392,-21,35,127,0,0,3601,-21,0,15422,4790,86,59119,-4,0,0,0,220344,0
220361,121,-2038,215,-38,-9,-37,13116,10,-4,314,64,35389,-7,35,127,0,0,3599,-32,0,15422,4790,86,59129,-4,0,0,0,220344,0
220371,131,-2041,206,-37,-9,-44,13114,3,-6,303,72,35383,2,35,127,0,0,3601,-10,0,15422,4790,86,59139,-4,0,0,0,220422,0
220381,126,-2041,198,-46,-9,-48,13115,-8,-5,306,64,35394,-11,34,127,0,0,3601,-10,0,15422,4790,86,59149,-4,0,0,0,220422,0
220391,137,-2037,202,-51,-11,-46,13115,2,1,288,80,35393,-18,35,127,0,0,3601,10,0,15422,4790,86,59159,-4,0,0,0,220437,0
220401,161,-2032,200,-49,-10,-56,13115,-1,1,299,112,35394,-20,35,127,0,0,3601,-10,0,15422,4790,86,59169,-4,0,0,0,220437,0
220411,150,-2036,198,-48,-7,-56,13115,0,-8,289,32,35381,-9,35,127,0,0,3601,-10,0,15422,4790,86,59179,-4,0,0,0,220437,0
220421,155,-2041,194,-50,-13,-49,13115,2,-1,303,80,35379,-30,35,127,0,0,3601,-10,0,15422,4790,86,59189,-4,0,0,0,220437,0
220431,142,-2037,194,-46,-13,-44,13113,-7,-1,276,80,35386,-32,34,127,0,0,3603,10,0,15422,4790,86,59199,-4,0,0,0,220437,0
220441,154,-2038,186,-40,-14,-41,13117,3,8,321,72,35386,-22,35,127,0,0,3603,10,0,15422,4790,86,59209,-4,0,0,0,220437,0
220451,164,-2043,189,-42,-13,-37,13119,11,10,346,72,35384,-17,35,127,0,0,3599,-43,0,15422,4790,86,59219,-4,0,0,0,220437,0
220461,143,-2046,192,-40,-13,-38,13115,4,-3,277,80,35380,-17,35,127,0,0,3601,0,0,15422,4790,86,59229,-4,0,0,0,220437,0
220471,151,-2038,193,-41,-7,-36,13116,-5,3,256,56,35383,-22,35,127,0,0,3601,0,0,15422,4790,86,59239,-4,0,0,0,220453,0
220481,169,-2045,196,-41,0,-30,13116,9,4,268,80,35392,2,35,127,0,0,3599,-21,0,15422,4790,86,59249,-4,0,0,0,220453,0
220491,164,-2043,193,-40,-6,-28,13116,5,0,303,104,35387,10,35,127,0,0,3601,-10,0,15422,4790,86,59259,-4,0,0,0,220484,0
220501,123,-2040,192,-30,-6,-27,13115,-14,-4,271,80,35393,-3,35,127,0,0,3601,0,0,15422,4790,86,59269,-4,0,0,0,220484,0
220511,139,-2036,189,-34,-4,-27,13118,9,-5,299,64,35390,-19,35,127,0,0,3601,0,0,15422,4790,86,59279,-4,0,0,0,220484,0
220521,144,-2039,196,-35,-8,-26,13116,-12,-3,284,120,35390,-31,34,127,0,0,3601,10,0,15422,4790,86,59289,-4,0,0,0,220500,0
220531,155,-2031,193,-33,-7,-26,13118,12,2,306,64,35379,-24,34,127,0,0,3603,0,0,15422,4790,86,59299,-4,0,0,0,220516,0
220541,149,-2040,202,-34,-7,-24,13118,0,2,371,96,35383,-18,34,127,0,0,3603,-10,0,15422,4790,86,59309,-4,0,0,0,220516,0
220551,135,-2043,195,-30,-2,-27,13118,3,-3,353,96,35385,-25,35,127,0,0,3601,-21,0,15422,4790,86,59319,-4,0,0,0,220547,0
220561,135,-2039,200,-30,-9,-23,13116,-5,-5,338,136,35397,-40,35,127,0,0,3605,21,0,15422,4790,86,59329,-4,0,0,0,220562,0
220571,145,-2045,198,-24,-9,-26,13119,-10,3,394,104,35398,-42,35,127,0,0,3603,-21,0,15422,4790,86,59339,-4,0,0,0,220594,0
220581,138,-2048,196,-30,-5,-32,13119,-2,-1,371,152,35396,-26,35,127,0,0,3605,21,0,15422,4790,86,59349,-4,0,0,0,220594,0
220591,152,-2044,202,-29,-7,-27,13122,-3,-3,375,144,35389,-27,35,127,0,0,3605,32,0,15422,4790,86,59359,-4,0,0,0,220594,0
220601,151,-2039,197,-31,-7,-39,13125,3,4,432,56,35387,-14,34,127,0,0,3607,10,0,15422,4790,86,59369,-4,0,0,0,220594,0
220611,116,-2035,196,-28,-4,-36,13123,3,-5,450,136,35386,-8,35,127,0,0,3607,10,0,15422,4790,86,59379,-4,0,0,0,220594,0
220621,127,-2042,202,-32,-6,-37,13125,4,-2,426,144,35384,3,34,127,0,0,3610,32,0,15422,4790,86,59389,-4,0,0,0,220609,0
220631,138,-2040,194,-29,-7,-42,13126,3,2,462,128,35394,19,35,127,0,0,3607,-10,0,15422,4790,86,59399,-4,0,0,0,220609,0
220641,130,-2035,206,-31,-5,-45,13126,8,-1,450,128,35401,9,35,127,0,0,3607,0,0,15422,4790,86,59409,-4,0,0,0,220641,0
220651,135,-2038,205,-39,-6,-50,13125,-1,-6,426,144,35415,-6,34,127,0,0,3607,0,0,15422,4790,86,59419,-4,0,0,0,220641,0
220661,152,-2040,199,-32,-6,-51,13124,-6,-5,403,144,35408,-27,34,127,0,0,3607,32,0,15422,4790,86,59429,-4,0,0,0,220641,0
220671,159,-2036,200,-38,-12,-48,13126,1,2,444,128,35401,-46,35,127,0,0,3605,-21,0,15422,4790,86,59439,-4,0,0,0,220641,0
220681,144,-2041,205,-37,-8,-51,13124,-7,-6,401,144,35389,-38,34,127,0,0,3605,10,0,15422,4790,86,59449,-4,0,0,0,220703,0
220691,166,-2037,202,-39,-3,-53,13125,1,0,437,112,35406,-44,34,127,0,0,3607,10,0,15422,4790,86,59459,-4,0,0,0,220703,0
220701,143,-2030,205,-31,-13,-50,13126,4,2,437,88,35412,-30,34,127,0,0,3607,10,0,15422,4790,86,59469,-4,0,0,0,220703,0
220711,132,-2042,204,-40,-14,-45,13126,0,4,420,136,35419,-36,35,127,0,0,3607,10,0,15422,4790,86,59479,-4,0,0,0,220703,0
220721,157,-2035,190,-36,0,-50,13125,0,3,445,88,35412,-33,35,127,0,0,3607,-10,0,15422,4790,86,59489,-4,0,0,0,220703,0
220731,131,-2045,199,-40,-11,-47,13126,7,0,441,128,35407,-32,35,127,0,0,3607,-10,0,15422,4790,86,59499,-4,0,0,0,220703,0
220741,159,-2042,205,-37,-7,-41,13125,-5,3,436,128,35401,-16,35,127,0,0,3607,10,0,15422,4790,86,59509,-4,0,0,0,220781,0
220751,143,-2041,204,-41,-8,-42,13125,-7,0,405,144,35397,0,35,127,0,0,3605,10,0,15422,4790,86,59519,-4,0,0,0,220797,0
220761,136,-2043,203,-38,-7,-41,13126,2,4,409,136,35393,-23,35,127,0,0,3607,0,0,15422,4790,86,59529,-4,0,0,0,220797,0
220771,134,-2048,199,-35,-8,-35,13124,-4,1,412,136,35400,-29,35,127,0,0,3605,-10,0,15422,4790,86,59539,-4,0,0,0,220797,0
220781,136,-2046,197,-31,-6,-46,13126,-1,-4,435,128,35390,-22,35,127,0,0,3603,-43,0,15422,4790,86,59549,-4,0,0,0,220797,0
220791,149,-2043,194,-30,-6,-47,13125,-2,-5,418,128,35387,-6,35,127,0,0,3605,-32,0,15422,4790,86,59559,-4,0,0,0,220797,0
220801,117,-2041,202,-27,-17,-41,13126,-5,-4,404,144,35387,-12,35,127,0,0,3607,0,0,15422,4790,86,59569,-4,0,0,0,220797,0
220811,130,-2041,209,-30,-3,-39,13125,-10,3,411,128,35392,-21,35,127,0,0,3607,43,0,15422,4790,86,59579,-4,0,0,0,220797,0
220821,135,-2037,203,-31,-8,-50,13126,0,1,418,136,35395,-37,34,127,0,0,3607,-10,0,15422,4790,86,59589,-4,0,0,0,220797,0
220831,136,-2042,191,-28,-8,-45,13124,-3,-6,372,104,35396,-31,34,127,0,0,3605,32,0,15422,4790,86,59599,-4,0,0,0,220812,0
220841,152,-2047,205,-33,-5,-41,13126,-1,4,410,104,35408,-45,35,127,0,0,3607,0,0,15422,4790,86,59609,-4,0,0,0,220828,0
220851,134,-2038,203,-27,-9,-31,13127,13,2,446,128,35419,-37,35,127,0,0,3607,0,0,15422,4790,86,59619,-4,0,0,0,220844,0
220861,159,-2036,208,-27,-5,-33,13127,-1,2,435,120,35418,-39,35,127,0,0,3607,0,0,15422,4790,86,59629,-4,0,0,0,220844,0
220871,157,-2033,194,-29,-7,-16,13126,0,-2,438,128,35404,-30,35,127,0,0,3607,0,0,15422,4790,86,59639,-4,0,0,0,220844,0
220881,143,-2038,198,-25,-14,-4,13127,2,5,444,120,35400,-5,35,127,0,0,3607,-10,0,15422,4790,86,59649,-4,0,0,0,220875,0
220891,162,-2037,191,-13,-11,-12,13128,3,0,487,144,35409,-27,35,127,0,0,3610,0,0,15422,4790,86,59659,-4,0,0,0,220890,0
220901,148,-2040,192,-19,-12,-7,13130,1,5,512,128,35411,-20,35,127,0,0,3614,43,0,15422,4790,86,59669,-4,0,0,0,220890,0
220911,130,-2042,197,-10,-6,-2,13138,25,10,561,136,35404,-25,35,127,0,0,3614,32,0,15422,4790,86,59679,-4,0,0,0,220890,0
220921,146,-2050,189,-11,-8,-1,13152,33,26,497,144,35399,-7,35,127,0,0,3616,21,0,15422,4790,86,59689,-4,0,0,0,220906,0
220931,137,-2043,196,-11,-9,-5,13174,48,35,366,136,35401,-8,35,127,0,0,3616,21,0,15422,4790,86,59699,-4,0,0,0,220906,0
220941,132,-2046,205,-7,-2,-6,13184,17,-14,423,120,35405,-33,35,127,0,0,3616,-32,0,15422,4790,86,59709,-4,0,0,0,220922,0
220951,140,-2043,208,-10,-2,-10,13185,0,-45,466,152,35405,-38,35,127,0,0,3621,10,0,15422,4790,86,59719,-4,0,0,0,220937,0
220961,139,-2035,224,-17,-4,-15,13189,11,-6,480,144,35396,-43,34,127,0,0,3621,0,0,15422,4790,86,59729,-4,0,0,0,220937,0
220971,130,-2039,214,-23,-4,-13,13193,8,6,483,136,35397,-57,34,127,0,0,3621,0,0,15422,4790,86,59739,-4,0,0,0,220984,0
220981,116,-2043,212,-24,-3,-27,13192,0,-10,472,136,35400,-45,35,127,0,0,3621,0,0,15422,4790,86,59749,-4,0,0,0,220984,0
220991,128,-2034,210,-24,-2,-32,13193,5,-2,479,160,35398,-59,35,127,0,0,3623,10,0,15422,4790,86,59759,-4,0,0,0,221000,0
221001,132,-2042,217,-33,-7,-35,13196,2,5,468,160,35395,-58,34,127,0,0,3621,0,0,15422,4790,86,59769,-4,0,0,0,221000,0
221011,133,-2027,211,-35,-9,-43,13197,2,1,445,160,35396,-78,35,127,0,0,3621,10,0,15422,4790,86,59779,-4,0,0,0,221000,0
221021,119,-2038,211,-40,-6,-52,13201,11,1,470,144,35398,-78,34,127,0,0,3623,0,0,15422,4790,86,59789,-4,0,0,0,221000,0
221031,136,-2038,220,-37,-4,-52,13209,15,8,418,128,35412,-88,35,127,0,0,3623,32,0,15422,4790,86,59799,-4,0,0,0,221000,0
221041,143,-2030,220,-40,-11,-62,13224,42,23,365,96,35421,-99,35,127,0,0,3623,0,0,15422,4790,86,59809,-4,0,0,0,221031,0
221051,145,-2045,209,-49,-7,-56,13244,39,32,220,56,35421,-91,34,127,0,0,3623,-10,0,15422,4790,86,59819,-4,0,0,0,221031,0
221061,117,-2041,210,-54,-12,-58,13240,-9,-43,225,64,35417,-105,35,127,0,0,3623,-10,0,15422,4790,86,59829,-4,0,0,0,221047,0
221071,142,-2047,215,-48,-7,-57,13242,5,-35,217,96,35410,-94,35,127,0,0,3623,-10,0,15422,4790,86,59839,-4,0,0,0,221047,0
221081,141,-2038,207,-52,-15,-54,13241,-6,5,197,40,35393,-80,35,127,0,0,3623,10,0,15422,4790,86,59849,-4,0,0,0,221156,0
221091,151,-2031,201,-53,-18,-52,13242,-4,0,227,56,35395,-82,35,127,0,0,3623,-10,0,15422,4790,86,59859,-4,0,0,0,221156,0
221101,146,-2039,198,-49,-13,-49,13241,-2,-3,205,24,35393,-86,35,127,0,0,3623,32,0,15422,4790,86,59869,-4,0,0,0,221172,0
221111,171,-2038,202,-45,-14,-41,13241,-15,-1,222,56,35408,-103,35,127,0,0,3623,10,0,15422,4790,86,59879,-4,0,0,0,221172,0
221121,157,-2044,210,-50,-12,-36,13242,1,0,189,72,35406,-97,35,127,0,0,3621,-10,0,15422,4790,86,59889,-4,0,0,0,221172,0
221131,159,-2037,205,-50,-16,-41,13243,0,-4,209,64,35399,-89,35,127,0,0,3623,10,0,15422,4790,86,59899,-4,0,0,0,221187,0
221141,117,-2046,195,-46,-14,-26,13243,7,-3,210,24,35391,-92,35,127,0,0,3627,32,0,15422,4790,86,59909,-4,0,0,0,221187,0
221151,98,-2047,196,-43,-15,-20,13246,6,7,282,8,35397,-93,35,127,0,0,3623,-10,0,15422,4790,86,59919,-4,0,0,0,221187,0
221161,157,-2046,203,-36,-8,-29,13241,-5,-3,205,72,35404,-105,34,127,0,0,3623,21,0,15422,4790,86,59929,-4,0,0,0,221187,0
221171,159,-2044,194,-42,-5,-28,13244,-1,-3,214,56,35399,-104,34,127,0,0,3623,0,0,15422,4790,86,59939,-4,0,0,0,221187,0
221181,141,-2048,201,-39,-10,-26,13243,-1,4,207,72,35397,-90,35,127,0,0,3621,-21,0,15422,4790,86,59949,-4,0,0,0,221187,0
221191,143,-2038,204,-34,-9,-28,13244,11,-5,197,56,35399,-96,35,127,0,0,3623,0,0,15422,4790,86,59959,-4,0,0,0,221187,0
221201,130,-2032,209,-30,-8,-24,13243,-3,-2,235,96,35399,-84,35,127,0,0,3623,0,0,15422,4790,86,59969,-4,0,0,0,221203,0
221211,145,-2029,204,-35,-9,-26,13243,-2,-2,231,96,35398,-76,35,127,0,0,3623,0,0,15422,4790,86,59979,-4,0,0,0,221203,0
221221,132,-2040,213,-41,-13,-24,13244,-1,0,224,56,35399,-51,35,127,0,0,3623,0,0,15422,4790,86,59989,-4,0,0,0,221203,0
221231,132,-2044,214,-32,-16,-15,13243,0,3,200,56,35417,-70,35,127,0,0,3623,32,0,15422,4790,86,59999,-4,0,0,0,221234,0
221241,144,-2038,216,-36,-21,-16,13245,0,8,255,80,35419,-68,35,127,0,0,3627,21,0,15422,4790,86,60009,-4,0,0,0,221234,0
221251,130,-2036,211,-37,-19,-15,13246,2,-3,276,48,35414,-66,35,127,0,0,3627,43,0,15422,4790,86,60019,-4,0,0,0,221234,0
221261,138,-2037,202,-45,-18,-13,13248,10,-2,327,104,35395,-63,34,127,0,0,3625,-10,0,15422,4790,86,60029,-4,0,0,0,221234,0
221271,150,-2035,196,-37,-20,-21,13249,-9,-2,317,96,35399,-69,35,127,0,0,3627,0,0,15422,4790,86,60039,-4,0,0,0,221265,0
221281,134,-2043,213,-37,-15,-17,13250,4,-10,353,112,35404,-83,35,127,0,0,3627,-10,0,15422,4790,86,60049,-4,0,0,0,221265,0
221291,138,-2044,225,-44,-22,-18,13251,-1,5,342,112,35407,-72,35,127,0,0,3627,-10,0,15422,4790,86,60059,-4,0,0,0,221281,0
221301,116,-2042,221,-49,-21,-24,13252,-2,-2,363,144,35397,-85,35,127,0,0,3627,-21,0,15422,4790,86,60069,-4,0,0,0,221281,0
221311,142,-2045,211,-53,-20,-26,13257,3,0,354,136,35386,-97,35,127,0,0,3629,-21,0,15422,4790,86,60079,-4,0,0,0,221281,0
221321,124,-2042,195,-49,-15,-33,13259,-1,-1,338,168,35397,-110,35,127,0,0,3629,0,0,15422,4790,86,60089,-4,0,0,0,221312,0
221331,134,-2032,193,-44,-16,-43,13262,4,-3,348,160,35408,-113,34,127,0,0,3632,21,0,15422,4790,86,60099,-4,0,0,0,221328,0
221341,131,-2036,218,-44,-21,-42,13269,15,14,340,144,35406,-114,34,127,0,0,3632,32,0,15422,4790,86,60109,-4,0,0,0,221328,0
221351,128,-2036,220,-43,-19,-54,13284,40,21,312,144,35393,-108,35,127,0,0,3634,-21,0,15422,4790,86,60119,-4,0,0,0,221328,0
221361,128,-2045,233,-52,-23,-62,13300,22,16,193,24,35389,-94,34,127,0,0,3629,-32,0,15422,4790,86,60129,-4,0,0,0,221343,0
221371,112,-2047,225,-56,-24,-76,13294,-11,-43,201,0,35408,-92,35,127,0,0,3632,-21,0,15422,4790,86,60139,-4,0,0,0,221359,0
221381,88,-2042,210,-56,-26,-72,13298,13,-25,212,-8,35413,-97,34,127,0,0,3634,-10,0,15422,4790,86,60149,-4,0,0,0,221359,0
221391,84,-2032,209,-61,-31,-77,13298,5,12,268,64,35404,-96,34,127,0,0,3629,-54,0,15422,4790,86,60159,-4,0,0,0,221359,0
221401,119,-2049,202,-64,-25,-89,13292,-25,-12,107,64,35399,-87,35,127,0,0,3629,0,0,15422,4790,86,60169,-4,0,0,0,221390,0
221411,144,-2042,221,-65,-17,-94,13299,25,4,154,-8,35394,-79,34,127,0,0,3629,-43,0,15422,4790,86,60179,-4,0,0,0,221390,0
221421,116,-2037,220,-72,-33,-88,13291,-23,2,64,48,35395,-65,35,127,0,0,3629,32,0,15422,4790,86,60189,-4,0,0,0,221390,0
221431,145,-2039,211,-73,-31,-95,13296,10,-2,54,32,35394,-71,35,127,0,0,3629,10,0,15422,4790,86,60199,-4,0,0,0,221422,0
221441,137,-2038,195,-74,-32,-101,13295,7,14,104,24,35385,-75,35,127,0,0,3632,21,0,15422,4790,86,60209,-4,0,0,0,221422,0
221451,119,-2039,189,-69,-22,-102,13292,-14,-4,75,40,35390,-95,35,127,0,0,3629,21,0,15422,4790,86,60219,-4,0,0,0,221422,0
221461,134,-2041,189,-63,-12,-109,13293,6,5,45,8,35395,-105,34,127,0,0,3625,-43,0,15422,4790,86,60229,-4,0,0,0,221453,0
221471,146,-2037,195,-61,-14,-118,13289,-12,-5,-14,-24,35385,-86,34,127,0,0,3625,-21,0,15422,4790,86,60239,-4,0,0,0,221468,0
221481,156,-2051,204,-56,-14,-108,13287,-4,-1,-109,8,35384,-99,34,127,0,0,3621,-21,0,15422,4790,86,60249,-4,0,0,0,221484,0
221491,152,-2050,202,-57,-10,-105,13284,-10,3,-148,-56,35386,-82,34,127,0,0,3618,-32,0,15422,4790,86,60259,-4,0,0,0,221500,0
221501,147,-2050,194,-54,-6,-104,13275,-23,-12,-180,-16,35383,-93,35,127,0,0,3618,-10,0,15422,4790,86,60269,-4,0,0,0,221500,0
221511,165,-2053,204,-54,-11,-103,13270,-15,-12,-183,-32,35380,-83,35,127,0,0,3618,-10,0,15422,4790,86,60279,-4,0,0,0,221515,0
221521,160,-2044,202,-49,-7,-92,13258,-25,-6,-152,-80,35378,-95,35,127,0,0,3614,-32,0,15422,4790,86,60289,-4,0,0,0,221515,0
221531,142,-2049,194,-49,-10,-97,13241,-29,-20,-139,0,35385,-112,35,127,0,0,3614,0,0,15422,4790,86,60299,-4,0,0,0,221515,0
221541,179,-2043,198,-43,-10,-86,13243,0,23,-202,-40,35398,-111,35,127,0,0,3610,-32,0,15422,4790,86,60309,-4,0,0,0,221515,0
221551,172,-2031,198,-42,-6,-76,13240,-1,21,-209,-64,35400,-109,35,127,0,0,3614,-10,0,15422,4790,86,60319,-4,0,0,0,221551,0
221561,165,-2031,189,-36,-12,-60,13240,-8,-3,-230,-40,35398,-90,35,127,0,0,3614,32,0,15422,4790,86,60329,-4,0,0,0,221551,0
221571,153,-2027,181,-33,-4,-56,13240,1,8,-205,-56,35392,-91,35,127,0,0,3612,-10,0,15422,4790,86,60339,-4,0,0,0,221551,0
221581,167,-2021,185,-20,-6,-38,13237,-6,-7,-255,-72,35395,-90,34,127,0,0,3610,-10,0,15422,4790,86,60349,-4,0,0,0,221551,0
221591,166,-2027,177,-16,-5,-39,13236,7,-7,-267,-72,35385,-71,35,127,0,0,3610,-21,0,15422,4790,86,60359,-4,0,0,0,221582,0
221601,179,-2028,170,1,3,-24,13234,-8,8,-281,-64,35380,-75,35,127,0,0,3612,21,0,15422,4790,86,60369,-4,0,0,0,221598,0
221611,165,-2035,181,11,4,-14,13234,2,6,-266,-32,35378,-75,34,127,0,0,3610,10,0,15422,4790,86,60379,-4,0,0,0,221598,0
221621,165,-2040,194,16,11,-10,13236,3,-2,-261,-32,35387,-96,35,127,0,0,3610,-10,0,15422,4790,86,60389,-4,0,0,0,221598,0
221631,184,-2040,203,18,11,1,13236,0,-3,-233,-8,35400,-98,34,127,0,0,3612,-10,0,15422,4790,86,60399,-4,0,0,0,221629,0
221641,133,-2049,205,39,13,15,13238,8,0,-177,-64,35401,-104,34,127,0,0,3612,-21,0,15422,4790,86,60409,-4,0,0,0,221629,0
221651,158,-2035,200,36,4,26,13237,-4,-2,-151,-24,35400,-115,35,127,0,0,3614,21,0,15422,4790,86,60419,-4,0,0,0,221629,0
221661,168,-2046,218,34,9,44,13239,7,0,-141,-32,35400,-104,34,127,0,0,3616,10,0,15422,4790,86,60429,-4,0,0,0,221645,0
221671,146,-2046,225,32,2,54,13239,14,-3,-84,32,35393,-83,35,127,0,0,3618,32,0,15422,4790,86,60439,-4,0,0,0,221660,0
221681,150,-2035,219,32,-1,68,13244,12,5,4,48,35390,-88,35,127,0,0,3621,32,0,15422,4790,86,60449,-4,0,0,0,221660,0
221691,134,-2048,214,24,-2,68,13250,18,0,110,64,35390,-72,35,127,0,0,3623,32,0,15422,4790,86,60459,-4,0,0,0,221691,0
221701,145,-2049,218,23,3,62,13254,23,0,225,88,35395,-101,35,127,0,0,3627,43,0,15422,4790,86,60469,-4,0,0,0,221691,0
221711,140,-2049,223,21,-2,66,13265,18,19,247,56,35401,-92,35,127,0,0,3634,76,0,15422,4790,86,60479,-4,0,0,0,221691,0
221721,127,-2028,219,16,-2,60,13282,45,16,319,104,35400,-85,35,127,0,0,3632,21,0,15422,4790,86,60489,-4,0,0,0,221707,0
221731,143,-2030,218,10,-11,62,13303,24,23,184,56,35395,-64,35,127,0,0,3636,32,0,15422,4790,86,60499,-4,0,0,0,221707,0
221741,95,-2042,219,11,9,49,13303,11,-39,368,104,35403,-79,35,127,0,0,3638,0,0,15422,4790,86,60509,-4,0,0,0,221738,0
221751,140,-2029,224,2,4,45,13308,10,-20,423,136,35418,-101,35,127,0,0,3643,21,0,15422,4790,86,60519,-4,0,0,0,221738,0
221761,130,-2036,237,-5,2,38,13314,5,8,446,128,35415,-90,35,127,0,0,3645,32,0,15422,4790,86,60529,-4,0,0,0,221754,0
221771,109,-2036,233,-7,5,23,13317,13,-7,516,144,35404,-85,34,127,0,0,3645,-21,0,15422,4790,86,60539,-4,0,0,0,221754,0
221781,119,-2048,237,-13,5,21,13322,5,0,488,176,35392,-82,34,127,0,0,3649,65,0,15422,4790,86,60549,-4,0,0,0,221785,0
221791,110,-2048,232,-20,4,10,13331,29,10,572,160,35404,-105,35,127,0,0,3649,-10,0,15422,4790,86,60559,-4,0,0,0,221801,0
221801,108,-2049,226,-28,10,-1,13355,61,39,405,120,35413,-109,35,127,0,0,3651,32,0,15422,4790,86,60569,-4,0,0,0,221801,0
221811,111,-2041,226,-36,-2,-4,13380,39,34,332,80,35407,-97,34,127,0,0,3651,-10,0,15422,4790,86,60579,-4,0,0,0,221801,0
221821,73,-2043,217,-39,12,-28,13377,-4,-59,362,136,35391,-91,35,127,0,0,3654,10,0,15422,4790,86,60589,-4,0,0,0,221801,0
221831,102,-2039,229,-44,11,-38,13379,4,-39,350,128,35392,-90,34,127,0,0,3651,-10,0,15422,4790,86,60599,-4,0,0,0,221816,0
221841,112,-2038,245,-57,4,-48,13376,-4,5,367,120,35413,-92,35,127,0,0,3654,0,0,15422,4790,86,60609,-4,0,0,0,221910,0
221851,117,-2031,239,-58,-6,-51,13380,4,0,401,112,35418,-111,35,127,0,0,3656,0,0,15422,4790,86,60619,-4,0,0,0,221910,0
221861,132,-2026,238,-69,3,-64,13379,3,-4,386,112,35412,-101,35,127,0,0,3654,10,0,15422,4790,86,60629,-4,0,0,0,221926,0
221871,117,-2040,244,-73,2,-61,13378,0,-6,363,120,35398,-112,35,127,0,0,3654,21,0,15422,4790,86,60639,-4,0,0,0,221926,0
221881,137,-2021,236,-85,-15,-69,13378,-3,4,366,112,35395,-92,34,127,0,0,3654,21,0,15422,4790,86,60649,-4,0,0,0,221926,0
221891,139,-2029,226,-92,-14,-68,13379,1,1,374,112,35395,-91,35,127,0,0,3651,-21,0,15422,4790,86,60659,-4,0,0,0,221926,0
221901,117,-2036,220,-96,-10,-65,13379,-1,-1,349,128,35394,-93,35,127,0,0,3651,-10,0,15422,4790,86,60669,-4,0,0,0,221926,0
221911,141,-2034,226,-95,-13,-68,13379,0,-2,334,88,35390,-90,35,127,0,0,3654,0,0,15422,4790,86,60679,-4,0,0,0,221926,0
221921,152,-2045,217,-106,-14,-58,13377,1,4,358,80,35395,-96,35,127,0,0,3654,10,0,15422,4790,86,60689,-4,0,0,0,221926,0
221931,124,-2049,217,-105,-13,-55,13378,-7,0,340,88,35398,-78,35,127,0,0,3651,0,0,15422,4790,86,60699,-4,0,0,0,221926,0
221941,141,-2055,203,-104,-14,-60,13378,-4,-5,293,112,35392,-81,35,127,0,0,3651,0,0,15422,4790,86,60709,-4,0,0,0,221957,0
221951,134,-2059,201,-104,-16,-55,13378,4,5,313,128,35397,-93,35,127,0,0,3651,10,0,15422,4790,86,60719,-4,0,0,0,221957,0
221961,139,-2047,214,-106,-14,-49,13380,1,0,351,80,35413,-72,35,127,0,0,3651,0,0,15422,4790,86,60729,-4,0,0,0,221973,0
221971,135,-2039,212,-102,-18,-43,13377,-5,-1,325,96,35428,-73,35,127,0,0,3651,21,0,15422,4790,86,60739,-4,0,0,0,221973,0
221981,137,-2031,208,-105,-17,-42,13377,1,-2,293,104,35424,-74,35,127,0,0,3654,32,0,15422,4790,86,60749,-4,0,0,0,221973,0
221991,148,-2033,205,-103,-18,-37,13378,0,2,327,88,35412,-101,35,127,0,0,3651,0,0,15422,4790,86,60759,-4,0,0,0,221973,0
222001,127,-2040,209,-106,-24,-33,13378,3,-1,336,88,35412,-111,35,127,0,0,3651,-10,0,15422,4790,86,60769,-4,0,0,0,221973,0
222011,126,-2039,211,-100,-22,-34,13380,6,5,350,88,35415,-89,35,127,0,0,3654,0,0,15422,4790,86,60779,-4,0,0,0,222004,0
222021,120,-2040,209,-102,-22,-35,13380,8,2,354,128,35415,-82,35,127,0,0,3651,-21,0,15422,4790,86,60789,-4,0,0,0,222004,0
222031,135,-2044,201,-99,-14,-41,13378,4,1,359,120,35411,-74,35,127,0,0,3651,-32,0,15422,4790,86,60799,-4,0,0,0,222004,0
222041,112,-2036,194,-96,-19,-43,13377,-12,-7,319,136,35413,-99,35,127,0,0,3651,0,0,15422,4790,86,60809,-4,0,0,0,222035,0
222051,136,-2042,191,-104,-16,-49,13378,-2,4,314,88,35406,-89,35,127,0,0,3651,0,0,15422,4790,86,60819,-4,0,0,0,222051,0
222061,130,-2048,199,-89,-14,-46,13379,6,3,336,80,35409,-77,35,127,0,0,3654,21,0,15422,4790,86,60829,-4,0,0,0,222051,0
222071,125,-2054,201,-91,-13,-46,13379,-4,0,346,88,35406,-75,34,127,0,0,3654,21,0,15422,4790,86,60839,-4,0,0,0,222051,0
222081,143,-2050,206,-87,-18,-46,13380,4,-2,342,88,35403,-76,34,127,0,0,3651,-10,0,15422,4790,86,60849,-4,0,0,0,222066,0
222091,141,-2040,201,-92,-14,-51,13380,8,2,371,112,35409,-99,35,127,0,0,3651,-43,0,15422,4790,86,60859,-4,0,0,0,222082,0
222101,102,-2040,193,-77,-19,-41,13379,5,1,332,88,35413,-97,35,127,0,0,3654,0,0,15422,4790,86,60869,-4,0,0,0,222082,0
222111,121,-2027,200,-77,-20,-44,13379,4,4,351,88,35410,-98,35,127,0,0,3651,-10,0,15422,4790,86,60879,-4,0,0,0,222098,0
222121,125,-2029,202,-80,-13,-53,13379,0,-1,353,112,35404,-93,35,127,0,0,3651,-10,0,15422,4790,86,60889,-4,0,0,0,222113,0
222131,115,-2035,197,-80,-13,-57,13379,2,-3,334,96,35403,-88,34,127,0,0,3654,10,0,15422,4790,86,60899,-4,0,0,0,222113,0
222141,159,-2030,191,-73,-15,-60,13379,0,-3,364,80,35408,-95,35,127,0,0,3651,-21,0,15422,4790,86,60909,-4,0,0,0,222129,0
222151,123,-2040,196,-67,-6,-55,13379,19,-2,367,80,35400,-98,35,127,0,0,3654,0,0,15422,4790,86,60919,-4,0,0,0,222144,0
222161,154,-2048,194,-63,-11,-46,13379,-8,2,340,136,35398,-108,35,127,0,0,3651,0,0,15422,4790,86,60929,-4,0,0,0,222144,0
222171,168,-2054,191,-63,-4,-51,13380,7,-4,349,112,35399,-120,34,127,0,0,3651,-10,0,15422,4790,86,60939,-4,0,0,0,222144,0
222181,117,-2046,193,-55,-16,-48,13378,-6,4,343,112,35394,-79,35,127,0,0,3654,21,0,15422,4790,86,60949,-4,0,0,0,222176,0
222191,133,-2052,200,-54,-7,-49,13379,0,1,359,72,35394,-74,35,127,0,0,3654,0,0,15422,4790,86,60959,-4,0,0,0,222176,0
222201,134,-2044,191,-47,-13,-46,13379,5,-1,331,88,35394,-56,35,127,0,0,3651,10,0,15422,4790,86,60969,-4,0,0,0,222207,0
222211,137,-2043,191,-48,-8,-52,13380,-4,4,352,112,35395,-91,35,127,0,0,3651,-10,0,15422,4790,86,60979,-4,0,0,0,222207,0
222221,93,-2038,194,-44,-17,-41,13378,0,-6,329,128,35398,-92,34,127,0,0,3654,0,0,15422,4790,86,60989,-4,0,0,0,222207,0
222231,130,-2044,190,-36,-11,-42,13380,3,5,336,128,35399,-90,35,127,0,0,3654,10,0,15422,4790,86,60999,-4,0,0,0,222223,0
222241,131,-2041,194,-35,-13,-48,13378,-5,-2,322,80,35397,-99,35,127,0,0,3654,43,0,15422,4790,86,61009,-4,0,0,0,222238,0
222251,133,-2036,193,-30,-10,-43,13380,-4,-2,367,112,35400,-91,35,127,0,0,3654,10,0,15422,4790,86,61019,-4,0,0,0,222238,0
222261,114,-2038,194,-28,-9,-43,13380,1,0,360,80,35407,-95,35,127,0,0,3651,-32,0,15422,4790,86,61029,-4,0,0,0,222254,0
222271,122,-2032,185,-22,-7,-49,13379,1,-3,339,88,35411,-102,34,127,0,0,3651,-10,0,15422,4790,86,61039,-4,0,0,0,222254,0
222281,136,-2045,196,-26,-6,-44,13382,4,7,346,120,35401,-98,34,127,0,0,3651,-21,0,15422,4790,86,61049,-4,0,0,0,222254,0
222291,132,-2018,213,-21,-4,-45,13378,-6,-7,321,80,35401,-107,35,127,0,0,3651,21,0,15422,4790,86,61059,-4,0,0,0,222301,0
222301,130,-2019,219,-21,-4,-46,13379,-9,-1,327,88,35401,-89,34,127,0,0,3651,0,0,15422,4790,86,61069,-4,0,0,0,222301,0
222311,120,-2059,218,-30,-13,-51,13380,10,0,352,112,35400,-88,35,127,0,0,3651,-32,0,15422,4790,86,61079,-4,0,0,0,222301,0
222321,116,-2035,212,-32,-10,-50,13379,-4,-11,347,80,35389,-87,35,127,0,0,3651,-10,0,15422,4790,86,61089,-4,0,0,0,222301,0
222331,120,-2052,196,-26,-7,-53,13379,3,3,333,88,35379,-75,35,127,0,0,3651,-21,0,15422,4790,86,61099,-4,0,0,0,222301,0
222341,125,-2058,197,-29,-3,-55,13379,0,4,340,88,35394,-99,35,127,0,0,3651,-21,0,15422,4790,86,61109,-4,0,0,0,222348,0
222351,122,-2052,206,-33,-9,-55,13380,-1,0,360,112,35399,-74,35,127,0,0,3651,-32,0,15422,4790,86,61119,-4,0,0,0,222348,0
222361,130,-2044,201,-27,-11,-51,13378,-9,-2,301,104,35399,-69,35,127,0,0,3654,21,0,15422,4790,86,61129,-4,0,0,0,222348,0
222371,131,-2053,209,-30,-15,-52,13379,3,1,337,112,35395,-67,35,127,0,0,3651,0,0,15422,4790,86,61139,-4,0,0,0,222348,0
222381,121,-2040,209,-36,-10,-49,13380,-10,7,363,80,35389,-96,35,127,0,0,3654,-10,0,15422,4790,86,61149,-4,0,0,0,222363,0
222391,125,-2042,201,-30,-11,-44,13382,10,-7,371,112,35400,-116,35,127,0,0,3651,-21,0,15422,4790,86,61159,-4,0,0,0,222379,0
222401,139,-2031,198,-29,-6,-41,13379,-12,4,337,128,35400,-104,35,127,0,0,3651,10,0,15422,4790,86,61169,-4,0,0,0,222394,0
222411,164,-2023,202,-36,-7,-38,13379,-7,0,317,88,35395,-100,34,127,0,0,3654,32,0,15422,4790,86,61179,-4,0,0,0,222394,0
222421,164,-2027,213,-31,-4,-30,13381,0,3,318,136,35380,-84,34,127,0,0,3651,21,0,15422,4790,86,61189,-4,0,0,0,222410,0
222431,165,-2031,210,-34,0,-33,13380,-2,-1,330,128,35385,-63,35,127,0,0,3654,0,0,15422,4790,86,61199,-4,0,0,0,222426,0
222441,115,-2026,205,-38,-14,-24,13382,8,1,362,72,35394,-68,34,127,0,0,3651,-32,0,15422,4790,86,61209,-4,0,0,0,222426,0
222451,122,-2037,210,-41,-9,-26,13381,5,-3,341,120,35390,-68,34,127,0,0,3651,-21,0,15422,4790,86,61219,-4,0,0,0,222426,0
222461,118,-2034,206,-37,-3,-28,13380,-4,-6,323,88,35389,-107,35,127,0,0,3654,10,0,15422,4790,86,61229,-4,0,0,0,222457,0
222471,124,-2033,201,-44,-15,-24,13380,3,1,361,128,35399,-118,34,127,0,0,3651,-10,0,15422,4790,86,61239,-4,0,0,0,222457,0
222481,121,-2042,210,-44,-10,-31,13381,4,1,364,72,35401,-118,35,127,0,0,3654,0,0,15422,4790,86,61249,-4,0,0,0,222457,0
222491,116,-2037,201,-42,-18,-30,13381,3,-5,383,112,35396,-113,35,127,0,0,3651,-21,0,15422,4790,86,61259,-4,0,0,0,222472,0
222501,116,-2042,206,-49,-14,-35,13382,0,-1,366,112,35391,-94,35,127,0,0,3654,-10,0,15422,4790,86,61269,-4,0,0,0,222519,0
222511,112,-2042,214,-45,-12,-33,13381,2,-1,368,112,35397,-95,35,127,0,0,3651,-32,0,15422,4790,86,61279,-4,0,0,0,222535,0
222521,109,-2048,206,-46,-8,-31,13381,7,0,357,112,35401,-91,34,127,0,0,3651,-21,0,15422,4790,86,61289,-4,0,0,0,222535,0
222531,136,-2037,215,-43,-3,-30,13380,-8,1,364,112,35394,-90,35,127,0,0,3654,0,0,15422,4790,86,61299,-4,0,0,0,222535,0
222541,133,-2035,215,-45,-11,-31,13381,-1,-3,374,72,35383,-83,34,127,0,0,3651,-21,0,15422,4790,86,61309,-4,0,0,0,222535,0
222551,140,-2059,211,-51,-14,-28,13381,11,-3,351,120,35379,-95,34,127,0,0,3654,10,0,15422,4790,86,61319,-4,0,0,0,222535,0
222561,131,-2048,213,-49,-15,-26,13382,-3,5,387,112,35384,-93,35,127,0,0,3656,0,0,15422,4790,86,61329,-4,0,0,0,222551,0
222571,132,-2047,205,-53,-18,-14,13381,-7,1,393,112,35397,-90,35,127,0,0,3654,10,0,15422,4790,86,61339,-4,0,0,0,222551,0
222581,143,-2048,199,-58,-14,-15,13383,9,4,401,128,35400,-89,35,127,0,0,3656,10,0,15422,4790,86,61349,-4,0,0,0,222597,0
222591,131,-2032,196,-49,-12,-15,13387,20,4,460,144,35409,-96,35,127,0,0,3658,-32,0,15422,4790,86,61359,-4,0,0,0,222597,0
222601,115,-2031,199,-49,-17,-12,13396,27,25,423,128,35407,-104,35,127,0,0,3656,-10,0,15422,4790,86,61369,-4,0,0,0,222597,0
222611,132,-2035,204,-48,-11,-14,13411,37,24,297,112,35404,-107,34,127,0,0,3660,32,0,15422,4790,86,61379,-4,0,0,0,222597,0
222621,128,-2037,204,-48,-11,-14,13431,52,21,303,56,35390,-106,34,127,0,0,3660,-21,0,15422,4790,86,61389,-4,0,0,0,222613,0
222631,133,-2046,203,-55,-13,-15,13436,-11,-18,286,56,35385,-112,35,127,0,0,3660,0,0,15422,4790,86,61399,-4,0,0,0,222613,0
222641,126,-2050,193,-42,-7,-19,13435,-6,-51,286,112,35394,-136,34,127,0,0,3660,0,0,15422,4790,86,61409,-4,0,0,0,222644,0
222651,131,-2030,204,-44,-7,-26,13437,3,-2,322,120,35400,-136,35,127,0,0,3665,21,0,15422,4790,86,61419,-4,0,0,0,222644,0
222661,122,-2028,210,-47,-13,-22,13439,-3,5,345,128,35403,-145,35,127,0,0,3665,10,0,15422,4790,86,61429,-4,0,0,0,222660,0
222671,121,-2044,204,-51,-12,-27,13439,-4,-2,316,64,35400,-132,35,127,0,0,3662,-10,0,15422,4790,86,61439,-4,0,0,0,222660,0
222681,115,-2038,204,-50,-6,-27,13440,18,-5,354,112,35392,-142,35,127,0,0,3665,0,0,15422,4790,86,61449,-4,0,0,0,222660,0
222691,127,-2042,204,-52,-12,-35,13443,0,5,366,104,35400,-132,34,127,0,0,3665,10,0,15422,4790,86,61459,-4,0,0,0,222691,0
222701,126,-2037,208,-48,-3,-41,13444,12,-1,403,96,35394,-99,35,127,0,0,3665,-10,0,15422,4790,86,61469,-4,0,0,0,222691,0
222711,113,-2034,199,-52,-8,-42,13444,6,-1,372,104,35390,-99,34,127,0,0,3665,0,0,15422,4790,86,61479,-4,0,0,0,222691,0
222721,119,-2052,205,-49,-4,-48,13443,1,0,409,80,35386,-109,34,127,0,0,3665,-21,0,15422,4790,86,61489,-4,0,0,0,222707,0
222731,116,-2039,202,-50,-2,-45,13444,-12,1,372,104,35392,-95,35,127,0,0,3665,0,0,15422,4790,86,61499,-4,0,0,0,222722,0
222741,137,-2042,199,-53,-3,-48,13443,-5,-4,340,104,35396,-88,34,127,0,0,3665,21,0,15422,4790,86,61509,-4,0,0,0,222722,0
222751,139,-2040,204,-51,-7,-51,13445,4,0,364,104,35394,-88,34,127,0,0,3665,0,0,15422,4790,86,61519,-4,0,0,0,222754,0
222761,123,-2041,205,-56,-7,-45,13446,3,5,364,104,35397,-122,35,127,0,0,3667,21,0,15422,4790,86,61529,-4,0,0,0,222754,0
222771,125,-2045,208,-51,-6,-45,13444,-4,-7,375,104,35400,-128,35,127,0,0,3665,10,0,15422,4790,86,61539,-4,0,0,0,222754,0
222781,123,-2043,211,-53,-7,-51,13445,-7,-1,390,128,35401,-132,35,127,0,0,3665,0,0,15422,4790,86,61549,-4,0,0,0,222769,0
222791,128,-2037,211,-54,-7,-50,13447,-1,-1,350,136,35395,-129,35,127,0,0,3665,0,0,15422,4790,86,61559,-4,0,0,0,222769,0
222801,115,-2045,206,-55,-15,-51,13446,1,1,357,136,35401,-123,35,127,0,0,3669,54,0,15422,4790,86,61569,-4,0,0,0,222785,0
222811,122,-2044,210,-58,-5,-50,13452,13,13,432,104,35412,-129,35,127,0,0,3665,-65,0,15422,4790,86,61579,-4,0,0,0,222785,0
222821,110,-2040,207,-62,-15,-43,13451,-5,-1,327,88,35415,-126,35,127,0,0,3662,-43,0,15422,4790,86,61589,-4,0,0,0,222832,0
222831,125,-2032,196,-61,-9,-57,13451,-2,-20,273,104,35402,-123,35,127,0,0,3665,10,0,15422,4790,86,61599,-4,0,0,0,222832,0
222841,131,-2035,195,-62,-12,-50,13454,12,7,314,88,35392,-108,35,127,0,0,3665,0,0,15422,4790,86,61609,-4,0,0,0,222832,0
222851,126,-2047,197,-65,-12,-49,13451,-2,-2,344,80,35392,-115,35,127,0,0,3665,-10,0,15422,4790,86,61619,-4,0,0,0,222832,0
222861,124,-2036,205,-59,-10,-53,13452,-2,-11,319,56,35396,-130,34,127,0,0,3662,-21,0,15422,4790,86,61629,-4,0,0,0,222832,0
222871,135,-2032,201,-56,-8,-49,13451,0,-2,306,88,35403,-131,35,127,0,0,3665,0,0,15422,4790,86,61639,-4,0,0,0,222863,0
222881,133,-2039,201,-61,-14,-48,13451,-3,10,290,64,35409,-138,34,127,0,0,3665,10,0,15422,4790,86,61649,-4,0,0,0,222863,0
222891,120,-2041,194,-56,-12,-40,13451,7,-1,324,56,35416,-141,34,127,0,0,3667,21,0,15422,4790,86,61659,-4,0,0,0,222863,0
222901,145,-2040,198,-55,-5,-45,13452,2,3,341,88,35419,-132,35,127,0,0,3665,0,0,15422,4790,86,61669,-4,0,0,0,222894,0
222911,137,-2037,194,-59,-8,-47,13451,-3,3,323,88,35421,-130,35,127,0,0,3665,0,0,15422,4790,86,61679,-4,0,0,0,222894,0
222921,156,-2038,199,-55,-9,-40,13448,-23,-4,236,120,35415,-126,34,127,0,0,3662,43,0,15422,4790,86,61689,-4,0,0,0,222910,0
222931,161,-2048,194,-53,-5,-39,13452,14,1,290,88,35410,-146,35,127,0,0,3665,0,0,15422,4790,86,61699,-4,0,0,0,222910,0
222941,121,-2047,200,-49,-17,-31,13452,-6,14,318,48,35409,-136,34,127,0,0,3665,0,0,15422,4790,86,61709,-4,0,0,0,223004,0
222951,107,-2043,199,-44,-6,-30,13452,6,-8,325,88,35412,-132,35,127,0,0,3665,0,0,15422,4790,86,61719,-4,0,0,0,223004,0
222961,123,-2035,201,-47,-10,-29,13453,-2,5,323,88,35411,-114,35,127,0,0,3665,0,0,15422,4790,86,61729,-4,0,0,0,223004,0
222971,125,-2038,195,-50,-16,-31,13453,0,-5,333,88,35402,-117,35,127,0,0,3665,-21,0,15422,4790,86,61739,-4,0,0,0,223004,0
222981,122,-2043,195,-49,-12,-32,13453,7,2,329,160,35396,-127,35,127,0,0,3669,54,0,15422,4790,86,61749,-4,0,0,0,223004,0
222991,112,-2044,199,-48,-12,-25,13457,9,10,366,136,35404,-125,35,127,0,0,3667,0,0,15422,4790,86,61759,-4,0,0,0,223019,0
223001,130,-2039,204,-45,-10,-32,13464,3,15,259,96,35403,-119,35,127,0,0,3669,54,0,15422,4790,86,61769,-4,0,0,0,223019,0
223011,128,-2033,200,-46,-11,-36,13475,36,0,327,96,35397,-117,35,127,0,0,3669,0,0,15422,4790,86,61779,-4,0,0,0,223019,0
223021,134,-2029,205,-46,-16,-23,13492,23,31,190,64,35397,-144,35,127,0,0,3667,-10,0,15422,4790,86,61789,-4,0,0,0,223019,0
223031,130,-2034,200,-48,-13,-30,13488,-9,-31,208,64,35399,-153,34,127,0,0,3667,-21,0,15422,4790,86,61799,-4,0,0,0,223019,0
223041,118,-2038,198,-45,-13,-30,13490,-4,-33,194,64,35397,-135,35,127,0,0,3669,0,0,15422,4790,86,61809,-4,0,0,0,223019,0
223051,134,-2034,208,-47,-15,-27,13491,5,4,244,48,35403,-160,35,127,0,0,3671,10,0,15422,4790,86,61819,-4,0,0,0,223050,0
223061,126,-2048,207,-46,-8,-26,13491,0,-2,234,56,35412,-160,35,127,0,0,3671,21,0,15422,4790,86,61829,-4,0,0,0,223050,0
223071,118,-2044,201,-49,-13,-27,13491,-4,2,236,56,35418,-177,35,127,0,0,3671,32,0,15422,4790,86,61839,-4,0,0,0,223066,0
223081,132,-2043,203,-44,-6,-29,13492,5,6,268,80,35417,-143,34,127,0,0,3671,-10,0,15422,4790,86,61849,-4,0,0,0,223066,0
223091,113,-2041,206,-48,-13,-32,13493,11,2,291,64,35394,-142,34,127,0,0,3673,10,0,15422,4790,86,61859,-4,0,0,0,223066,0
223101,112,-2051,205,-52,-13,-29,13495,13,5,339,56,35400,-149,35,127,0,0,3673,-10,0,15422,4790,86,61869,-4,0,0,0,223082,0
223111,101,-2050,210,-52,-11,-30,13496,5,1,290,112,35412,-139,34,127,0,0,3671,0,0,15422,4790,86,61879,-4,0,0,0,223113,0
223121,117,-2042,204,-61,-7,-31,13493,-8,-3,279,96,35425,-146,35,127,0,0,3673,10,0,15422,4790,86,61889,-4,0,0,0,223113,0
223131,128,-2036,204,-56,-4,-37,13496,0,7,314,104,35418,-151,35,127,0,0,3673,-21,0,15422,4790,86,61899,-4,0,0,0,223113,0
223141,112,-2047,200,-63,-12,-31,13496,-1,-1,286,72,35401,-134,35,127,0,0,3673,0,0,15422,4790,86,61909,-4,0,0,0,223113,0
223151,105,-2044,203,-59,-10,-36,13496,9,3,303,96,35395,-161,35,127,0,0,3673,21,0,15422,4790,86,61919,-4,0,0,0,223144,0
223161,134,-2042,198,-66,-10,-44,13496,-2,-2,311,96,35400,-164,35,127,0,0,3676,32,0,15422,4790,86,61929,-4,0,0,0,223144,0
223171,115,-2046,202,-62,-11,-41,13499,9,3,329,88,35401,-161,35,127,0,0,3673,0,0,15422,4790,86,61939,-4,0,0,0,223144,0
223181,121,-2039,197,-65,-9,-44,13498,1,5,329,128,35398,-150,35,127,0,0,3671,-32,0,15422,4790,86,61949,-4,0,0,0,223160,0
223191,128,-2038,202,-68,-5,-52,13497,16,-7,303,128,35389,-139,35,127,0,0,3673,-21,0,15422,4790,86,61959,-4,0,0,0,223191,0
223201,128,-2034,197,-66,-6,-41,13497,-13,5,311,56,35404,-166,35,127,0,0,3673,-10,0,15422,4790,86,61969,-4,0,0,0,223207,0
223211,110,-2045,198,-67,-16,-34,13498,14,-1,298,88,35411,-151,35,127,0,0,3673,10,0,15422,4790,86,61979,-4,0,0,0,223207,0
223221,125,-2042,196,-66,-5,-40,13496,-7,1,275,104,35405,-151,35,127,0,0,3673,32,0,15422,4790,86,61989,-4,0,0,0,223207,0
223231,144,-2045,191,-60,-11,-34,13498,4,3,316,88,35391,-147,35,127,0,0,3673,0,0,15422,4790,86,61999,-4,0,0,0,223207,0
223241,130,-2038,197,-60,-9,-28,13498,-4,3,324,88,35397,-143,35,127,0,0,3676,21,0,15422,4790,86,62009,-4,0,0,0,223238,0
223251,116,-2041,189,-62,-7,-28,13499,3,-3,340,88,35401,-126,35,127,0,0,3673,0,0,15422,4790,86,62019,-4,0,0,0,223238,0
223261,109,-2044,191,-61,-7,-25,13498,6,3,343,88,35403,-115,35,127,0,0,3673,-43,0,15422,4790,86,62029,-4,0,0,0,223254,0
223271,113,-2034,193,-61,-12,-26,13497,-6,0,304,56,35404,-129,35,127,0,0,3673,43,0,15422,4790,86,62039,-4,0,0,0,223254,0
223281,141,-2046,198,-64,-4,-30,13500,1,2,337,88,35404,-151,34,127,0,0,3673,21,0,15422,4790,86,62049,-4,0,0,0,223285,0
223291,135,-2041,199,-58,-7,-24,13499,0,4,353,120,35410,-159,35,127,0,0,3678,32,0,15422,4790,86,62059,-4,0,0,0,223285,0
223301,125,-2038,198,-58,-12,-20,13503,18,0,383,80,35406,-165,35,127,0,0,3676,-10,0,15422,4790,86,62069,-4,0,0,0,223285,0
223311,112,-2048,196,-58,-9,-23,13503,18,3,458,152,35398,-157,35,127,0,0,3680,-10,0,15422,4790,86,62079,-4,0,0,0,223300,0
223321,110,-2047,193,-58,-7,-17,13506,0,10,424,152,35392,-161,35,127,0,0,3678,-21,0,15422,4790,86,62089,-4,0,0,0,223300,0
223331,135,-2051,187,-56,-5,-16,13505,-5,-7,435,160,35400,-165,34,127,0,0,3680,0,0,15422,4790,86,62099,-4,0,0,0,223332,0
223341,126,-2043,191,-52,-9,-9,13507,2,-3,472,144,35398,-155,35,127,0,0,3680,0,0,15422,4790,86,62109,-4,0,0,0,223332,0
223351,134,-2044,190,-55,-11,-4,13509,0,5,467,136,35396,-156,35,127,0,0,3680,0,0,15422,4790,86,62119,-4,0,0,0,223332,0
223361,130,-2041,185,-44,0,3,13510,7,-6,495,160,35390,-158,35,127,0,0,3682,10,0,15422,4790,86,62129,-4,0,0,0,223347,0
223371,131,-2039,185,-45,-10,9,13513,3,3,485,120,35400,-160,35,127,0,0,3684,32,0,15422,4790,86,62139,-4,0,0,0,223347,0
223381,123,-2046,189,-44,-4,15,13518,23,8,564,200,35401,-142,34,127,0,0,3687,32,0,15422,4790,86,62149,-4,0,0,0,223363,0
223391,123,-2041,197,-39,-4,14,13536,46,24,467,128,35391,-128,34,127,0,0,3687,0,0,15422,4790,86,62159,-4,0,0,0,223410,0
223401,114,-2044,201,-41,-6,21,13559,47,32,388,128,35392,-119,35,127,0,0,3687,-10,0,15422,4790,86,62169,-4,0,0,0,223410,0
223411,124,-2043,209,-50,-11,17,13563,-5,-18,421,120,35390,-121,35,127,0,0,3689,10,0,15422,4790,86,62179,-4,0,0,0,223410,0
223421,112,-2032,197,-49,-12,5,13564,-5,-50,447,160,35396,-128,34,127,0,0,3691,32,0,15422,4790,86,62189,-4,0,0,0,223425,0
223431,111,-2035,199,-49,-10,6,13567,13,-2,525,128,35387,-124,34,127,0,0,3695,32,0,15422,4790,86,62199,-4,0,0,0,223425,0
223441,102,-2044,202,-48,-8,6,13572,12,7,567,144,35383,-110,35,127,0,0,3695,0,0,15422,4790,86,62209,-4,0,0,0,223425,0
223451,100,-2044,203,-45,-12,-1,13579,11,6,544,208,35386,-114,34,127,0,0,3697,32,0,15422,4790,86,62219,-4,0,0,0,223425,0
223461,103,-2042,197,-53,-12,-7,13591,35,19,560,184,35397,-125,35,127,0,0,3697,-10,0,15422,4790,86,62229,-4,0,0,0,223457,0
223471,114,-2046,194,-52,-7,2,13618,66,39,351,144,35401,-119,34,127,0,0,3697,0,0,15422,4790,86,62239,-4,0,0,0,223457,0
223481,121,-2045,194,-52,-13,1,13629,1,-2,307,112,35397,-99,34,127,0,0,3700,21,0,15422,4790,86,62249,-4,0,0,0,223457,0
223491,97,-2047,192,-55,-4,-3,13630,11,-54,403,144,35394,-93,35,127,0,0,3702,0,0,15422,4790,86,62259,-4,0,0,0,223488,0
223501,118,-2046,206,-52,-8,-2,13631,4,-24,422,128,35390,-91,35,127,0,0,3700,-21,0,15422,4790,86,62269,-4,0,0,0,223488,0
223511,120,-2038,203,-50,-12,0,13632,9,2,422,128,35390,-83,35,127,0,0,3704,21,0,15422,4790,86,62279,-4,0,0,0,223488,0
223521,104,-2051,188,-51,-14,4,13634,2,0,445,120,35388,-82,34,127,0,0,3702,-10,0,15422,4790,86,62289,-4,0,0,0,223504,0
223531,109,-2044,192,-50,-7,3,13637,11,3,465,160,35386,-71,34,127,0,0,3704,10,0,15422,4790,86,62299,-4,0,0,0,223519,0
223541,116,-2046,196,-41,-9,3,13646,23,3,444,112,35393,-88,35,127,0,0,3708,0,0,15422,4790,86,62309,-4,0,0,0,223519,0
223551,108,-2042,197,-48,-12,5,13659,39,22,418,120,35395,-89,35,127,0,0,3708,32,0,15422,4790,86,62319,-4,0,0,0,223550,0
223561,113,-2043,193,-41,-12,11,13681,49,32,299,96,35387,-83,35,127,0,0,3706,-21,0,15422,4790,86,62329,-4,0,0,0,223566,0
223571,123,-2043,194,-46,-14,5,13683,-22,-26,301,128,35385,-87,35,127,0,0,3711,32,0,15422,4790,86,62339,-4,0,0,0,223566,0
223581,104,-2043,190,-41,-4,11,13687,12,-37,369,112,35389,-79,34,127,0,0,3715,21,0,15422,4790,86,62349,-4,0,0,0,223566,0
223591,102,-2049,199,-34,-1,7,13690,9,-1,487,136,35389,-90,35,127,0,0,3719,32,0,15422,4790,86,62359,-4,0,0,0,223566,0
223601,114,-2044,194,-42,-16,16,13697,9,12,499,160,35389,-72,35,127,0,0,3719,43,0,15422,4790,86,62369,-4,0,0,0,223597,0
223611,92,-2048,195,-43,-11,13,13697,-4,-4,516,200,35393,-73,35,127,0,0,3717,32,0,15422,4790,86,62379,-4,0,0,0,223597,0
223621,102,-2050,195,-38,-9,9,13701,6,-3,518,192,35400,-88,35,127,0,0,3722,32,0,15422,4790,86,62389,-4,0,0,0,223597,0
223631,102,-2040,201,-39,-6,9,13709,24,10,586,216,35415,-75,35,127,0,0,3722,0,0,15422,4790,86,62399,-4,0,0,0,223613,0
223641,99,-2040,201,-42,-15,5,13725,44,27,477,152,35406,-76,35,127,0,0,3724,21,0,15422,4790,86,62409,-4,0,0,0,223628,0
223651,90,-2037,191,-40,-8,9,13746,52,24,405,136,35396,-77,35,127,0,0,3726,32,0,15422,4790,86,62419,-4,0,0,0,223644,0
223661,83,-2047,196,-37,-10,2,13756,14,-11,475,136,35390,-101,35,127,0,0,3726,-10,0,15422,4790,86,62429,-4,0,0,0,223644,0
223671,98,-2038,188,-48,-9,-3,13757,6,-40,510,160,35394,-98,34,127,0,0,3728,0,0,15422,4790,86,62439,-4,0,0,0,223722,0
223681,116,-2042,195,-42,-1,-13,13757,-5,-15,513,144,35385,-65,35,127,0,0,3730,32,0,15422,4790,86,62449,-4,0,0,0,223738,0
223691,87,-2043,195,-43,-5,-9,13761,4,6,531,176,35381,-65,34,127,0,0,3728,0,0,15422,4790,86,62459,-4,0,0,0,223738,0
223701,96,-2046,202,-43,-8,-7,13766,5,5,497,176,35379,-64,34,127,0,0,3733,43,0,15422,4790,86,62469,-4,0,0,0,223738,0
223711,103,-2043,188,-42,-10,-7,13776,25,11,546,192,35387,-82,35,127,0,0,3735,21,0,15422,4790,86,62479,-4,0,0,0,223738,0
223721,118,-2035,204,-36,-8,-6,13815,92,72,324,120,35392,-79,34,127,0,0,3735,43,0,15422,4790,86,62489,-4,0,0,0,223738,0
223731,112,-2046,208,-47,-18,-4,13834,22,26,289,40,35387,-72,34,127,0,0,3737,21,0,15422,4790,86,62499,-4,0,0,0,223738,0
223741,82,-2042,186,-42,-8,-13,13833,2,-82,355,64,35387,-74,35,127,0,0,3737,21,0,15422,4790,86,62509,-4,0,0,0,223738,0
223751,93,-2037,195,-43,-11,-9,13836,12,-26,384,96,35389,-56,35,127,0,0,3739,0,0,15422,4790,86,62519,-4,0,0,0,223738,0
223761,106,-2038,201,-43,-10,-8,13844,19,22,374,64,35391,-50,35,127,0,0,3737,-21,0,15422,4790,86,62529,-4,0,0,0,223738,0
223771,105,-2043,202,-43,-14,-11,13859,26,22,288,80,35391,-53,35,127,0,0,3739,0,0,15422,4790,86,62539,-4,0,0,0,223753,0
223781,97,-2043,195,-45,-8,-4,13867,7,3,245,88,35397,-47,35,127,0,0,3741,21,0,15422,4790,86,62549,-4,0,0,0,223816,0
223791,92,-2041,196,-42,-7,-9,13870,7,-23,351,64,35412,-49,35,127,0,0,3744,-10,0,15422,4790,86,62559,-4,0,0,0,223832,0
223801,97,-2043,200,-43,-3,-14,13868,-3,-13,338,64,35417,-40,35,127,0,0,3741,10,0,15422,4790,86,62569,-4,0,0,0,223832,0
223811,108,-2042,199,-44,-10,-14,13872,1,0,338,56,35412,-40,35,127,0,0,3744,0,0,15422,4790,86,62579,-4,0,0,0,223832,0
223821,83,-2043,194,-46,-11,-15,13874,12,3,383,80,35398,-39,35,127,0,0,3744,-32,0,15422,4790,86,62589,-4,0,0,0,223832,0
223831,88,-2040,195,-48,-1,-28,13872,1,3,386,152,35398,-42,35,127,0,0,3744,-32,0,15422,4790,86,62599,-4,0,0,0,223847,0
223841,81,-2043,200,-46,-3,-31,13874,-3,1,370,152,35404,-52,35,127,0,0,3746,0,0,15422,4790,86,62609,-4,0,0,0,223847,0
223851,102,-2039,202,-51,-14,-35,13875,-2,3,409,112,35407,-33,35,127,0,0,3746,-10,0,15422,4790,86,62619,-4,0,0,0,223847,0
223861,76,-2043,194,-53,-8,-31,13876,-2,0,425,144,35400,-30,34,127,0,0,3750,21,0,15422,4790,86,62629,-4,0,0,0,223847,0
223871,76,-2045,196,-51,-4,-36,13878,4,-4,435,176,35406,-26,34,127,0,0,3748,10,0,15422,4790,86,62639,-4,0,0,0,223847,0
223881,89,-2041,196,-49,-8,-37,13878,-5,3,429,136,35417,-29,35,127,0,0,3746,-21,0,15422,4790,86,62649,-4,0,0,0,223863,0
223891,96,-2044,196,-50,-3,-39,13880,13,-5,453,112,35431,-24,35,127,0,0,3748,-10,0,15422,4790,86,62659,-4,0,0,0,223878,0
223901,87,-2045,200,-48,-10,-43,13879,-6,5,466,88,35425,-10,35,127,0,0,3748,-10,0,15422,4790,86,62669,-4,0,0,0,223894,0
223911,82,-2045,195,-56,-14,-43,13881,4,-8,447,128,35416,-32,35,127,0,0,3748,0,0,15422,4790,86,62679,-4,0,0,0,223894,0
223921,87,-2047,200,-58,-8,-46,13880,-9,4,466,128,35402,-33,34,127,0,0,3748,0,0,15422,4790,86,62689,-4,0,0,0,223910,0
223931,91,-2046,191,-52,-11,-47,13880,-2,-3,458,88,35413,-11,35,127,0,0,3748,0,0,15422,4790,86,62699,-4,0,0,0,223910,0
223941,101,-2039,198,-56,-9,-53,13881,0,5,475,152,35416,-8,35,127,0,0,3748,-10,0,15422,4790,86,62709,-4,0,0,0,223941,0
223951,107,-2041,193,-61,-10,-50,13881,2,3,445,120,35421,10,35,127,0,0,3748,10,0,15422,4790,86,62719,-4,0,0,0,223941,0
223961,104,-2038,191,-60,-7,-56,13880,-7,0,479,104,35415,-36,35,127,0,0,3748,-10,0,15422,4790,86,62729,-4,0,0,0,223941,0
223971,87,-2039,193,-58,-18,-53,13879,-7,-1,405,136,35410,-26,35,127,0,0,3746,0,0,15422,4790,86,62739,-4,0,0,0,223957,0
223981,91,-2034,197,-60,-10,-53,13881,-9,-4,395,120,35406,-27,35,127,0,0,3746,-10,0,15422,4790,86,62749,-4,0,0,0,223972,0
223991,95,-2040,189,-59,-13,-52,13880,-7,7,409,120,35401,-25,35,127,0,0,3746,-10,0,15422,4790,86,62759,-4,0,0,0,223972,0
224001,92,-2040,186,-53,-9,-47,13880,-3,-1,382,64,35400,-23,35,127,0,0,3748,21,0,15422,4790,86,62769,-4,0,0,0,223972,0
224011,76,-2044,191,-57,-7,-47,13881,10,5,434,120,35404,-29,35,127,0,0,3748,-10,0,15422,4790,86,62779,-4,0,0,0,224003,0
224021,99,-2044,186,-54,-11,-50,13878,-16,0,414,88,35403,-14,35,127,0,0,3748,10,0,15422,4790,86,62789,-4,0,0,0,224003,0
224031,88,-2044,193,-49,-9,-48,13883,6,-2,439,88,35398,-14,34,127,0,0,3748,-10,0,15422,4790,86,62799,-4,0,0,0,224003,0
224041,92,-2045,189,-47,-8,-42,13880,4,3,443,120,35404,-18,34,127,0,0,3746,-32,0,15422,4790,86,62809,-4,0,0,0,224019,0
224051,93,-2045,190,-53,-3,-47,13881,-5,2,426,120,35403,-6,35,127,0,0,3746,-32,0,15422,4790,86,62819,-4,0,0,0,224097,0
224061,87,-2042,189,-42,-10,-39,13882,5,2,424,120,35416,-31,35,127,0,0,3748,0,0,15422,4790,86,62829,-4,0,0,0,224097,0
224071,106,-2045,193,-39,-14,-42,13882,-7,0,449,112,35407,-28,35,127,0,0,3748,10,0,15422,4790,86,62839,-4,0,0,0,224097,0
224081,89,-2042,196,-41,-16,-42,13882,0,0,447,88,35400,-30,35,127,0,0,3748,0,0,15422,4790,86,62849,-4,0,0,0,224097,0
224091,84,-2043,190,-40,-9,-39,13881,0,-6,434,120,35392,-40,34,127,0,0,3746,0,0,15422,4790,86,62859,-4,0,0,0,224097,0
224101,73,-2039,193,-38,-7,-47,13880,-11,-4,417,128,35394,-29,35,127,0,0,3746,0,0,15422,4790,86,62869,-4,0,0,0,224113,0
224111,97,-2040,201,-43,-13,-46,13881,0,2,393,88,35392,-32,35,127,0,0,3746,0,0,15422,4790,86,62879,-4,0,0,0,224113,0
224121,99,-2038,191,-43,-11,-48,13881,0,2,397,136,35390,-24,35,127,0,0,3748,21,0,15422,4790,86,62889,-4,0,0,0,224113,0
224131,87,-2051,199,-37,-8,-41,13881,-4,4,404,88,35397,-49,35,127,0,0,3748,21,0,15422,4790,86,62899,-4,0,0,0,224113,0
224141,98,-2048,195,-48,-14,-45,13882,11,2,445,120,35411,-39,34,127,0,0,3748,0,0,15422,4790,86,62909,-4,0,0,0,224113,0
224151,96,-2043,189,-43,-11,-45,13881,-1,0,425,128,35426,-15,35,127,0,0,3748,10,0,15422,4790,86,62919,-4,0,0,0,224144,0
224161,91,-2036,197,-40,-16,-47,13882,1,1,410,88,35429,-8,35,127,0,0,3746,0,0,15422,4790,86,62929,-4,0,0,0,224160,0
224171,103,-2038,191,-42,-11,-44,13880,-1,0,405,88,35418,-19,35,127,0,0,3748,10,0,15422,4790,86,62939,-4,0,0,0,224160,0
224181,95,-2042,198,-50,-15,-47,13880,-7,-1,393,64,35404,-24,35,127,0,0,3746,0,0,15422,4790,86,62949,-4,0,0,0,224160,0
224191,89,-2043,195,-44,-7,-39,13880,8,0,390,104,35394,-12,35,127,0,0,3746,10,0,15422,4790,86,62959,-4,0,0,0,224191,0
224201,86,-2050,189,-45,-7,-47,13881,-6,3,426,88,35386,-5,35,127,0,0,3746,-32,0,15422,4790,86,62969,-4,0,0,0,224191,0
224211,75,-2045,195,-42,-9,-44,13880,-7,-5,389,104,35389,-18,35,127,0,0,3746,10,0,15422,4790,86,62979,-4,0,0,0,224191,0
224221,91,-2049,192,-39,-9,-51,13880,-5,-3,382,104,35395,-25,35,127,0,0,3746,0,0,15422,4790,86,62989,-4,0,0,0,224191,0
224231,93,-2044,192,-42,-17,-47,13882,9,4,405,88,35400,-29,34,127,0,0,3748,21,0,15422,4790,86,62999,-4,0,0,0,224222,0
224241,103,-2048,194,-38,-5,-44,13882,-1,2,460,120,35398,-25,34,127,0,0,3746,-21,0,15422,4790,86,63009,-4,0,0,0,224222,0
224251,99,-2043,187,-41,-5,-49,13881,-1,-6,427,88,35400,-38,35,127,0,0,3748,-10,0,15422,4790,86,63019,-4,0,0,0,224222,0
224261,122,-2044,192,-34,-1,-48,13881,-2,4,385,136,35402,-45,35,127,0,0,3746,0,0,15422,4790,86,63029,-4,0,0,0,224253,0
224271,125,-2041,204,-40,-7,-46,13881,1,3,351,96,35406,-40,35,127,0,0,3748,43,0,15422,4790,86,63039,-4,0,0,0,224269,0
224281,107,-2037,198,-44,-16,-45,13882,-1,3,399,120,35398,-30,35,127,0,0,3748,43,0,15422,4790,86,63049,-4,0,0,0,224269,0
224291,95,-2021,189,-39,-6,-44,13882,-5,3,438,88,35390,-15,35,127,0,0,3746,-32,0,15422,4790,86,63059,-4,0,0,0,224269,0
224301,111,-2031,180,-40,-14,-52,13882,12,-3,410,88,35392,-29,35,127,0,0,3748,21,0,15422,4790,86,63069,-4,0,0,0,224285,0
224311,125,-2035,207,-38,-16,-53,13880,-3,1,416,128,35402,-22,35,127,0,0,3746,-10,0,15422,4790,86,63079,-4,0,0,0,224300,0
224321,226,-1939,162,-78,12,-253,13882,8,0,382,136,35403,-17,35,127,0,0,3746,-32,0,15422,4790,86,63089,-4,0,0,0,224300,0
224331,757,-1943,50,-145,-40,-510,13880,3,1,361,32,35401,-19,35,127,0,0,3739,-76,0,15422,4790,86,63099,-4,0,0,0,224331,0
224341,-348,-1924,271,-189,-114,-260,13870,-41,-14,70,-112,35394,-18,35,127,0,0,3722,-219,0,15422,4790,86,63109,-4,0,0,0,224331,0
224351,-90,-2203,432,-118,-47,-120,13830,-83,-81,-262,-120,35397,-54,35,127,0,0,3717,-10,0,15422,4790,86,63119,-4,0,0,0,224331,0
224361,420,-1994,31,-106,36,-309,13803,-15,-40,-130,-48,35400,-49,35,127,0,0,3715,-65,0,15422,4790,86,63129,-4,0,0,0,224347,0
224371,891,-1940,-17,-150,72,-626,13808,-5,105,-279,-168,35390,-46,35,127,0,0,3704,-175,0,15422,4790,86,63139,-4,0,0,0,224363,0
224381,420,-1961,193,-187,-70,-514,13783,-72,-3,-569,-320,35402,-48,35,127,0,0,3687,-164,0,15422,4790,86,63149,-4,0,0,0,224363,0
224391,97,-2038,186,-179,-95,-342,13706,-195,-154,-427,-328,35400,-50,35,127,0,0,3673,-109,0,15422,4790,86,63159,-4,0,0,0,224363,0
224401,344,-2000,15,-93,33,-440,13616,-182,-129,-317,-168,35406,-64,35,127,0,0,3667,-76,0,15422,4790,86,63169,-4,0,0,0,224503,0
224411,606,-2005,57,-116,44,-518,13553,-135,39,-319,-200,35398,-75,35,127,0,0,3654,-131,0,15422,4790,86,63179,-4,0,0,0,224519,0
224421,591,-1985,152,-154,-48,-556,13498,-120,65,-393,-232,35389,-88,35,127,0,0,3640,-131,0,15422,4790,86,63189,-4,0,0,0,224519,0
224431,340,-2051,125,-173,-84,-475,13444,-116,15,-550,-288,35387,-124,34,127,0,0,3621,-186,0,15422,4790,86,63199,-4,0,0,0,224519,0
224441,252,-2070,108,-121,-24,-453,13372,-156,-28,-506,-248,35381,-131,35,127,0,0,3612,-120,0,15422,4790,86,63209,-4,0,0,0,224519,0
224451,354,-2025,76,-118,0,-505,13296,-171,-45,-411,-248,35381,-127,35,127,0,0,3601,-87,0,15422,4790,86,63219,-4,0,0,0,224535,0
224461,447,-2013,85,-128,-11,-593,13235,-132,17,-468,-232,35382,-107,35,127,0,0,3588,-142,0,15422,4790,86,63229,-4,0,0,0,224535,0
224471,350,-2005,114,-146,-41,-595,13175,-151,30,-533,-288,35381,-95,35,127,0,0,3570,-164,0,15422,4790,86,63239,-4,0,0,0,224535,0
224481,263,-2071,129,-145,-20,-620,13095,-188,-42,-441,-312,35387,-81,34,127,0,0,3555,-197,0,15422,4790,86,63249,-4,0,0,0,224535,0
224491,314,-2073,135,-135,2,-646,13025,-153,-24,-530,-320,35383,-51,35,127,0,0,3539,-153,0,15422,4790,86,63259,-4,0,0,0,224535,0
224501,410,-2010,172,-151,-1,-714,12950,-178,9,-504,-328,35377,-46,34,127,0,0,3522,-186,0,15422,4790,86,63269,-4,0,0,0,224535,0
224511,375,-2009,179,-185,-33,-726,12865,-176,-32,-493,-376,35378,-52,34,127,0,0,3504,-186,0,15422,4790,86,63279,-4,0,0,0,224535,0
224521,303,-2061,192,-209,-54,-732,12779,-201,-16,-511,-392,35382,-77,35,127,0,0,3487,-197,0,15422,4790,86,63289,-4,0,0,0,224535,0
224531,261,-2082,164,-214,-37,-740,12687,-202,-19,-509,-384,35386,-86,34,127,0,0,3469,-164,0,15422,4790,86,63299,-4,0,0,0,224535,0
224541,273,-2035,141,-227,-35,-759,12598,-202,-2,-540,-376,35382,-100,34,127,0,0,3449,-164,0,15422,4790,86,63309,-4,0,0,0,224535,0
224551,304,-2017,148,-255,-51,-785,12508,-205,8,-506,-344,35389,-119,35,127,0,0,3432,-186,0,15422,4790,86,63319,-4,0,0,0,224535,0
224561,206,-2055,147,-313,-70,-815,12426,-173,8,-602,-400,35400,-109,35,127,0,0,3412,-208,0,15422,4790,86,63329,-4,0,0,0,224550,0
224571,125,-2096,191,-349,-98,-827,12326,-227,-5,-507,-376,35412,-81,35,127,0,0,3396,-175,0,15422,4790,86,63339,-4,0,0,0,224550,0
224581,40,-2256,213,-364,-67,-873,12239,-183,-14,-508,-384,35415,-51,35,127,0,0,3381,-164,0,15422,4790,86,63349,-4,0,0,0,224581,0
224591,110,-2200,343,-346,-136,-902,12146,-210,11,-461,-296,35409,-31,35,127,0,0,3370,-65,0,15422,4790,86,63359,-4,0,0,0,224597,0
224601,117,-2021,321,-391,-467,-1009,12073,-143,24,-454,-232,35406,-53,35,127,0,0,3366,-43,0,15422,4790,86,63369,-4,0,0,0,224597,0
224611,102,-2224,287,-426,-303,-1054,12028,-86,96,-490,-224,35395,-75,35,127,0,0,3353,-120,0,15422,4790,86,63379,-4,0,0,0,224597,0
224621,31,-2049,210,-569,-156,-1253,11982,-82,55,-529,-248,35386,-85,35,127,0,0,3342,-131,0,15422,4790,86,63389,-4,0,0,0,224597,0
224631,52,-2110,155,-619,-107,-1389,11927,-144,-23,-567,-280,35392,-86,35,127,0,0,3326,-164,0,15422,4790,86,63399,-4,0,0,0,224613,0
224641,88,-2129,226,-652,-144,-1566,11863,-166,-34,-651,-392,35403,-106,35,127,0,0,3304,-197,0,15422,4790,86,63409,-4,0,0,0,224613,0
224651,51,-2113,249,-710,-182,-1672,11775,-228,-66,-626,-448,35406,-120,35,127,0,0,3280,-219,0,15422,4790,86,63419,-4,0,0,0,224628,0
224661,-68,-2152,246,-777,-194,-1879,11670,-229,-90,-596,-504,35408,-112,35,127,0,0,3258,-241,0,15422,4790,86,63429,-4,0,0,0,224644,0
224671,-32,-2227,208,-835,-182,-2035,11555,-268,-49,-588,-552,35395,-79,35,127,0,0,3232,-296,0,15422,4790,86,63439,-4,0,0,0,224659,0
224681,-95,-2273,275,-874,-196,-2237,11427,-278,-51,-569,-592,35397,-46,35,127,0,0,3205,-230,0,15422,4790,86,63449,-4,0,0,0,224675,0
224691,-45,-2274,288,-915,-229,-2374,11287,-304,-44,-514,-600,35392,-50,35,127,0,0,3179,-230,0,15422,4790,86,63459,-4,0,-26,0,224675,0
224701,-49,-2301,281,-935,-319,-2553,11150,-299,-22,-519,-544,35388,-51,34,127,0,0,3155,-241,0,15422,4790,86,63469,-4,0,-26,0,224675,0
224711,29,-2319,206,-961,-354,-2694,11025,-261,30,-584,-488,35386,-80,34,127,0,0,3131,-241,0,15422,4790,86,63479,-4,0,-26,0,224691,0
224721,53,-2343,178,-962,-407,-2895,10903,-259,27,-502,-480,35388,-93,35,127,0,0,3113,-197,0,15422,4790,86,63489,-4,0,-26,0,224691,0
224731,52,-2356,143,-954,-457,-2982,10793,-242,33,-559,-432,35392,-98,34,127,0,0,3093,-164,0,15422,4790,86,63499,-4,0,-26,0,224738,0
224741,53,-2380,115,-934,-508,-3104,10692,-203,30,-528,-384,35395,-78,35,127,0,0,3080,-142,0,15422,4790,86,63509,-4,0,-26,0,224738,0
224751,174,-2423,116,-917,-588,-3137,10615,-160,66,-573,-312,35387,-65,35,127,0,0,3078,10,0,15422,4790,86,63519,-4,0,-26,0,224753,0
224761,431,-2499,87,-841,-632,-3235,10549,-138,65,-394,-168,35383,-55,35,127,0,0,3076,0,0,15422,4790,86,63529,-4,0,-26,0,224753,0
224771,294,-2434,131,-781,-636,-3275,10529,3,99,-429,-128,35388,-74,35,127,0,0,3078,54,0,15422,4790,86,63539,-4,0,-25,0,224753,0
224781,315,-2363,102,-839,-744,-3124,10540,33,158,-357,32,35397,-84,34,127,0,0,3100,263,0,15422,4790,86,63549,-4,0,-25,0,224753,0
224791,323,-2353,131,-836,-767,-3114,10577,116,116,189,216,35403,-93,35,127,0,0,3131,340,0,15422,4790,86,63559,-4,0,-25,0,224769,0
224801,555,-2248,48,-776,-878,-3039,10671,257,159,398,432,35400,-83,35,127,0,0,3175,461,0,15422,4790,86,63569,-4,0,-24,0,224784,0
224811,579,-2155,73,-751,-954,-2960,10821,355,213,394,656,35403,-78,35,127,0,0,3223,516,0,15422,4790,86,63579,-4,0,-23,0,224784,0
224821,690,-2021,91,-701,-1068,-2795,10999,420,165,445,912,35406,-70,35,127,0,0,3282,571,0,15422,4790,86,63589,-4,0,-23,0,224800,0
224831,764,-1959,64,-654,-1074,-2672,11208,491,108,486,1136,35399,-71,35,127,0,0,3339,604,0,15422,4790,86,63599,-4,0,-22,0,224800,0
224841,657,-1801,-26,-602,-926,-2345,11441,520,109,514,1104,35393,-83,35,127,0,0,3379,384,0,15422,4790,86,63609,-4,0,-21,0,224847,0
224851,353,-1864,43,-517,-916,-2043,11681,518,69,366,928,35396,-91,35,127,0,0,3396,142,0,15422,4790,86,63619,-4,0,-20,0,224847,0
224861,306,-1754,185,-411,-865,-1449,11893,426,-51,265,512,35402,-92,35,127,0,0,3399,21,0,15422,4790,86,63629,-4,0,-19,0,224847,0
224871,335,-1671,224,-393,-885,-970,12047,298,-165,176,192,35407,-105,34,127,0,0,3396,-21,0,15422,4790,86,63639,-4,0,-18,0,224847,0
224881,200,-1546,166,-330,-905,-347,12117,83,-271,-18,0,35392,-106,34,127,0,0,3396,-21,0,15422,4790,86,63649,-4,0,-17,0,224863,0
224891,194,-1512,76,-232,-917,30,12109,-36,-328,48,48,35397,-104,35,127,0,0,3396,0,0,15422,4790,86,63659,-4,0,-16,0,224878,0
224901,243,-1513,28,-48,-800,631,12103,5,-137,126,16,35408,-85,35,127,0,0,3396,-32,0,15422,4790,86,63669,-4,0,-14,0,224894,0
224911,209,-1487,32,71,-661,1041,12105,2,24,90,24,35414,-75,35,127,0,0,3399,0,0,15422,4790,86,63679,-4,0,-13,0,224894,0
224921,179,-1458,41,253,-402,1589,12102,-11,0,77,24,35408,-83,35,127,0,0,3396,21,0,15422,4790,86,63689,-4,0,-10,0,224909,0
224931,185,-1463,36,368,-204,1945,12105,11,2,96,16,35408,-66,35,127,0,0,3396,-21,0,15422,4790,86,63699,-4,0,-9,0,224925,0
224941,198,-1513,20,563,139,2473,12104,8,-2,110,16,35412,-89,35,127,0,0,3399,-10,0,15422,4790,86,63709,-4,0,-6,0,224925,0
224951,197,-1523,19,678,381,2814,12107,11,4,141,40,35414,-78,35,127,0,0,3401,21,0,15422,4790,86,63719,-4,0,-5,0,224925,0
224961,172,-1549,13,851,693,3364,12107,-8,8,145,40,35417,-74,35,127,0,0,3401,65,0,15422,4790,86,63729,-4,0,-2,0,224956,0
224971,233,-1566,36,961,907,3714,12118,40,16,297,112,35421,-82,35,127,0,0,3416,142,0,15422,4790,86,63739,-4,0,0,0,224956,0
224981,206,-1627,46,1132,1186,4189,12160,115,79,429,288,35426,-78,35,127,0,0,3436,197,0,15422,4790,86,63749,-4,0,2,0,224956,0
224991,225,-1674,51,1232,1370,4458,12223,162,103,570,392,35421,-91,35,127,0,0,3465,263,0,15422,4790,86,63759,-4,0,4,0,224988,0
225001,265,-1758,55,1373,1608,4856,12331,271,130,538,504,35414,-76,34,127,0,0,3502,329,0,15422,4790,86,63769,-4,0,7,0,224988,0
225011,263,-1808,65,1454,1758,5109,12469,302,142,544,680,35397,-52,34,127,0,0,3539,395,0,15422,4790,86,63779,-4,0,10,0,224988,0
225021,281,-1892,75,1570,1960,5420,12633,361,100,461,744,35393,-47,35,127,0,0,3583,439,0,15422,4790,86,63789,-4,0,13,0,225003,0
225031,266,-1929,81,1639,2049,5575,12810,399,77,514,856,35400,-43,34,127,0,0,3629,428,0,15422,4790,86,63799,-4,0,15,0,225019,0
225041,307,-1977,97,1699,2115,5762,13003,433,61,503,968,35412,-66,34,127,0,0,3676,428,0,15422,4790,86,63809,-4,0,19,0,225019,0
225051,341,-2036,95,1704,2090,5856,13211,456,63,496,1072,35409,-64,34,127,0,0,3722,461,0,15422,4790,86,63819,-4,0,21,0,225034,0
225061,401,-2149,140,1682,1991,5970,13429,490,46,502,1136,35398,-59,35,127,0,0,3763,439,0,15422,4790,86,63829,-4,0,24,0,225081,0
225071,400,-2207,183,1650,1869,6037,13652,479,27,463,1072,35399,-66,35,127,0,0,3801,384,0,15422,4790,86,63839,-4,0,27,0,225081,0
225081,396,-2287,205,1579,1620,6100,13863,462,-17,464,1056,35405,-73,35,127,0,0,3838,417,0,15422,4790,86,63849,-4,0,30,0,225097,0
225091,388,-2339,223,1531,1410,6139,14073,457,-32,499,1056,35404,-66,35,127,0,0,3875,384,0,15422,4790,86,63859,-4,0,32,0,225097,0
225101,357,-2406,211,1468,1082,6150,14280,463,-10,505,1032,35392,-60,35,127,0,0,3917,428,0,15422,4790,86,63869,-4,0,35,0,225097,0
225111,348,-2469,183,1427,881,6110,14490,461,3,503,1040,35386,-77,35,127,0,0,3959,417,0,15422,4790,86,63879,-4,0,37,0,225097,0
225121,296,-2503,194,1396,650,5953,14707,488,14,553,1024,35391,-97,34,127,0,0,3996,362,0,15422,4790,86,63889,-4,0,40,0,225097,0
225131,279,-2481,179,1359,539,5805,14925,473,24,440,968,35401,-53,35,127,0,0,4034,351,0,15422,4790,86,63899,-4,0,42,0,225112,0
225141,239,-2416,145,1313,431,5547,15132,445,-21,448,888,35395,-39,35,127,0,0,4064,307,0,15422,4790,86,63909,-4,0,44,0,225191,0
225151,238,-2360,106,1283,378,5368,15325,412,-48,437,832,35400,-49,35,127,0,0,4095,296,0,15422,4790,86,63919,-4,0,46,-4,225191,0
225161,222,-2268,77,1256,311,5097,15511,397,-44,468,800,35397,-79,35,127,0,0,4128,307,0,15422,4790,86,63929,-4,0,48,-4,225206,0
225171,179,-2194,93,1233,261,4878,15690,391,-26,454,768,35397,-76,34,127,0,0,4168,417,0,15422,4790,86,63939,-4,0,49,-4,225206,0
225181,166,-2143,98,1193,156,4489,15865,388,-12,488,784,35389,-60,34,127,0,0,4203,395,0,15422,4790,86,63949,-4,0,51,-4,225206,0
225191,180,-2121,93,1154,107,4184,16044,409,2,547,856,35385,-88,35,127,0,0,4242,351,0,15422,4790,86,63959,-4,0,52,-4,225206,0
225201,182,-2101,108,1090,54,3673,16211,410,21,552,856,35386,-92,34,127,0,0,4280,395,0,15422,4790,86,63969,-4,0,53,-4,225206,0
225211,171,-2071,123,1038,34,3297,16396,404,8,557,872,35387,-83,35,127,0,0,4313,362,0,15422,4790,86,63979,-4,0,54,-4,225206,0
225221,155,-2076,126,941,16,2707,16581,405,0,525,880,35385,-64,35,127,0,0,4343,296,0,15422,4790,86,63989,-4,0,54,-4,225206,0
225231,213,-2111,140,850,22,2268,16759,379,-13,531,712,35382,-78,35,127,0,0,4368,230,0,15422,4790,86,63999,-4,0,55,-4,225206,0
225241,217,-2107,158,713,115,1545,16918,334,-54,504,608,35393,-94,35,127,0,0,4376,120,0,15422,4790,86,64009,-4,0,55,-4,225222,0
225251,132,-2086,166,592,159,1149,17054,285,-86,403,288,35400,-78,35,127,0,0,4376,-21,0,15422,4790,86,64019,-4,0,56,-4,225237,0
225261,175,-2071,161,409,323,483,17136,143,-150,305,152,35402,-42,35,127,0,0,4372,-21,0,15422,4790,86,64029,-4,0,56,-5,225237,0
225271,127,-2008,108,297,431,55,17160,7,-225,179,24,35397,-37,35,127,0,0,4363,-98,0,15422,4790,86,64039,-4,0,55,-5,225253,0
225281,194,-1984,57,159,689,-606,17136,-25,-193,147,56,35396,-60,35,127,0,0,4361,-76,0,15422,4790,86,64049,-4,0,55,-6,225253,0
225291,209,-1997,38,61,881,-946,17136,-17,-25,-103,-24,35402,-79,35,127,0,0,4357,-10,0,15422,4790,86,64059,-4,0,55,-6,225284,0
225301,-706,-5044,-245,-404,438,-866,17128,-15,14,-23,128,35408,-65,35,127,0,0,4409,626,0,15422,4790,86,64069,-4,0,54,-7,225284,0
225311,-407,-2837,791,-112,1341,-1167,17206,305,137,1169,1416,35397,-69,34,127,0,0,4546,1351,0,15422,4790,86,64079,-4,0,54,-7,225284,0
225321,-19,-1415,752,126,995,-1558,17470,670,542,1095,1872,35387,-62,34,127,0,0,4623,714,0,15422,4790,86,64089,-4,0,53,-8,225316,0
225331,54,-1895,595,-69,736,-1228,17814,754,519,702,1864,35387,-65,35,127,0,0,4686,604,0,15422,4790,86,64099,-4,0,52,-8,225316,0
225341,-731,-2141,907,324,217,-658,18163,760,142,629,1896,35386,-44,34,127,0,0,4761,791,0,15422,4790,86,64109,-4,0,51,-8,225316,0
225351,-667,-2242,630,394,-81,-615,18518,806,26,807,2160,35382,-38,34,127,0,0,4855,966,0,15422,4790,86,64119,-4,0,50,-9,225331,0
225361,-384,-2049,312,347,-182,-736,18926,933,118,783,2392,35381,-50,35,127,0,0,4950,933,0,15422,4790,86,64129,-4,0,49,-9,225331,0
225371,-242,-2324,143,367,-44,-713,19374,1010,181,739,2472,35380,-59,34,127,0,0,5042,878,0,15422,4790,86,64139,-4,0,49,-9,225362,0
225381,-340,-1650,-174,311,-143,-690,19834,997,109,600,2400,35388,-23,35,127,0,0,5117,780,0,15422,4790,86,64149,-4,0,48,-10,225362,0
225391,-1081,-1820,-12,205,-227,-761,20273,945,-25,586,2248,35382,-35,34,127,0,0,5189,736,0,15422,4790,86,64159,-4,0,47,-10,225362,0
225401,-883,-1896,-233,104,-20,-1211,20688,908,-95,638,2192,35383,-25,34,127,0,0,5258,670,0,15422,4790,86,64169,-4,0,46,-10,225394,0
225411,-563,-1907,-89,83,0,-1344,21085,858,-72,553,1984,35393,-55,34,127,0,0,5312,538,0,15422,4790,86,64179,-4,0,45,-11,225394,0
225421,-462,-2167,46,152,-73,-1484,21450,775,-92,495,1752,35390,-60,35,127,0,0,5354,384,0,15422,4790,86,64189,-4,0,44,-11,225409,0
225431,-486,-2376,266,205,-91,-1619,21768,672,-157,499,1496,35387,-65,35,127,0,0,5389,318,0,15422,4790,86,64199,-4,0,44,-12,225409,0
225441,-185,-2338,499,293,-87,-1892,22040,565,-175,448,1136,35375,-55,35,127,0,0,5400,131,0,15422,4790,86,64209,-4,0,42,-12,225425,0
225451,-161,-1939,505,185,-157,-1826,22258,432,-198,385,688,35377,-79,35,127,0,0,5396,-21,0,15422,4790,86,64219,-4,0,42,-12,225441,0
225461,-135,-2152,461,87,8,-1896,22412,313,-223,394,360,35391,-75,35,127,0,0,5389,-76,0,15422,4790,86,64229,-4,0,41,-13,225456,0
225471,-320,-2042,375,114,63,-2006,22501,126,-232,127,-32,35398,-69,35,127,0,0,5361,-285,0,15422,4790,86,64239,-4,0,40,-13,225456,0
225481,136,-2243,329,85,-30,-2023,22438,-200,-420,-255,-240,35392,-56,34,127,0,0,5332,-274,0,15422,4790,86,64249,-4,0,39,-13,225456,0
225491,65,-2008,475,131,-29,-2068,22337,-227,-375,-378,-488,35390,-52,34,127,0,0,5280,-505,0,15422,4790,86,64259,-4,0,38,-14,225472,0
225501,19,-2016,472,43,-123,-1797,22195,-347,-134,-505,-752,35396,-60,35,127,0,0,5229,-483,0,15422,4790,86,64269,-4,0,38,-14,225487,0
225511,-266,-1990,418,73,-114,-1724,22012,-417,-158,-471,-976,35404,-68,34,127,0,0,5181,-439,0,15422,4790,86,64279,-4,0,38,-14,225503,0
225521,-360,-1968,209,95,-37,-1648,21811,-445,-113,-419,-1000,35392,-74,34,127,0,0,5137,-472,0,15422,4790,86,64289,-4,0,38,-14,225503,0
225531,-319,-2024,234,139,-16,-1595,21595,-480,-60,-424,-1008,35385,-81,35,127,0,0,5091,-450,0,15422,4790,86,64299,-4,0,38,-14,225519,0
225541,-282,-2012,267,190,-34,-1575,21375,-492,-42,-437,-1032,35383,-79,34,127,0,0,5049,-439,0,15422,4790,86,64309,-4,0,38,-14,225519,0
225551,-294,-2013,250,201,-36,-1587,21150,-493,-23,-440,-1048,35389,-72,35,127,0,0,5005,-406,0,15422,4790,86,64319,-4,0,38,-14,225534,0
225561,-381,-1928,325,220,-27,-1572,20930,-479,0,-451,-1064,35385,-70,35,127,0,0,4959,-450,0,15422,4790,86,64329,-4,0,38,-14,225550,0
225571,-391,-1912,400,228,-33,-1572,20700,-506,-3,-457,-1088,35379,-70,35,127,0,0,4919,-406,0,15422,4790,86,64339,-4,0,38,-14,225566,0
225581,-336,-1880,491,204,-50,-1550,20465,-522,-23,-412,-1008,35382,-83,35,127,0,0,4873,-417,0,15422,4790,86,64349,-4,0,38,-14,225566,0
225591,-242,-1933,565,158,-49,-1588,20228,-523,-22,-358,-1016,35387,-80,34,127,0,0,4836,-395,0,15422,4790,86,64359,-4,0,38,-14,225566,0
225601,-260,-1948,649,62,-50,-1606,19991,-505,-9,-318,-1032,35396,-73,35,127,0,0,4794,-417,0,15422,4790,86,64369,-4,0,38,-14,225612,0
225611,-233,-1980,691,6,-48,-1607,19759,-504,24,-361,-968,35393,-75,35,127,0,0,4750,-428,0,15422,4790,86,64379,-4,0,38,-14,225612,0
225621,-145,-1968,595,-48,-48,-1588,19533,-494,20,-354,-1000,35391,-88,35,127,0,0,4708,-406,0,15422,4790,86,64389,-4,0,38,-14,225612,0
225631,-113,-1984,530,-81,-50,-1569,19309,-498,20,-380,-1008,35388,-96,35,127,0,0,4664,-439,0,15422,4790,86,64399,-4,0,38,-14,225612,0
225641,-70,-2020,438,-88,-73,-1549,19088,-504,7,-436,-1008,35382,-74,35,127,0,0,4623,-450,0,15422,4790,86,64409,-4,0,38,-14,225612,0
225651,-102,-2024,413,-97,-80,-1522,18862,-496,-10,-416,-1008,35387,-61,35,127,0,0,4583,-428,0,15422,4790,86,64419,-4,0,38,-14,225659,0
225661,-74,-1983,369,-119,-47,-1519,18641,-481,0,-397,-1008,35395,-68,35,127,0,0,4539,-439,0,15422,4790,86,64429,-4,0,38,-14,225659,0
225671,-124,-2008,368,-126,-62,-1451,18416,-494,-1,-418,-1048,35400,-83,35,127,0,0,4497,-417,0,15422,4790,86,64439,-4,0,38,-14,225659,0
225681,-88,-2041,356,-105,-67,-1412,18187,-507,-4,-407,-984,35400,-79,35,127,0,0,4453,-384,0,15422,4790,86,64449,-4,0,38,-14,225675,0
225691,-45,-2017,380,-106,-42,-1425,17962,-502,-5,-415,-1088,35389,-77,35,127,0,0,4412,-428,0,15422,4790,86,64459,-4,0,38,-14,225675,0
225701,20,-2035,457,-127,-29,-1452,17731,-510,-9,-409,-1064,35384,-75,35,127,0,0,4368,-439,0,15422,4790,86,64469,-4,0,38,-14,225675,0
225711,-3,-2039,507,-151,-35,-1419,17504,-502,-8,-420,-984,35392,-87,35,127,0,0,4326,-406,0,15422,4790,86,64479,-4,0,38,-14,225706,0
225721,38,-2047,576,-188,-35,-1353,17276,-500,6,-411,-992,35406,-69,35,127,0,0,4284,-395,0,15422,4790,86,64489,-4,0,38,-14,225706,0
225731,75,-2036,559,-216,-50,-1347,17056,-473,4,-380,-960,35403,-76,35,127,0,0,4249,-373,0,15422,4790,86,64499,-4,0,38,-14,225706,0
225741,36,-1981,492,-267,-62,-1347,16845,-452,28,-440,-912,35390,-62,35,127,0,0,4207,-395,0,15422,4790,86,64509,-4,0,38,-14,225722,0
225751,23,-1993,449,-306,-61,-1352,16631,-470,24,-429,-864,35393,-81,35,127,0,0,4168,-373,0,15422,4790,86,64519,-4,0,38,-14,225737,0
225761,26,-1977,412,-336,-55,-1345,16424,-452,14,-427,-864,35396,-97,35,127,0,0,4130,-384,0,15422,4790,86,64529,-4,0,38,-14,225753,0
225771,-8,-1982,376,-345,-72,-1338,16220,-450,14,-421,-888,35397,-97,35,127,0,0,4095,-329,0,15422,4790,86,64539,-4,0,38,-14,225753,0
225781,62,-1972,357,-331,-58,-1357,16023,-421,22,-445,-832,35393,-82,34,127,0,0,4056,-373,0,15422,4790,86,64549,-4,0,38,-14,225815,0
225791,87,-1983,369,-331,-42,-1391,15826,-438,23,-436,-840,35392,-69,34,127,0,0,4016,-417,0,15422,4790,86,64559,-4,0,38,-14,225815,0
225801,142,-1991,396,-343,-46,-1395,15638,-412,8,-466,-856,35394,-93,35,127,0,0,3979,-395,0,15422,4790,86,64569,-4,0,38,-14,225831,0
225811,156,-2010,413,-366,-56,-1390,15448,-419,18,-519,-816,35402,-101,35,127,0,0,3944,-329,0,15422,4790,86,64579,-4,0,38,-14,225831,0
225821,148,-2010,390,-388,-75,-1367,15265,-399,5,-522,-920,35400,-75,35,127,0,0,3900,-406,0,15422,4790,86,64589,-4,0,38,-14,225831,0
225831,176,-2009,389,-389,-74,-1364,15070,-426,-5,-526,-936,35404,-68,35,127,0,0,3867,-373,0,15422,4790,86,64599,-4,0,38,-14,225831,0
225841,181,-2021,393,-395,-88,-1333,14876,-414,-15,-513,-896,35410,-64,35,127,0,0,3829,-384,0,15422,4790,86,64609,-4,0,38,-14,225831,0
225851,244,-2008,353,-395,-92,-1327,14685,-408,5,-506,-952,35418,-84,35,127,0,0,3794,-373,0,15422,4790,86,64619,-4,0,38,-14,225831,0
225861,263,-2010,310,-405,-142,-1282,14495,-414,8,-541,-888,35419,-63,35,127,0,0,3763,-285,0,15422,4790,86,64629,-4,0,38,-14,225831,0
225871,214,-2037,300,-422,-172,-1244,14304,-409,-2,-448,-848,35418,-55,35,127,0,0,3730,-307,0,15422,4790,86,64639,-4,0,38,-14,225940,0
225881,177,-2138,346,-404,-241,-1134,14125,-384,25,-469,-760,35430,-85,35,127,0,0,3706,-252,0,15422,4790,86,64649,-4,0,38,-14,225940,0
225891,226,-2083,366,-359,-319,-1152,13959,-362,44,-432,-656,35422,-99,35,127,0,0,3687,-197,0,15422,4790,86,64659,-4,0,38,-14,225956,0
225901,290,-2307,448,-282,-382,-1101,13805,-319,47,-410,-592,35413,-87,35,127,0,0,3671,-164,0,15422,4790,86,64669,-4,0,38,-14,225956,0
225911,-74,-2144,435,-286,-333,-968,13669,-304,63,-401,-464,35395,-58,35,127,0,0,3662,-21,0,15422,4790,86,64679,-4,0,38,-14,225956,0
225921,181,-2170,290,-331,-265,-1039,13553,-226,70,-295,-200,35389,-58,35,127,0,0,3660,21,0,15422,4790,86,64689,-4,0,38,-14,225972,0
225931,353,-2030,263,-283,-187,-1219,13487,-104,139,-220,-120,35393,-80,34,127,0,0,3649,-109,0,15422,4790,86,64699,-4,0,38,-14,225972,0
225941,246,-1922,239,-347,-260,-1174,13475,-7,201,-552,-232,35391,-103,35,127,0,0,3636,-131,0,15422,4790,86,64709,-4,0,38,-14,225972,0
225951,206,-2058,315,-374,-274,-1117,13444,-98,71,-673,-240,35387,-118,34,127,0,0,3634,-21,0,15422,4790,86,64719,-4,0,38,-14,225972,0
225961,152,-2165,302,-292,-233,-1196,13398,-91,-76,-497,-216,35387,-131,34,127,0,0,3623,-76,0,15422,4790,86,64729,-4,0,38,-14,225972,0
225971,277,-2133,304,-283,-178,-1274,13351,-106,-29,-432,-184,35388,-122,35,127,0,0,3618,-65,0,15422,4790,86,64739,-4,0,38,-14,225972,0
225981,276,-1964,354,-330,-216,-1241,13306,-102,4,-410,-168,35397,-100,34,127,0,0,3612,-43,0,15422,4790,86,64749,-4,0,38,-14,225972,0
225991,288,-1941,306,-333,-286,-1190,13277,-29,35,-420,-152,35401,-57,35,127,0,0,3610,-21,0,15422,4790,86,64759,-4,0,38,-14,225972,0
226001,479,-2037,234,-319,-278,-1297,13273,-1,84,-468,-144,35415,-67,35,127,0,0,3610,10,0,15422,4790,86,64769,-4,0,38,-14,225972,0
226011,409,-1854,235,-314,-189,-1420,13269,-16,52,-522,-152,35430,-62,34,127,0,0,3603,-43,0,15422,4790,86,64779,-4,0,38,-14,225987,0
226021,386,-1877,304,-460,-213,-1414,13240,-89,-42,-590,-216,35427,-92,35,127,0,0,3590,-87,0,15422,4790,86,64789,-4,0,38,-14,226019,0
226031,351,-2138,356,-411,-230,-1362,13192,-131,-91,-611,-288,35421,-96,35,127,0,0,3579,-109,0,15422,4790,86,64799,-4,0,38,-14,226019,0
226041,423,-2260,405,-316,-237,-1400,13118,-174,-96,-436,-224,35406,-81,35,127,0,0,3570,-109,0,15422,4790,86,64809,-4,0,38,-14,226019,0
226051,401,-2069,405,-296,-235,-1461,13064,-88,-14,-392,-144,35400,-79,35,127,0,0,3566,-65,0,15422,4790,86,64819,-4,0,38,-14,226034,0
226061,361,-2001,387,-369,-304,-1366,13039,-41,100,-456,-128,35399,-56,35,127,0,0,3566,10,0,15422,4790,86,64829,-4,0,38,-14,226050,0
226071,411,-2080,389,-370,-346,-1322,13038,-11,103,-556,-160,35406,-58,35,127,0,0,3566,54,0,15422,4790,86,64839,-4,0,38,-14,226050,0
226081,442,-2025,306,-311,-366,-1434,13040,1,45,-509,-176,35406,-44,35,127,0,0,3563,-21,0,15422,4790,86,64849,-4,0,38,-14,226065,0
226091,495,-1976,273,-352,-354,-1497,13039,-4,1,-505,-168,35414,-49,35,127,0,0,3563,0,0,15422,4790,86,64859,-4,0,1,0,226081,0
226101,462,-1984,345,-425,-373,-1487,13039,-3,-1,-507,-136,35421,-40,34,127,0,0,3566,0,0,15422,4790,86,64869,-4,0,1,0,226097,0
226111,457,-2028,328,-423,-420,-1474,13039,-1,5,-497,-136,35421,-42,35,127,0,0,3570,43,0,15422,4790,86,64879,-4,0,1,0,226097,0
226121,522,-2127,279,-402,-461,-1482,13043,12,5,-405,-104,35412,-47,34,127,0,0,3574,65,0,15422,4790,86,64889,-4,0,1,0,226097,0
226131,509,-2074,310,-393,-447,-1546,13050,29,24,-216,-48,35406,-46,34,127,0,0,3579,32,0,15422,4790,86,64899,-4,0,1,0,226112,0
226141,447,-1985,314,-429,-470,-1561,13060,21,4,-81,40,35413,-59,35,127,0,0,3588,87,0,15422,4790,86,64909,-4,0,1,0,226128,0
226151,423,-1991,316,-444,-511,-1563,13082,77,25,142,56,35413,-57,34,127,0,0,3601,142,0,15422,4790,86,64919,-4,0,1,0,226128,0
226161,438,-2037,287,-441,-554,-1619,13135,115,96,185,104,35400,-42,34,127,0,0,3610,98,0,15422,4790,86,64929,-4,0,1,0,226144,0
226171,472,-2001,298,-446,-521,-1723,13164,63,8,321,200,35400,-42,35,127,0,0,3621,109,0,15422,4790,86,64939,-4,0,1,0,226159,0
226181,482,-1937,267,-472,-538,-1796,13202,68,-29,398,168,35401,-50,35,127,0,0,3632,109,0,15422,4790,86,64949,-4,0,1,0,226159,0
226191,485,-1943,277,-491,-587,-1837,13257,147,44,427,224,35409,-58,35,127,0,0,3643,109,0,15422,4790,86,64959,-4,0,1,0,226190,0
226201,534,-2106,290,-525,-678,-1885,13323,166,78,379,224,35401,-80,35,127,0,0,3660,109,0,15422,4790,86,64969,-4,0,1,0,226190,0
226211,464,-2178,338,-535,-705,-1976,13398,160,41,393,280,35391,-93,35,127,0,0,3678,142,0,15422,4790,86,64979,-4,0,1,0,226190,0
226221,373,-2278,362,-545,-748,-1988,13480,180,7,393,328,35390,-123,35,127,0,0,3702,230,0,15422,4790,86,64989,-4,0,1,0,226222,0
226231,326,-2341,395,-560,-766,-1980,13574,211,33,520,480,35401,-122,35,127,0,0,3737,362,0,15422,4790,86,64999,-4,0,1,0,226222,0
226241,253,-2383,371,-574,-775,-2033,13693,295,77,556,696,35401,-111,35,127,0,0,3774,384,0,15422,4790,86,65009,-4,0,1,0,226222,0
226251,201,-2328,313,-615,-746,-2121,13843,353,121,550,824,35396,-97,35,127,0,0,3823,472,0,15422,4790,86,65019,-4,0,2,0,226222,0
226261,104,-2266,241,-686,-734,-2315,14022,396,109,574,1016,35395,-65,35,127,0,0,3873,516,0,15422,4790,86,65029,-4,0,2,0,226253,0
226271,21,-2188,202,-731,-726,-2446,14227,465,99,562,1200,35401,-59,35,127,0,0,3930,582,0,15422,4790,86,65039,-4,0,3,0,226253,0
226281,-6,-2176,155,-821,-765,-2744,14467,543,116,590,1376,35404,-58,35,127,0,0,3994,582,0,15422,4790,86,65049,-4,0,3,0,226253,0
226291,-67,-2157,192,-858,-775,-2936,14736,618,122,539,1464,35395,-69,35,127,0,0,4053,615,0,15422,4790,86,65059,-4,0,4,0,226268,0
226301,-133,-2054,210,-934,-812,-3300,15026,645,101,504,1552,35385,-73,35,127,0,0,4124,692,0,15422,4790,86,65069,-4,0,5,0,226284,0
226311,-162,-2043,212,-971,-848,-3552,15334,687,3,524,1592,35396,-77,35,127,0,0,4185,615,0,15422,4790,86,65079,-4,0,6,0,226284,0
226321,-329,-2142,254,-973,-1023,-3805,15652,705,89,483,1632,35403,-73,34,127,0,0,4249,637,0,15422,4790,86,65089,-4,0,7,0,226362,0
226331,-47,-2378,162,-991,-943,-4191,15975,713,97,509,1696,35395,-62,34,127,0,0,4328,812,0,15422,4790,86,65099,-4,0,8,0,226362,0
226341,-247,-2391,104,-1007,-604,-5210,16323,792,48,612,1720,35384,-46,35,127,0,0,4387,527,0,15422,4790,86,65109,-4,0,10,0,226362,0
226351,-742,-2186,299,-1030,-944,-5087,16659,726,35,459,1584,35382,-40,34,127,0,0,4442,549,0,15422,4790,86,65119,-4,0,11,0,226378,0
226361,-117,-2673,356,-1152,-1161,-5125,16973,692,-64,620,1776,35377,-54,35,127,0,0,4528,889,0,15422,4790,86,65129,-4,0,13,0,226378,0
226371,392,-3328,249,-1110,-1094,-5803,17319,792,10,709,1936,35375,-48,35,127,0,0,4601,736,0,15422,4790,86,65139,-4,0,14,0,226378,0
226381,574,-3633,414,-919,-1359,-6462,17683,790,115,552,1792,35369,-56,35,127,0,0,4649,450,0,15422,4790,86,65149,-4,0,16,0,226378,0
226391,126,-3591,629,-642,-1901,-6042,18024,720,-15,524,1704,35372,-57,35,127,0,0,4715,648,0,15422,4790,86,65159,-4,0,18,0,226378,0
226401,136,-3010,555,-473,-2605,-5717,18355,731,-80,744,2064,35377,-70,34,127,0,0,4822,1109,0,15422,4790,86,65169,-4,0,21,0,226378,0
226411,-6,-3023,374,-399,-2815,-5831,18746,920,100,883,2464,35388,-49,35,127,0,0,4928,1098,0,15422,4790,86,65179,-4,0,23,0,226409,0
226421,153,-3223,453,-377,-3464,-5633,19204,1045,260,825,2848,35388,-33,35,127,0,0,5062,1373,0,15422,4790,86,65189,-4,0,27,0,226409,0
226431,429,-3241,775,-377,-4248,-5187,19738,1241,268,1070,3408,35381,-19,35,127,0,0,5227,1658,0,15422,4790,86,65199,-4,0,29,0,226425,0
226441,-169,-3182,914,-299,-5127,-4096,20371,1457,340,1145,4056,35370,-17,35,127,0,0,5416,1900,0,15422,4790,86,65209,-4,0,33,0,226425,0
226451,-529,-2809,983,-273,-5745,-3173,21100,1684,379,1012,3648,35351,14,35,127,0,0,5662,2504,0,15422,4790,86,65219,-4,0,36,0,226425,0
226461,1202,-2430,818,-331,-6248,-2221,21763,1341,87,93,2616,35359,8,35,127,0,0,5937,2746,0,15422,4790,86,65229,-4,0,42,0,226456,0
226471,1625,-2333,229,-514,-5093,-2816,22266,1001,-450,-10,848,35374,-22,35,127,0,0,6042,834,0,15422,4790,86,65239,-4,0,45,0,226456,0
226481,984,-1937,-188,-355,-3404,-2305,22404,-278,-952,-2772,-2160,35388,-49,35,127,0,0,5978,-769,0,15422,4790,86,65249,-4,0,51,0,226456,0
226491,161,-1645,-128,8,-2501,-2384,21910,-1451,-1994,-2657,-5656,35388,-20,35,127,0,0,5778,-2131,0,15422,4790,86,65259,-4,0,55,0,226487,0
226501,160,-1636,-7,253,-2044,-1570,20790,-2883,-2409,-2742,-8680,35343,112,35,127,0,0,5523,-2570,0,15422,4790,86,65269,-4,0,60,0,226487,0
226511,260,-1680,106,345,-1807,-996,19156,-3727,-2259,-200,-4304,35281,276,35,127,0,0,5269,-2559,0,15422,4790,86,65279,-4,0,64,0,226487,0
226521,-65,-1419,-62,459,-1249,-434,18342,-657,442,6202,2136,35312,116,34,127,0,0,5031,-2373,0,15422,4790,86,65289,-4,0,70,50,226518,0
226531,514,-1575,-244,389,-994,809,18738,1045,4156,1186,2512,35341,48,35,127,0,0,4855,-1669,0,15422,4790,86,65299,-4,0,75,47,226518,0
226541,130,-1385,-241,486,-459,1343,19186,869,2344,-198,-24,35390,-113,35,127,0,0,4704,-1494,0,15422,4790,86,65309,-4,0,81,42,226518,0
226551,384,-1314,-361,555,-99,1769,19179,-421,-815,-1769,-1472,35386,-57,35,127,0,0,4563,-1428,0,15422,4790,86,65319,-4,0,85,39,226550,0
226561,564,-1242,-421,683,751,2149,18858,-817,-1576,-969,-2536,35382,-55,35,127,0,0,4396,-1746,0,15422,4790,86,65329,-4,0,92,34,226550,0
226571,782,-1189,-476,667,1385,2549,18359,-1206,-895,-1008,-3328,35382,-76,35,127,0,0,4225,-1724,0,15422,4790,86,65339,-4,0,97,32,226550,0
226581,642,-1105,-393,709,2112,3190,17718,-1479,-612,-851,-3864,35370,-32,35,127,0,0,4047,-1768,0,15422,4790,86,65349,-4,0,103,28,226565,0
226591,649,-1083,-369,721,2466,3671,16980,-1675,-458,-638,-4064,35360,-26,35,127,0,0,3897,-1472,0,15422,4790,86,65359,-4,0,108,25,226581,0
226601,743,-1171,-316,654,2892,4432,16205,-1717,-260,-440,-3936,35362,-6,35,127,0,0,3774,-1164,0,15422,4790,86,65369,-4,0,115,21,226581,0
226611,794,-1224,-305,571,3155,4894,15456,-1602,-16,-230,-3368,35373,-31,35,127,0,0,3695,-769,0,15422,4790,86,65379,-4,0,120,19,226597,0
226621,930,-1360,-258,514,3524,5483,14807,-1349,242,-164,-2720,35381,-42,35,127,0,0,3640,-527,0,15422,4790,86,65389,-4,0,127,16,226612,0
226631,1027,-1420,-241,492,3712,5823,14277,-1101,423,-125,-2072,35374,-21,35,127,0,0,3607,-351,0,15422,4790,86,65399,-4,0,132,14,226643,0
226641,1176,-1444,-175,454,3843,6333,13858,-855,443,-139,-1592,35376,-49,35,127,0,0,3577,-307,0,15422,4790,86,65409,-4,0,139,11,226643,0
226651,1290,-1462,-81,451,3795,6674,13529,-672,389,-191,-1160,35384,-47,35,127,0,0,3550,-274,0,15422,4790,86,65419,-4,0,143,10,226643,0
226661,1352,-1500,16,448,3539,7215,13273,-532,306,-280,-968,35383,-86,35,127,0,0,3522,-296,0,15422,4790,86,65429,-4,0,151,7,226643,0
226671,1321,-1597,52,446,3323,7603,13064,-438,231,-362,-776,35378,-75,35,127,0,0,3498,-241,0,15422,4790,86,65439,-4,0,155,6,226659,0
226681,1233,-1640,82,490,3016,8125,12883,-387,147,-416,-656,35377,-65,35,127,0,0,3478,-164,0,15422,4790,86,65449,-4,0,162,4,226659,0
226691,1169,-1669,70,539,2853,8397,12723,-335,97,-395,-480,35394,-80,35,127,0,0,3467,-120,0,15422,4790,86,65459,-4,0,167,3,226690,0
226701,1052,-1752,89,628,2774,8713,12597,-256,98,-397,-352,35405,-96,35,127,0,0,3456,-109,0,15422,4790,86,65469,-4,0,174,2,226690,0
226711,999,-1790,76,702,2853,8893,12505,-171,131,-356,-256,35404,-103,35,127,0,0,3456,-10,0,15422,4790,86,65479,-4,0,178,1,226690,0
226721,933,-1801,44,816,3120,9022,12464,-52,161,-339,-104,35392,-100,35,127,0,0,3456,32,0,15422,4790,86,65489,-4,0,185,0,226706,0
226731,862,-1817,0,898,3332,9104,12471,24,196,-418,-144,35388,-114,35,127,0,0,3458,32,0,15422,4790,86,65499,-4,0,189,0,226721,0
226741,1003,-1825,0,962,3569,9371,12474,23,82,-177,64,35408,-108,35,127,0,0,3482,263,0,15422,4790,86,65509,-4,0,196,-1,226721,0
226751,984,-1860,41,1031,3690,9522,12534,183,95,294,320,35412,-101,35,127,0,0,3522,439,0,15422,4790,86,65519,-4,0,200,-2,226737,0
226761,1035,-2007,80,1047,3833,9669,12646,270,224,472,616,35409,-91,35,127,0,0,3577,571,0,15422,4790,86,65529,-4,0,206,-2,226737,0
226771,1023,-2145,138,1060,3864,9685,12808,384,186,559,952,35401,-110,35,127,0,0,3645,681,0,15422,4790,86,65539,-4,0,210,-3,226768,0
226781,1167,-2386,195,1042,3862,9557,13023,513,200,583,1336,35407,-111,35,127,0,0,3717,725,0,15422,4790,86,65549,-4,0,216,-3,226768,0
226791,1232,-2553,255,1000,3807,9428,13291,624,210,648,1560,35410,-81,34,127,0,0,3788,670,0,15422,4790,86,65559,-4,0,220,-3,226768,0
226801,1330,-2782,380,927,3579,9166,13598,690,177,515,1656,35398,-53,34,127,0,0,3854,626,0,15422,4790,86,65569,-4,0,225,-4,226815,0
226811,1379,-2906,422,888,3345,8906,13916,711,95,482,1696,35386,-67,35,127,0,0,3904,505,0,15422,4790,86,65579,-4,0,228,-4,226815,0
226821,1425,-3024,443,782,2911,8453,14233,676,20,369,1472,35393,-73,35,127,0,0,3948,439,0,15422,4790,86,65589,-4,0,233,-4,226815,0
226831,1417,-3041,451,677,2628,8084,14527,628,-44,345,1288,35399,-85,35,127,0,0,3981,329,0,15422,4790,86,65599,-4,0,236,-4,226815,0
226841,1406,-3008,449,501,2272,7557,14794,562,-93,327,1064,35386,-58,35,127,0,0,4014,329,0,15422,4790,86,65609,-4,0,239,-4,226831,0
226851,1445,-2991,445,482,2080,7230,15031,500,-112,323,944,35382,-59,35,127,0,0,4053,439,0,15422,4790,86,65619,-4,0,241,-4,226831,0
226861,1463,-2843,431,495,1563,6617,15248,479,-103,409,992,35401,-80,35,127,0,0,4100,472,0,15422,4790,86,65629,-4,0,244,-4,226831,0
226871,1564,-2787,514,637,1125,6037,15463,474,-32,456,1016,35413,-80,35,127,0,0,4144,439,0,15422,4790,86,65639,-4,0,245,-4,226862,0
226881,1774,-2538,501,966,360,5021,15688,489,14,409,872,35415,-73,35,127,0,0,4170,219,0,15422,4790,86,65649,-4,0,247,-4,226862,0
226891,1830,-2293,417,1080,-179,4321,15893,425,-12,306,584,35394,-62,35,127,0,0,4177,65,0,15422,4790,86,65659,-4,0,247,-4,226862,0
226901,1793,-2024,355,1046,-1048,3318,16056,314,-114,232,240,35388,-80,35,127,0,0,4177,21,0,15422,4790,86,65669,-4,0,248,-4,226909,0
226911,1792,-2056,345,999,-1501,2554,16145,135,-223,66,24,35405,-96,35,127,0,0,4168,-43,0,15422,4790,86,65679,-4,0,248,-4,226925,0
226921,1561,-2164,253,739,-1879,1250,16134,-75,-336,-88,-80,35411,-77,35,127,0,0,4157,-142,0,15422,4790,86,65689,-4,0,247,-4,226925,0
226931,1468,-2372,212,578,-2005,410,16088,-130,-262,-202,-128,35402,-60,34,127,0,0,4146,-131,0,15422,4790,86,65699,-4,0,246,-4,226925,0
226941,1331,-2540,144,330,-1960,-858,16030,-131,-84,-257,-136,35389,-66,34,127,0,0,4133,-109,0,15422,4790,86,65709,-4,0,246,-4,226925,0
226951,1274,-2534,58,181,-1769,-1674,15980,-76,-1,-267,-88,35388,-90,35,127,0,0,4126,-54,0,15422,4790,86,65719,-4,0,246,-4,226925,0
226961,1244,-2822,-275,-124,-1321,-2810,15958,-26,75,-231,-24,35405,-95,35,127,0,0,4130,10,0,15422,4790,86,65729,-4,0,246,-4,226940,0
226971,-3024,-8918,-1115,-1699,-2579,-699,15964,36,103,187,848,35405,-71,35,127,0,0,4311,2241,0,2922,595,87,3,1,0,246,-4,226956,0
226981,-1309,-3185,1648,1189,684,-1923,16252,940,557,1919,3040,35409,-62,35,127,0,0,4513,1812,0,2922,595,87,13,1,0,246,-4,226987,0
226991,914,743,1683,1098,-1214,-1915,16819,1303,1140,896,3200,35392,-23,34,127,0,0,4627,1153,0,2922,595,87,23,1,0,246,-4,227003,0
227001,-339,-1541,980,365,-2141,16,17407,1291,560,770,3480,35382,-11,35,127,0,0,4798,1856,0,2922,595,87,33,1,0,246,-4,227018,0
227011,-1329,-1845,335,101,-1941,233,18095,1654,201,1448,4680,35367,18,35,127,0,0,5040,2416,0,2922,595,87,43,1,0,246,-4,227034,0
227021,-2409,-2301,-1395,-42,-835,-1447,18988,2076,607,1140,5248,35356,36,35,127,0,0,5238,1834,0,2922,595,87,53,1,0,246,-4,227050,0
227031,-1998,-1825,-1960,137,384,-2463,19954,2099,555,470,4848,35359,31,35,127,0,0,5363,1208,0,2922,595,87,63,1,0,246,-4,227050,0
227041,-1202,-2008,-267,378,1264,-3036,20824,1818,-53,273,4144,35361,32,34,127,0,0,5462,988,0,2922,595,87,73,1,0,246,-4,227050,0
227051,-715,-2383,701,447,1026,-3143,21560,1517,-451,85,2056,35374,4,35,127,0,0,5552,933,0,2922,595,87,83,1,0,246,-4,227050,0
227061,23,-2763,1154,280,94,-3209,22005,659,-768,-1561,-688,35383,-49,35,127,0,0,5635,802,0,2922,595,87,93,1,0,246,-4,227050,0
227071,489,-3057,625,-62,-425,-3650,21806,-663,-1819,-1310,-2416,35385,-91,35,127,0,0,5671,285,0,2922,595,87,103,1,0,246,-4,227050,0
227081,507,-2292,339,-302,-814,-3710,21295,-1339,-1815,-1620,-4184,35394,-89,35,127,0,0,5657,-109,0,2922,595,87,113,1,0,246,-4,227096,0
227091,-250,-2150,57,-372,-631,-3998,20474,-1997,-1172,-1501,-5600,35392,-12,35,127,0,0,5611,-472,0,2922,595,87,123,1,0,246,-4,227096,0
227101,-352,-1763,83,-202,-154,-4121,19380,-2572,-1119,-1249,-6688,35368,76,35,127,0,0,5548,-637,0,2922,595,87,133,1,0,246,-4,227096,0
227111,842,-2895,345,-184,377,-4565,18103,-2908,-881,-1119,-7584,35350,125,35,127,0,0,5449,-1098,0,2922,595,87,143,1,0,246,-4,227112,0
227121,-105,-1781,565,-103,148,-4504,16946,-2002,-202,2904,384,35346,107,35,127,0,0,5304,-1439,0,2922,595,87,153,1,0,246,-4,227112,0
227131,413,-1468,659,-281,76,-3870,17174,1249,2952,4024,3944,35373,35,34,127,0,0,5196,-1054,0,2922,595,87,163,1,0,246,-4,227112,0
227141,-59,-1673,267,-332,-220,-3464,17981,2001,3893,1853,5848,35369,51,34,127,0,0,5091,-1076,0,2922,595,87,173,1,0,246,-4,227112,0
227151,-208,-1871,-272,-384,-199,-3009,19010,2226,1466,311,3544,35371,65,35,127,0,0,5005,-823,0,2922,595,87,183,1,0,246,-4,227159,0
227161,-347,-1906,-335,-130,45,-3168,19795,1435,-38,-1036,952,35366,79,35,127,0,0,4915,-911,0,2922,595,87,193,1,0,246,-4,227159,0
227171,-117,-1910,-9,-25,84,-3067,20074,179,-1460,-1857,-688,35395,-36,35,127,0,0,4825,-911,0,2922,595,87,203,1,0,246,-4,227159,0
227181,-210,-1947,294,16,-43,-2822,19881,-520,-1927,-584,-1272,35404,-114,35,127,0,0,4739,-856,0,2922,595,87,213,1,0,246,-4,227159,0
227191,108,-2108,322,18,-35,-2662,19602,-649,-1059,-551,-1552,35393,-90,35,127,0,0,4662,-769,0,2922,595,87,223,1,0,246,-4,227175,0
227201,67,-2118,389,62,-8,-2527,19270,-745,-256,-494,-1728,35393,-82,35,127,0,0,4587,-714,0,2922,595,87,233,1,0,246,-4,227190,0
227211,20,-1972,482,55,6,-2359,18951,-794,-141,-459,-1824,35403,-69,35,127,0,0,4513,-747,0,2922,595,87,243,1,0,246,-4,227190,0
227221,273,-1975,512,-7,-41,-2134,18590,-788,-60,-438,-1864,35405,-66,35,127,0,0,4438,-747,0,2922,595,87,253,1,0,246,-4,227190,0
227231,267,-1942,412,-52,-85,-1952,18217,-817,-30,-403,-1848,35398,-44,35,127,0,0,4376,-615,0,2922,595,87,263,1,0,246,-4,227221,0
227241,183,-1904,352,-96,-104,-1761,17853,-790,0,-351,-1672,35397,-70,35,127,0,0,4319,-571,0,2922,595,87,273,1,0,246,-4,227221,0
227251,220,-1893,339,-105,-106,-1649,17508,-754,55,-351,-1592,35392,-76,35,127,0,0,4269,-483,0,2922,595,87,283,1,0,246,-4,227221,0
227261,191,-1955,314,-93,-112,-1532,17181,-705,71,-307,-1432,35394,-70,35,127,0,0,4223,-472,0,2922,595,87,293,1,0,246,-4,227253,0
227271,89,-2033,295,-78,-109,-1480,16881,-643,90,-322,-1288,35384,-41,35,127,0,0,4179,-450,0,2922,595,87,303,1,0,246,-4,227253,0
227281,114,-2068,325,-61,-62,-1461,16607,-591,99,-349,-1168,35381,-48,35,127,0,0,4133,-461,0,2922,595,87,313,1,0,246,-4,227253,0
227291,147,-2069,275,-42,-44,-1510,16352,-559,79,-387,-1120,35386,-59,34,127,0,0,4091,-417,0,2922,595,87,323,1,0,246,-4,227284,0
227301,115,-2067,232,-47,-60,-1530,16110,-512,58,-397,-1040,35397,-52,35,127,0,0,4045,-472,0,2922,595,87,333,1,0,246,-4,227284,0
227311,151,-2027,280,-46,-77,-1539,15876,-514,101,-444,-1088,35390,-68,35,127,0,0,3999,-450,0,2922,595,87,343,1,0,246,-4,227284,0
227321,94,-1967,292,-76,-102,-1599,15644,-498,0,-474,-1048,35387,-68,35,127,0,0,3952,-461,0,2922,595,87,353,1,0,246,-4,227299,0
227331,76,-1959,342,-108,-92,-1657,15418,-498,-35,-544,-1128,35395,-83,35,127,0,0,3902,-505,0,2922,595,87,363,1,0,246,-4,227409,0
227341,80,-1922,380,-131,-91,-1769,15184,-528,-10,-586,-1264,35403,-66,35,127,0,0,3851,-505,0,2922,595,87,373,1,0,246,-4,227409,0
227351,59,-1950,349,-154,-79,-1859,14935,-558,-40,-567,-1296,35397,-56,35,127,0,0,3796,-527,0,2922,595,87,383,1,0,246,-4,227409,0
227361,64,-1999,299,-153,-37,-1996,14680,-568,-38,-579,-1368,35379,-56,35,127,0,0,3739,-582,0,2922,595,87,393,1,0,246,-4,227409,0
227371,175,-2021,307,-143,-45,-2070,14414,-603,-28,-593,-1488,35367,-69,35,127,0,0,3680,-604,0,2922,595,87,403,1,0,246,-4,227409,0
227381,246,-1983,312,-160,-70,-2149,14131,-633,-53,-608,-1600,35376,-82,34,127,0,0,3614,-637,0,2922,595,87,413,1,0,246,-4,227424,0
227391,304,-1985,288,-159,-79,-2173,13826,-674,-68,-613,-1656,35373,-62,35,127,0,0,3552,-615,0,2922,595,87,423,1,0,246,-4,227424,0
227401,312,-1967,203,-157,-95,-2190,13512,-692,-64,-513,-1696,35365,-59,34,127,0,0,3487,-670,0,2922,595,87,433,1,0,246,-4,227424,0
227411,356,-1963,195,-136,-103,-2194,13194,-703,-29,-559,-1688,35365,-72,34,127,0,0,3423,-637,0,2922,595,87,443,1,0,246,-4,227424,0
227421,383,-1907,165,-99,-115,-2276,12872,-711,-22,-555,-1712,35372,-59,35,127,0,0,3361,-637,0,2922,595,87,453,1,0,246,-4,227424,0
227431,343,-1923,175,-59,-130,-2286,12547,-715,-17,-570,-1736,35374,-64,34,127,0,0,3293,-659,0,2922,595,87,463,1,0,246,-4,227424,0
227441,286,-1947,199,-12,-162,-2252,12216,-742,-17,-609,-1768,35361,-46,34,127,0,0,3227,-659,0,2922,595,87,473,1,0,246,-4,227424,0
227451,287,-2001,204,42,-190,-2294,11873,-756,-37,-595,-1752,35368,-50,35,127,0,0,3166,-593,0,2922,595,87,483,1,0,246,-4,227424,0
227461,359,-1872,209,140,-397,-2380,11538,-726,-11,-554,-1712,35394,-62,35,127,0,0,3104,-626,0,2922,595,87,493,1,0,246,-4,227456,0
227471,411,-1993,126,114,-830,-2353,11212,-709,28,-529,-1592,35410,-57,35,127,0,0,3045,-604,0,2922,595,87,503,1,0,246,-4,227456,0
227481,289,-2620,373,49,-693,-2235,10900,-667,43,-501,-1456,35407,-76,35,127,0,0,3005,-417,0,2922,595,87,513,1,0,246,-4,227456,0
227491,-154,-2633,451,43,-560,-2309,10623,-582,96,-509,-1264,35381,-54,35,127,0,0,2972,-307,0,2922,595,87,523,1,0,246,-4,227487,0
227501,-57,-2218,400,29,-463,-2526,10379,-497,134,-455,-968,35382,-73,35,127,0,0,2946,-230,0,2922,595,87,533,1,0,246,-4,227487,0
227511,21,-2131,386,-10,-605,-2651,10182,-406,152,-506,-792,35383,-78,35,127,0,0,2928,-175,0,2922,595,87,543,1,0,246,-4,227487,0
227521,-65,-2253,446,-153,-762,-2880,10021,-333,160,-545,-672,35384,-85,35,127,0,0,2911,-153,0,2922,595,87,553,1,0,246,-4,227518,0
227531,-183,-2386,492,-249,-746,-3097,9875,-293,98,-469,-488,35382,-56,35,127,0,0,2895,-142,0,2922,595,87,563,1,0,246,-4,227518,0
227541,-98,-2539,605,-367,-728,-3364,9760,-240,89,-495,-384,35376,-54,35,127,0,0,2889,-65,0,2922,595,87,573,1,0,246,-4,227518,0
227551,-22,-2470,695,-475,-836,-3513,9673,-160,107,-475,-240,35387,-50,34,127,0,0,2885,0,0,2922,595,87,583,1,0,246,-4,227554,0
227561,167,-2594,734,-517,-1083,-3780,9620,-100,125,-382,-136,35390,-55,35,127,0,0,2885,-10,0,2922,595,87,593,1,0,246,-4,227554,0
227571,-49,-2839,601,-588,-1199,-3715,9611,0,137,-435,-56,35389,-85,34,127,0,0,2900,197,0,2922,595,87,603,1,0,246,-4,227554,0
227581,-210,-2941,568,-761,-1073,-3795,9643,106,158,99,184,35388,-109,34,127,0,0,2935,351,0,2922,595,87,613,1,0,246,-4,227554,0
227591,-277,-2701,461,-845,-980,-4014,9736,249,203,365,464,35385,-126,35,127,0,0,2986,516,0,2922,595,87,623,1,0,246,-4,227569,0
227601,-149,-2155,382,-929,-990,-4418,9878,347,217,471,712,35397,-104,34,127,0,0,3049,626,0,2922,595,87,633,1,0,246,-4,227585,0
227611,-322,-2135,367,-986,-1270,-4551,10063,429,183,510,984,35393,-66,34,127,0,0,3113,648,0,2922,595,87,643,1,0,246,-4,227601,0
227621,-273,-2485,347,-1096,-1514,-4644,10289,535,157,515,1312,35387,-59,35,127,0,0,3208,977,0,2922,595,87,653,1,0,246,-4,227601,0
227631,-24,-2378,362,-794,-1282,-5702,10587,726,209,697,1856,35384,-66,34,127,0,0,3295,758,0,2922,595,87,663,1,0,246,-4,227647,0
227641,-1584,-2455,139,-773,-1903,-5481,10951,797,277,406,1712,35390,-52,35,127,0,0,3368,758,0,2922,595,87,673,1,0,246,-4,227647,0
227651,-814,-3482,-45,-1092,-1606,-5642,11318,844,125,609,2192,35390,-59,35,127,0,0,3491,1263,0,2922,595,87,683,1,0,246,-4,227647,0
227661,-1358,-3726,-219,-728,-1078,-7012,11755,1007,138,655,2384,35383,-45,35,127,0,0,3592,966,0,2922,595,87,693,1,0,246,-4,227647,0
227671,-903,-3560,-557,-738,-1237,-7312,12232,1053,212,527,2624,35374,-70,35,127,0,0,3719,1285,0,2922,595,87,703,1,0,246,-4,227663,0
227681,-582,-2947,83,-447,-1269,-7530,12752,1188,144,758,3192,35373,-61,35,127,0,0,3869,1527,0,2922,595,87,713,1,0,52,0,227663,0
227691,545,-2756,-177,-702,-1326,-8254,13352,1381,238,834,3664,35379,-38,35,127,0,0,4018,1395,0,2922,595,87,723,1,0,58,0,227663,0
227701,564,-3906,579,-754,-2019,-8609,14027,1501,310,578,3576,35381,-26,35,127,0,0,4130,1131,0,2922,595,87,733,1,0,65,0,227694,0
227711,603,-4840,913,-303,-2683,-8084,14689,1443,115,520,3584,35384,-30,35,127,0,0,4278,1483,0,2922,595,87,743,1,0,71,0,227726,0
227721,563,-4840,919,145,-3678,-6666,15380,1575,19,890,4224,35377,-41,35,127,0,0,4478,2054,0,2922,595,87,753,1,0,80,0,227726,0
227731,98,-4076,934,222,-4690,-5524,16194,1906,296,1281,5160,35371,-21,35,127,0,0,4741,2603,0,2922,595,87,763,1,0,86,0,227726,0
227741,-912,-2869,1270,288,-6037,-3732,17189,2317,586,1549,6432,35351,22,35,127,0,0,5055,3218,0,2922,595,87,773,1,0,97,0,227726,0
227751,-380,-2513,1279,263,-6985,-2692,18405,2839,766,1721,7784,35331,108,35,127,0,0,5416,3614,0,2922,595,87,783,1,0,105,0,227741,0
227761,1348,-2601,662,-136,-5562,-2840,19845,3238,885,778,6368,35310,173,35,127,0,0,5642,1944,0,2922,595,87,793,1,0,118,0,227757,0
227771,807,-1595,449,9,-4117,-2451,21051,2258,48,-1570,1872,35329,135,34,127,0,0,5640,-197,0,2922,595,87,803,1,0,126,0,227757,0
227781,299,-913,-151,392,-2531,-2018,21370,-164,-2143,-4370,-3000,35366,-7,34,127,0,0,5464,-1911,0,2922,595,87,813,0,0,139,57,227757,0
227791,-25,-1038,-236,607,-1848,-1773,20808,-1379,-3554,-902,-1168,35385,-36,35,127,0,0,5216,-2493,0,2922,595,87,823,0,0,147,55,227804,0
227801,-312,-1427,14,648,-1892,-368,20570,187,-1104,3576,552,35408,-83,35,127,0,0,4998,-2197,0,2922,595,87,833,0,0,159,51,227804,0
227811,399,-1779,82,729,-1665,1093,20607,-293,1405,-1702,-1344,35389,-6,35,127,0,0,4858,-1318,0,2922,595,87,843,0,0,167,48,227804,0
227821,-210,-1348,-69,1027,-1150,2082,20319,-742,-222,-860,-2000,35392,-56,34,127,0,0,4752,-1010,0,2922,595,87,853,0,0,179,43,227804,0
227831,77,-1238,-318,1088,-757,2674,19922,-899,-827,-435,-2024,35379,-51,34,127,0,0,4691,-637,0,2922,595,87,863,0,0,188,40,227804,0
227841,322,-1159,-392,1152,84,3324,19518,-882,-219,-282,-1888,35386,-79,35,127,0,0,4620,-736,0,2922,595,87,873,0,0,200,36,227835,0
227851,545,-1210,-257,1214,775,3734,19130,-836,34,-368,-1952,35399,-73,34,127,0,0,4530,-922,0,2922,595,87,883,0,0,208,34,227835,0
227861,616,-1132,-192,1237,1730,4313,18729,-914,15,-627,-2440,35400,-49,35,127,0,0,4394,-1406,0,2922,595,87,893,0,0,220,30,227835,0
227871,543,-1048,-185,1173,2161,4765,18242,-1138,-191,-871,-3152,35386,-43,35,127,0,0,4231,-1647,0,2922,595,87,903,0,0,228,27,227866,0
227881,412,-985,-179,1050,2418,5594,17629,-1426,-407,-766,-3576,35378,-27,35,127,0,0,4078,-1505,0,2922,595,87,913,0,0,240,24,227866,0
227891,361,-997,-189,972,2409,6219,16949,-1527,-373,-535,-3624,35378,-32,35,127,0,0,3959,-1153,0,2922,595,87,923,0,0,248,22,227882,0
227901,437,-1142,-158,933,2411,7093,16258,-1487,-162,-250,-3160,35380,-5,35,127,0,0,3880,-758,0,2922,595,87,933,0,0,260,19,227882,0
227911,477,-1250,-183,901,2450,7583,15634,-1309,114,-134,-2488,35386,-22,35,127,0,0,3834,-417,0,2922,595,87,943,0,0,268,17,227913,0
227921,542,-1395,-124,861,2522,8116,15123,-1041,342,-72,-1736,35394,-47,35,127,0,0,3803,-263,0,2922,595,87,953,0,0,280,14,227913,0
227931,618,-1436,-157,842,2578,8392,14739,-761,464,-104,-1248,35405,-70,35,127,0,0,3779,-274,0,2922,595,87,963,0,0,288,12,227929,0
227941,692,-1492,-146,887,2682,8810,14461,-546,449,-218,-920,35404,-62,34,127,0,0,3755,-296,0,2922,595,87,973,0,0,299,10,227929,0
227951,655,-1508,-176,920,2711,9117,14244,-441,325,-321,-784,35392,-55,34,127,0,0,3722,-307,0,2922,595,87,983,0,0,307,8,227929,0
227961,601,-1570,-157,950,2641,9659,14061,-395,183,-420,-768,35391,-77,35,127,0,0,3695,-263,0,2922,595,87,993,0,0,319,7,227960,0
227971,600,-1655,-142,973,2571,9999,13893,-363,86,-428,-640,35401,-94,35,127,0,0,3684,-87,0,2922,595,87,1003,0,0,326,5,227960,0
227981,649,-1837,-106,1005,2585,10386,13749,-277,72,-337,-344,35404,-79,35,127,0,0,3682,0,0,2922,595,87,1013,0,0,337,4,227960,0
227991,627,-1962,-111,1032,2653,10534,13644,-187,121,-228,-120,35398,-66,34,127,0,0,3684,21,0,2922,595,87,1023,0,0,345,3,227960,0
228001,690,-2165,-72,1016,2738,10736,13610,-12,211,-147,-40,35394,-41,35,127,0,0,3684,43,0,2922,595,87,1033,0,0,356,2,227991,0
228011,707,-2280,-27,945,2721,10958,13631,42,251,-143,-40,35402,-78,35,127,0,0,3695,98,0,2922,595,87,1043,0,0,363,1,227991,0
228021,841,-2409,15,874,2676,11170,13643,53,75,263,208,35413,-97,34,127,0,0,3722,296,0,2922,595,87,1053,0,0,373,0,227991,0
228031,903,-2489,-21,806,2606,11289,13721,198,111,404,440,35409,-81,35,127,0,0,3757,384,0,2922,595,87,1063,0,0,380,0,228022,0
228041,971,-2660,-80,703,2544,11289,13838,285,203,505,720,35399,-69,35,127,0,0,3801,472,0,2922,595,87,1073,0,0,390,0,228022,0
228051,1014,-2807,-123,664,2473,11192,13999,363,154,492,840,35393,-44,35,127,0,0,3851,516,0,2922,595,87,1083,0,0,396,0,228038,0
228061,1094,-3047,-136,682,2301,10841,14184,426,128,515,1016,35400,-56,35,127,0,0,3895,461,0,2922,595,87,1093,0,0,404,-1,228038,0
228071,1194,-3180,-98,704,2174,10537,14393,468,95,491,984,35403,-50,34,127,0,0,3937,417,0,2922,595,87,1103,0,0,410,-1,228054,0
228081,1298,-3386,58,729,1996,9900,14607,477,62,424,952,35397,-63,34,127,0,0,3968,318,0,2922,595,87,1113,0,0,417,-1,228069,0
228091,1367,-3475,102,715,1959,9416,14820,464,4,380,784,35392,-68,35,127,0,0,3994,263,0,2922,595,87,1123,0,0,421,-1,228085,0
228101,1580,-3382,209,615,1772,8573,15015,417,-37,321,720,35401,-75,34,127,0,0,4023,307,0,2922,595,87,1133,0,0,427,-1,228116,0
228111,1713,-3309,318,578,1534,7734,15196,389,-62,374,648,35401,-80,35,127,0,0,4053,307,0,2922,595,87,1143,0,0,430,-1,228116,0
228121,2120,-3152,396,481,1095,6194,15370,374,-36,343,520,35403,-80,35,127,0,0,4071,164,0,2922,595,87,1153,0,0,434,-1,228116,0
228131,2139,-2979,477,370,691,5107,15526,310,-44,249,232,35395,-72,35,127,0,0,4064,-76,0,2922,595,87,1163,0,0,435,-1,228116,0
228141,2475,-2703,514,160,133,3033,15620,157,-154,-15,-32,35390,-82,34,127,0,0,4058,-120,0,2922,595,87,1173,0,0,437,-1,228132,0
228151,2248,-2518,481,64,-318,1545,15597,-133,-346,-365,-328,35394,-88,35,127,0,0,4023,-362,0,2922,595,87,1183,0,0,437,-1,228132,0
228161,2144,-2489,363,-278,-711,-669,15500,-245,-374,-545,-576,35401,-85,35,127,0,0,3979,-428,0,2922,595,87,1193,0,0,436,-1,228194,0
228171,2020,-2532,382,-556,-862,-2002,15356,-330,-225,-571,-704,35403,-64,35,127,0,0,3944,-340,0,2922,595,87,1203,0,0,435,-1,228194,0
228181,2025,-2730,384,-954,-909,-3897,15198,-361,-115,-545,-680,35402,-63,35,127,0,0,3913,-307,0,2922,595,87,1213,0,0,432,-1,228194,0
228191,2078,-2688,330,-1189,-938,-5011,15038,-354,-34,-516,-624,35398,-62,34,127,0,0,3889,-252,0,2922,595,87,1223,0,0,429,-2,228194,0
228201,276,-9177,-885,-3109,-3657,-4188,14882,-354,-4,-389,-24,35390,-59,35,127,0,0,4025,1735,0,1845,904,88,1,1,1,427,-2,228210,0
228211,20,-5164,2854,-581,-355,-4586,14987,651,545,2510,3296,35375,-69,34,127,0,0,4293,2526,0,1845,904,88,11,1,1,427,-2,228210,0
228221,404,-702,1996,484,-3478,-5721,15646,1744,1734,1799,4768,35357,-27,34,127,0,0,4414,1054,0,1845,904,88,21,1,1,427,-2,228210,0
228231,-225,-2263,1936,-289,-4462,-4002,16544,2025,1463,1033,5592,35354,26,35,127,0,0,4579,1845,0,1845,904,88,31,1,1,427,-2,228210,0
228241,-1261,-1164,-21,-1340,-3371,-4240,17600,2472,683,1494,6616,35352,90,34,127,0,0,4759,1735,0,1845,904,88,41,1,1,427,-2,228241,0
228251,-2234,-1783,-2200,-1870,-1135,-5806,18824,2740,642,735,6608,35349,134,35,127,0,0,4853,802,0,1845,904,88,51,1,1,427,-2,228241,0
228261,-1479,-2378,-2414,-944,2231,-7537,20045,2613,247,187,5552,35348,92,35,127,0,0,4860,10,0,1845,904,88,61,1,1,427,-2,228241,0
228271,137,-2400,-922,-337,3573,-7744,21094,2175,-401,16,4288,35353,49,34,127,0,0,4818,-461,0,1845,904,88,71,1,1,427,-2,228272,0
228281,1714,-3283,857,-137,2471,-7853,21928,1697,-763,-33,3192,35379,-23,35,127,0,0,4748,-714,0,1845,904,88,81,1,1,427,-2,228272,0
228291,2481,-1552,801,-553,616,-7975,22560,1239,-801,-282,800,35392,-63,35,127,0,0,4616,-1439,540,1845,904,88,91,1,1,427,-2,228272,0
228301,2668,-1450,-201,-1763,-925,-6253,22957,787,-840,390,1248,35392,-76,35,127,0,0,4464,-1582,740,1845,904,88,101,1,1,427,-2,228272,0
228311,4492,-2374,-1019,-1600,-1167,-4518,22915,-536,-1312,465,-848,35395,-94,35,127,0,0,4449,-219,940,1845,904,88,111,1,1,427,-2,228319,0
228321,-14,-1839,-1202,-887,-777,-5638,22161,-2135,-2156,507,-4816,35407,-107,35,127,0,0,4297,-1636,1140,1845,904,88,121,1,1,427,-2,228319,0
228331,-1448,-1507,-1537,-752,1521,-7060,20809,-3269,-2471,496,-7008,35410,-120,35,127,0,0,4040,-2647,1340,1845,904,88,131,1,1,427,-2,228319,0
228341,-54,-2182,779,-576,2164,-7388,19155,-3717,-1848,490,-7256,35408,-130,35,127,0,0,3733,-3131,1500,1845,904,88,141,1,1,427,-2,228319,0
228351,-231,-2842,1515,-593,160,-5771,17604,-3224,-384,705,-5624,35400,-152,35,127,0,0,3502,-2142,1500,1845,904,88,151,1,1,427,-2,228335,0
228361,1278,-2112,1467,-1095,-483,-4719,16359,-2529,817,789,-3744,35417,-187,35,127,0,0,3348,-1614,1500,1845,904,88,161,1,1,427,-2,228382,0
228371,821,-2272,900,-1292,-737,-4450,15457,-1732,1242,850,-1648,35438,-194,35,127,0,0,3203,-1373,1730,1845,904,88,171,1,1,427,-2,228382,0
228381,-513,-1295,-1009,-1082,-276,-4934,14973,-754,1459,1342,64,35441,-181,34,127,0,0,3043,-1593,1900,1845,904,88,181,1,1,427,-2,228397,0
228391,-2768,-1883,-1399,-911,-474,-3902,15011,274,1833,1381,784,35428,-160,34,127,0,0,2946,-780,1990,1845,904,88,191,1,1,427,-2,228397,0
228401,2886,-1341,-74,-637,-1030,-2960,14992,-275,940,1511,-40,35411,-136,35,127,0,0,2935,-142,2070,1845,904,88,201,1,1,427,-2,228397,0
228411,1261,-1201,-80,-860,-1026,-3567,14517,-1396,-1050,1038,-2272,35401,-119,34,127,0,0,2845,-999,2190,1845,904,88,211,1,1,427,-2,228397,0
228421,-544,-1839,-964,-403,705,-4851,13639,-2079,-1695,1122,-3408,35396,-117,34,127,0,0,2682,-1669,2270,1845,904,88,221,1,1,427,-2,228397,0
228431,92,-1866,-825,-172,1150,-4853,12673,-2091,-941,1197,-2912,35411,-158,35,127,0,0,2502,-1812,2320,1845,904,88,231,1,1,427,-2,228413,0
228441,1219,-2645,330,-51,330,-3876,11860,-1621,128,1247,-1344,35437,-191,34,127,0,0,2355,-1384,2340,1845,904,88,241,1,1,427,-2,228413,0
228451,1364,-2833,534,-25,-302,-3122,11395,-744,953,1774,64,35449,-195,35,127,0,0,2267,-812,2370,1845,904,88,251,1,1,427,-2,228522,0
228461,1759,-2031,195,-61,-1184,-1963,11338,19,1486,1838,432,35434,-159,35,127,0,0,2250,-54,2400,1845,904,88,261,1,1,427,-2,228522,0
228471,1280,-1580,-457,-5,-992,-1913,11270,-273,783,1654,40,35394,-115,35,127,0,0,2236,-186,2450,1845,904,88,271,1,1,427,-2,228522,0
228481,661,-1501,-990,348,-138,-2678,10934,-950,-559,1159,-632,35378,-124,35,127,0,0,2170,-736,2510,1845,904,88,281,1,1,427,-2,228522,0
228491,886,-2113,-660,766,1010,-2921,10404,-1193,-927,1333,-712,35381,-136,34,127,0,0,2063,-1054,2530,1845,904,88,291,1,1,427,-2,228538,0
228501,1137,-2126,179,588,461,-2087,9967,-803,-210,1707,-112,35394,-163,35,127,0,0,1968,-900,2520,1845,904,88,301,1,1,427,-2,228538,0
228511,1908,-2775,858,270,-118,-912,9879,65,865,1907,736,35390,-148,35,127,0,0,1951,-76,2520,1845,904,88,311,1,1,427,-2,228538,0
228521,1708,-2459,1063,-38,-660,-285,9960,195,1044,1628,808,35380,-119,35,127,0,0,1973,208,2550,1845,904,88,321,1,1,427,-2,228538,0
228531,1082,-2932,587,-102,-544,-352,10054,228,324,1546,1016,35374,-66,35,127,0,0,1992,186,2610,1845,904,88,331,1,1,427,-2,228538,0
228541,922,-4744,648,-210,-608,-243,10236,484,182,1482,1784,35369,-23,35,127,0,0,2032,406,2660,1845,904,88,341,1,1,427,-2,228538,0
228551,-291,-5418,1514,-77,-514,118,10626,1061,571,1652,3648,35358,-16,34,127,0,0,2137,1109,2730,1845,904,88,351,1,1,427,-2,228538,0
228561,-335,-5053,914,-424,-1272,536,11365,1868,1075,1773,5504,35355,11,34,127,0,0,2340,2065,2890,1845,904,88,361,1,1,427,-2,228538,0
228571,-640,-4483,479,-357,-1383,353,12452,2603,1341,1812,7408,35354,72,35,127,0,0,2559,2208,3200,1845,904,88,371,1,1,427,-2,228553,0
228581,-954,-3841,-293,-55,-1511,-59,13843,3252,1251,1852,9336,35350,176,35,127,0,0,2819,2625,3530,1845,904,88,381,1,1,427,-2,228569,0
