state_time,accelx,accely,accelz,gyrox,gyroy,gyroz,mot_ang,mot_vel,mot_acc,mot_cur,mot_volt,batt_volt,batt_curr,temperature,status_mn,status_ex,status_re,ank_ang,ank_vel,ank_torque,peak_ank_torque,step_energy,step_count,step_time,gait_state,movement,speed,incline,sys_time,eventFlags
133140,105,-2041,194,-32,-10,-44,14112,-3,1,-361,-104,35394,-108,34,127,0,0,3770,0,0,9148,-639,65,6484,-4,0,81,-3,133171,0
133150,105,-2050,185,-33,-2,-41,14112,4,-1,-365,-104,35389,-94,34,127,0,0,3770,0,0,9148,-639,65,6494,-4,0,81,-3,133171,0
133160,102,-2045,189,-34,-9,-41,14110,-9,1,-365,-104,35388,-92,35,127,0,0,3770,0,0,9148,-639,65,6504,-4,0,81,-3,133171,0
133170,100,-2040,194,-27,-7,-36,14110,-5,-5,-366,-104,35402,-100,34,127,0,0,3770,0,0,9148,-639,65,6514,-4,0,81,-3,133171,0
133180,105,-2043,190,-32,-10,-34,14110,1,-3,-341,-80,35403,-107,35,127,0,0,3769,-27,0,9148,-639,65,6524,-4,0,81,-3,133171,0
133190,101,-2043,184,-33,-5,-34,14110,-4,2,-355,-104,35396,-104,34,127,0,0,3770,0,0,9148,-639,65,6534,-4,0,81,-3,133202,0
133200,92,-2037,182,-33,-5,-34,14109,0,-1,-352,-72,35375,-89,34,127,0,0,3772,32,0,9148,-639,65,6544,-4,0,81,-3,133202,0
133210,117,-2041,191,-27,-4,-36,14109,-5,0,-340,-96,35374,-87,35,127,0,0,3770,5,0,9148,-639,65,6554,-4,0,81,-3,133218,0
133220,105,-2038,186,-35,-8,-26,14108,-7,0,-346,-96,35379,-78,34,127,0,0,3770,-5,0,9148,-639,65,6564,-4,0,81,-3,133218,0
133230,89,-2046,197,-30,-6,-21,14108,-3,1,-334,-96,35385,-85,34,127,0,0,3773,0,0,9148,-639,65,6574,-4,0,81,-3,133218,0
133240,93,-2040,199,-28,0,-27,14108,-9,1,-335,-96,35383,-83,35,127,0,0,3770,5,0,9148,-639,65,6584,-4,0,81,-3,133218,0
133250,89,-2056,190,-40,-4,-19,14110,10,-3,-323,-80,35395,-73,34,127,0,0,3769,-27,0,9148,-639,65,6594,-4,0,81,-3,133234,0
133260,108,-2042,201,-34,1,-21,14110,8,8,-302,-104,35407,-71,35,127,0,0,3770,-71,0,9148,-639,65,6604,-4,0,81,-3,133327,0
133270,79,-2047,188,-34,-2,-19,14109,8,-2,-281,-96,35415,-68,35,127,0,0,3770,-87,0,9148,-639,65,6614,-4,0,81,-3,133327,0
133280,75,-2049,189,-36,-13,-18,14106,-11,-8,-350,-72,35398,-74,35,127,0,0,3772,38,0,9148,-639,65,6624,-4,0,81,-3,133327,0
133290,95,-2037,185,-36,1,-14,14109,17,3,-288,-72,35391,-93,35,127,0,0,3769,-54,0,9148,-639,65,6634,-4,0,81,-3,133327,0
133300,87,-2048,190,-38,0,-15,14106,-5,8,-301,-96,35387,-106,34,127,0,0,3777,43,0,9148,-639,65,6644,-4,0,81,-3,133343,0
133310,91,-2041,196,-36,-7,-16,14107,-4,-4,-298,-48,35387,-98,35,127,0,0,3774,93,0,9148,-639,65,6654,-4,0,81,-3,133343,0
133320,85,-2043,190,-40,-9,-18,14110,9,17,-229,-56,35384,-100,34,127,0,0,3774,0,0,9148,-639,65,6664,-4,0,81,-3,133343,0
133330,92,-2039,196,-39,-7,-29,14108,-5,-5,-227,-72,35380,-109,34,127,0,0,3776,21,0,9148,-639,65,6674,-4,0,81,-3,133343,0
133340,92,-2041,199,-43,-3,-31,14113,20,0,-165,-56,35389,-118,34,127,0,0,3774,-43,0,9148,-639,65,6684,-4,0,81,-3,133343,0
133350,74,-2037,197,-43,-14,-24,14109,-9,0,-203,-24,35396,-102,34,127,0,0,3777,10,0,9148,-639,65,6694,-4,0,81,-3,133343,0
133360,82,-2045,187,-40,-15,-25,14113,-2,-3,-185,-32,35390,-104,34,127,0,0,3777,5,0,9148,-639,65,6704,-4,0,81,-3,133343,0
133370,92,-2045,185,-41,-12,-28,14113,6,8,-155,-16,35390,-93,35,127,0,0,3772,-27,0,9148,-639,65,6714,-4,0,81,-3,133343,0
133380,103,-2040,189,-39,-6,-30,14112,-9,-8,-193,-32,35392,-70,35,127,0,0,3780,32,0,9148,-639,65,6724,-4,0,81,-3,133374,0
133390,101,-2042,197,-48,-7,-33,14114,-3,3,-169,-40,35407,-57,34,127,0,0,3780,60,0,9148,-639,65,6734,-4,0,81,-3,133374,0
133400,67,-2039,191,-40,-9,-32,14115,12,0,-104,-16,35400,-41,34,127,0,0,3779,54,0,9148,-639,65,6744,-4,0,81,-3,133390,0
133410,94,-2037,195,-48,-12,-40,14116,-8,0,-119,-16,35391,-56,35,127,0,0,3779,0,0,9148,-639,65,6754,-4,0,81,-3,133390,0
133420,70,-2047,192,-48,-11,-39,14116,-2,-5,-116,-40,35389,-63,34,127,0,0,3777,-21,0,9148,-639,65,6764,-4,0,81,-3,133406,0
133430,75,-2048,196,-43,-7,-43,14117,12,1,-100,-24,35402,-66,34,127,0,0,3779,-10,0,9148,-639,65,6774,-4,0,81,-3,133421,0
133440,81,-2046,198,-46,-14,-42,14116,-3,0,-108,-40,35401,-80,34,127,0,0,3780,-5,0,9148,-639,65,6784,-4,0,81,-3,133421,0
133450,94,-2045,192,-51,-8,-47,14117,1,1,-117,-64,35384,-72,34,127,0,0,3781,16,0,9148,-639,65,6794,-4,0,81,-3,133437,0
133460,63,-2046,192,-48,-8,-48,14116,3,6,-113,-16,35374,-91,35,127,0,0,3779,21,0,9148,-639,65,6804,-4,0,81,-3,133437,0
133470,119,-2045,191,-49,-12,-43,14118,7,2,-109,-24,35377,-94,34,127,0,0,3779,0,0,9148,-639,65,6814,-4,0,81,-3,133468,0
133480,111,-2048,186,-48,-10,-46,14116,-2,0,-144,-16,35382,-91,35,127,0,0,3779,21,0,9148,-639,65,6824,-4,0,81,-3,133468,0
133490,116,-2046,187,-51,-11,-45,14118,9,6,-82,-24,35382,-96,34,127,0,0,3779,-16,0,9148,-639,65,6834,-4,0,81,-3,133468,0
133500,92,-2041,188,-48,-11,-42,14117,-4,-1,-110,-40,35378,-95,34,127,0,0,3780,-5,0,9148,-639,65,6844,-4,0,81,-3,133499,0
133510,110,-2049,186,-54,-13,-38,14116,-5,-4,-130,-16,35389,-114,35,127,0,0,3779,27,0,9148,-639,65,6854,-4,0,81,-3,133499,0
133520,98,-2048,184,-48,-15,-30,14116,-3,11,-109,-16,35400,-95,35,127,0,0,3779,0,0,9148,-639,65,6864,-4,0,81,-3,133499,0
133530,97,-2044,189,-40,-9,-28,14117,0,-1,-90,-24,35395,-91,34,127,0,0,3779,-16,0,9148,-639,65,6874,-4,0,81,-3,133562,0
133540,104,-2044,196,-40,-9,-28,14119,5,1,-85,0,35383,-76,34,127,0,0,3781,10,0,9148,-639,65,6884,-4,0,81,-3,133562,0
133550,109,-2044,193,-44,-8,-21,14119,1,5,-37,0,35386,-75,35,127,0,0,3781,27,0,9148,-639,65,6894,-4,0,81,-3,133562,0
133560,88,-2044,187,-40,-7,-22,14120,-5,3,-46,0,35391,-77,34,127,0,0,3781,5,0,9148,-639,65,6904,-4,0,81,-3,133577,0
133570,84,-2054,192,-46,-13,-21,14120,5,0,-35,-8,35394,-91,34,127,0,0,3781,5,0,9148,-639,65,6914,-4,0,81,-3,133577,0
133580,76,-2049,192,-38,-9,-23,14120,11,2,0,-8,35384,-90,34,127,0,0,3781,-5,0,9148,-639,65,6924,-4,0,81,-3,133577,0
133590,100,-2043,183,-39,-7,-27,14122,4,0,-3,-8,35385,-98,34,127,0,0,3781,-16,0,9148,-639,65,6934,-4,0,81,-3,133577,0
133600,93,-2046,188,-38,-10,-28,14121,0,-3,0,16,35393,-83,35,127,0,0,3783,27,0,9148,-639,65,6944,-4,0,81,-3,133577,0
133610,77,-2047,195,-40,-11,-28,14125,0,10,14,32,35402,-85,34,127,0,0,3785,27,0,9148,-639,65,6954,-4,0,81,-3,133671,0
133620,73,-2043,191,-39,-8,-29,14127,4,7,106,32,35408,-90,34,127,0,0,3782,-5,0,9148,-639,65,6964,-4,0,81,-3,133671,0
133630,80,-2047,191,-39,-8,-36,14128,4,-4,116,32,35400,-109,35,127,0,0,3785,-27,0,9148,-639,65,6974,-4,0,81,-3,133671,0
133640,88,-2040,194,-39,-12,-32,14127,-1,-4,101,24,35401,-109,34,127,0,0,3785,5,0,9148,-639,65,6984,-4,0,81,-3,133687,0
133650,90,-2039,191,-44,-7,-32,14128,4,2,115,24,35389,-87,35,127,0,0,3785,0,0,9148,-639,65,6994,-4,0,81,-3,133687,0
133660,90,-2045,190,-40,-11,-31,14128,-3,0,122,24,35388,-89,34,127,0,0,3785,0,0,9148,-639,65,7004,-4,0,81,-3,133687,0
133670,87,-2043,189,-38,1,-27,14129,4,1,148,48,35391,-90,34,127,0,0,3784,-16,0,9148,-639,65,7014,-4,0,81,-3,133687,0
133680,99,-2037,190,-43,-14,-29,14130,-3,1,141,48,35408,-96,35,127,0,0,3788,16,0,9148,-639,65,7024,-4,0,81,-3,133687,0
133690,97,-2035,193,-38,-7,-32,14130,-7,-3,123,48,35410,-96,34,127,0,0,3788,32,0,9148,-639,65,7034,-4,0,81,-3,133687,0
133700,87,-2038,185,-37,-10,-28,14130,-6,-1,161,48,35395,-91,34,127,0,0,3788,21,0,9148,-639,65,7044,-4,0,81,-3,133687,0
133710,90,-2039,196,-37,-7,-31,14134,0,6,195,40,35384,-106,35,127,0,0,3788,-21,0,9148,-639,65,7054,-4,0,81,-3,133687,0
133720,89,-2040,196,-38,-10,-29,14132,-8,-1,124,16,35394,-89,34,127,0,0,3789,16,0,9148,-639,65,7064,-4,0,81,-3,133734,0
133730,87,-2045,188,-38,-6,-34,14135,20,-2,164,40,35414,-81,35,127,0,0,3788,0,0,9148,-639,65,7074,-4,0,81,-3,133734,0
133740,80,-2049,200,-39,-7,-33,14133,0,6,180,40,35415,-71,34,127,0,0,3788,0,0,9148,-639,65,7084,-4,0,81,-3,133734,0
133750,83,-2040,194,-45,-12,-34,14135,1,-6,178,64,35405,-74,34,127,0,0,3786,0,0,9148,-639,65,7094,-4,0,81,-3,133734,0
133760,97,-2047,198,-42,-5,-39,14135,0,4,186,64,35395,-89,34,127,0,0,3790,16,0,9148,-639,65,7104,-4,0,81,-3,133749,0
133770,82,-2047,198,-43,-12,-45,14135,1,1,212,56,35397,-94,34,127,0,0,3786,-32,0,9148,-639,65,7114,-4,0,81,-3,133749,0
133780,93,-2045,193,-41,-5,-46,14135,0,2,200,56,35407,-88,34,127,0,0,3790,-10,0,9148,-639,65,7124,-4,0,81,-3,133780,0
133790,89,-2046,194,-43,-8,-40,14136,2,0,217,56,35409,-46,34,127,0,0,3790,0,0,9148,-639,65,7134,-4,0,81,-3,133780,0
133800,87,-2047,194,-44,-9,-45,14135,-3,1,235,80,35405,-53,35,127,0,0,3789,0,0,9148,-639,65,7144,-4,0,81,-3,133780,0
133810,100,-2042,189,-41,1,-46,14140,0,1,213,56,35404,-74,34,127,0,0,3786,-32,0,9148,-639,65,7154,-4,0,81,-3,133780,0
133820,108,-2046,185,-42,-13,-41,14137,3,-8,207,56,35401,-103,35,127,0,0,3790,-16,0,9148,-639,65,7164,-4,0,81,-3,133812,0
133830,95,-2042,193,-35,-8,-35,14138,-7,-2,228,56,35402,-82,35,127,0,0,3790,-5,0,9148,-639,65,7174,-4,0,81,-3,133812,0
133840,102,-2043,198,-40,-4,-29,14139,1,-1,222,56,35396,-87,35,127,0,0,3793,32,0,9148,-639,65,7184,-4,0,81,-3,133812,0
133850,100,-2044,185,-37,-4,-22,14140,0,3,246,72,35403,-94,35,127,0,0,3789,-16,0,9148,-639,65,7194,-4,0,81,-3,133843,0
133860,103,-2043,190,-39,-3,-28,14140,9,-2,239,48,35411,-103,34,127,0,0,3790,-43,0,9148,-639,65,7204,-4,0,81,-3,133859,0
133870,82,-2040,195,-30,-10,-21,14140,5,-2,233,72,35407,-88,34,127,0,0,3792,32,0,9148,-639,65,7214,-4,0,81,-3,133859,0
133880,87,-2036,193,-39,-6,-21,14142,8,7,260,48,35401,-106,35,127,0,0,3793,-16,0,9148,-639,65,7224,-4,0,81,-3,133859,0
133890,59,-2054,191,-39,-5,-24,14144,8,2,283,88,35400,-102,34,127,0,0,3791,-21,0,9148,-639,65,7234,-4,0,81,-3,133890,0
133900,75,-2040,196,-38,-6,-22,14144,-9,-3,240,88,35415,-96,35,127,0,0,3797,93,0,9148,-639,65,7244,-4,0,81,-3,133890,0
133910,95,-2044,192,-45,-4,-34,14153,30,12,308,72,35413,-87,34,127,0,0,3797,38,0,9148,-639,65,7254,-4,0,81,-3,133890,0
133920,76,-2045,191,-39,-1,-35,14169,37,23,214,64,35401,-78,34,127,0,0,3796,16,0,9148,-639,65,7264,-4,0,81,-3,133921,0
133930,106,-2044,196,-44,-8,-34,14182,1,6,37,8,35397,-108,35,127,0,0,3794,21,0,9148,-639,65,7274,-4,0,81,-3,133921,0
133940,80,-2044,188,-42,-2,-40,14180,6,-46,77,16,35401,-112,35,127,0,0,3794,-5,0,9148,-639,65,7284,-4,0,81,-3,133921,0
133950,74,-2047,199,-43,-7,-41,14180,-4,-20,57,16,35399,-120,34,127,0,0,3794,0,0,9148,-639,65,7294,-4,0,81,-3,133921,0
133960,87,-2042,194,-45,-3,-39,14184,14,6,118,8,35395,-111,34,127,0,0,3797,-16,0,9148,-639,65,7304,-4,0,81,-3,133952,0
133970,88,-2047,200,-45,-9,-43,14182,-1,2,119,8,35391,-94,35,127,0,0,3801,54,0,9148,-639,65,7314,-4,0,81,-3,133952,0
133980,76,-2040,189,-39,-11,-43,14183,-1,-5,122,32,35400,-97,34,127,0,0,3796,38,0,9148,-639,65,7324,-4,0,81,-3,133968,0
133990,107,-2040,196,-43,-5,-47,14179,-18,-4,56,40,35406,-85,35,127,0,0,3793,54,0,9148,-639,65,7334,-4,0,81,-3,133984,0
134000,127,-2052,187,-48,-3,-48,14182,-8,-3,14,16,35407,-99,34,127,0,0,3794,16,0,9148,-639,65,7344,-4,0,81,-3,133984,0
134010,67,-2043,186,-37,-7,-39,14182,0,3,37,32,35403,-101,34,127,0,0,3790,-38,0,9148,-639,65,7354,-4,0,81,-3,134062,0
134020,107,-2045,187,-44,-12,-42,14183,7,-11,30,40,35409,-117,35,127,0,0,3796,38,0,9148,-639,65,7364,-4,0,81,-3,134062,0
134030,103,-2038,195,-34,-12,-43,14182,-18,-10,47,16,35410,-122,34,127,0,0,3794,32,0,9148,-639,65,7374,-4,0,81,-3,134062,0
134040,96,-2039,189,-32,0,-53,14185,12,3,104,32,35400,-118,34,127,0,0,3793,-43,0,9148,-639,65,7384,-4,0,81,-3,134062,0
134050,67,-2052,193,-36,-10,-41,14182,-7,-1,64,32,35389,-131,35,127,0,0,3790,-54,0,9148,-639,65,7394,-4,0,81,-3,134077,0
134060,105,-2040,187,-37,-12,-49,14183,5,-3,30,32,35391,-119,34,127,0,0,3796,0,0,9148,-639,65,7404,-4,0,81,-3,134077,0
134070,117,-2042,196,-35,-5,-47,14183,-8,6,48,8,35397,-122,35,127,0,0,3794,10,0,9148,-639,65,7414,-4,0,81,-3,134077,0
134080,104,-2052,193,-31,-13,-43,14181,-9,-10,4,-8,35404,-127,34,127,0,0,3795,38,0,9148,-639,65,7424,-4,0,81,-3,134077,0
134090,66,-2045,187,-38,-12,-42,14183,1,3,65,8,35400,-117,34,127,0,0,3794,-5,0,9148,-639,65,7434,-4,0,81,-3,134077,0
134100,94,-2040,192,-34,-7,-49,14182,-6,-4,59,40,35401,-134,35,127,0,0,3793,-21,0,9148,-639,65,7444,-4,0,81,-3,134077,0
134110,99,-2039,184,-32,-8,-46,14180,-17,-8,32,16,35410,-120,34,127,0,0,3791,-21,0,9148,-639,65,7454,-4,0,81,-3,134093,0
134120,128,-2041,188,-28,-7,-52,14184,4,4,20,-16,35424,-107,35,127,0,0,3792,-49,0,9148,-639,65,7464,-4,0,81,-3,134108,0
134130,63,-2048,198,-27,-11,-43,14183,7,1,84,32,35430,-83,35,127,0,0,3790,-60,0,9148,-639,65,7474,-4,0,81,-3,134108,0
134140,111,-2041,200,-32,-11,-45,14181,-23,-5,25,16,35418,-82,35,127,0,0,3797,43,0,9148,-639,65,7484,-4,0,81,-3,134124,0
134150,95,-2036,198,-26,-10,-40,14185,3,-3,20,8,35405,-103,34,127,0,0,3794,16,0,9148,-639,65,7494,-4,0,81,-3,134140,0
134160,70,-2036,196,-28,-11,-40,14183,8,2,70,8,35408,-108,34,127,0,0,3801,71,0,9148,-639,65,7504,-4,0,81,-3,134140,0
134170,75,-2044,202,-36,-10,-43,14188,0,6,129,0,35398,-100,34,127,0,0,3794,-38,0,9148,-639,65,7514,-4,0,81,-3,134202,0
134180,57,-2044,202,-28,-14,-51,14185,8,-11,56,32,35395,-99,34,127,0,0,3796,10,0,9148,-639,65,7524,-4,0,81,-3,134202,0
134190,115,-2036,192,-35,-3,-49,14185,-3,1,57,32,35389,-102,35,127,0,0,3793,10,0,9148,-639,65,7534,-4,0,81,-3,134202,0
134200,120,-2045,198,-38,-6,-53,14184,0,7,34,8,35394,-100,34,127,0,0,3794,-27,0,9148,-639,65,7544,-4,0,81,-3,134218,0
134210,75,-2040,191,-41,-9,-54,14184,1,-5,29,8,35389,-109,34,127,0,0,3797,32,0,9148,-639,65,7554,-4,0,81,-3,134218,0
134220,71,-2047,200,-45,-11,-51,14183,-11,4,25,-8,35384,-114,35,127,0,0,3792,-21,0,9148,-639,65,7564,-4,0,81,-3,134218,0
134230,70,-2036,194,-41,-9,-58,14184,16,4,46,32,35389,-118,34,127,0,0,3793,-10,0,9148,-639,65,7574,-4,0,81,-3,134218,0
134240,113,-2042,196,-41,-10,-60,14182,-19,5,47,-8,35392,-108,35,127,0,0,3795,-21,0,9148,-639,65,7584,-4,0,81,-3,134218,0
134250,56,-2048,207,-45,-15,-46,14185,0,-3,61,8,35402,-105,34,127,0,0,3794,-32,0,9148,-639,65,7594,-4,0,81,-3,134249,0
134260,84,-2038,202,-45,-18,-54,14184,6,1,48,32,35401,-78,34,127,0,0,3790,-38,0,9148,-639,65,7604,-4,0,81,-3,134249,0
134270,72,-2055,199,-48,-12,-53,14183,-1,-6,0,8,35402,-93,35,127,0,0,3791,-54,0,9148,-639,65,7614,-4,0,81,-3,134265,0
134280,92,-2049,198,-47,-8,-53,14183,-8,-2,10,8,35396,-104,34,127,0,0,3791,-21,0,9148,-639,65,7624,-4,0,81,-3,134265,0
134290,54,-2045,203,-48,-16,-58,14184,-8,-1,28,-16,35389,-125,35,127,0,0,3795,-43,0,9148,-639,65,7634,-4,0,81,-3,134265,0
134300,54,-2046,195,-47,-18,-62,14184,2,0,19,8,35390,-127,34,127,0,0,3791,-16,0,9148,-639,65,7644,-4,0,81,-3,134296,0
134310,76,-2055,198,-49,-6,-65,14184,2,-1,-6,8,35397,-119,34,127,0,0,3791,-27,0,9148,-639,65,7654,-4,0,81,-3,134312,0
134320,94,-2039,196,-48,-11,-69,14185,8,5,46,8,35402,-133,35,127,0,0,3791,-87,0,9148,-639,65,7664,-4,0,81,-3,134312,0
134330,52,-2042,196,-51,-17,-65,14184,5,1,30,32,35400,-126,34,127,0,0,3793,-27,0,9148,-639,65,7674,-4,0,81,-3,134312,0
134340,77,-2042,197,-53,-18,-68,14182,-12,-5,-2,16,35382,-126,34,127,0,0,3797,76,0,9148,-639,65,7684,-4,0,81,-3,134343,0
134350,105,-2044,199,-55,-5,-70,14185,4,12,59,-16,35389,-135,34,127,0,0,3792,-43,0,9148,-639,65,7694,-4,0,81,-3,134343,0
134360,78,-2042,198,-52,-13,-84,14181,-4,-6,-40,-8,35392,-137,34,127,0,0,3789,-65,0,9148,-639,65,7704,-4,0,81,-3,134343,0
134370,77,-2039,197,-62,-10,-80,14181,10,-2,-89,-32,35396,-131,34,127,0,0,3790,-32,0,9148,-639,65,7714,-4,0,81,-3,134343,0
134380,86,-2040,200,-61,-10,-86,14176,-10,0,-137,-24,35391,-113,34,127,0,0,3790,27,0,9148,-639,65,7724,-4,0,81,-3,134437,0
134390,101,-2041,210,-65,-11,-79,14179,2,6,-113,-24,35387,-80,34,127,0,0,3790,0,0,9148,-639,65,7734,-4,0,81,-3,134452,0
134400,88,-2037,210,-74,-10,-77,14178,-4,3,-129,-72,35392,-94,34,127,0,0,3789,-16,0,9148,-639,65,7744,-4,0,81,-3,134452,0
134410,103,-2044,217,-76,-15,-78,14172,-18,-17,-209,-40,35390,-93,35,127,0,0,3784,0,0,9148,-639,65,7754,-4,0,81,-3,134452,0
134420,101,-2045,205,-85,-15,-70,14170,0,3,-213,-56,35386,-112,34,127,0,0,3789,16,0,9148,-639,65,7764,-4,0,81,-3,134452,0
134430,95,-2052,200,-88,-20,-66,14170,-4,7,-212,-56,35380,-115,34,127,0,0,3785,10,0,9148,-639,65,7774,-4,0,81,-3,134452,0
134440,90,-2044,190,-83,-8,-69,14170,4,1,-230,-56,35377,-119,35,127,0,0,3782,-32,0,9148,-639,65,7784,-4,0,81,-3,134452,0
134450,100,-2040,179,-81,-4,-72,14164,-16,-8,-274,-40,35384,-127,34,127,0,0,3785,21,0,9148,-639,65,7794,-4,0,81,-3,134452,0
134460,83,-2051,173,-83,-5,-69,14160,-8,-10,-203,-80,35386,-115,35,127,0,0,3781,-54,0,9148,-639,65,7804,-4,0,81,-3,134452,0
134470,92,-2038,187,-78,-9,-70,14144,-47,-14,-244,-48,35381,-117,34,127,0,0,3781,0,0,9148,-639,65,7814,-4,0,81,-3,134452,0
134480,75,-2048,180,-72,-11,-75,14129,-9,-22,-105,-24,35378,-112,34,127,0,0,3778,-27,0,9148,-639,65,7824,-4,0,81,-3,134468,0
134490,107,-2042,196,-72,-5,-73,14130,-2,42,-171,-48,35393,-103,35,127,0,0,3779,-5,0,9148,-639,65,7834,-4,0,81,-3,134483,0
134500,104,-2038,184,-66,-4,-73,14129,4,22,-182,-24,35413,-90,35,127,0,0,3778,5,0,9148,-639,65,7844,-4,0,81,-3,134483,0
134510,89,-2036,200,-75,-15,-72,14129,-8,0,-194,-64,35413,-86,34,127,0,0,3780,0,0,9148,-639,65,7854,-4,0,81,-3,134499,0
134520,75,-2035,199,-74,-1,-84,14129,13,-4,-147,-48,35399,-101,35,127,0,0,3776,-60,0,9148,-639,65,7864,-4,0,81,-3,134499,0
134530,77,-2045,196,-77,-4,-95,14125,-11,0,-217,-56,35392,-95,34,127,0,0,3780,-5,0,9148,-639,65,7874,-4,0,81,-3,134515,0
134540,65,-2041,185,-74,-8,-92,14125,-4,-5,-247,-56,35396,-86,34,127,0,0,3773,0,0,9148,-639,65,7884,-4,0,81,-3,134530,0
134550,71,-2039,187,-84,-5,-100,14121,-2,-4,-297,-72,35394,-84,34,127,0,0,3774,0,0,9148,-639,65,7894,-4,0,81,-3,134530,0
134560,76,-2040,185,-84,-1,-111,14119,-2,6,-303,-96,35388,-77,34,127,0,0,3776,27,0,9148,-639,65,7904,-4,0,81,-3,134546,0
134570,96,-2038,178,-83,-4,-114,14116,-14,5,-356,-112,35383,-67,35,127,0,0,3770,21,0,9148,-639,65,7914,-4,0,81,-3,134562,0
134580,85,-2046,183,-84,-7,-119,14111,-1,-12,-353,-128,35388,-71,35,127,0,0,3768,-38,0,9148,-639,65,7924,-4,0,81,-3,134562,0
134590,114,-2051,191,-92,-3,-124,14106,-16,-3,-413,-136,35385,-74,34,127,0,0,3766,-10,0,9148,-639,65,7934,-4,0,81,-3,134593,0
134600,106,-2054,195,-91,-3,-119,14090,-36,-13,-392,-112,35394,-75,34,127,0,0,3762,-27,0,9148,-639,65,7944,-4,0,81,-3,134593,0
134610,101,-2049,186,-94,-9,-117,14064,-64,-46,-271,-104,35392,-64,35,127,0,0,3761,-65,0,9148,-639,65,7954,-4,0,81,-3,134593,0
134620,94,-2045,176,-85,2,-119,14057,1,7,-338,-104,35394,-69,34,127,0,0,3759,-16,0,9148,-639,65,7964,-4,0,81,-3,134593,0
134630,114,-2049,171,-78,-8,-117,14057,-1,61,-383,-136,35393,-83,35,127,0,0,3754,-65,0,9148,-639,65,7974,-4,0,81,-3,134624,0
134640,103,-2048,176,-78,-7,-114,14051,-4,1,-443,-144,35401,-100,34,127,0,0,3755,-16,0,9148,-639,65,7984,-4,0,81,-3,134624,0
134650,113,-2041,178,-77,2,-110,14047,-7,-3,-498,-184,35399,-89,34,127,0,0,3750,-71,0,9148,-639,65,7994,-4,0,81,-3,134624,0
134660,114,-2042,171,-77,-2,-110,14035,-35,-8,-495,-160,35400,-89,35,127,0,0,3754,-5,0,9148,-639,65,8004,-4,0,81,-3,134640,0
134670,120,-2042,169,-63,-3,-97,14020,-51,-21,-454,-136,35415,-71,35,127,0,0,3750,32,0,9148,-639,65,8014,-4,0,81,-3,134655,0
134680,113,-2038,174,-62,-5,-91,13998,-43,-21,-349,-112,35412,-69,34,127,0,0,3748,-5,0,9148,-639,65,8024,-4,0,81,-3,134671,0
134690,118,-2041,174,-57,-7,-74,13994,0,29,-418,-128,35411,-99,35,127,0,0,3746,-16,0,9148,-639,65,8034,-4,0,81,-3,134671,0
134700,133,-2033,176,-60,-8,-68,13994,-3,45,-457,-152,35400,-101,34,127,0,0,3744,-32,0,9148,-639,65,8044,-4,0,81,-3,134686,0
134710,112,-2043,184,-63,-9,-57,13993,5,-4,-468,-120,35398,-102,35,127,0,0,3743,0,0,9148,-639,65,8054,-4,0,81,-3,134686,0
134720,119,-2043,173,-56,-6,-57,13991,-10,-1,-492,-144,35404,-101,34,127,0,0,3744,-27,0,9148,-639,65,8064,-4,0,81,-3,134718,0
134730,117,-2049,169,-46,-5,-46,13990,-4,5,-485,-136,35404,-71,34,127,0,0,3744,0,0,9148,-639,65,8074,-4,0,81,-3,134718,0
134740,118,-2047,175,-47,-7,-39,13990,1,7,-474,-168,35405,-83,34,127,0,0,3741,-65,0,9148,-639,65,8084,-4,0,81,-3,134718,0
134750,97,-2043,169,-43,-8,-34,13985,-4,0,-507,-136,35400,-77,34,127,0,0,3744,5,0,9148,-639,65,8094,-4,0,81,-3,134733,0
134760,114,-2047,172,-42,-2,-31,13985,6,-2,-482,-136,35404,-92,35,127,0,0,3744,-5,0,9148,-639,65,8104,-4,0,81,-3,134733,0
134770,120,-2052,175,-39,4,-31,13984,-4,8,-458,-128,35405,-87,35,127,0,0,3744,0,0,9148,-639,65,8114,-4,0,81,-3,134765,0
134780,125,-2042,182,-28,2,-29,13984,-10,-2,-483,-128,35404,-71,35,127,0,0,3744,16,0,9148,-639,65,8124,-4,0,81,-3,134765,0
134790,111,-2045,182,-34,-3,-25,13984,2,1,-447,-104,35404,-77,34,127,0,0,3743,-10,0,9148,-639,65,8134,-4,0,81,-3,134780,0
134800,125,-2035,179,-36,-1,-21,13984,-4,-1,-455,-128,35410,-60,35,127,0,0,3744,0,0,9148,-639,65,8144,-4,0,81,-3,134780,0
134810,113,-2044,176,-30,-7,-16,13984,-6,-5,-464,-128,35410,-86,34,127,0,0,3740,-27,0,9148,-639,65,8154,-4,0,81,-3,134796,0
134820,108,-2049,188,-34,-7,-18,13983,3,-4,-466,-128,35412,-88,34,127,0,0,3744,-16,0,9148,-639,65,8164,-4,0,81,-3,134796,0
134830,96,-2041,184,-29,-2,-19,13983,0,7,-433,-136,35418,-94,35,127,0,0,3747,27,0,9148,-639,65,8174,-4,0,81,-3,134827,0
134840,100,-2047,179,-28,-6,-24,13984,10,4,-402,-136,35430,-102,34,127,0,0,3747,-27,0,9148,-639,65,8184,-4,0,81,-3,134827,0
134850,102,-2042,168,-27,-8,-13,13982,0,-2,-410,-128,35418,-93,34,127,0,0,3747,21,0,9148,-639,65,8194,-4,0,81,-3,134827,0
134860,100,-2046,171,-26,1,-19,13983,2,0,-425,-128,35408,-88,35,127,0,0,3747,16,0,9148,-639,65,8204,-4,0,81,-3,134843,0
134870,96,-2040,170,-21,0,-21,13984,-1,0,-430,-104,35398,-83,34,127,0,0,3746,32,0,9148,-639,65,8214,-4,0,81,-3,134890,0
134880,98,-2047,172,-22,1,-15,13983,-1,2,-417,-128,35410,-79,34,127,0,0,3744,-10,0,9148,-639,65,8224,-4,0,81,-3,134890,0
134890,105,-2045,170,-10,0,-13,13984,3,-2,-409,-104,35408,-84,34,127,0,0,3746,-10,0,9148,-639,65,8234,-4,0,81,-3,134890,0
134900,115,-2041,180,-9,-2,-4,13984,1,0,-384,-104,35403,-78,34,127,0,0,3743,-49,0,9148,-639,65,8244,-4,0,81,-3,134905,0
134910,118,-2043,181,-5,-1,-3,13984,10,-4,-406,-104,35396,-90,35,127,0,0,3749,43,0,9148,-639,65,8254,-4,0,81,-3,134921,0
134920,112,-2045,186,-1,-6,8,13985,2,3,-369,-88,35397,-94,34,127,0,0,3748,32,0,9148,-639,65,8264,-4,0,81,-3,134921,0
134930,106,-2046,189,-2,1,18,13989,18,3,-266,-64,35403,-85,35,127,0,0,3754,0,0,9148,-639,65,8274,-4,0,81,-3,134921,0
134940,123,-2049,193,-6,-10,23,13991,-8,3,-221,-24,35412,-90,34,127,0,0,3755,38,0,9148,-639,65,8284,-4,0,81,-3,134921,0
134950,87,-2049,187,-8,-9,22,13996,12,-4,-121,-8,35419,-91,34,127,0,0,3754,-27,0,9148,-639,65,8294,-4,0,81,-3,134936,0
134960,109,-2038,187,-1,-6,20,13998,-3,-2,-100,-16,35422,-109,34,127,0,0,3757,-10,0,9148,-639,65,8304,-4,0,81,-3,134952,0
134970,78,-2048,182,-7,-4,17,14000,5,-15,-72,-16,35430,-92,34,127,0,0,3760,5,0,9148,-639,65,8314,-4,0,81,-3,134952,0
134980,66,-2053,178,5,0,-2,14002,15,4,12,0,35415,-92,35,127,0,0,3762,5,0,9148,-639,65,8324,-4,0,81,-3,134968,0
134990,67,-2038,183,10,-1,-4,14003,-8,8,31,16,35406,-90,35,127,0,0,3765,38,0,9148,-639,65,8334,-4,0,81,-3,134983,0
135000,54,-2047,184,4,2,-13,14008,11,0,98,32,35408,-85,35,127,0,0,3763,32,0,9148,-639,65,8344,-4,0,81,-3,134983,0
135010,80,-2046,202,2,3,-21,14009,-10,2,65,32,35417,-94,35,127,0,0,3767,54,0,9148,-639,65,8354,-4,0,81,-3,134999,0
135020,67,-2047,200,6,-2,-26,14014,20,0,147,48,35412,-93,34,127,0,0,3766,32,0,9148,-639,65,8364,-4,0,81,-3,134999,0
135030,98,-2048,207,-2,-1,-40,14013,-6,1,93,24,35400,-113,35,127,0,0,3763,10,0,9148,-639,65,8374,-4,0,81,-3,135015,0
135040,70,-2039,204,-11,-3,-49,14015,12,-8,114,24,35408,-107,34,127,0,0,3767,5,0,9148,-639,65,8384,-4,0,81,-3,135046,0
135050,96,-2039,205,-18,-8,-53,14014,-6,5,134,48,35419,-82,35,127,0,0,3762,10,0,9148,-639,65,8394,-4,0,81,-3,135046,0
135060,121,-2038,207,-24,0,-57,14013,-9,-2,115,48,35411,-71,34,127,0,0,3762,-32,0,9148,-639,65,8404,-4,0,81,-3,135046,0
135070,83,-2040,199,-23,-8,-61,14012,-8,-4,58,48,35393,-63,34,127,0,0,3762,5,0,9148,-639,65,8414,-4,0,81,-3,135046,0
135080,92,-2043,198,-30,-10,-58,14013,-3,0,90,24,35387,-93,35,127,0,0,3767,16,0,9148,-639,65,8424,-4,0,81,-3,135077,0
135090,68,-2043,201,-34,-14,-57,14015,3,2,122,40,35406,-82,34,127,0,0,3762,-10,0,9148,-639,65,8434,-4,0,81,-3,135093,0
135100,87,-2046,194,-29,-16,-69,14014,5,-4,78,0,35409,-67,34,127,0,0,3765,-32,0,9148,-639,65,8444,-4,0,81,-3,135093,0
135110,74,-2049,199,-35,-16,-72,14013,2,0,75,24,35401,-71,34,127,0,0,3763,5,0,9148,-639,65,8454,-4,0,81,-3,135108,0
135120,68,-2048,189,-36,-15,-77,14014,12,6,97,24,35390,-79,34,127,0,0,3760,-54,0,9148,-639,65,8464,-4,0,81,-3,135108,0
135130,95,-2045,190,-40,-6,-78,14012,5,1,48,0,35403,-91,35,127,0,0,3761,-32,0,9148,-639,65,8474,-4,0,81,-3,135140,0
135140,124,-2044,196,-41,-5,-79,14011,-3,-1,10,0,35415,-89,34,127,0,0,3765,32,0,9148,-639,65,8484,-4,0,81,-3,135155,0
135150,119,-2045,203,-47,-18,-65,14013,3,6,49,0,35412,-84,34,127,0,0,3761,5,0,9148,-639,65,8494,-4,0,81,-3,135155,0
135160,113,-2042,200,-47,-15,-66,14011,3,-1,-13,-16,35401,-107,34,127,0,0,3762,0,0,9148,-639,65,8504,-4,0,81,-3,135155,0
135170,92,-2048,197,-52,-6,-61,14009,5,-2,16,8,35400,-90,34,127,0,0,3761,10,0,9148,-639,65,8514,-4,0,81,-3,135155,0
135180,124,-2043,200,-49,-11,-60,14007,-17,5,-49,8,35399,-90,34,127,0,0,3758,16,0,9148,-639,65,8524,-4,0,81,-3,135155,0
135190,113,-2051,197,-52,-13,-52,14009,4,-1,-48,8,35399,-80,34,127,0,0,3758,-27,0,9148,-639,65,8534,-4,0,81,-3,135171,0
135200,116,-2040,192,-49,-13,-49,14005,-15,2,-108,-8,35402,-89,35,127,0,0,3759,21,0,9148,-639,65,8544,-4,0,81,-3,135202,0
135210,113,-2045,188,-52,-8,-39,14009,19,2,-68,-40,35398,-77,34,127,0,0,3760,-27,0,9148,-639,65,8554,-4,0,81,-3,135202,0
135220,67,-2041,190,-50,-13,-39,14006,4,1,-60,-32,35401,-83,35,127,0,0,3760,0,0,9148,-639,65,8564,-4,0,81,-3,135218,0
135230,121,-2042,190,-53,-8,-44,14005,-5,-5,-112,-32,35389,-86,34,127,0,0,3760,38,0,9148,-639,65,8574,-4,0,81,-3,135218,0
135240,107,-2048,187,-55,-13,-40,14005,-5,8,-120,-32,35393,-97,34,127,0,0,3757,5,0,9148,-639,65,8584,-4,0,81,-3,135218,0
135250,83,-2039,188,-42,-17,-36,14006,0,-3,-151,-8,35397,-93,35,127,0,0,3762,43,0,9148,-639,65,8594,-4,0,81,-3,135249,0
135260,105,-2040,179,-42,-18,-26,14008,2,3,-82,-40,35406,-84,34,127,0,0,3760,38,0,9148,-639,65,8604,-4,0,81,-3,135249,0
135270,94,-2047,194,-43,-17,-35,14005,0,-5,-72,16,35403,-70,35,127,0,0,3755,0,0,9148,-639,65,8614,-4,0,81,-3,135249,0
135280,130,-2036,190,-36,-10,-39,14006,-9,1,-135,16,35391,-76,34,127,0,0,3758,16,0,9148,-639,65,8624,-4,0,81,-3,135296,0
135290,154,-2040,183,-39,-6,-35,14007,1,4,-127,-8,35392,-111,34,127,0,0,3752,-21,0,9148,-639,65,8634,-4,0,81,-3,135296,0
135300,152,-2034,185,-41,-6,-36,14004,-10,-5,-160,-8,35396,-119,35,127,0,0,3759,21,0,9148,-639,65,8644,-4,0,81,-3,135296,0
135310,96,-2036,196,-41,-19,-28,14007,-1,6,-79,8,35402,-104,34,127,0,0,3758,16,0,9148,-639,65,8654,-4,0,81,-3,135296,0
135320,130,-2035,202,-36,-13,-35,14006,-6,-1,-50,-8,35390,-81,34,127,0,0,3759,0,0,9148,-639,65,8664,-4,0,81,-3,135296,0
135330,82,-2041,192,-40,-21,-34,14007,4,-6,-27,-8,35384,-99,35,127,0,0,3759,-16,0,9148,-639,65,8674,-4,0,81,-3,135311,0
135340,80,-2042,191,-41,-17,-36,14006,-4,-2,-62,-8,35396,-80,34,127,0,0,3759,5,0,9148,-639,65,8684,-4,0,81,-3,135311,0
135350,113,-2040,196,-47,-16,-32,14006,4,-1,-113,-8,35411,-82,34,127,0,0,3759,21,0,9148,-639,65,8694,-4,0,81,-3,135343,0
135360,95,-2046,201,-48,-18,-28,14006,0,7,-76,-32,35418,-68,34,127,0,0,3760,5,0,9148,-639,65,8704,-4,0,81,-3,135343,0
135370,53,-2045,193,-42,-18,-38,14009,12,5,-22,-40,35403,-83,34,127,0,0,3760,-32,0,9148,-639,65,8714,-4,0,81,-3,135358,0
135380,52,-2046,187,-42,-22,-40,14006,1,-4,-35,-8,35400,-97,35,127,0,0,3759,0,0,9148,-639,65,8724,-4,0,81,-3,135374,0
135390,93,-2048,174,-42,-14,-45,14005,-12,2,-101,-8,35400,-96,34,127,0,0,3759,21,0,9148,-639,65,8734,-4,0,81,-3,135374,0
135400,86,-2043,175,-41,-13,-50,14007,4,2,-98,-32,35403,-99,34,127,0,0,3757,-43,0,9148,-639,65,8744,-4,0,81,-3,135374,0
135410,93,-2048,185,-35,-14,-57,14004,12,-1,-95,16,35398,-93,34,127,0,0,3758,21,0,9148,-639,65,8754,-4,0,81,-3,135389,0
135420,121,-2038,193,-42,-16,-58,14008,-8,4,-95,-16,35394,-111,34,127,0,0,3756,-16,0,9148,-639,65,8764,-4,0,81,-3,135405,0
135430,89,-2042,200,-39,-18,-66,14004,-1,0,-135,-8,35394,-117,34,127,0,0,3759,32,0,9148,-639,65,8774,-4,0,81,-3,135421,0
135440,108,-2037,197,-45,-13,-62,14008,2,0,-54,-16,35405,-102,34,127,0,0,3759,0,0,9148,-639,65,8784,-4,0,81,-3,135421,0
135450,91,-2048,193,-43,-17,-73,14007,0,3,-41,8,35395,-94,34,127,0,0,3758,5,0,9148,-639,65,8794,-4,0,81,-3,135436,0
135460,107,-2040,193,-47,-11,-80,14006,-8,-7,-108,-8,35393,-96,34,127,0,0,3759,21,0,9148,-639,65,8804,-4,0,81,-3,135436,0
135470,71,-2040,194,-45,-10,-83,14005,-1,-2,-137,-32,35396,-103,35,127,0,0,3754,-21,0,9148,-639,65,8814,-4,0,81,-3,135561,0
135480,89,-2047,209,-49,-3,-98,14001,-9,-1,-211,-48,35405,-107,34,127,0,0,3755,0,0,9148,-639,65,8824,-4,0,81,-3,135561,0
135490,90,-2049,209,-54,-15,-99,14000,-9,-6,-271,-72,35401,-95,34,127,0,0,3752,0,0,9148,-639,65,8834,-4,0,81,-3,135561,0
135500,70,-2046,203,-64,-11,-108,14000,1,-2,-293,-88,35392,-108,35,127,0,0,3747,-49,0,9148,-639,65,8844,-4,0,81,-3,135561,0
135510,96,-2037,199,-62,-3,-122,13995,-3,-1,-342,-128,35389,-99,34,127,0,0,3746,-82,0,9148,-639,65,8854,-4,0,81,-3,135561,0
135520,112,-2044,201,-69,-4,-124,13989,-10,-5,-422,-144,35394,-112,35,127,0,0,3744,-38,0,9148,-639,65,8864,-4,0,81,-3,135577,0
135530,96,-2053,205,-75,-16,-120,13986,-9,3,-506,-160,35392,-106,34,127,0,0,3741,-43,0,9148,-639,65,8874,-4,0,81,-3,135577,0
135540,99,-2050,197,-78,-16,-126,13978,-10,-6,-497,-168,35387,-91,34,127,0,0,3739,-38,0,9148,-639,65,8884,-4,0,81,-3,135577,0
135550,105,-2047,199,-74,-14,-118,13966,-31,-14,-538,-168,35392,-93,35,127,0,0,3737,-16,0,9148,-639,65,8894,-4,0,81,-3,135577,0
135560,108,-2037,190,-79,-9,-119,13937,-65,-36,-371,-136,35393,-84,34,127,0,0,3735,-38,0,9148,-639,65,8904,-4,0,81,-3,135577,0
135570,100,-2044,181,-77,-10,-116,13920,-18,-12,-422,-96,35389,-69,34,127,0,0,3728,-38,0,9148,-639,65,8914,-4,0,81,-3,135577,0
135580,130,-2037,175,-78,-9,-107,13913,-22,46,-534,-152,35382,-60,34,127,0,0,3732,16,0,9148,-639,65,8924,-4,0,81,-3,135577,0
135590,105,-2040,172,-81,-12,-105,13894,-39,-6,-369,-120,35378,-48,34,127,0,0,3728,-32,0,9148,-639,65,8934,-4,0,81,-3,135577,0
135600,108,-2044,172,-71,2,-109,13872,-35,-30,-289,-120,35396,-57,34,127,0,0,3724,-71,0,9148,-639,65,8944,-4,0,81,-3,135577,0
135610,123,-2043,188,-68,-2,-102,13872,15,42,-399,-120,35411,-24,34,127,0,0,3724,-38,0,9148,-639,65,8954,-4,0,81,-3,135608,0
135620,118,-2044,201,-67,-11,-105,13869,-3,42,-422,-112,35415,-17,34,127,0,0,3717,-54,0,9148,-639,65,8964,-4,0,81,-3,135608,0
135630,114,-2042,200,-79,-6,-108,13867,-13,-2,-505,-152,35402,-17,34,127,0,0,3719,-43,0,9148,-639,65,8974,-4,0,81,-3,135608,0
135640,97,-2048,196,-76,-1,-101,13863,-9,-3,-535,-168,35400,-34,35,127,0,0,3714,-27,0,9148,-639,65,8984,-4,0,81,-3,135639,0
135650,100,-2048,193,-82,2,-120,13860,-1,-3,-558,-168,35401,-32,34,127,0,0,3714,-71,0,9148,-639,65,8994,-4,0,81,-3,135639,0
135660,120,-2049,197,-84,-10,-110,13855,-22,-8,-639,-176,35408,-33,35,127,0,0,3712,-32,0,9148,-639,65,9004,-4,0,81,-3,135639,0
135670,102,-2049,182,-83,-10,-111,13846,-18,-11,-628,-208,35400,-36,35,127,0,0,3707,-93,0,9148,-639,65,9014,-4,0,81,-3,135639,0
135680,119,-2034,177,-80,-9,-126,13826,-52,-26,-540,-192,35403,-22,35,127,0,0,3705,-76,0,9148,-639,65,9024,-4,0,81,-3,135671,0
135690,98,-2045,170,-82,-4,-131,13798,-39,-42,-483,-160,35405,-11,35,127,0,0,3703,-27,0,9148,-639,65,9034,-4,0,81,-3,135671,0
135700,112,-2042,176,-78,-6,-130,13793,4,35,-563,-192,35407,-21,34,127,0,0,3702,-65,0,9148,-639,65,9044,-4,0,81,-3,135686,0
135710,130,-2044,185,-75,-11,-128,13783,-36,42,-623,-208,35393,-34,34,127,0,0,3700,-10,0,9148,-639,65,9054,-4,0,81,-3,135702,0
135720,105,-2044,189,-77,-12,-124,13761,-63,-38,-503,-184,35395,-54,35,127,0,0,3701,0,0,9148,-639,65,9064,-4,0,81,-3,135702,0
135730,94,-2039,173,-75,8,-137,13727,-63,-62,-358,-136,35400,-53,35,127,0,0,3695,5,0,9148,-639,65,9074,-4,0,81,-3,135733,0
135740,124,-2048,184,-75,-8,-130,13704,-51,7,-408,-120,35411,-49,35,127,0,0,3690,-27,0,9148,-639,65,9084,-4,0,81,-3,135733,0
135750,112,-2039,191,-77,-10,-143,13678,-45,13,-311,-104,35398,-71,35,127,0,0,3689,-38,0,9148,-639,65,9094,-4,0,81,-3,135733,0
135760,120,-2043,185,-79,-13,-124,13677,0,45,-475,-128,35397,-83,34,127,0,0,3687,5,0,9148,-639,65,9104,-4,0,81,-3,135749,0
135770,113,-2035,171,-73,-14,-133,13673,-14,46,-522,-144,35403,-103,35,127,0,0,3681,-16,0,9148,-639,65,9114,-4,0,81,-3,135749,0
135780,123,-2037,165,-69,-6,-135,13667,-19,-12,-559,-184,35410,-93,35,127,0,0,3680,-38,0,9148,-639,65,9124,-4,0,81,-3,135780,0
135790,127,-2044,170,-63,-5,-123,13658,-23,-16,-584,-184,35409,-91,34,127,0,0,3678,-32,0,9148,-639,65,9134,-4,0,81,-3,135780,0
135800,133,-2042,169,-62,-8,-123,13639,-44,-22,-492,-200,35403,-75,34,127,0,0,3670,-109,0,9148,-639,65,9144,-4,0,81,-3,135780,0
135810,149,-2055,168,-54,1,-109,13609,-59,-44,-453,-160,35406,-71,35,127,0,0,3671,-43,0,9148,-639,65,9154,-4,0,81,-3,135796,0
135820,162,-2054,168,-48,-5,-96,13598,-9,21,-489,-160,35420,-66,34,127,0,0,3672,-10,0,9148,-639,65,9164,-4,0,81,-3,135811,0
135830,173,-2042,167,-42,-13,-60,13590,-15,45,-460,-120,35420,-71,34,127,0,0,3668,10,0,9148,-639,65,9174,-4,0,81,-3,135811,0
135840,175,-2050,168,-34,-4,-48,13578,-36,-4,-405,-120,35412,-69,35,127,0,0,3669,-32,0,9148,-639,65,9184,-4,0,81,-3,135827,0
135850,146,-2046,163,-32,-8,-28,13562,-31,-19,-296,-88,35407,-77,34,127,0,0,3666,-60,0,9148,-639,65,9194,-4,0,81,-3,135827,0
135860,172,-2040,169,-27,-9,-20,13558,6,14,-316,-80,35417,-95,35,127,0,0,3669,-16,0,9148,-639,65,9204,-4,0,81,-3,135842,0
135870,142,-2039,170,-13,-9,-12,13556,-11,30,-351,-72,35416,-107,34,127,0,0,3666,10,0,9148,-639,65,9214,-4,0,81,-3,135858,0
135880,142,-2034,166,-8,-3,-5,13556,5,2,-356,-48,35412,-115,34,127,0,0,3668,21,0,9148,-639,65,9224,-4,0,81,-3,135858,0
135890,122,-2030,163,1,5,-9,13557,-5,5,-281,-80,35399,-129,35,127,0,0,3669,-21,0,9148,-639,65,9234,-4,0,81,-3,135889,0
135900,122,-2040,163,8,11,-8,13555,-1,-4,-297,-48,35404,-117,34,127,0,0,3671,32,0,9148,-639,65,9244,-4,0,81,-3,135889,0
135910,145,-2034,183,15,3,1,13559,-5,0,-255,-56,35401,-114,35,127,0,0,3671,16,0,9148,-639,65,9254,-4,0,81,-3,135889,0
135920,132,-2039,194,6,-4,6,13560,6,-1,-224,-80,35395,-107,34,127,0,0,3672,-5,0,9148,-639,65,9264,-4,0,81,-3,135936,0
135930,131,-2036,202,1,-6,21,13557,4,-3,-222,-56,35398,-98,34,127,0,0,3674,32,0,9148,-639,65,9274,-4,0,81,-3,135936,0
135940,142,-2044,221,-11,-16,39,13560,1,-3,-173,-32,35407,-100,35,127,0,0,3677,60,0,9148,-639,65,9284,-4,0,81,-3,135936,0
135950,152,-2046,219,-21,-23,56,13564,15,10,-38,-16,35414,-91,34,127,0,0,3682,54,0,9148,-639,65,9294,-4,0,81,-3,135936,0
135960,146,-2044,210,-29,-33,65,13570,8,12,32,16,35404,-110,34,127,0,0,3680,0,0,9148,-639,65,9304,-4,0,81,-3,135936,0
135970,112,-2050,200,-35,-29,70,13572,21,-11,134,64,35402,-112,35,127,0,0,3684,21,0,9148,-639,65,9314,-4,0,81,-3,135967,0
135980,126,-2038,196,-41,-20,78,13588,33,21,180,80,35417,-71,35,127,0,0,3689,49,0,9148,-639,65,9324,-4,0,81,-3,135983,0
135990,108,-2038,187,-43,-26,71,13620,84,60,117,40,35430,-74,35,127,0,0,3697,82,0,9148,-639,65,9334,-4,0,81,-3,135983,0
136000,113,-2040,193,-45,-24,68,13638,13,6,146,72,35420,-61,34,127,0,0,3697,65,0,9148,-639,65,9344,-4,0,81,-3,135983,0
136010,76,-2043,189,-54,-20,55,13639,0,-67,246,88,35403,-88,34,127,0,0,3700,38,0,9148,-639,65,9354,-4,0,81,-3,135983,0
136020,88,-2038,183,-55,-12,35,13651,29,-2,279,88,35405,-91,35,127,0,0,3702,5,0,9148,-639,65,9364,-4,0,81,-3,136014,0
136030,131,-2051,195,-55,-24,25,13676,55,49,154,64,35412,-83,35,127,0,0,3701,10,0,9148,-639,65,9374,-4,0,81,-3,136014,0
136040,125,-2051,211,-60,-30,31,13683,-6,-8,143,72,35411,-82,34,127,0,0,3706,21,0,9148,-639,65,9384,-4,0,81,-3,136014,0
136050,75,-2056,201,-65,-16,17,13690,25,-43,302,64,35402,-74,34,127,0,0,3710,-49,0,9148,-639,65,9394,-4,0,81,-3,136030,0
136060,118,-2038,197,-80,-16,8,13688,-1,-5,307,80,35402,-77,35,127,0,0,3712,32,0,9148,-639,65,9404,-4,0,81,-3,136046,0
136070,102,-2052,197,-76,-11,2,13691,5,-7,345,128,35408,-83,35,127,0,0,3710,5,0,9148,-639,65,9414,-4,0,81,-3,136061,0
136080,97,-2048,198,-87,-11,-3,13694,2,7,358,120,35411,-72,34,127,0,0,3713,5,0,9148,-639,65,9424,-4,0,81,-3,136061,0
136090,84,-2048,207,-93,-7,-15,13699,16,5,428,136,35400,-79,34,127,0,0,3712,-43,0,9148,-639,65,9434,-4,0,81,-3,136061,0
136100,96,-2053,204,-106,-2,-32,13702,-2,0,405,128,35400,-75,34,127,0,0,3718,43,0,9148,-639,65,9444,-4,0,81,-3,136124,0
136110,85,-2051,199,-117,5,-46,13706,11,-4,403,96,35396,-71,35,127,0,0,3716,10,0,9148,-639,65,9454,-4,0,81,-3,136124,0
136120,71,-2052,197,-133,-7,-54,13706,11,-3,410,120,35399,-74,34,127,0,0,3715,10,0,9148,-639,65,9464,-4,0,81,-3,136139,0
136130,69,-2038,202,-143,-10,-70,13705,-7,-5,364,120,35394,-71,34,127,0,0,3715,0,0,9148,-639,65,9474,-4,0,81,-3,136139,0
136140,64,-2042,202,-147,-8,-81,13707,6,1,395,120,35392,-98,35,127,0,0,3715,-5,0,9148,-639,65,9484,-4,0,81,-3,136139,0
136150,72,-2036,201,-163,-9,-105,13708,-8,3,345,112,35398,-91,34,127,0,0,3708,-60,0,9148,-639,65,9494,-4,0,81,-3,136139,0
136160,88,-2029,217,-176,-19,-121,13707,5,-7,288,96,35404,-100,35,127,0,0,3713,-5,0,9148,-639,65,9504,-4,0,81,-3,136155,0
136170,88,-2034,218,-187,-7,-154,13707,10,4,316,48,35404,-100,34,127,0,0,3712,-43,0,9148,-639,65,9514,-4,0,81,-3,136155,0
136180,74,-2040,199,-190,3,-190,13703,-12,1,271,56,35417,-94,34,127,0,0,3702,-98,0,9148,-639,65,9524,-4,0,81,-3,136170,0
136190,107,-2042,200,-208,4,-215,13697,-21,-19,124,0,35422,-97,35,127,0,0,3702,-60,0,9148,-639,65,9534,-4,0,81,-3,136264,0
136200,95,-2047,199,-213,-11,-217,13689,-16,-7,2,-32,35415,-66,35,127,0,0,3694,-87,0,9148,-639,65,9544,-4,0,81,-3,136280,0
136210,105,-2047,193,-227,-11,-227,13680,-16,-5,-170,-88,35400,-60,35,127,0,0,3688,-131,0,9148,-639,65,9554,-4,0,81,-3,136280,0
136220,134,-2036,170,-235,-12,-226,13666,-23,-11,-324,-104,35392,-57,34,127,0,0,3687,-65,0,9148,-639,65,9564,-4,0,81,-3,136280,0
136230,151,-2050,157,-232,-11,-213,13656,-39,0,-444,-160,35407,-71,34,127,0,0,3683,-5,0,9148,-639,65,9574,-4,0,81,-3,136295,0
136240,149,-2045,153,-232,-7,-213,13629,-62,-33,-320,-176,35421,-86,34,127,0,0,3677,-71,0,9148,-639,65,9584,-4,0,81,-3,136295,0
136250,166,-2041,140,-220,-3,-181,13604,-27,-29,-366,-144,35420,-72,34,127,0,0,3668,-87,0,9148,-639,65,9594,-4,0,81,-3,136295,0
136260,208,-2035,145,-218,-13,-150,13593,-22,45,-467,-152,35396,-76,34,127,0,0,3669,-43,0,9148,-639,65,9604,-4,0,81,-3,136295,0
136270,187,-2030,143,-213,-9,-105,13572,-60,6,-433,-152,35384,-79,34,127,0,0,3668,0,0,9148,-639,65,9614,-4,0,81,-3,136295,0
136280,172,-2045,128,-206,-10,-89,13545,-30,-33,-309,-96,35390,-97,35,127,0,0,3665,10,0,9148,-639,65,9624,-4,0,81,-3,136295,0
136290,210,-2036,123,-186,-7,-44,13548,8,50,-404,-104,35399,-122,34,127,0,0,3665,0,0,9148,-639,65,9634,-4,0,81,-3,136295,0
136300,200,-2031,125,-179,-12,-11,13546,-2,43,-396,-104,35391,-125,34,127,0,0,3665,27,0,9148,-639,65,9644,-4,0,81,-3,136295,0
136310,171,-2022,108,-156,-3,14,13547,1,-7,-391,-104,35386,-142,35,127,0,0,3665,0,0,9148,-639,65,9654,-4,0,81,-3,136295,0
136320,164,-2023,105,-143,1,26,13546,-1,-3,-406,-104,35399,-135,34,127,0,0,3665,16,0,9148,-639,65,9664,-4,0,81,-3,136295,0
136330,157,-2031,124,-130,12,50,13545,-6,3,-390,-96,35415,-123,35,127,0,0,3668,32,0,9148,-639,65,9674,-4,0,81,-3,136327,0
136340,133,-2042,136,-127,9,80,13546,-7,4,-367,-104,35422,-130,34,127,0,0,3671,76,0,9148,-639,65,9684,-4,0,81,-3,136327,0
136350,170,-2043,141,-126,-13,110,13549,11,1,-276,-40,35409,-116,34,127,0,0,3668,60,0,9148,-639,65,9694,-4,0,81,-3,136342,0
136360,150,-2049,137,-128,-19,127,13551,-10,5,-218,-16,35400,-138,35,127,0,0,3673,49,0,9148,-639,65,9704,-4,0,81,-3,136342,0
136370,119,-2049,126,-117,-11,127,13563,41,12,33,8,35394,-130,34,127,0,0,3681,-10,0,9148,-639,65,9714,-4,0,81,-3,136358,0
136380,165,-2064,130,-116,-15,130,13569,9,2,163,88,35407,-115,35,127,0,0,3687,54,0,9148,-639,65,9724,-4,0,81,-3,136358,0
136390,123,-2067,146,-103,-16,150,13585,37,4,246,104,35404,-109,34,127,0,0,3691,65,0,9148,-639,65,9734,-4,0,81,-3,136374,0
136400,95,-2058,146,-101,-20,134,13619,82,58,220,104,35396,-100,34,127,0,0,3701,98,0,9148,-639,65,9744,-4,0,81,-3,136389,0
136410,141,-2048,143,-95,-16,130,13657,70,41,212,56,35398,-88,35,127,0,0,3706,49,0,9148,-639,65,9754,-4,0,81,-3,136389,0
136420,76,-2067,122,-93,-20,132,13683,56,-17,190,96,35401,-75,34,127,0,0,3708,71,0,9148,-639,65,9764,-4,0,81,-3,136405,0
136430,103,-2060,126,-81,-5,125,13693,4,-46,314,144,35403,-65,34,127,0,0,3712,32,0,9148,-639,65,9774,-4,0,81,-3,136436,0
136440,92,-2045,114,-79,-15,127,13698,13,-43,468,184,35395,-72,34,127,0,0,3716,5,0,9148,-639,65,9784,-4,0,81,-3,136436,0
136450,105,-2022,126,-72,-12,119,13715,41,14,478,192,35398,-66,35,127,0,0,3727,43,0,9148,-639,65,9794,-4,0,81,-3,136436,0
136460,79,-2033,128,-71,-9,117,13752,90,58,402,168,35398,-67,34,127,0,0,3728,43,0,9148,-639,65,9804,-4,0,81,-3,136436,0
136470,113,-2035,149,-70,-9,96,13782,56,26,372,176,35390,-73,34,127,0,0,3735,93,0,9148,-639,65,9814,-4,0,81,-3,136467,0
136480,68,-2057,141,-72,-8,112,13833,120,19,299,104,35392,-73,34,127,0,0,3740,16,0,9148,-639,65,9824,-4,0,81,-3,136467,0
136490,72,-2052,142,-76,-15,97,13873,86,26,220,88,35395,-67,34,127,0,0,3740,-5,0,9148,-639,65,9834,-4,0,81,-3,136467,0
136500,119,-2040,152,-80,-23,99,13879,-14,-86,341,128,35394,-42,35,127,0,0,3748,38,0,9148,-639,65,9844,-4,0,81,-3,136483,0
136510,66,-2043,137,-81,-11,98,13883,9,-73,437,120,35396,-38,34,127,0,0,3755,38,0,9148,-639,65,9854,-4,0,81,-3,136499,0
136520,55,-2042,146,-80,-5,60,13887,20,3,559,184,35392,-23,34,127,0,0,3755,49,0,9148,-639,65,9864,-4,0,81,-3,136499,0
136530,75,-2045,143,-86,-12,58,13900,40,19,577,200,35398,-33,35,127,0,0,3759,0,0,9148,-639,65,9874,-4,0,81,-3,136530,0
136540,51,-2044,139,-90,-8,43,13932,88,55,449,160,35394,-14,34,127,0,0,3765,65,0,9148,-639,65,9884,-4,0,81,-3,136530,0
136550,68,-2038,147,-94,-11,27,13962,58,39,391,104,35399,-14,35,127,0,0,3765,-32,0,9148,-639,65,9894,-4,0,81,-3,136530,0
136560,55,-2059,148,-96,-5,17,13971,21,-43,402,128,35392,-30,34,127,0,0,3769,49,0,9148,-639,65,9904,-4,0,81,-3,136545,0
136570,56,-2037,157,-102,-7,0,13995,54,-13,359,112,35394,-70,34,127,0,0,3768,0,0,9148,-639,65,9914,-4,0,81,-3,136561,0
136580,96,-2041,174,-120,-18,-12,14009,4,14,283,104,35395,-67,35,127,0,0,3770,38,0,9148,-639,65,9924,-4,0,81,-3,136577,0
136590,66,-2047,162,-130,-9,-23,14008,5,-56,378,104,35396,-67,34,127,0,0,3770,21,0,9148,-639,65,9934,-4,0,81,-3,136608,0
136600,72,-2050,149,-139,-11,-31,14009,-1,-14,390,96,35387,-68,34,127,0,0,3770,-16,0,9148,-639,65,9944,-4,0,81,-3,136608,0
136610,77,-2058,145,-144,-9,-40,14011,7,-6,402,128,35392,-108,34,127,0,0,3769,0,0,9148,-639,65,9954,-4,0,81,-3,136608,0
136620,93,-2049,135,-150,-12,-45,14012,-1,-3,393,96,35398,-87,35,127,0,0,3770,-21,0,9148,-639,65,9964,-4,0,81,-3,136608,0
136630,63,-2061,122,-143,-15,-44,14013,11,-1,428,120,35398,-86,34,127,0,0,3772,-27,0,9148,-639,65,9974,-4,0,81,-3,136608,0
136640,74,-2056,118,-142,-19,-53,14013,-4,-4,407,120,35392,-76,34,127,0,0,3769,-10,0,9148,-639,65,9984,-4,0,81,-3,136624,0
136650,69,-2050,117,-134,-10,-53,14013,-1,-4,381,136,35392,-76,34,127,0,0,3774,27,0,9148,-639,65,9994,-4,0,81,-3,136670,0
136660,85,-2050,106,-127,-13,-46,14018,5,0,392,112,35406,-67,34,127,0,0,3766,-43,0,9148,-639,65,10004,-4,0,81,-3,136670,0
136670,63,-2043,112,-114,-8,-51,14016,4,-4,375,96,35411,-72,35,127,0,0,3770,-71,0,9148,-639,65,10014,-4,0,81,-3,136670,0
136680,76,-2051,108,-112,-15,-46,14016,3,-2,380,88,35402,-79,34,127,0,0,3777,27,0,9148,-639,65,10024,-4,0,81,-3,136670,0
136690,112,-2051,108,-103,-4,-40,14016,-3,2,378,88,35389,-81,34,127,0,0,3770,10,0,9148,-639,65,10034,-4,0,81,-3,136686,0
136700,109,-2056,104,-100,-2,-43,14015,0,-4,382,112,35390,-98,35,127,0,0,3766,-65,0,9148,-639,65,10044,-4,0,81,-3,136686,0
136710,80,-2061,101,-90,-11,-40,14016,3,-3,350,88,35400,-104,34,127,0,0,3770,-49,0,9148,-639,65,10054,-4,0,81,-3,136686,0
136720,82,-2056,106,-76,-12,-38,14016,-3,0,364,112,35415,-93,34,127,0,0,3769,-27,0,9148,-639,65,10064,-4,0,81,-3,136717,0
136730,91,-2045,108,-67,-3,-35,14015,-1,3,377,112,35423,-78,34,127,0,0,3772,0,0,9148,-639,65,10074,-4,0,81,-3,136717,0
136740,84,-2040,108,-60,-1,-30,14019,5,0,404,104,35414,-79,34,127,0,0,3772,-16,0,9148,-639,65,10084,-4,0,81,-3,136749,0
136750,74,-2035,115,-61,-6,-29,14020,4,5,403,128,35405,-96,35,127,0,0,3774,0,0,9148,-639,65,10094,-4,0,81,-3,136749,0
136760,72,-2050,121,-63,-7,-32,14021,7,5,407,120,35403,-99,34,127,0,0,3774,32,0,9148,-639,65,10104,-4,0,81,-3,136749,0
136770,73,-2051,124,-60,-11,-40,14027,20,8,411,112,35397,-91,34,127,0,0,3774,5,0,9148,-639,65,10114,-4,0,81,-3,136749,0
136780,68,-2058,117,-65,-11,-48,14033,15,6,368,80,35395,-106,35,127,0,0,3776,0,0,9148,-639,65,10124,-4,0,81,-3,136764,0
136790,76,-2059,130,-67,-13,-58,14040,12,3,291,88,35402,-80,34,127,0,0,3774,38,0,9148,-639,65,10134,-4,0,81,-3,136795,0
136800,48,-2050,140,-70,-19,-65,14046,22,-1,311,32,35418,-75,34,127,0,0,3777,-10,0,9148,-639,65,10144,-4,0,81,-3,136795,0
136810,50,-2053,129,-69,-21,-69,14050,7,3,253,64,35415,-80,34,127,0,0,3768,-60,0,9148,-639,65,10154,-4,0,81,-3,136795,0
136820,80,-2049,124,-70,-19,-78,14050,3,-22,223,72,35405,-93,34,127,0,0,3771,-54,0,9148,-639,65,10164,-4,0,81,-3,136795,0
136830,93,-2037,117,-73,-20,-76,14053,-8,0,209,16,35401,-116,35,127,0,0,3777,-21,0,9148,-639,65,10174,-4,0,81,-3,136827,0
136840,78,-2037,115,-74,-24,-72,14052,18,-1,236,16,35416,-92,35,127,0,0,3777,-5,0,9148,-639,65,10184,-4,0,81,-3,136827,0
136850,85,-2044,120,-74,-22,-51,14051,2,-1,189,64,35416,-83,34,127,0,0,3771,-5,0,9148,-639,65,10194,-4,0,81,-3,136842,0
136860,96,-2042,115,-69,-13,-49,14052,13,13,192,56,35413,-74,34,127,0,0,3768,-71,0,9148,-639,65,10204,-4,0,81,-3,136842,0
136870,100,-2049,113,-70,-15,-49,14049,-5,1,160,16,35406,-93,34,127,0,0,3770,-54,0,9148,-639,65,10214,-4,0,81,-3,136858,0
136880,109,-2048,120,-70,-20,-47,14048,-11,-12,55,24,35423,-68,35,127,0,0,3770,27,0,9148,-639,65,10224,-4,0,81,-3,136858,0
136890,101,-2046,114,-68,-5,-30,14051,17,11,137,16,35422,-67,35,127,0,0,3773,-16,0,9148,-639,65,10234,-4,0,81,-3,136873,0
136900,79,-2057,113,-67,-4,-29,14049,-4,4,143,72,35412,-59,34,127,0,0,3774,76,0,9148,-639,65,10244,-4,0,81,-3,136889,0
136910,135,-2042,103,-56,-1,-26,14054,-1,4,178,56,35407,-72,34,127,0,0,3771,0,0,9148,-639,65,10254,-4,0,81,-3,136889,0
136920,110,-2058,96,-50,-4,-16,14055,12,0,194,56,35410,-82,34,127,0,0,3774,-10,0,9148,-639,65,10264,-4,0,81,-3,136905,0
136930,138,-2052,92,-36,7,-5,14053,-12,-14,185,40,35416,-90,34,127,0,0,3776,49,0,9148,-639,65,10274,-4,0,81,-3,136936,0
136940,123,-2066,88,-29,6,9,14054,-2,3,174,56,35414,-90,35,127,0,0,3771,0,0,9148,-639,65,10284,-4,0,81,-3,136952,0
136950,111,-2060,100,-19,4,26,14053,-2,1,143,64,35410,-93,35,127,0,0,3774,38,0,9148,-639,65,10294,-4,0,81,-3,136952,0
136960,92,-2058,108,-22,-9,69,14058,17,6,257,56,35413,-88,34,127,0,0,3774,-32,0,9148,-639,65,10304,-4,0,81,-3,136952,0
136970,88,-2063,108,-16,-11,66,14061,22,5,367,120,35407,-91,35,127,0,0,3781,-16,0,9148,-639,65,10314,-4,0,81,-3,136983,0
136980,113,-2055,105,-14,-13,99,14067,0,6,377,128,35407,-97,34,127,0,0,3783,60,0,9148,-639,65,10324,-4,0,81,-3,136983,0
136990,86,-2045,96,-4,0,105,14073,17,0,480,160,35407,-84,34,127,0,0,3788,27,0,9148,-639,65,10334,-4,0,81,-3,136983,0
137000,117,-2051,99,4,-2,112,14078,9,4,508,176,35416,-102,35,127,0,0,3793,65,0,9148,-639,65,10344,-4,0,81,-3,136983,0
137010,104,-2054,106,13,-7,139,14094,48,13,606,216,35420,-94,34,127,0,0,3796,27,0,9148,-639,65,10354,-4,0,81,-3,136998,0
137020,101,-2053,107,21,-3,150,14133,111,62,472,192,35418,-100,34,127,0,0,3807,71,0,9148,-639,65,10364,-4,0,81,-3,136998,0
137030,115,-2048,119,28,-2,157,14172,92,54,466,208,35418,-92,34,127,0,0,3810,54,0,9148,-639,65,10374,-4,0,81,-3,137045,0
137040,77,-2046,108,37,-11,195,14214,66,14,343,184,35416,-83,34,127,0,0,3816,93,0,9148,-639,65,10384,-4,0,81,-3,137045,0
137050,46,-2034,105,42,-2,195,14256,107,-2,386,176,35418,-103,34,127,0,0,3823,65,0,9148,-639,65,10394,-4,0,81,-3,137045,0
137060,146,-2038,126,32,-9,211,14288,45,-18,431,184,35410,-106,34,127,0,0,3829,54,0,9148,-639,65,10404,-4,0,81,-3,137061,0
137070,60,-2032,132,32,-5,224,14318,81,-25,465,168,35396,-130,34,127,0,0,3840,71,0,9148,-639,65,10414,-4,0,81,-3,137061,0
137080,92,-2040,130,39,-5,211,14346,71,8,567,224,35392,-130,34,127,0,0,3841,-16,0,9148,-639,65,10424,-4,0,81,-3,137061,0
137090,73,-2049,128,32,-1,224,14391,112,29,431,208,35399,-113,35,127,0,0,3855,38,0,9148,-639,65,10434,-4,0,81,-3,137092,0
137100,75,-2054,138,34,-3,224,14442,111,40,369,176,35417,-92,34,127,0,0,3864,87,0,9148,-639,65,10444,-4,0,81,-3,137092,0
137110,74,-2055,130,26,-11,228,14474,49,-34,524,248,35410,-69,34,127,0,0,3871,93,0,9148,-639,65,10454,-4,0,81,-3,137092,0
137120,3,-2050,120,40,-5,232,14511,95,-25,551,272,35403,-72,35,127,0,0,3880,71,0,9148,-639,65,10464,-4,0,81,-3,137092,0
137130,48,-2053,115,41,7,208,14563,114,48,447,232,35401,-75,34,127,0,0,3890,120,0,9148,-639,65,10474,-4,0,81,-3,137123,0
137140,49,-2046,133,44,-17,224,14626,142,40,397,200,35415,-52,35,127,0,0,3899,93,0,9148,-639,65,10484,-4,0,81,-3,137123,0
137150,43,-2039,133,31,-14,206,14671,70,-15,417,208,35413,-38,34,127,0,0,3901,60,0,9148,-639,65,10494,-4,0,81,-3,137123,0
137160,-28,-2056,125,35,-6,185,14707,87,-54,424,184,35405,-8,34,127,0,0,3908,16,0,9148,-639,65,10504,-4,0,81,-3,137139,0
137170,9,-2056,144,29,2,150,14735,49,-25,507,192,35400,-31,35,127,0,0,3918,43,0,9148,-639,65,10514,-4,0,81,-3,137170,0
137180,-24,-2054,152,29,2,149,14774,102,-4,409,208,35407,-29,34,127,0,0,3924,82,0,9148,-639,65,10524,-4,0,81,-3,137170,0
137190,-13,-2051,158,13,-1,112,14815,98,35,443,152,35405,-58,34,127,0,0,3929,16,0,9148,-639,65,10534,-4,0,81,-3,137170,0
137200,26,-2041,167,6,-9,125,14853,58,12,350,144,35396,-75,34,127,0,0,3933,54,0,9148,-639,65,10544,-4,0,81,-3,137202,0
137210,-27,-2039,161,-8,-1,94,14862,16,-67,500,176,35397,-90,34,127,0,0,3940,82,0,9148,-639,65,10554,-4,0,81,-3,137202,0
137220,8,-2043,147,-12,12,72,14882,64,-29,505,184,35404,-95,35,127,0,0,3945,65,0,9148,-639,65,10564,-4,0,81,-3,137217,0
137230,21,-2045,161,-25,-9,76,14911,37,49,392,144,35407,-93,35,127,0,0,3944,38,0,9148,-639,65,10574,-4,0,81,-3,137217,0
137240,-3,-2049,157,-28,-9,56,14911,12,-48,571,168,35394,-94,34,127,0,0,3946,0,0,9148,-639,65,10584,-4,0,81,-3,137217,0
137250,28,-2048,141,-32,1,38,14919,21,-26,597,224,35401,-96,34,127,0,0,3952,43,0,9148,-639,65,10594,-4,0,81,-3,137233,0
137260,-3,-2044,137,-27,-6,40,14943,65,43,518,200,35404,-44,34,127,0,0,3955,38,0,9148,-639,65,10604,-4,0,81,-3,137248,0
137270,11,-2045,135,-38,-12,36,14982,75,71,345,144,35410,-46,34,127,0,0,3957,38,0,9148,-639,65,10614,-4,0,81,-3,137248,0
137280,-12,-2058,137,-40,-8,18,15000,35,-26,381,112,35405,-56,34,127,0,0,3960,16,0,9148,-639,65,10624,-4,0,81,-3,137280,0
137290,-10,-2055,137,-36,-3,-1,15023,55,-32,303,88,35406,-116,34,127,0,0,3962,32,0,9148,-639,65,10634,-4,0,81,-3,137280,0
137300,14,-2044,132,-28,-3,-6,15029,-4,-15,301,96,35407,-129,34,127,0,0,3961,21,0,9148,-639,65,10644,-4,0,81,-3,137280,0
137310,-1,-2049,133,-34,-2,-16,15032,18,-46,370,96,35406,-137,35,127,0,0,3961,0,0,9148,-639,65,10654,-4,0,81,-3,137358,0
137320,18,-2057,143,-33,1,-22,15029,5,-12,361,72,35399,-150,34,127,0,0,3966,27,0,9148,-639,65,10664,-4,0,81,-3,137389,0
137330,23,-2054,148,-35,-12,-10,15031,7,-1,379,96,35404,-157,34,127,0,0,3961,-16,0,9148,-639,65,10674,-4,0,81,-3,137405,0
137340,24,-2059,143,-30,-6,-14,15030,2,3,368,120,35405,-164,35,127,0,0,3967,65,0,9148,-639,65,10684,-4,0,81,-3,137405,0
137350,34,-2053,137,-35,-12,6,15033,-3,6,400,88,35399,-160,34,127,0,0,3964,0,0,9148,-639,65,10694,-4,0,81,-3,137405,0
137360,4,-2046,133,-35,-10,2,15033,17,1,452,160,35390,-139,35,127,0,0,3964,16,0,9148,-639,65,10704,-4,0,81,-3,137405,0
137370,33,-2042,128,-29,-14,8,15041,3,10,467,168,35384,-147,34,127,0,0,3970,27,0,9148,-639,65,10714,-4,0,81,-3,137405,0
137380,4,-2040,123,-26,-10,7,15045,7,1,549,160,35385,-146,34,127,0,0,3970,0,0,9148,-639,65,10724,-4,0,81,-3,137405,0
137390,4,-2044,138,-31,-1,-5,15044,-6,-5,522,160,35389,-163,35,127,0,0,3970,-5,0,9148,-639,65,10734,-4,0,81,-3,137405,0
137400,4,-2051,145,-31,-8,-6,15048,13,-1,541,176,35395,-150,34,127,0,0,3972,5,0,9148,-639,65,10744,-4,0,81,-3,137405,0
137410,-7,-2053,143,-26,-10,-15,15055,17,16,570,160,35390,-150,34,127,0,0,3972,-32,0,9148,-639,65,10754,-4,0,81,-3,137405,0
137420,11,-2052,142,-38,-8,-19,15073,44,33,471,128,35389,-160,35,127,0,0,3972,-32,0,9148,-639,65,10764,-4,0,81,-3,137405,0
137430,8,-2048,149,-33,-10,-24,15093,32,14,331,88,35398,-147,34,127,0,0,3979,60,0,9148,-639,65,10774,-4,0,81,-3,137420,0
137440,1,-2047,144,-43,-12,-29,15094,-1,-34,387,88,35410,-140,34,127,0,0,3972,-5,0,9148,-639,65,10784,-4,0,81,-3,137420,0
137450,6,-2051,144,-36,-4,-32,15094,12,-34,375,112,35423,-133,34,127,0,0,3971,-16,0,9148,-639,65,10794,-4,0,81,-3,137498,0
137460,31,-2051,149,-39,-12,-41,15094,2,4,396,112,35427,-118,34,127,0,0,3978,-5,0,9148,-639,65,10804,-4,0,81,-3,137498,0
137470,22,-2048,144,-37,-5,-33,15094,2,6,430,128,35416,-118,34,127,0,0,3977,43,0,9148,-639,65,10814,-4,0,81,-3,137514,0
137480,20,-2046,130,-41,-16,-34,15096,-3,1,411,104,35400,-118,35,127,0,0,3978,43,0,9148,-639,65,10824,-4,0,81,-3,137514,0
137490,13,-2044,128,-38,-16,-37,15098,0,5,437,120,35385,-124,34,127,0,0,3970,-49,0,9148,-639,65,10834,-4,0,81,-3,137514,0
137500,30,-2037,144,-33,-7,-47,15096,0,-2,390,128,35388,-120,34,127,0,0,3977,0,0,9148,-639,65,10844,-4,0,81,-3,137514,0
137510,-9,-2053,142,-45,-15,-51,15100,4,5,439,120,35393,-113,35,127,0,0,3973,-27,0,9148,-639,65,10854,-4,0,81,-3,137514,0
137520,-15,-2053,138,-45,-13,-62,15098,0,0,411,104,35399,-117,34,127,0,0,3978,5,0,9148,-639,65,10864,-4,0,81,-3,137514,0
137530,5,-2047,148,-47,-13,-72,15098,-4,1,422,104,35400,-113,35,127,0,0,3978,27,0,9148,-639,65,10874,-4,0,81,-3,137514,0
137540,-6,-2047,151,-46,-9,-71,15099,-3,-3,420,72,35389,-123,34,127,0,0,3972,-43,0,9148,-639,65,10884,-4,0,81,-3,137514,0
137550,7,-2046,138,-54,-10,-77,15095,1,-8,363,104,35400,-123,34,127,0,0,3974,16,0,9148,-639,65,10894,-4,0,81,-3,137549,0
137560,31,-2052,129,-54,-17,-65,15099,-11,3,376,104,35419,-119,35,127,0,0,3978,54,0,9148,-639,65,10904,-4,0,81,-3,137549,0
137570,41,-2051,126,-44,-9,-54,15099,1,2,420,56,35427,-99,34,127,0,0,3970,-71,0,9148,-639,65,10914,-4,0,81,-3,137549,0
137580,29,-2057,126,-35,-5,-59,15097,12,-10,355,104,35412,-90,34,127,0,0,3974,-16,0,9148,-639,65,10924,-4,0,81,-3,137581,0
137590,58,-2045,134,-38,-14,-44,15096,-18,2,366,104,35403,-117,34,127,0,0,3978,60,0,9148,-639,65,10934,-4,0,81,-3,137581,0
137600,40,-2045,129,-38,-12,-39,15097,-8,2,383,120,35400,-119,34,127,0,0,3970,10,0,9148,-639,65,10944,-4,0,81,-3,137581,0
137610,-15,-2047,133,-35,-21,-48,15095,-5,-3,319,104,35409,-120,35,127,0,0,3971,-10,0,9148,-639,65,10954,-4,0,81,-3,137596,0
137620,15,-2048,149,-31,-12,-48,15098,-1,5,337,80,35404,-127,35,127,0,0,3972,-32,0,9148,-639,65,10964,-4,0,81,-3,137596,0
137630,-12,-2060,144,-33,-11,-65,15095,0,-7,325,80,35395,-123,35,127,0,0,3972,0,0,9148,-639,65,10974,-4,0,81,-3,137628,0
137640,5,-2048,143,-35,-14,-72,15094,-20,-6,309,80,35398,-133,35,127,0,0,3972,0,0,9148,-639,65,10984,-4,0,81,-3,137628,0
137650,6,-2048,165,-38,-4,-94,15095,-10,1,261,80,35397,-121,34,127,0,0,3966,-27,0,9148,-639,65,10994,-4,0,81,-3,137628,0
137660,3,-2048,166,-43,-2,-100,15094,5,-5,200,64,35402,-98,34,127,0,0,3967,-38,0,9148,-639,65,11004,-4,0,81,-3,137643,0
137670,30,-2050,142,-45,-4,-101,15092,-4,-2,170,16,35403,-92,35,127,0,0,3966,-38,0,9148,-639,65,11014,-4,0,81,-3,137659,0
137680,32,-2046,144,-48,-2,-101,15086,-16,-13,50,32,35407,-91,35,127,0,0,3959,-43,0,9148,-639,65,11024,-4,0,81,-3,137690,0
137690,18,-2042,134,-51,-12,-95,15082,-6,-2,-22,16,35409,-110,34,127,0,0,3960,-27,0,9148,-639,65,11034,-4,0,81,-3,137721,0
137700,20,-2049,133,-45,-7,-105,15081,-17,10,-65,-8,35410,-116,34,127,0,0,3958,-27,0,9148,-639,65,11044,-4,0,81,-3,137721,0
137710,-7,-2045,135,-46,-7,-118,15074,-19,-7,-109,-64,35391,-136,34,127,0,0,3955,-60,0,9148,-639,65,11054,-4,0,81,-3,137721,0
137720,12,-2055,142,-40,2,-123,15056,-49,-29,-168,-32,35391,-142,34,127,0,0,3951,-32,0,9148,-639,65,11064,-4,0,81,-3,137721,0
137730,-3,-2046,132,-48,3,-141,15035,-35,-40,-48,-56,35389,-143,35,127,0,0,3948,-98,0,9148,-639,65,11074,-4,0,81,-3,137721,0
137740,19,-2048,134,-44,2,-147,15025,-3,15,-164,-56,35397,-144,34,127,0,0,3942,-82,0,9148,-639,65,11084,-4,0,81,-3,137721,0
137750,40,-2053,154,-45,-4,-138,15022,-3,46,-300,-80,35391,-134,34,127,0,0,3944,-27,0,9148,-639,65,11094,-4,0,81,-3,137737,0
137760,18,-2048,147,-47,-3,-126,15016,-16,-4,-353,-88,35402,-143,35,127,0,0,3941,10,0,9148,-639,65,11104,-4,0,81,-3,137799,0
137770,40,-2056,146,-50,-2,-117,15016,-1,1,-371,-136,35409,-135,35,127,0,0,3940,-21,0,9148,-639,65,11114,-4,0,81,-3,137799,0
137780,59,-2050,142,-48,-9,-108,15009,-14,0,-409,-120,35418,-129,35,127,0,0,3934,-49,0,9148,-639,65,11124,-4,0,81,-3,137799,0
137790,74,-2053,129,-45,-9,-75,15003,-15,-14,-425,-104,35409,-135,34,127,0,0,3930,-76,0,9148,-639,65,11134,-4,0,81,-3,137799,0
137800,81,-2046,119,-44,-23,-60,14991,-35,-11,-429,-112,35393,-120,34,127,0,0,3932,-43,0,9148,-639,65,11144,-4,0,81,-3,137799,0
137810,61,-2045,121,-30,-15,-45,14965,-61,-35,-338,-64,35394,-133,35,127,0,0,3932,21,0,9148,-639,65,11154,-4,0,81,-3,137815,0
137820,33,-2041,124,-30,-6,-39,14958,11,5,-276,-64,35395,-127,34,127,0,0,3936,32,0,9148,-639,65,11164,-4,0,81,-3,137815,0
137830,60,-2048,137,-30,-20,-30,14958,-19,55,-294,-40,35402,-127,35,127,0,0,3932,32,0,9148,-639,65,11174,-4,0,81,-3,137815,0
137840,43,-2045,133,-24,-6,-24,14959,-3,7,-310,-88,35407,-125,34,127,0,0,3934,10,0,9148,-639,65,11184,-4,0,81,-3,137815,0
137850,10,-2051,132,-24,-9,-30,14958,2,-7,-303,-64,35415,-124,34,127,0,0,3929,-27,0,9148,-639,65,11194,-4,0,81,-3,137846,0
137860,28,-2048,149,-21,-6,-33,14959,3,0,-314,-64,35424,-134,34,127,0,0,3929,-38,0,9148,-639,65,11204,-4,0,81,-3,137846,0
137870,30,-2055,149,-22,-5,-34,14956,-3,2,-326,-64,35425,-119,34,127,0,0,3929,-10,0,9148,-639,65,11214,-4,0,81,-3,137846,0
137880,35,-2051,165,-35,-9,-37,14958,10,3,-307,-112,35409,-108,34,127,0,0,3935,-21,0,9148,-639,65,11224,-4,0,81,-3,137877,0
137890,7,-2067,154,-32,-5,-27,14957,1,-2,-300,-80,35406,-114,34,127,0,0,3930,-21,0,9148,-639,65,11234,-4,0,81,-3,137877,0
137900,25,-2052,137,-38,-4,-35,14957,0,-3,-298,-80,35403,-102,35,127,0,0,3934,-16,0,9148,-639,65,11244,-4,0,81,-3,137877,0
137910,10,-2049,141,-38,-7,-34,14960,16,10,-254,-64,35409,-103,34,127,0,0,3929,-49,0,9148,-639,65,11254,-4,0,81,-3,137893,0
137920,10,-2051,134,-38,-10,-45,14956,0,-4,-298,-64,35400,-98,34,127,0,0,3933,-10,0,9148,-639,65,11264,-4,0,81,-3,137924,0
137930,17,-2050,140,-37,-11,-49,14958,-1,-3,-297,-64,35407,-100,35,127,0,0,3933,0,0,9148,-639,65,11274,-4,0,81,-3,137924,0
137940,14,-2051,147,-37,-10,-48,14958,3,5,-291,-88,35408,-110,34,127,0,0,3934,-5,0,9148,-639,65,11284,-4,0,81,-3,137924,0
137950,-7,-2046,158,-38,-16,-54,14960,21,4,-257,-64,35413,-105,35,127,0,0,3933,-27,0,9148,-639,65,11294,-4,0,81,-3,137940,0
137960,-1,-2050,150,-45,-12,-60,14958,7,-6,-259,-64,35401,-110,34,127,0,0,3929,-21,0,9148,-639,65,11304,-4,0,81,-3,137940,0
137970,-11,-2051,153,-49,-25,-62,14957,-1,-8,-299,-56,35407,-95,35,127,0,0,3933,-10,0,9148,-639,65,11314,-4,0,81,-3,137956,0
137980,26,-2043,155,-54,-23,-65,14959,10,6,-250,-64,35420,-109,35,127,0,0,3933,-5,0,9148,-639,65,11324,-4,0,81,-3,137971,0
137990,15,-2051,153,-56,-23,-64,14956,-12,-4,-270,-56,35420,-107,34,127,0,0,3936,43,0,9148,-639,65,11334,-4,0,81,-3,137971,0
138000,26,-2044,153,-64,-12,-64,14956,-18,-2,-319,-88,35411,-103,35,127,0,0,3930,49,0,9148,-639,65,11344,-4,0,81,-3,138002,0
138010,19,-2048,134,-57,-10,-83,14953,4,-2,-317,-80,35409,-107,34,127,0,0,3930,-5,0,9148,-639,65,11354,-4,0,81,-3,138002,0
138020,42,-2046,136,-61,-7,-87,14955,-1,2,-328,-104,35406,-103,34,127,0,0,3928,-49,0,9148,-639,65,11364,-4,0,81,-3,138002,0
138030,13,-2055,143,-60,-5,-87,14950,-3,-10,-389,-96,35408,-125,35,127,0,0,3925,-32,0,9148,-639,65,11374,-4,0,81,-3,138034,0
138040,33,-2056,139,-61,-7,-91,14948,1,-4,-404,-112,35410,-123,34,127,0,0,3926,-32,0,9148,-639,65,11384,-4,0,81,-3,138034,0
138050,29,-2058,138,-61,-14,-92,14945,-2,5,-429,-128,35404,-120,34,127,0,0,3924,-5,0,9148,-639,65,11394,-4,0,81,-3,138034,0
138060,29,-2049,140,-57,-6,-95,14937,-16,-11,-413,-112,35410,-113,34,127,0,0,3914,-98,0,9148,-639,65,11404,-4,0,81,-3,138034,0
138070,27,-2051,151,-65,-10,-93,14914,-60,-35,-397,-104,35408,-103,35,127,0,0,3922,-21,0,9148,-639,65,11414,-4,0,81,-3,138065,0
138080,29,-2052,149,-58,-5,-91,14890,-49,-35,-224,-48,35418,-114,34,127,0,0,3918,-10,0,9148,-639,65,11424,-4,0,81,-3,138081,0
138090,49,-2036,138,-63,-13,-75,14892,14,51,-305,-120,35410,-100,34,127,0,0,3918,-49,0,9148,-639,65,11434,-4,0,81,-3,138096,0
138100,41,-2040,147,-67,-14,-76,14888,-1,39,-296,-88,35412,-93,35,127,0,0,3917,-27,0,9148,-639,65,11444,-4,0,81,-3,138096,0
138110,47,-2039,134,-66,-12,-68,14887,-1,-6,-341,-88,35410,-98,34,127,0,0,3914,10,0,9148,-639,65,11454,-4,0,81,-3,138112,0
138120,48,-2041,128,-67,-5,-65,14885,-12,-2,-356,-104,35416,-102,35,127,0,0,3918,27,0,9148,-639,65,11464,-4,0,81,-3,138112,0
138130,45,-2048,143,-67,-12,-60,14886,2,-1,-352,-104,35404,-98,34,127,0,0,3915,10,0,9148,-639,65,11474,-4,0,81,-3,138112,0
138140,35,-2047,140,-66,-15,-54,14886,3,3,-351,-104,35403,-84,34,127,0,0,3915,0,0,9148,-639,65,11484,-4,0,81,-3,138159,0
138150,25,-2054,137,-63,-12,-61,14885,-2,3,-363,-104,35411,-89,35,127,0,0,3915,-21,0,9148,-639,65,11494,-4,0,81,-3,138159,0
138160,22,-2044,133,-66,-9,-69,14885,6,2,-342,-104,35420,-76,34,127,0,0,3915,-27,0,9148,-639,65,11504,-4,0,81,-3,138159,0
138170,26,-2056,140,-66,-9,-68,14884,-1,0,-339,-104,35416,-67,35,127,0,0,3915,0,0,9148,-639,65,11514,-4,0,81,-3,138159,0
138180,27,-2054,145,-66,-13,-64,14884,-4,-3,-361,-104,35401,-71,34,127,0,0,3912,-5,0,9148,-639,65,11524,-4,0,81,-3,138174,0
138190,31,-2057,147,-75,-8,-74,14880,-12,-5,-398,-96,35393,-102,34,127,0,0,3908,-27,0,9148,-639,65,11534,-4,0,81,-3,138174,0
138200,39,-2049,133,-80,-12,-70,14876,-16,-11,-417,-136,35395,-123,35,127,0,0,3914,0,0,9148,-639,65,11544,-4,0,81,-3,138174,0
138210,39,-2051,133,-78,-8,-75,14868,-23,-11,-362,-96,35413,-109,34,127,0,0,3906,-38,0,9148,-639,65,11554,-4,0,81,-3,138206,0
138220,50,-2049,129,-79,-14,-76,14857,-33,-12,-359,-72,35421,-99,34,127,0,0,3913,27,0,9148,-639,65,11564,-4,0,81,-3,138206,0
138230,36,-2040,134,-78,-6,-78,14842,-27,-11,-248,-64,35420,-110,35,127,0,0,3907,-21,0,9148,-639,65,11574,-4,0,81,-3,138206,0
138240,38,-2045,134,-81,-5,-79,14839,0,18,-261,-64,35411,-101,35,127,0,0,3907,-38,0,9148,-639,65,11584,-4,0,81,-3,138221,0
138250,58,-2046,133,-78,-8,-77,14838,-6,22,-293,-56,35406,-112,35,127,0,0,3907,-10,0,9148,-639,65,11594,-4,0,81,-3,138237,0
138260,51,-2072,125,-84,-13,-71,14837,-4,5,-308,-80,35415,-100,35,127,0,0,3908,0,0,9148,-639,65,11604,-4,0,81,-3,138237,0
138270,69,-2030,141,-82,-5,-90,14836,-3,3,-304,-80,35413,-96,35,127,0,0,3908,0,0,9148,-639,65,11614,-4,0,81,-3,138269,0
138280,326,-2146,73,-102,9,-168,14836,-10,5,-336,-128,35416,-95,34,127,0,0,3901,-87,0,9148,-639,65,11624,-4,0,81,-3,138271,0
138290,725,-2046,19,-132,59,-572,14830,-9,-15,-415,-160,35407,-85,34,127,0,0,3900,-93,0,9148,-639,65,11634,-4,0,81,-3,138275,0
138300,186,-1936,64,-178,-4,-547,14815,-51,-22,-639,-336,35406,-85,34,127,0,0,3877,-197,0,9148,-639,65,11644,-4,0,81,-3,138281,0
138310,-83,-2092,322,-182,-86,-193,14748,-183,-111,-588,-320,35406,-79,34,127,0,0,3869,-32,0,9148,-639,65,11654,-4,0,81,-3,138297,0
138320,85,-2179,209,-131,-43,-198,14666,-165,-139,-380,-184,35400,-88,34,127,0,0,3867,10,0,9148,-639,65,11664,-4,0,81,-3,138313,0
138330,518,-2045,-106,-152,79,-552,14613,-75,32,-314,-168,35408,-74,35,127,0,0,3851,-148,0,9148,-639,65,11674,-4,0,81,-3,138313,0
138340,619,-1956,-41,-158,35,-643,14590,-85,126,-682,-288,35407,-45,35,127,0,0,3833,-175,0,9148,-639,65,11684,-4,0,81,-3,138313,0
138350,198,-1983,152,-184,-96,-442,14527,-154,-30,-609,-352,35404,-36,34,127,0,0,3818,-131,0,9148,-639,65,11694,-4,0,81,-3,138344,0
138360,197,-2111,191,-174,-61,-380,14433,-222,-133,-465,-304,35404,-37,34,127,0,0,3812,-60,0,9148,-639,65,11704,-4,0,81,-3,138344,0
138370,432,-2064,-44,-146,38,-538,14357,-148,-33,-411,-264,35395,-53,35,127,0,0,3797,-104,0,9148,-639,65,11714,-4,0,81,-3,138359,0
138380,567,-2039,-54,-152,29,-628,14292,-144,61,-477,-280,35406,-69,34,127,0,0,3778,-175,0,9148,-639,65,11724,-4,0,81,-3,138359,0
138390,432,-2021,93,-156,-37,-604,14220,-150,3,-544,-344,35396,-85,34,127,0,0,3765,-159,0,9148,-639,65,11734,-4,0,81,-3,138375,0
138400,306,-2030,140,-163,-50,-527,14142,-172,-24,-533,-328,35397,-114,35,127,0,0,3745,-148,0,9148,-639,65,11744,-4,0,81,-3,138391,0
138410,322,-2049,68,-165,-23,-519,14053,-192,-34,-421,-288,35400,-99,34,127,0,0,3735,-148,0,9148,-639,65,11754,-4,0,81,-3,138391,0
138420,389,-2055,24,-153,-10,-550,13978,-155,2,-454,-280,35397,-91,34,127,0,0,3718,-186,0,9148,-639,65,11764,-4,0,81,-3,138469,0
138430,414,-2017,56,-143,-23,-596,13906,-167,37,-496,-328,35402,-74,34,127,0,0,3704,-175,0,9148,-639,65,11774,-4,0,81,-3,138469,0
138440,363,-2025,81,-144,-40,-590,13832,-157,-11,-506,-344,35388,-57,35,127,0,0,3692,-170,0,9148,-639,65,11784,-4,0,81,-3,138469,0
138450,241,-2064,85,-140,-54,-588,13761,-150,11,-565,-368,35388,-42,35,127,0,0,3673,-203,0,9148,-639,65,11794,-4,0,81,-3,138484,0
138460,256,-2052,85,-140,-33,-635,13672,-213,-19,-479,-328,35386,-33,34,127,0,0,3654,-208,0,9148,-639,65,11804,-4,0,81,-3,138484,0
138470,285,-2037,59,-145,-21,-728,13582,-198,-39,-505,-360,35384,-46,35,127,0,0,3644,-208,0,9148,-639,65,11814,-4,0,81,-3,138484,0
138480,246,-2037,84,-147,-17,-794,13494,-195,11,-508,-424,35384,-64,35,127,0,0,3622,-203,0,9148,-639,65,11824,-4,0,81,-3,138484,0
138490,197,-2034,136,-192,-46,-863,13401,-207,-13,-584,-424,35389,-101,35,127,0,0,3594,-230,0,9148,-639,65,11834,-4,0,81,-3,138484,0
138500,174,-2048,156,-214,-41,-927,13295,-243,-26,-546,-472,35389,-118,34,127,0,0,3573,-263,0,9148,-639,65,11844,-4,0,81,-3,138484,0
138510,100,-2041,133,-265,-44,-1054,13187,-230,-32,-583,-544,35399,-123,34,127,0,0,3545,-313,0,9148,-639,65,11854,-4,0,81,-3,138484,0
138520,118,-2033,153,-292,-36,-1149,13063,-278,-34,-567,-584,35402,-101,34,127,0,0,3513,-335,0,9148,-639,65,11864,-4,0,81,-3,138516,0
138530,119,-2023,171,-352,-49,-1292,12929,-321,-51,-632,-696,35416,-77,34,127,0,0,3479,-351,0,9148,-639,65,11874,-4,0,81,-3,138516,0
138540,56,-2009,197,-395,-65,-1422,12777,-341,-52,-560,-744,35414,-57,34,127,0,0,3437,-461,0,9148,-639,65,11884,-4,0,81,-3,138516,0
138550,27,-2021,226,-474,-84,-1579,12618,-357,-50,-636,-896,35401,-60,34,127,0,0,3394,-428,0,9148,-639,65,11894,-4,0,81,-3,138547,0
138560,7,-2039,197,-519,-90,-1731,12440,-395,-52,-657,-1072,35391,-74,34,127,0,0,3349,-461,0,9148,-639,65,11904,-4,0,81,-3,138547,0
138570,-10,-2041,196,-580,-95,-1974,12235,-472,-82,-662,-1208,35391,-70,35,127,0,0,3292,-538,0,9148,-639,65,11914,-4,0,81,-3,138547,0
138580,-13,-2043,203,-633,-103,-2140,11999,-541,-123,-687,-1336,35392,-50,34,127,0,0,3228,-604,0,9148,-639,65,11924,-4,0,81,-3,138578,0
138590,-68,-2078,208,-732,-135,-2354,11733,-599,-110,-692,-1488,35391,-47,35,127,0,0,3171,-637,0,9148,-639,65,11934,-4,0,81,-3,138578,0
138600,-126,-2163,148,-794,-166,-2469,11448,-635,-93,-637,-1576,35386,-58,34,127,0,0,3103,-653,0,9148,-639,65,11944,-4,0,81,-3,138578,0
138610,-283,-2517,223,-830,-282,-2541,11141,-680,-84,-591,-1504,35388,-42,34,127,0,0,3045,-560,0,9148,-639,65,11954,-4,0,81,-3,138594,0
138620,250,-2521,407,-748,-373,-2677,10849,-623,-18,-535,-1360,35400,-53,34,127,0,0,3002,-466,0,9148,-639,65,11964,-4,0,81,-3,138609,0
138630,-285,-2474,202,-872,-538,-2766,10584,-566,85,-547,-1232,35395,-45,34,127,0,0,2970,-318,0,9148,-639,65,11974,-4,0,-36,0,138609,0
138640,-255,-2489,122,-888,-458,-2941,10350,-490,110,-519,-1024,35398,-54,35,127,0,0,2935,-324,0,9148,-639,65,11984,-4,0,-36,0,138641,0
138650,34,-2684,42,-873,-421,-3107,10151,-426,129,-538,-872,35400,-72,34,127,0,0,2912,-269,0,9148,-639,65,11994,-4,0,-35,0,138641,0
138660,69,-2687,141,-815,-480,-3165,9976,-380,111,-536,-688,35405,-68,34,127,0,0,2901,-120,0,9148,-639,65,12004,-4,0,-35,0,138641,0
138670,109,-2603,125,-817,-577,-3178,9827,-290,93,-457,-472,35402,-85,35,127,0,0,2899,-5,0,9148,-639,65,12014,-4,0,-34,0,138672,0
138680,190,-2581,138,-802,-612,-3256,9716,-202,121,-377,-240,35396,-66,35,127,0,0,2895,-16,0,9148,-639,65,12024,-4,0,-34,0,138672,0
138690,177,-2542,111,-706,-810,-3217,9673,-30,197,-351,-56,35386,-58,34,127,0,0,2908,142,0,9148,-639,65,12034,-4,0,-33,0,138672,0
138700,523,-2586,116,-704,-905,-3195,9705,96,280,-134,88,35396,-69,34,127,0,0,2934,291,0,9148,-639,65,12044,-4,0,-32,0,138672,0
138710,340,-2513,148,-661,-1040,-3047,9775,179,205,229,272,35405,-78,35,127,0,0,2970,428,0,9148,-639,65,12054,-4,0,-31,0,138719,0
138720,417,-2346,131,-613,-1107,-2972,9868,244,117,488,536,35424,-64,34,127,0,0,3023,571,0,9148,-639,65,12064,-4,0,-30,0,138719,0
138730,471,-2186,37,-553,-1208,-2758,10021,374,157,543,880,35416,-58,34,127,0,0,3089,725,0,9148,-639,65,12074,-4,0,-28,0,138734,0
138740,513,-2052,23,-485,-1235,-2547,10222,482,211,561,1144,35403,-47,35,127,0,0,3157,692,0,9148,-639,65,12084,-4,0,-27,0,138734,0
138750,276,-1819,41,-265,-1166,-1845,10465,546,181,477,1224,35392,-61,34,127,0,0,3204,444,0,9148,-639,65,12094,-4,0,-25,0,138734,0
138760,257,-1712,-87,-190,-1080,-1574,10725,574,113,382,984,35387,-70,35,127,0,0,3224,87,0,9148,-639,65,12104,-4,0,-24,0,138734,0
138770,118,-1543,-3,-26,-1131,-774,10959,471,-17,224,560,35395,-79,34,127,0,0,3218,-49,0,9148,-639,65,12114,-4,0,-22,0,138844,0
138780,43,-1494,86,108,-1156,-268,11126,323,-178,142,184,35404,-80,34,127,0,0,3226,27,0,9148,-639,65,12124,-4,0,-20,0,138844,0
138790,-50,-1437,81,311,-1196,381,11200,81,-302,1,-8,35420,-91,35,127,0,0,3227,54,0,9148,-639,65,12134,-4,0,-18,0,138844,0
138800,-37,-1443,18,422,-1137,831,11193,-16,-347,189,24,35432,-98,34,127,0,0,3226,-5,0,9148,-639,65,12144,-4,0,-16,0,138859,0
138810,29,-1448,-18,590,-981,1561,11195,10,-127,170,40,35421,-114,35,127,0,0,3222,-32,0,9148,-639,65,12154,-4,0,-12,0,138859,0
138820,1,-1461,-12,689,-867,2041,11195,0,24,181,104,35404,-131,34,127,0,0,3232,82,0,9148,-639,65,12164,-4,0,-10,0,138859,0
138830,-25,-1512,22,841,-606,2634,11214,44,22,351,152,35394,-143,34,127,0,0,3242,93,0,9148,-639,65,12174,-4,0,-6,0,138859,0
138840,15,-1580,26,917,-401,3005,11238,66,44,525,216,35395,-154,35,127,0,0,3256,115,0,9148,-639,65,12184,-4,0,-4,0,138859,0
138850,5,-1667,30,1064,-89,3542,11291,150,63,542,256,35400,-136,34,127,0,0,3269,104,0,9148,-639,65,12194,-4,0,0,0,138859,0
138860,68,-1694,37,1156,125,3885,11365,167,106,471,320,35396,-112,34,127,0,0,3289,153,0,9148,-639,65,12204,-4,0,2,0,138859,0
138870,27,-1722,59,1302,399,4364,11449,207,54,563,480,35400,-88,35,127,0,0,3323,346,0,9148,-639,65,12214,-4,0,6,0,138859,0
138880,52,-1749,66,1388,537,4645,11573,295,104,525,584,35406,-66,35,127,0,0,3356,362,0,9148,-639,65,12224,-4,0,9,0,138859,0
138890,107,-1803,81,1525,734,5053,11723,350,128,549,776,35420,-60,35,127,0,0,3402,477,0,9148,-639,65,12234,-4,0,14,0,138891,0
138900,122,-1844,93,1607,836,5313,11899,410,96,546,960,35425,-54,35,127,0,0,3461,527,0,9148,-639,65,12244,-4,0,17,0,138891,0
138910,144,-1897,132,1707,951,5653,12109,485,111,621,1192,35421,-53,35,127,0,0,3528,631,0,9148,-639,65,12254,-4,0,22,0,138891,0
138920,139,-1945,143,1769,999,5870,12356,574,134,643,1440,35410,-76,35,127,0,0,3601,736,0,9148,-639,65,12264,-4,0,25,0,138891,0
138930,135,-2007,174,1861,1049,6164,12645,656,157,606,1688,35405,-64,35,127,0,0,3681,834,0,9148,-639,65,12274,-4,0,30,0,138922,0
138940,140,-2078,188,1913,1074,6311,12977,768,157,685,1976,35419,-72,34,127,0,0,3769,807,0,9148,-639,65,12284,-4,0,33,0,138937,0
138950,222,-2236,210,2019,1124,6382,13353,858,170,653,2144,35411,-48,34,127,0,0,3861,845,0,9148,-639,65,12294,-4,0,37,0,138937,0
138960,225,-2292,231,2106,1193,6348,13759,912,147,543,2184,35404,-46,35,127,0,0,3930,648,0,9148,-639,65,12304,-4,0,40,0,138937,0
138970,215,-2306,274,2193,1257,6265,14164,879,47,440,2032,35397,-48,34,127,0,0,3989,527,0,9148,-639,65,12314,-4,0,45,0,138969,0
138980,170,-2266,266,2217,1245,6204,14542,802,-44,320,1688,35406,-37,35,127,0,0,4024,417,0,9148,-639,65,12324,-4,0,47,0,138969,0
138990,148,-2199,263,2179,1124,6075,14874,695,-133,302,1344,35409,-54,34,127,0,0,4050,263,0,9148,-639,65,12334,-4,0,51,0,138969,0
139000,151,-2187,253,2129,1019,5994,15153,573,-192,276,1000,35405,-61,34,127,0,0,4075,225,0,9148,-639,65,12344,-4,0,54,0,138984,0
139010,108,-2283,290,2086,859,5843,15372,451,-217,330,752,35410,-88,35,127,0,0,4098,214,0,9148,-639,65,12354,-4,0,57,0,139000,0
139020,98,-2358,241,2030,771,5721,15553,374,-190,428,632,35407,-78,34,127,0,0,4116,214,0,9148,-639,65,12364,-4,0,59,0,139000,0
139030,158,-2434,157,1918,696,5531,15714,343,-114,386,552,35413,-68,34,127,0,0,4140,258,0,9148,-639,65,12374,-4,0,62,-4,139031,0
139040,179,-2394,134,1835,675,5398,15853,309,-79,444,536,35415,-94,35,127,0,0,4173,263,0,9148,-639,65,12384,-4,0,64,-4,139031,0
139050,215,-2364,173,1659,619,5054,15991,319,-45,570,608,35421,-97,35,127,0,0,4206,280,0,9148,-639,65,12394,-4,0,67,-4,139031,0
139060,278,-2365,183,1506,590,4724,16136,332,9,560,608,35419,-102,35,127,0,0,4231,164,0,9148,-639,65,12404,-4,0,68,-4,139031,0
139070,303,-2333,162,1282,563,4133,16282,312,19,479,496,35413,-88,35,127,0,0,4246,115,0,9148,-639,65,12414,-4,0,70,-3,139062,0
139080,305,-2297,180,1194,548,3690,16390,251,-54,442,328,35420,-53,35,127,0,0,4252,43,0,9148,-639,65,12424,-4,0,71,-3,139062,0
139090,302,-2168,114,1148,432,2971,16474,142,-127,356,176,35422,-61,35,127,0,0,4248,21,0,9148,-639,65,12434,-4,0,72,-3,139062,0
139100,329,-2029,77,1111,331,2438,16500,6,-193,359,104,35413,-53,34,127,0,0,4249,-21,0,9148,-639,65,12444,-4,0,72,-3,139094,0
139110,293,-1850,58,951,223,1583,16493,1,-169,443,120,35413,-69,35,127,0,0,4249,-32,0,9148,-639,65,12454,-4,0,73,-4,139094,0
139120,293,-1899,119,799,258,1016,16494,-1,-21,397,136,35413,-79,34,127,0,0,4248,-16,0,9148,-639,65,12464,-4,0,73,-4,139125,0
139130,228,-2005,41,463,449,140,16494,5,11,408,136,35413,-80,34,127,0,0,4248,-10,0,9148,-639,65,12474,-4,0,72,-4,139141,0
139140,200,-2117,78,283,642,-434,16492,-5,-11,399,120,35406,-92,35,127,0,0,4249,-5,0,9148,-639,65,12484,-4,0,72,-5,139156,0
139150,220,-2247,62,63,1008,-1204,16493,-9,-3,409,96,35403,-84,35,127,0,0,4250,-49,0,9148,-639,65,12494,-4,0,71,-6,139172,0
139160,232,-2237,92,-64,1266,-1658,16493,0,-2,430,120,35390,-97,34,127,0,0,4249,-21,0,9148,-639,65,12504,-4,0,70,-7,139172,0
139170,286,-2121,78,-234,1593,-2220,16491,-15,-8,365,120,35391,-97,34,127,0,0,4252,76,0,9148,-639,65,12514,-4,0,69,-8,139187,0
139180,303,-2115,65,-319,1727,-2520,16493,-9,8,380,144,35390,-91,35,127,0,0,4248,43,0,9148,-639,65,12524,-4,0,68,-9,139187,0
139190,-1825,-4266,721,-547,1373,-970,16492,-1,-4,619,536,35397,-98,34,127,0,0,4322,922,0,9148,-639,65,12534,-4,0,66,-10,139203,0
139200,-749,-2142,1121,56,1854,-1251,16614,398,213,1133,1248,35390,-80,34,127,0,0,4391,576,0,9148,-639,65,12544,-4,0,65,-10,139203,0
139210,-496,-1491,967,489,953,-894,16845,520,478,658,1272,35394,-87,35,127,0,0,4450,571,0,9148,-639,65,12554,-4,0,63,-11,139203,0
139220,-65,-1795,755,543,296,-347,17095,597,222,956,1880,35396,-63,34,127,0,0,4569,1241,0,9148,-639,65,12564,-4,0,62,-11,139219,0
139230,-782,-2040,393,534,92,-373,17452,863,241,1052,2504,35396,-39,34,127,0,0,4694,1274,0,9148,-639,65,12574,-4,0,61,-12,139219,0
139240,-1000,-2390,160,485,310,-594,17914,1075,414,890,2784,35395,-35,34,127,0,0,4806,1109,0,9148,-639,65,12584,-4,0,60,-13,139219,0
139250,-362,-1791,-120,599,623,-990,18429,1143,304,658,2712,35395,-6,34,127,0,0,4883,741,0,9148,-639,65,12594,-4,0,58,-13,139266,0
139260,-636,-1500,-120,314,442,-1015,18930,1078,74,459,2432,35409,-26,34,127,0,0,4944,626,0,9148,-639,65,12604,-4,0,57,-14,139266,0
139270,-844,-1971,-282,219,593,-1309,19390,984,-119,467,2256,35403,-36,34,127,0,0,5018,697,0,9148,-639,65,12614,-4,0,56,-15,139266,0
139280,-638,-2090,-318,184,587,-1561,19809,899,-155,506,2016,35397,-38,35,127,0,0,5072,543,0,9148,-639,65,12624,-4,0,55,-15,139266,0
139290,-338,-2169,-59,223,213,-1785,20184,796,-145,489,1688,35388,-45,34,127,0,0,5105,280,0,9148,-639,65,12634,-4,0,53,-16,139281,0
139300,-378,-2256,286,168,-147,-1772,20499,647,-206,447,1360,35386,-53,34,127,0,0,5130,230,0,9148,-639,65,12644,-4,0,52,-17,139281,0
139310,-442,-2286,460,125,-707,-1815,20751,518,-237,435,1040,35394,-78,35,127,0,0,5151,230,0,9148,-639,65,12654,-4,0,50,-18,139328,0
139320,-343,-2153,486,113,-972,-1838,20959,431,-205,478,832,35407,-74,35,127,0,0,5164,148,0,9148,-639,65,12664,-4,0,49,-19,139328,0
139330,-439,-1943,425,108,-1024,-1869,21127,353,-165,485,608,35405,-65,34,127,0,0,5178,137,0,9148,-639,65,12674,-4,0,47,-20,139344,0
139340,-491,-1868,508,149,-861,-1889,21261,273,-136,444,408,35403,-67,34,127,0,0,5182,71,0,9148,-639,65,12684,-4,0,46,-21,139344,0
139350,-499,-1898,702,255,-392,-1941,21353,160,-136,438,248,35397,-79,35,127,0,0,5181,32,0,9148,-639,65,12694,-4,0,44,-22,139344,0
139360,-410,-1797,829,319,-88,-1930,21390,45,-190,475,176,35402,-112,34,127,0,0,5177,16,0,9148,-639,65,12704,-4,0,43,-23,139344,0
139370,-102,-2068,843,328,269,-1972,21400,17,-163,399,88,35390,-107,34,127,0,0,5174,-27,0,9148,-639,65,12714,-4,0,41,-24,139344,0
139380,-121,-1948,709,303,251,-1955,21391,-44,-71,184,-32,35396,-102,35,127,0,0,5158,-148,0,9148,-639,65,12724,-4,0,40,0,139375,0
139390,-117,-1962,515,101,-6,-1815,21345,-132,-111,-26,-56,35410,-91,34,127,0,0,5143,-115,0,9148,-639,65,12734,-4,0,38,0,139390,0
139400,-224,-1932,314,33,-202,-1750,21293,-122,-92,-163,-136,35414,-90,35,127,0,0,5129,-164,0,9148,-639,65,12744,-4,0,37,0,139390,0
139410,-119,-2234,6,46,-342,-1813,21243,-104,-4,-366,-224,35406,-103,34,127,0,0,5111,-170,0,9148,-639,65,12754,-4,0,35,0,139390,0
139420,-176,-2111,17,226,-12,-2130,21183,-159,-7,-615,-520,35393,-118,34,127,0,0,5062,-472,0,9148,-639,65,12764,-4,0,35,0,139406,0
139430,-54,-1948,180,230,63,-2047,21052,-334,-164,-559,-840,35401,-142,35,127,0,0,5004,-543,0,9148,-639,65,12774,-4,0,35,0,139422,0
139440,36,-2010,366,210,-21,-1907,20872,-422,-229,-525,-1008,35401,-110,34,127,0,0,4957,-538,0,9148,-639,65,12784,-4,0,35,0,139422,0
139450,-84,-1979,210,222,-87,-1627,20660,-490,-153,-514,-1096,35399,-74,35,127,0,0,4911,-417,0,9148,-639,65,12794,-4,0,35,0,139453,0
139460,-41,-2086,179,282,-12,-1542,20427,-520,-100,-385,-1048,35399,-51,34,127,0,0,4865,-472,0,9148,-639,65,12804,-4,0,35,0,139453,0
139470,56,-2041,386,398,33,-1386,20190,-521,-48,-357,-1024,35401,-57,34,127,0,0,4833,-411,0,9148,-639,65,12814,-4,0,35,0,139453,0
139480,146,-2072,508,393,-4,-1254,19957,-509,-4,-304,-904,35398,-84,34,127,0,0,4797,-324,0,9148,-639,65,12824,-4,0,35,0,139453,0
139490,11,-1937,621,325,-64,-1032,19737,-472,35,-312,-840,35390,-90,34,127,0,0,4765,-357,0,9148,-639,65,12834,-4,0,35,0,139469,0
139500,-100,-1992,630,274,-94,-879,19533,-444,57,-308,-712,35395,-94,34,127,0,0,4742,-214,0,9148,-639,65,12844,-4,0,35,0,139500,0
139510,-165,-1979,622,248,-69,-836,19346,-409,59,-337,-576,35403,-98,34,127,0,0,4717,-208,0,9148,-639,65,12854,-4,0,35,0,139547,0
139520,-185,-1977,608,183,-50,-853,19184,-350,74,-365,-488,35403,-77,34,127,0,0,4692,-214,0,9148,-639,65,12864,-4,0,35,0,139547,0
139530,-276,-1997,725,85,-77,-851,19033,-316,72,-337,-448,35391,-68,34,127,0,0,4668,-285,0,9148,-639,65,12874,-4,0,35,0,139547,0
139540,-282,-2048,740,3,-84,-860,18898,-274,55,-391,-464,35388,-70,34,127,0,0,4645,-252,0,9148,-639,65,12884,-4,0,35,0,139562,0
139550,-278,-2026,678,-96,-67,-972,18768,-283,50,-394,-464,35392,-94,35,127,0,0,4617,-274,0,9148,-639,65,12894,-4,0,35,0,139562,0
139560,-235,-1994,633,-157,-50,-1072,18640,-278,9,-440,-488,35395,-103,34,127,0,0,4587,-302,0,9148,-639,65,12904,-4,0,35,0,139562,0
139570,-173,-2014,630,-213,-54,-1180,18498,-308,-21,-442,-608,35389,-97,35,127,0,0,4552,-373,0,9148,-639,65,12914,-4,0,35,0,139562,0
139580,-105,-1988,630,-258,-76,-1204,18344,-353,-40,-459,-648,35386,-75,34,127,0,0,4523,-340,0,9148,-639,65,12924,-4,0,35,0,139562,0
139590,-126,-1963,577,-324,-79,-1254,18175,-377,-56,-443,-752,35394,-47,34,127,0,0,4478,-444,0,9148,-639,65,12934,-4,0,35,0,139609,0
139600,-113,-1957,516,-349,-63,-1291,17998,-388,-49,-442,-816,35410,-56,35,127,0,0,4441,-428,0,9148,-639,65,12944,-4,0,35,0,139609,0
139610,-65,-1952,429,-389,-70,-1333,17815,-402,-19,-451,-864,35411,-71,34,127,0,0,4398,-417,0,9148,-639,65,12954,-4,0,35,0,139609,0
139620,-13,-1949,393,-414,-68,-1351,17622,-432,-31,-450,-896,35407,-64,35,127,0,0,4352,-477,0,9148,-639,65,12964,-4,0,35,0,139625,0
139630,-13,-1960,401,-400,-71,-1366,17417,-460,-46,-473,-944,35388,-68,34,127,0,0,4318,-401,0,9148,-639,65,12974,-4,0,35,0,139625,0
139640,-2,-1973,378,-390,-67,-1368,17202,-481,-37,-404,-952,35384,-76,34,127,0,0,4273,-461,0,9148,-639,65,12984,-4,0,35,0,139625,0
139650,57,-1996,372,-377,-45,-1385,16987,-476,-27,-430,-960,35395,-84,35,127,0,0,4228,-477,0,9148,-639,65,12994,-4,0,35,0,139625,0
139660,84,-2001,374,-352,-39,-1381,16774,-479,2,-450,-968,35403,-68,34,127,0,0,4186,-466,0,9148,-639,65,13004,-4,0,35,0,139656,0
139670,151,-2008,400,-339,-50,-1385,16556,-476,-10,-435,-984,35412,-60,34,127,0,0,4149,-422,0,9148,-639,65,13014,-4,0,35,0,139656,0
139680,139,-1999,393,-343,-61,-1372,16337,-476,-12,-411,-976,35401,-97,35,127,0,0,4104,-472,0,9148,-639,65,13024,-4,0,35,0,139656,0
139690,98,-1982,390,-343,-52,-1369,16123,-455,0,-418,-960,35397,-90,34,127,0,0,4066,-466,0,9148,-639,65,13034,-4,0,35,0,139703,0
139700,114,-1969,384,-345,-59,-1373,15912,-458,7,-452,-936,35403,-84,35,127,0,0,4023,-395,0,9148,-639,65,13044,-4,0,35,0,139703,0
139710,107,-1979,388,-327,-48,-1398,15700,-452,7,-476,-960,35406,-70,34,127,0,0,3982,-406,0,9148,-639,65,13054,-4,0,35,0,139703,0
139720,105,-1984,410,-327,-44,-1424,15491,-453,12,-488,-960,35402,-73,34,127,0,0,3939,-433,0,9148,-639,65,13064,-4,0,35,0,139719,0
139730,99,-1985,431,-322,-68,-1457,15288,-447,13,-533,-1016,35391,-80,35,127,0,0,3895,-450,0,9148,-639,65,13074,-4,0,35,0,139719,0
139740,111,-1986,412,-324,-63,-1494,15073,-474,-18,-529,-1064,35388,-75,35,127,0,0,3851,-428,0,9148,-639,65,13084,-4,0,35,0,139719,0
139750,51,-1990,382,-328,-64,-1540,14858,-474,-16,-559,-1104,35403,-72,34,127,0,0,3807,-466,0,9148,-639,65,13094,-4,0,35,0,139734,0
139760,67,-1990,374,-318,-54,-1595,14636,-497,-9,-580,-1152,35418,-74,34,127,0,0,3761,-455,0,9148,-639,65,13104,-4,0,35,0,139750,0
139770,100,-1991,354,-310,-70,-1667,14411,-520,-18,-587,-1224,35432,-67,34,127,0,0,3713,-466,0,9148,-639,65,13114,-4,0,35,0,139750,0
139780,59,-1993,334,-312,-52,-1733,14177,-520,-30,-595,-1320,35419,-68,34,127,0,0,3660,-538,0,9148,-639,65,13124,-4,0,35,0,139765,0
139790,82,-2001,388,-300,-69,-1815,13926,-556,-53,-571,-1360,35407,-60,35,127,0,0,3606,-532,0,9148,-639,65,13134,-4,0,35,0,139781,0
139800,103,-1976,382,-300,-61,-1876,13671,-558,-38,-572,-1408,35405,-61,34,127,0,0,3557,-532,0,9148,-639,65,13144,-4,0,35,0,139797,0
139810,118,-1963,413,-321,-76,-2004,13404,-587,-28,-568,-1448,35405,-57,34,127,0,0,3496,-620,0,9148,-639,65,13154,-4,0,35,0,139797,0
139820,123,-1965,449,-349,-87,-2076,13130,-608,-30,-593,-1464,35400,-56,35,127,0,0,3438,-527,0,9148,-639,65,13164,-4,0,35,0,139828,0
139830,76,-1958,505,-395,-113,-2190,12845,-636,-38,-601,-1584,35392,-40,34,127,0,0,3373,-637,0,9148,-639,65,13174,-4,0,35,0,139828,0
139840,86,-1936,509,-431,-134,-2296,12547,-659,-49,-613,-1632,35393,-31,34,127,0,0,3312,-631,0,9148,-639,65,13184,-4,0,35,0,139828,0
139850,103,-1933,510,-510,-155,-2433,12231,-711,-52,-667,-1744,35394,-38,35,127,0,0,3235,-708,0,9148,-639,65,13194,-4,0,35,0,139828,0
139860,133,-1937,510,-543,-167,-2544,11890,-762,-78,-658,-1856,35392,-32,34,127,0,0,3160,-736,0,9148,-639,65,13204,-4,0,35,0,139859,0
139870,174,-1977,516,-613,-187,-2694,11535,-795,-79,-646,-1896,35394,-48,35,127,0,0,3083,-758,0,9148,-639,65,13214,-4,0,35,0,139859,0
139880,184,-1999,492,-645,-209,-2752,11168,-817,-52,-608,-1992,35400,-46,34,127,0,0,3001,-807,0,9148,-639,65,13224,-4,0,35,0,139859,0
139890,276,-1950,438,-660,-237,-2846,10792,-813,-40,-614,-1960,35400,-50,34,127,0,0,2923,-741,0,9148,-639,65,13234,-4,0,35,0,139906,0
139900,305,-1980,391,-662,-280,-2874,10420,-811,-7,-648,-1936,35397,-48,35,127,0,0,2855,-686,0,9148,-639,65,13244,-4,0,35,0,139906,0
139910,461,-1978,386,-685,-444,-2879,10058,-782,24,-622,-1840,35394,-43,35,127,0,0,2779,-675,0,9148,-639,65,13254,-4,0,35,0,139906,0
139920,368,-1722,388,-778,-764,-2878,9705,-764,35,-587,-1792,35393,-38,34,127,0,0,2722,-609,0,9148,-639,65,13264,-4,0,35,0,139953,0
139930,805,-2491,702,-739,-1533,-2590,9369,-722,53,-532,-1632,35391,-36,34,127,0,0,2670,-510,0,9148,-639,65,13274,-4,0,35,0,139953,0
139940,333,-3454,717,-617,-1308,-2367,9064,-643,89,-436,-1320,35389,-62,35,127,0,0,2641,-291,0,9148,-639,65,13284,-4,0,35,0,139953,0
139950,-134,-2646,469,-583,-972,-2376,8807,-520,146,-372,-872,35395,-59,34,127,0,0,2635,-5,0,9148,-639,65,13294,-4,0,35,0,139953,0
139960,103,-2175,224,-591,-849,-2576,8626,-359,242,-414,-496,35405,-63,35,127,0,0,2638,5,0,9148,-639,65,13304,-4,0,35,0,139953,0
139970,387,-2100,86,-597,-1035,-2727,8505,-229,252,-329,-240,35406,-65,34,127,0,0,2638,-5,0,9148,-639,65,13314,-4,0,35,0,139953,0
139980,304,-2124,27,-627,-1181,-2814,8450,-84,241,-329,-80,35405,-79,34,127,0,0,2643,54,0,9148,-639,65,13324,-4,0,35,0,139953,0
139990,255,-2219,-8,-649,-1351,-2811,8456,62,245,-188,16,35407,-81,35,127,0,0,2664,197,0,9148,-639,65,13334,-4,0,35,0,140000,0
140000,248,-2296,144,-575,-1130,-3068,8500,148,193,266,120,35418,-65,35,127,0,0,2677,32,0,9148,-639,65,13344,-4,0,35,0,140000,0
140010,81,-2834,280,-536,-1028,-3038,8567,124,125,100,104,35416,-56,35,127,0,0,2697,225,0,9148,-639,65,13354,-4,0,35,0,140015,0
140020,275,-2737,468,-504,-913,-3187,8625,129,5,438,344,35417,-63,35,127,0,0,2737,401,0,9148,-639,65,13364,-4,0,35,0,140015,0
140030,375,-2041,156,-552,-1046,-3486,8729,269,67,525,576,35407,-72,34,127,0,0,2783,472,0,9148,-639,65,13374,-4,0,7,0,140015,0
140040,257,-1865,113,-567,-1281,-3551,8883,360,203,474,696,35400,-84,35,127,0,0,2827,455,0,9148,-639,65,13384,-4,0,14,0,140015,0
140050,54,-2203,28,-420,-1693,-3509,9054,371,128,451,864,35408,-101,34,127,0,0,2890,615,0,9148,-639,65,13394,-4,0,17,0,140047,0
140060,220,-2505,-131,-316,-1621,-3702,9257,476,85,555,1120,35417,-82,34,127,0,0,2958,725,0,9148,-639,65,13404,-4,0,18,0,140047,0
140070,-20,-2343,-98,-45,-1518,-4215,9503,557,142,539,1312,35431,-73,35,127,0,0,3025,659,0,9148,-639,65,13414,-4,0,21,0,140047,0
140080,-17,-2365,-85,51,-1457,-4289,9747,610,142,556,1560,35420,-52,34,127,0,0,3103,763,0,9148,-639,65,13424,-4,0,23,0,140078,0
140090,-308,-2573,100,93,-1392,-4402,10058,713,127,558,1704,35421,-57,34,127,0,0,3192,862,0,9148,-639,65,13434,-4,0,26,0,140078,0
140100,-44,-2844,143,152,-1232,-4661,10404,795,152,564,1992,35415,-59,34,127,0,0,3287,944,0,9148,-639,65,13444,-4,0,28,0,140078,0
140110,34,-2703,51,142,-1036,-5022,10806,912,176,538,2184,35410,-58,34,127,0,0,3384,928,0,9148,-639,65,13454,-4,0,31,0,140093,0
140120,269,-2317,115,170,-1148,-5197,11242,985,164,584,2416,35406,-55,34,127,0,0,3495,1049,0,9148,-639,65,13464,-4,0,34,0,140109,0
140130,639,-2087,48,151,-1614,-5284,11716,1074,139,620,2624,35406,-41,34,127,0,0,3606,1093,0,9148,-639,65,13474,-4,0,38,0,140109,0
140140,1186,-2159,21,-10,-1853,-5650,12227,1143,146,582,2840,35403,-19,34,127,0,0,3723,1131,0,9148,-639,65,13484,-4,0,41,0,140140,0
140150,1121,-2701,407,-22,-2463,-5978,12760,1170,112,499,2784,35404,-13,34,127,0,0,3817,944,0,9148,-639,65,13494,-4,0,45,0,140140,0
140160,1104,-3299,758,72,-3210,-5659,13280,1129,5,506,2848,35404,-19,34,127,0,0,3927,1170,0,9148,-639,65,13504,-4,0,48,0,140140,0
140170,845,-3822,930,75,-3579,-4843,13802,1170,-26,740,3256,35402,-14,34,127,0,0,4082,1576,0,9148,-639,65,13514,-4,0,52,0,140140,0
140180,719,-3828,867,93,-3659,-4331,14403,1389,174,968,3928,35383,-9,34,127,0,0,4276,2005,0,9148,-639,65,13524,-4,0,55,0,140172,0
140190,284,-3190,890,117,-3703,-3551,15143,1732,334,1200,4816,35383,7,35,127,0,0,4523,2510,0,9148,-639,65,13534,-4,0,61,0,140172,0
140200,-59,-2572,749,54,-3861,-2906,16070,2177,756,1322,5784,35376,20,35,127,0,0,4788,2702,0,9148,-639,65,13544,-4,0,65,0,140172,0
140210,-16,-2174,629,-300,-3999,-1790,17166,2507,698,1389,6656,35361,85,35,127,0,0,5083,2944,0,9148,-639,65,13554,-4,0,71,0,140187,0
140220,805,-1904,927,-374,-4381,-1209,18409,2830,599,1300,7336,35341,127,34,127,0,0,5367,2719,0,9148,-639,65,13564,-4,0,76,0,140203,0
140230,1787,-1508,675,-519,-3037,-1504,19755,2949,494,489,6472,35329,164,34,127,0,0,5478,884,0,9148,-639,65,13574,-4,0,84,0,140218,0
140240,1562,-805,185,-599,-2228,-1100,20950,2450,-80,-204,3784,35346,110,35,127,0,0,5397,-950,0,9148,-639,65,13584,-4,0,89,0,140218,0
140250,721,-351,-218,-602,-1447,-672,21754,1395,-1034,-1463,440,35372,22,35,127,0,0,5209,-2010,0,9148,-639,65,13594,-4,0,96,54,140234,0
140260,454,-493,-137,-534,-1384,21,21848,-426,-2122,-2708,-2032,35404,-82,35,127,0,0,4992,-2224,0,9148,-639,65,13604,-4,0,101,52,140328,0
140270,206,-824,222,-448,-1450,853,21431,-1107,-2464,-1401,-3552,35415,-111,34,127,0,0,4770,-2213,0,9148,-639,65,13614,-4,0,108,49,140328,0
140280,403,-1154,388,-434,-1429,1620,20760,-1599,-1435,-1010,-4232,35396,-67,34,127,0,0,4597,-1801,0,9148,-639,65,13624,-4,0,112,46,140328,0
140290,222,-1277,344,-446,-1466,2661,19959,-1810,-734,-508,-4288,35374,-3,35,127,0,0,4451,-1444,0,9148,-639,65,13634,-4,0,119,43,140328,0
140300,233,-1343,246,-448,-1326,3306,19147,-1761,-277,-229,-3816,35363,23,34,127,0,0,4354,-917,0,9148,-639,65,13644,-4,0,124,40,140343,0
140310,444,-1390,203,-428,-865,4019,18401,-1567,114,-90,-3104,35364,-9,34,127,0,0,4286,-648,0,9148,-639,65,13654,-4,0,132,36,140343,0
140320,552,-1312,289,-407,-448,4426,17759,-1344,333,-40,-2504,35372,-43,34,127,0,0,4220,-631,0,9148,-639,65,13664,-4,0,136,34,140343,0
140330,633,-1230,261,-158,226,4974,17218,-1128,392,-74,-2176,35382,-61,34,127,0,0,4141,-812,0,9148,-639,65,13674,-4,0,144,30,140343,0
140340,621,-1106,104,-18,575,5377,16754,-981,348,-240,-2096,35383,-80,34,127,0,0,4064,-802,0,9148,-639,65,13684,-4,0,149,28,140343,0
140350,584,-940,-95,123,976,6090,16326,-932,210,-342,-2016,35386,-71,34,127,0,0,3991,-670,0,9148,-639,65,13694,-4,0,157,24,140343,0
140360,570,-859,-153,218,1199,6555,15919,-877,104,-324,-1776,35384,-60,35,127,0,0,3939,-494,0,9148,-639,65,13704,-4,0,162,22,140359,0
140370,591,-855,-155,347,1542,7192,15554,-762,120,-264,-1440,35393,-56,34,127,0,0,3912,-296,0,9148,-639,65,13714,-4,0,170,19,140359,0
140380,532,-985,-109,454,1822,7552,15250,-624,201,-264,-1048,35401,-61,35,127,0,0,3885,-208,0,9148,-639,65,13724,-4,0,175,17,140359,0
140390,424,-1237,-59,671,2290,7972,15012,-480,249,-268,-712,35419,-48,35,127,0,0,3879,-126,0,9148,-639,65,13734,-4,0,183,14,140390,0
140400,376,-1321,-46,806,2580,8219,14833,-366,239,-292,-400,35431,-58,35,127,0,0,3878,-16,0,9148,-639,65,13744,-4,0,188,12,140390,0
140410,387,-1443,-3,1087,3053,8551,14712,-219,223,-288,-200,35424,-65,35,127,0,0,3877,32,0,9148,-639,65,13754,-4,0,196,9,140390,0
140420,426,-1457,-6,1258,3334,8771,14653,-93,235,-234,-64,35406,-88,34,127,0,0,3879,27,0,9148,-639,65,13764,-4,0,201,8,140390,0
140430,528,-1511,27,1476,3669,9165,14645,22,223,-100,-48,35386,-49,35,127,0,0,3875,-10,0,9148,-639,65,13774,-4,0,209,5,140437,0
140440,472,-1553,65,1610,3760,9508,14647,-14,120,-153,16,35392,-49,34,127,0,0,3885,109,0,9148,-639,65,13784,-4,0,214,4,140437,0
140450,528,-1675,123,1805,3702,10030,14668,77,45,227,168,35395,-46,34,127,0,0,3906,208,0,9148,-639,65,13794,-4,0,222,2,140437,0
140460,493,-1774,173,1954,3605,10367,14743,195,148,402,440,35396,-57,35,127,0,0,3949,406,0,9148,-639,65,13804,-4,0,227,1,140437,0
140470,489,-1971,209,2178,3467,10726,14867,306,196,553,744,35394,-64,34,127,0,0,4008,560,0,9148,-639,65,13814,-4,0,235,0,140468,0
140480,486,-2111,225,2276,3329,10907,15040,407,184,566,1024,35405,-61,34,127,0,0,4073,642,0,9148,-639,65,13824,-4,0,240,-1,140468,0
140490,508,-2454,327,2416,3136,10984,15256,515,174,612,1344,35404,-102,35,127,0,0,4141,664,0,9148,-639,65,13834,-4,0,248,-2,140468,0
140500,546,-2664,329,2507,2976,10997,15528,628,199,625,1544,35405,-85,34,127,0,0,4227,747,0,9148,-639,65,13844,-4,0,253,-2,140500,0
140510,631,-2980,233,2556,2719,10886,15842,721,189,615,1808,35401,-59,35,127,0,0,4309,873,0,9148,-639,65,13854,-4,0,260,-3,140515,0
140520,763,-3240,199,2576,2567,10674,16197,803,157,638,2016,35396,-42,35,127,0,0,4397,878,0,9148,-639,65,13864,-4,0,265,-3,140515,0
140530,958,-3514,235,2582,2422,10171,16590,867,151,563,2016,35390,-25,35,127,0,0,4469,719,0,9148,-639,65,13874,-4,0,271,-4,140515,0
140540,1033,-3622,302,2466,2337,9737,16976,843,60,456,1816,35383,-41,34,127,0,0,4514,461,0,9148,-639,65,13884,-4,0,275,-4,140515,0
140550,1208,-3908,334,2210,2258,9028,17326,738,-73,339,1392,35391,-16,34,127,0,0,4534,126,0,9148,-639,65,13894,-4,0,280,-4,140546,0
140560,1372,-3859,302,2109,2039,8627,17609,578,-198,285,968,35402,-41,34,127,0,0,4547,104,0,9148,-639,65,13904,-4,0,284,-4,140546,0
140570,1337,-3535,554,1786,1188,7469,17823,434,-264,313,576,35407,-49,34,127,0,0,4543,-71,0,9148,-639,65,13914,-4,0,287,-4,140546,0
140580,1888,-3256,565,1690,559,6285,17984,324,-228,236,152,35402,-67,34,127,0,0,4531,-203,0,9148,-639,65,13924,-4,0,289,-4,140687,0
140590,2193,-2549,382,1623,-696,4308,18030,-33,-300,-391,-328,35406,-80,34,127,0,0,4495,-351,0,9148,-639,65,13934,-4,0,291,-4,140687,0
140600,2223,-2105,125,1332,-1401,2642,17922,-279,-536,-437,-608,35407,-68,35,127,0,0,4432,-615,0,9148,-639,65,13944,-4,0,292,-4,140687,0
140610,1996,-2102,9,629,-2084,292,17766,-374,-373,-560,-904,35399,-78,34,127,0,0,4385,-554,0,9148,-639,65,13954,-4,0,292,-4,140703,0
140620,1752,-2415,-113,82,-2202,-1152,17573,-458,-157,-548,-984,35389,-69,34,127,0,0,4351,-324,0,9148,-639,65,13964,-4,0,291,-4,140703,0
140630,1498,-2981,-238,-311,-1908,-2936,17370,-427,-90,-402,-736,35385,-70,35,127,0,0,4333,-115,0,9148,-639,65,13974,-4,0,289,-5,140703,0
140640,1211,-4082,-560,-568,-1362,-3780,17184,-410,15,-281,-400,35384,-80,34,127,0,0,4351,164,0,1654,639,66,0,1,1,289,-5,140703,0
140650,-422,-7159,1241,-1086,1317,-1717,17144,279,261,2178,2680,35380,-74,34,127,0,0,4584,2664,0,1654,639,66,10,1,1,289,-5,140703,0
140660,198,-2054,1761,881,1615,-2765,17708,1541,1493,2011,4320,35372,-51,35,127,0,0,4693,862,0,1654,639,66,20,1,1,289,-5,140703,0
140670,1071,230,836,391,-1515,-2583,18507,1767,1650,767,4392,35362,26,34,127,0,0,4750,560,0,1654,639,66,30,1,1,289,-5,140703,0
140680,20,-2106,992,455,-1521,-1121,19321,1805,434,845,4848,35351,48,35,127,0,0,4882,1444,0,1654,639,66,40,1,1,289,-5,140718,0
140690,-905,-2271,681,509,-1711,-133,20245,2165,225,1502,6088,35342,71,34,127,0,0,5080,2032,0,1654,639,66,50,1,1,289,-5,140718,0
140700,-1517,-1589,46,460,-1854,-591,21372,2610,615,1598,7280,35333,88,34,127,0,0,5285,2010,0,1654,639,66,60,1,1,289,-5,140718,0
140710,-1330,-1285,-1795,-292,-255,-1760,22667,2938,719,1223,7616,35320,129,34,127,0,0,5443,1527,0,1654,639,66,70,1,1,289,-5,140718,0
140720,-1433,-2015,-1140,-221,604,-2351,24060,3108,519,771,7368,35312,173,34,127,0,0,5551,1131,0,1654,639,66,80,1,1,289,-5,140718,0
140730,-695,-2791,211,375,656,-2890,25426,2899,147,149,5816,35323,153,35,127,0,0,5642,878,0,1654,639,66,90,1,1,289,-5,140718,0
140740,-158,-2494,753,459,298,-2989,26594,2420,-443,-180,4304,35363,72,35,127,0,0,5706,686,0,1654,639,66,100,1,1,289,-5,140718,0
140750,350,-2794,483,111,-134,-3483,27540,1931,-804,-285,2752,35419,-11,35,127,0,0,5724,159,0,1654,639,66,110,1,1,289,-5,140765,0
140760,521,-2003,293,-187,-542,-3415,28222,1305,-920,-398,1232,35452,-86,34,127,0,0,5712,-93,0,1654,639,66,120,1,1,289,-5,140765,0
140770,-49,-2146,-71,-330,-643,-3488,28622,689,-1056,-433,-40,35448,-103,34,127,0,0,5662,-406,0,1654,639,66,130,1,1,289,-5,140765,0
140780,889,-2964,-121,-247,-146,-3816,28624,-241,-1307,-1051,-688,35418,-109,34,127,0,0,5592,-873,0,1654,639,66,140,1,1,289,-5,140765,0
140790,-503,-1524,358,129,306,-3932,28422,-537,-1187,-835,-1720,35402,-93,34,127,0,0,5470,-1175,560,1654,639,66,150,1,1,289,-5,140765,0
140800,619,-2012,757,68,237,-3698,28179,-431,-458,234,80,35410,-74,34,127,0,0,5360,-1093,760,1654,639,66,160,1,1,289,-5,140781,0
140810,1233,-2295,796,-183,-510,-2204,28035,-306,150,545,-48,35428,-59,34,127,0,0,5329,-230,960,1654,639,66,170,1,1,289,-5,140796,0
140820,618,-2514,520,-178,-642,-1891,27797,-642,22,481,-496,35419,-71,34,127,0,0,5294,-433,1160,1654,639,66,180,1,1,289,-5,140812,0
140830,-445,-2002,-204,36,-24,-2218,27369,-1036,-564,465,-1016,35416,-87,35,127,0,0,5227,-708,1360,1654,639,66,190,1,1,289,-5,140812,0
140840,-676,-1929,-76,250,473,-2395,26886,-1036,-477,631,-576,35408,-97,34,127,0,0,5138,-895,1500,1654,639,66,200,1,1,289,-5,140812,0
140850,98,-1741,328,182,125,-1960,26501,-748,86,941,8,35410,-103,35,127,0,0,5073,-675,1500,1654,639,66,210,1,1,289,-5,140843,0
140860,52,-1856,568,96,-322,-1378,26299,-335,544,1216,88,35412,-124,34,127,0,0,5042,-296,1500,1654,639,66,220,1,1,289,-5,140843,0
140870,-1,-2022,239,139,-590,-1129,26188,-240,550,905,48,35412,-90,34,127,0,0,5027,-126,1500,1654,639,66,230,1,1,289,-5,140843,0
140880,-301,-2056,78,216,-169,-1333,26023,-430,65,807,-88,35415,-100,35,127,0,0,4996,-335,1500,1654,639,66,240,1,1,289,-5,140874,0
140890,-101,-2125,467,273,203,-1709,25723,-758,-370,620,-456,35421,-88,34,127,0,0,4952,-472,1500,1654,639,66,250,1,1,289,-5,140874,0
140900,-321,-2067,782,228,343,-1815,25316,-914,-475,667,-448,35417,-85,35,127,0,0,4885,-582,1500,1654,639,66,260,1,1,289,-5,140874,0
140910,-564,-1883,964,75,134,-1710,24952,-710,-132,893,-16,35418,-92,34,127,0,0,4814,-620,1500,1654,639,66,270,1,1,289,-5,140921,0
140920,-232,-1815,1051,-159,-137,-1401,24773,-260,455,1231,96,35416,-101,34,127,0,0,4788,-274,1500,1654,639,66,280,1,1,289,-5,140921,0
140930,97,-1914,934,-358,-679,-1238,24664,-266,518,896,16,35420,-99,35,127,0,0,4768,-186,1500,1654,639,66,290,1,1,289,-5,140921,0
140940,-320,-2005,594,-446,-399,-1457,24449,-590,-83,755,-352,35415,-92,34,127,0,0,4734,-395,1500,1654,639,66,300,1,1,289,-5,140921,0
140950,-573,-1927,394,-405,208,-2201,24059,-957,-552,602,-744,35405,-96,34,127,0,0,4677,-576,1500,1654,639,66,310,1,1,289,-5,140921,0
140960,-358,-1922,578,-443,392,-2494,23577,-1088,-515,742,-872,35413,-113,34,127,0,0,4590,-856,1500,1654,639,66,320,1,1,289,-5,140953,0
140970,-210,-1957,812,-690,165,-2430,23109,-988,-146,814,-480,35435,-128,35,127,0,0,4501,-884,1500,1654,639,66,330,1,1,289,-5,140968,0
140980,-247,-2010,678,-732,-95,-2277,22744,-716,227,1006,-80,35439,-133,34,127,0,0,4426,-719,1500,1654,639,66,340,1,1,289,-5,140968,0
140990,34,-2015,268,-771,-373,-2034,22507,-461,452,1151,-24,35431,-139,34,127,0,0,4383,-477,1500,1654,639,66,350,1,1,289,-5,140968,0
141000,182,-2094,98,-725,-347,-2125,22254,-636,225,805,-328,35423,-127,35,127,0,0,4336,-477,1500,1654,639,66,360,1,1,289,-5,140984,0
141010,-30,-1989,3,-638,30,-2602,21846,-994,-337,719,-976,35436,-121,35,127,0,0,4256,-758,1500,1654,639,66,370,1,1,289,-5,141015,0
141020,-91,-1965,126,-612,229,-2840,21338,-1143,-501,779,-1152,35429,-97,35,127,0,0,4160,-966,1500,1654,639,66,380,1,1,289,-5,141015,0
141030,49,-1962,410,-620,162,-2787,20828,-1093,-194,793,-888,35421,-95,34,127,0,0,4061,-988,1500,1654,639,66,390,1,1,289,-5,141015,0
141040,38,-1953,473,-612,-34,-2647,20385,-913,125,852,-352,35409,-102,34,127,0,0,3977,-856,1500,1654,639,66,400,1,1,289,-5,141015,0
141050,113,-1967,378,-601,-290,-2427,20044,-677,331,1053,-120,35415,-116,35,127,0,0,3916,-626,1500,1654,639,66,410,1,1,289,-5,141062,0
141060,313,-1968,368,-590,-323,-2356,19772,-591,338,1028,-120,35426,-110,34,127,0,0,3864,-565,1610,1654,639,66,420,1,1,289,-5,141062,0
141070,442,-1924,294,-583,-217,-2505,19445,-789,34,890,-296,35427,-127,34,127,0,0,3806,-571,1840,1654,639,66,430,1,1,289,-5,141062,0
141080,293,-1902,260,-590,-66,-2643,19068,-958,-303,979,-464,35425,-122,34,127,0,0,3725,-796,2090,1654,639,66,440,1,1,289,-5,141062,0
141090,245,-1943,339,-580,-91,-2625,18636,-916,-199,1245,-264,35414,-145,34,127,0,0,3644,-818,2330,1654,639,66,450,1,1,289,-5,141078,0
141100,356,-1998,392,-565,-247,-2415,18290,-670,175,1610,-72,35413,-140,34,127,0,0,3581,-593,2430,1654,639,66,460,1,1,289,-5,141078,0
141110,413,-2017,359,-527,-590,-2033,18076,-400,445,1733,40,35433,-135,34,127,0,0,3537,-401,2520,1654,639,66,470,1,1,289,-5,141093,0
141120,381,-2019,206,-473,-630,-2052,17886,-443,276,1523,0,35427,-133,34,127,0,0,3496,-433,2610,1654,639,66,480,1,1,289,-5,141109,0
141130,278,-1854,85,-409,-509,-2370,17618,-664,-151,1361,-120,35420,-133,34,127,0,0,3450,-516,2710,1654,639,66,490,1,1,289,-5,141109,0
141140,324,-1678,192,-346,-638,-2642,17249,-858,-366,1422,-256,35410,-124,34,127,0,0,3375,-741,2800,1654,639,66,500,1,1,289,-5,141140,0
141150,291,-1951,501,-395,-1349,-2603,16863,-814,-200,1658,-104,35431,-136,35,127,0,0,3306,-708,2890,1654,639,66,510,1,1,289,-5,141140,0
141160,-155,-2747,657,-517,-1470,-2382,16611,-417,279,2113,112,35431,-149,34,127,0,0,3258,-411,2980,1654,639,66,520,1,1,289,-5,141140,0
141170,-816,-3068,744,-558,-1079,-2358,16529,-105,613,1802,424,35427,-154,34,127,0,0,3243,-126,3060,1654,639,66,530,1,1,289,-5,141156,0
141180,-646,-2484,333,-559,-904,-2607,16533,25,459,1806,536,35413,-145,34,127,0,0,3247,-16,3170,1654,639,66,540,1,1,289,-5,141187,0
141190,-206,-2033,187,-634,-990,-3017,16532,-25,122,1930,488,35406,-97,35,127,0,0,3240,-49,3290,1654,639,66,550,1,1,289,-5,141203,0
141200,-121,-2112,234,-798,-1138,-3210,16526,-12,-37,1990,480,35403,-82,34,127,0,0,3242,-21,3420,1654,639,66,560,1,1,289,-5,141203,0
141210,-291,-2418,241,-967,-1141,-3584,16508,-52,-22,2088,408,35404,-52,34,127,0,0,3239,-54,3580,1654,639,66,570,1,1,289,-5,141203,0
141220,-316,-2547,252,-1026,-952,-3911,16466,-111,-74,2188,376,35398,-64,35,127,0,0,3231,-71,3740,1654,639,66,580,1,1,289,-5,141234,0
141230,-112,-2664,428,-1088,-846,-4285,16423,-81,-52,2223,504,35392,-53,34,127,0,0,3227,-21,3920,1654,639,66,590,1,1,289,-5,141234,0
141240,78,-2675,510,-1124,-935,-4360,16424,48,86,2238,848,35387,-24,35,127,0,0,3228,93,4120,1654,639,66,600,1,1,289,-5,141234,0
141250,-73,-2798,334,-1298,-773,-4568,16451,66,143,2485,920,35387,-18,34,127,0,0,3229,82,4350,1654,639,66,610,1,1,289,-5,141234,0
141260,-325,-2656,230,-1360,-631,-4750,16530,217,131,2488,1424,35387,2,34,127,0,0,3249,192,4610,1654,639,66,620,1,1,289,-5,141234,0
141270,-59,-2377,323,-1386,-985,-4954,16706,471,288,2650,2136,35384,5,35,127,0,0,3286,417,4910,1654,639,66,630,1,1,289,-5,141249,0
141280,-677,-2054,283,-1399,-944,-5023,17067,971,537,2948,3680,35378,23,34,127,0,0,3350,747,5270,1654,639,66,640,1,1,289,-5,141281,0
141290,-829,-2830,175,-1240,-1391,-4771,17679,1481,848,3299,4936,35366,79,34,127,0,0,3468,1274,5760,1654,639,66,650,1,1,289,-5,141281,0
141300,-772,-3270,237,-997,-1792,-4808,18473,1845,825,3523,5784,35335,171,35,127,0,0,3622,1614,6460,1654,639,66,660,1,1,289,-5,141281,0
141310,-1171,-4030,-93,-659,-1756,-5558,19415,2157,628,3950,6544,35291,316,34,127,0,0,3792,1834,6980,1654,639,66,670,1,1,289,-5,141296,0
141320,-1215,-4045,-314,-520,-1669,-6014,20430,2232,441,4273,6600,35237,464,35,127,0,0,3980,1834,7440,1654,639,66,680,1,1,289,-5,141343,0
141330,-1241,-2694,-361,-495,-1485,-6590,21400,2094,46,4362,6624,35210,568,34,127,0,0,4161,1796,7940,1654,639,66,690,1,1,289,-5,141359,0
141340,-1335,-2012,-140,-356,-1346,-7111,22351,2113,-131,4640,6784,35190,644,34,127,0,0,4349,1834,8410,1654,639,66,700,1,1,289,-5,141359,0
141350,-328,-2760,-704,-780,-1368,-7875,23373,2323,94,4927,7416,35186,679,34,127,0,0,4552,2015,8320,1654,639,66,710,1,1,289,-5,141374,0
141360,868,-3580,-148,-978,-1843,-7825,24495,2492,343,4800,7400,35167,738,35,127,0,0,4740,1966,7500,1654,639,66,720,1,1,289,-5,141406,0
141370,1448,-4450,956,-197,-2991,-7502,25619,2444,194,4205,6928,35143,795,34,127,0,0,4926,1840,6970,1654,639,66,730,1,1,289,-5,141406,0
141380,973,-4440,1122,17,-3941,-7236,26721,2448,-52,3869,6968,35126,791,34,127,0,0,5119,1939,6540,1654,639,66,740,1,1,289,-5,141406,0
141390,-320,-3909,1358,200,-4975,-6548,27894,2668,95,3503,7456,35126,728,35,127,0,0,5320,2065,5520,1654,639,66,750,1,1,289,-5,141406,0
141400,-462,-3123,1666,241,-5945,-5688,29199,2943,399,2830,8232,35155,653,34,127,0,0,5551,2466,3720,1654,639,66,760,1,1,289,-5,141406,0
141410,-636,-2644,1346,103,-6893,-3826,30606,3149,452,1548,8144,35194,576,34,127,0,0,5816,2631,970,1654,639,66,770,1,1,289,-5,141406,0
141420,-97,-2724,1567,134,-7523,-2330,32067,3179,340,-1802,-792,35235,448,34,127,0,0,6125,3186,0,1654,639,66,780,1,1,289,-5,141406,0
141430,2283,-3400,437,-472,-5134,-1463,31649,-2365,-3327,-7318,-7592,35280,277,34,127,0,0,6322,1708,0,1654,639,66,790,1,1,289,-5,141406,0
141440,708,-1497,353,-132,-2894,-1947,30318,-2867,-5668,-212,-5704,35243,407,34,127,0,0,6238,-1082,0,1654,639,66,800,0,1,289,-5,141452,0
141450,560,-253,-360,77,-1015,-1587,29145,-2480,-1219,85,-5640,35287,296,34,127,0,0,5987,-2592,0,1654,639,66,810,0,1,289,-5,141468,0
141460,526,-397,-256,117,-170,-1025,28021,-2553,440,-915,-6744,35298,264,34,127,0,0,5665,-3257,0,1654,639,66,820,0,1,289,-5,141468,0
141470,171,-1006,154,243,496,243,26709,-3026,-286,-1346,-7760,35367,20,35,127,0,0,5336,-3290,0,1654,639,66,830,0,1,289,-5,141468,0
141480,23,-1178,298,293,591,1207,25246,-3276,-678,-783,-7656,35344,74,34,127,0,0,5085,-2493,0,1654,639,66,840,0,1,289,-5,141468,0
141490,-70,-1043,253,239,646,2615,23787,-3168,-290,-298,-6792,35320,131,35,127,0,0,4910,-1680,0,1654,639,66,850,0,1,289,-5,141468,0
141500,148,-858,208,245,739,3340,22468,-2755,277,30,-5440,35328,84,34,127,0,0,4788,-1142,0,1654,639,66,860,0,1,289,-5,141484,0
141510,289,-816,78,297,994,4296,21365,-2286,693,243,-4088,35369,-5,34,127,0,0,4712,-796,0,1654,639,66,870,0,1,289,-5,141484,0
141520,449,-870,-4,371,1338,4814,20460,-1854,792,324,-2880,35406,-91,35,127,0,0,4649,-664,0,1654,639,66,880,0,1,289,-5,141546,0
141530,578,-856,10,449,2081,5486,19747,-1442,747,248,-2104,35424,-114,34,127,0,0,4575,-780,0,1654,639,66,890,0,1,289,-5,141546,0
141540,580,-796,-34,517,2571,5944,19204,-1096,694,77,-1832,35413,-109,34,127,0,0,4476,-999,0,1654,639,66,900,0,1,289,-5,141546,0
141550,525,-692,-130,602,3125,6723,18775,-899,548,-255,-2048,35401,-82,34,127,0,0,4371,-1082,0,1654,639,66,910,0,1,289,-5,141546,0
141560,480,-663,-137,601,3327,7312,18368,-911,253,-532,-2184,35386,-79,34,127,0,0,4270,-999,0,1654,639,66,920,0,1,289,-5,141546,0
141570,375,-740,-41,595,3442,8194,17940,-941,-10,-442,-2136,35381,-64,34,127,0,0,4197,-725,0,1654,639,66,930,0,1,289,-5,141546,0
141580,367,-942,76,640,3456,8740,17523,-898,-16,-330,-1744,35373,-55,35,127,0,0,4155,-417,0,1654,639,66,940,0,1,289,-5,141562,0
141590,372,-1201,105,772,3506,9407,17158,-760,116,-169,-1264,35375,-46,34,127,0,0,4129,-269,0,1654,639,66,950,0,1,289,-5,141593,0
141600,404,-1288,170,841,3562,9796,16871,-569,251,-128,-688,35388,-67,34,127,0,0,4122,-76,0,1654,639,66,960,0,1,289,-5,141593,0
141610,511,-1282,97,976,3650,10297,16671,-383,318,-100,-200,35393,-71,35,127,0,0,4124,5,0,1654,639,66,970,0,1,289,-5,141593,0
141620,505,-1309,140,1132,3687,10571,16594,-23,392,320,112,35393,-73,34,127,0,0,4123,-5,0,1654,639,66,980,0,1,289,-5,141593,0
141630,537,-1366,119,1330,3642,11089,16658,132,536,204,144,35386,-83,34,127,0,0,4124,38,0,1654,639,66,990,0,1,289,-5,141624,0
141640,542,-1458,133,1439,3524,11470,16716,118,242,338,264,35396,-124,35,127,0,0,4147,230,0,1654,639,66,1000,0,1,289,-5,141640,0
141650,564,-1622,209,1678,3325,11925,16796,198,7,540,448,35404,-138,34,127,0,0,4172,318,0,1654,639,66,1010,0,1,289,-5,141640,0
141660,640,-1766,226,1867,3231,12199,16911,285,114,650,672,35398,-101,35,127,0,0,4202,296,0,1654,639,66,1020,0,1,289,-5,141640,0
141670,601,-1973,269,2091,3087,12460,17074,378,153,577,856,35390,-84,34,127,0,0,4246,373,0,1654,639,66,1030,0,1,289,-5,141671,0
141680,711,-2213,307,2198,2983,12483,17258,423,132,605,1056,35402,-48,34,127,0,0,4280,384,0,1654,639,66,1040,0,1,289,-5,141671,0
141690,898,-2669,320,2385,2868,12371,17468,481,91,607,1160,35408,-71,35,127,0,0,4323,335,0,1654,639,66,1050,0,1,289,-5,141671,0
141700,1037,-2935,193,2436,2789,12240,17697,502,87,553,1152,35406,-62,34,127,0,0,4359,340,0,1654,639,66,1060,0,1,289,-5,141687,0
141710,1323,-3406,139,2426,2596,11910,17932,511,48,542,1192,35385,-60,35,127,0,0,4396,351,0,1654,639,66,1070,0,1,289,-5,141702,0
141720,1480,-3727,221,2321,2462,11557,18175,531,27,500,1144,35389,-59,34,127,0,0,4420,269,0,1654,639,66,1080,0,1,289,-5,141718,0
141730,1571,-4290,490,1888,2214,10801,18403,492,-13,416,960,35391,-63,34,127,0,0,4426,60,0,1654,639,66,1090,0,1,289,-5,141734,0
141740,1672,-4892,564,1701,2214,10299,18608,440,-70,369,696,35398,-75,35,127,0,0,4434,-32,0,1654,639,66,1100,0,1,289,-5,141749,0
141750,1975,-5174,886,1603,1602,9325,18777,354,-118,371,536,35395,-59,34,127,0,0,4437,27,0,1654,639,66,1110,0,1,289,-5,141749,0
141760,1970,-4694,981,1641,954,8071,18924,309,-112,297,320,35396,-47,34,127,0,0,4438,-49,0,1654,639,66,1120,0,1,289,-5,141765,0
141770,2931,-3481,825,1772,-73,5422,19036,218,-98,210,120,35403,-79,34,127,0,0,4421,-186,0,1654,639,66,1130,0,1,289,-5,141765,0
141780,3061,-2631,524,1634,-860,3413,19051,-83,-237,-341,-352,35401,-105,34,127,0,0,4370,-549,0,1654,639,66,1140,0,1,289,-5,141765,0
141790,3022,-1991,40,894,-1615,182,18936,-293,-453,-563,-712,35393,-101,34,127,0,0,4303,-659,0,1654,639,66,1150,0,1,289,-5,141765,0
141800,2629,-2153,-288,403,-1845,-1768,18771,-399,-336,-659,-1024,35389,-101,34,127,0,0,4235,-582,0,1654,639,66,1160,0,1,289,-5,141796,0
141810,2145,-2812,-361,-142,-1695,-3990,18564,-472,-181,-520,-896,35401,-91,35,127,0,0,4214,-170,0,1654,639,66,1170,0,1,289,-5,141812,0
141820,-153,-6735,-1375,-831,-1261,-4493,18362,-442,-72,-258,-248,35410,-84,34,127,0,0,4286,895,0,1654,639,66,1180,0,1,289,-5,141812,0
141830,-2225,-7797,2338,-229,2221,-2623,18418,635,465,2528,1456,35403,-60,35,127,0,0,4654,3609,0,8167,3448,67,6,1,1,420,-5,141812,0
141840,128,-502,2671,2077,2066,-3887,18840,1102,1310,1429,3408,35388,-34,34,127,0,0,4777,1093,0,8167,3448,67,16,1,1,420,-5,141812,0
141850,478,-1171,1137,654,-3163,-2321,19481,1495,1116,1200,4216,35383,8,34,127,0,0,4924,1593,0,8167,3448,67,26,1,1,420,-5,141843,0
141860,730,-2412,1050,713,-1641,-838,20306,2016,763,1880,6008,35384,32,35,127,0,0,5184,2658,0,8167,3448,67,36,1,1,420,-5,141843,0
141870,-1312,-1465,-1210,-475,-1938,-1869,21446,2708,970,1888,7584,35363,99,34,127,0,0,5428,2318,0,8167,3448,67,46,1,1,420,-5,141874,0
141880,-2488,-3037,-2153,-252,-474,-3072,22806,3103,1038,1293,8072,35330,184,35,127,0,0,5607,1631,0,8167,3448,67,56,1,1,420,-5,141874,0
141890,-1091,-2194,-991,602,533,-4176,24284,3264,652,559,7400,35307,219,34,127,0,0,5703,873,0,8167,3448,67,66,1,1,420,-5,141874,0
141900,173,-2349,614,630,365,-4159,25684,2980,77,136,6464,35319,151,34,127,0,0,5783,763,0,8167,3448,67,76,1,1,420,-5,141874,0
141910,637,-3451,1257,480,-103,-4415,26927,2647,-460,16,5120,35352,47,34,127,0,0,5818,318,0,8167,3448,67,86,1,1,420,-5,141937,0
141920,932,-1824,809,-11,-785,-4395,27982,2152,-649,-374,2936,35389,-14,34,127,0,0,5806,-170,0,8167,3448,67,96,1,1,420,-5,141937,0
141930,1046,-3166,181,-881,-814,-4443,28698,1310,-999,-779,992,35405,-54,34,127,0,0,5756,-527,0,8167,3448,67,106,1,1,420,-5,141937,0
141940,144,-2557,179,-427,194,-5072,28993,225,-1432,-1961,-968,35418,-109,35,127,0,0,5618,-1488,0,8167,3448,67,116,1,1,420,-5,141937,0
141950,-112,-1506,256,-254,308,-4613,28753,-628,-1883,-531,-448,35420,-120,34,127,0,0,5481,-1378,640,8167,3448,67,126,1,1,420,-5,141937,0
141960,1422,-1223,545,-360,-134,-3555,28483,-612,-1069,381,-304,35417,-99,35,127,0,0,5415,-543,840,8167,3448,67,136,1,1,420,-5,141952,0
141970,1108,-2246,367,-382,-577,-2964,28077,-1047,-281,471,-1416,35412,-91,35,127,0,0,5338,-752,1040,8167,3448,67,146,1,1,420,-5,141952,0
141980,118,-2063,-97,-236,-381,-3026,27451,-1491,-703,466,-2152,35425,-79,34,127,0,0,5242,-999,1240,8167,3448,67,156,1,1,420,-5,141968,0
141990,-693,-1789,-208,61,767,-3227,26766,-1460,-552,544,-1608,35452,-101,34,127,0,0,5127,-1148,1440,8167,3448,67,166,1,1,420,-5,141984,0
142000,-310,-1762,269,72,475,-2915,26224,-1060,177,789,-440,35447,-100,35,127,0,0,5032,-873,1500,8167,3448,67,176,1,1,420,-5,141984,0
142010,286,-1873,734,-176,-302,-1860,25910,-517,720,1240,152,35428,-95,34,127,0,0,4976,-488,1500,8167,3448,67,186,1,1,420,-5,141984,0
142020,152,-2066,453,-279,-667,-1313,25810,-178,871,1086,80,35416,-116,34,127,0,0,4961,-131,1500,8167,3448,67,196,1,1,420,-5,142015,0
142030,-218,-2143,94,-160,-329,-1525,25653,-443,308,817,-64,35430,-127,34,127,0,0,4936,-285,1500,8167,3448,67,206,1,1,420,-5,142015,0
142040,-222,-2174,205,-40,166,-1975,25311,-902,-479,604,-720,35428,-119,34,127,0,0,4885,-554,1500,8167,3448,67,216,1,1,420,-5,142030,0
142050,-61,-1961,742,-47,525,-2370,24801,-1181,-704,676,-1144,35412,-79,35,127,0,0,4798,-823,1500,8167,3448,67,226,1,1,420,-5,142030,0
142060,-224,-1795,975,-243,426,-2358,24272,-1116,-354,733,-776,35400,-96,34,127,0,0,4706,-889,1500,8167,3448,67,236,1,1,420,-5,142046,0
142070,-366,-1898,1161,-446,-28,-2105,23868,-778,207,921,-176,35421,-123,34,127,0,0,4636,-703,1500,8167,3448,67,246,1,1,420,-5,142046,0
142080,-333,-1803,1017,-596,-359,-1796,23680,-341,639,1334,64,35427,-152,35,127,0,0,4601,-335,1500,8167,3448,67,256,1,1,420,-5,142062,0
142090,26,-1962,637,-774,-621,-1750,23536,-379,511,894,-48,35427,-139,34,127,0,0,4575,-252,1500,8167,3448,67,266,1,1,420,-5,142171,0
142100,-316,-1972,246,-806,-364,-2215,23244,-784,-238,642,-608,35418,-129,34,127,0,0,4523,-565,1500,8167,3448,67,276,1,1,420,-5,142171,0
142110,-540,-1877,35,-850,186,-3086,22745,-1207,-724,726,-1440,35418,-134,35,127,0,0,4423,-1109,1500,8167,3448,67,286,1,1,420,-5,142171,0
142120,-333,-1949,320,-858,296,-3405,22141,-1348,-580,791,-1664,35420,-139,34,127,0,0,4301,-1208,1500,8167,3448,67,296,1,1,420,-5,142171,0
142130,-174,-1895,509,-893,83,-3439,21529,-1328,-171,816,-1480,35409,-130,35,127,0,0,4186,-1170,1500,8167,3448,67,306,1,1,420,-5,142171,0
142140,-219,-1984,392,-884,-117,-3395,20971,-1176,113,880,-920,35407,-141,34,127,0,0,4081,-1038,1780,8167,3448,67,316,1,1,420,-5,142171,0
142150,-115,-1948,159,-800,-278,-3333,20498,-991,275,1078,-392,35405,-139,34,127,0,0,3989,-928,2120,8167,3448,67,326,1,1,420,-5,142171,0
142160,63,-1922,172,-779,-386,-3316,20083,-894,266,1402,-272,35411,-167,35,127,0,0,3916,-796,2500,8167,3448,67,336,1,1,420,-5,142171,0
142170,386,-1869,235,-767,-390,-3391,19665,-947,83,1557,-344,35411,-157,34,127,0,0,3834,-834,2920,8167,3448,67,346,1,1,420,-5,142171,0
142180,413,-1832,188,-784,-376,-3449,19194,-1065,-127,1710,-488,35410,-140,34,127,0,0,3747,-889,3170,8167,3448,67,356,1,1,420,-5,142171,0
142190,354,-1909,169,-732,-368,-3507,18675,-1152,-126,1856,-608,35408,-149,34,127,0,0,3646,-994,3320,8167,3448,67,366,1,1,420,-5,142187,0
142200,390,-1974,232,-643,-364,-3541,18161,-1109,-124,1960,-432,35418,-165,35,127,0,0,3551,-922,3450,8167,3448,67,376,1,1,420,-5,142187,0
142210,412,-1918,266,-577,-611,-3419,17700,-969,-2,2157,-200,35435,-184,34,127,0,0,3466,-862,3570,8167,3448,67,386,1,1,420,-5,142187,0
142220,448,-1720,538,-513,-1341,-3273,17331,-751,273,2330,-64,35450,-162,35,127,0,0,3389,-719,3680,8167,3448,67,396,1,1,420,-5,142202,0
142230,493,-3249,638,-565,-1806,-2789,17055,-548,359,2430,40,35451,-147,34,127,0,0,3340,-505,3800,8167,3448,67,406,1,1,420,-5,142234,0
142240,-828,-2962,909,-470,-1517,-2855,16891,-270,384,2396,280,35452,-130,34,127,0,0,3312,-285,3940,8167,3448,67,416,1,1,420,-5,142234,0
142250,-603,-2707,287,-671,-1100,-3155,16845,-53,442,2301,592,35428,-116,35,127,0,0,3307,-49,4090,8167,3448,67,426,1,1,420,-5,142234,0
142260,-339,-2167,301,-711,-1228,-3342,16850,20,330,2407,768,35416,-83,34,127,0,0,3309,82,4270,8167,3448,67,436,1,1,420,-5,142234,0
142270,-337,-2052,122,-962,-1667,-3680,16860,14,98,2582,784,35389,-64,34,127,0,0,3303,-5,4490,8167,3448,67,446,1,1,420,-5,142265,0
142280,-676,-2294,0,-1185,-1684,-4020,16868,16,3,2727,768,35400,-61,34,127,0,0,3306,16,4760,8167,3448,67,456,1,1,420,-5,142265,0
142290,-698,-3111,157,-1245,-1233,-4605,16875,16,-6,2889,832,35395,-56,34,127,0,0,3306,10,5070,8167,3448,67,466,1,1,420,-5,142265,0
142300,-638,-3054,475,-1172,-1004,-4924,16887,31,5,3050,944,35384,-30,35,127,0,0,3312,32,5440,8167,3448,67,476,1,1,420,-5,142296,0
142310,-806,-2879,505,-1351,-881,-5294,16927,126,60,3176,1408,35368,-25,34,127,0,0,3317,54,5910,8167,3448,67,486,1,1,420,-5,142312,0
142320,-988,-2709,387,-1451,-873,-5567,17054,354,214,3485,2096,35365,13,34,127,0,0,3342,252,6480,8167,3448,67,496,1,1,420,-5,142312,0
142330,-790,-2599,9,-1648,-935,-5899,17310,676,419,3839,3304,35367,54,35,127,0,0,3391,488,7160,8167,3448,67,506,1,1,420,-5,142312,0
142340,-896,-2949,35,-1828,-960,-5911,17785,1204,667,4417,4704,35341,137,34,127,0,0,3484,939,8070,8167,3448,67,516,1,1,420,-5,142343,0
142350,-1091,-3364,328,-1831,-1677,-5965,18519,1781,925,4959,6248,35298,272,35,127,0,0,3623,1439,9340,8167,3448,67,526,1,1,420,-5,142343,0
142360,-2057,-2983,552,-1545,-1266,-6128,19544,2471,1050,5722,8488,35239,453,34,127,0,0,3815,2005,10830,8167,3448,67,536,1,1,420,-5,142343,0
142370,-2497,-3463,84,-938,-1894,-6327,20863,3036,1144,6535,9728,35153,742,34,127,0,0,4053,2422,12050,8167,3448,67,546,1,1,420,-5,142359,0
142380,-2238,-4729,142,-1049,-2052,-6410,22319,3255,824,7227,10472,35044,1110,34,127,0,0,4340,2861,13570,8167,3448,67,556,1,1,420,-5,142359,0
142390,-1864,-3838,-199,-796,-1844,-7888,23917,3660,512,8174,11464,34919,1510,34,127,0,0,4635,3010,15280,8167,3448,67,566,1,1,420,-5,142374,0
142400,-595,-3919,-30,-728,-1782,-8170,25735,4149,713,8912,12952,34781,1906,34,127,0,0,4938,3037,15090,8167,3448,67,576,1,1,420,-5,142390,0
142410,297,-4416,-648,-1566,-1924,-8051,27712,4392,750,8684,12528,34662,2326,34,127,0,0,5270,3262,13800,8167,3448,67,586,1,1,420,-5,142390,0
142420,396,-5718,926,-904,-2241,-8062,29590,3945,132,7762,11400,34562,2635,35,127,0,0,5612,3411,12790,8167,3448,67,596,1,1,420,-5,142405,0
142430,209,-4976,1114,-469,-3610,-8048,31222,3498,-697,6604,10032,34555,2646,34,127,0,0,5912,3015,9900,8167,3448,67,606,1,1,420,-5,142421,0
142440,89,-4047,1741,-673,-4959,-7658,32761,3328,-647,5187,8704,34647,2306,34,127,0,0,6189,2724,6430,8167,3448,67,616,1,1,420,-5,142421,0
142450,25,-3511,1687,-847,-7037,-6122,34136,2878,-474,2922,7000,34803,1764,35,127,0,0,6448,2521,1930,8167,3448,67,626,1,1,420,-5,142437,0
142460,-31,-3341,1559,-1065,-8085,-5200,35277,2358,-776,623,-1576,34987,1147,34,127,0,0,6674,2268,0,8167,3448,67,636,1,1,420,-5,142437,0
142470,1187,-3973,965,-97,-8185,-1039,35063,-1896,-2987,-6859,-6048,35134,658,35,127,0,0,7010,3603,0,8167,3448,67,646,1,1,420,-5,142452,0
142480,2592,-2933,-37,-710,-3694,-2320,33955,-2474,-4693,-615,-4496,35205,464,34,127,0,0,6996,-560,0,8167,3448,67,656,1,1,420,-5,142452,0
142490,594,-543,-744,-114,-276,-2511,32949,-2109,-1323,19,-5128,35271,273,34,127,0,0,6684,-3400,0,8167,3448,67,666,0,1,420,-5,142468,0
142500,490,-344,-614,460,628,-1912,31885,-2603,158,-2049,-7680,35292,233,35,127,0,0,6252,-4361,0,8167,3448,67,676,0,1,420,-5,142515,0
142510,167,-755,53,627,1644,-468,30412,-3475,-951,-2057,-9672,35329,108,34,127,0,0,5810,-4416,0,8167,3448,67,686,0,1,420,-5,142515,0
142520,-922,-860,301,623,1375,1142,28606,-4177,-1435,-1135,-10368,35293,244,35,127,0,0,5447,-3515,0,8167,3448,67,696,0,1,420,-5,142530,0
142530,-402,-948,418,666,1686,2493,26655,-4250,-946,-397,-9680,35257,322,34,127,0,0,5155,-2675,0,8167,3448,67,706,0,1,420,-5,142530,0
142540,41,-790,146,674,1643,3532,24817,-3947,-42,0,-8048,35269,240,34,127,0,0,4977,-1757,0,8167,3448,67,716,0,1,420,-5,142530,0
