state_time,accelx,accely,accelz,gyrox,gyroy,gyroz,mot_ang,mot_vel,mot_acc,mot_cur,mot_volt,batt_volt,batt_curr,temperature,status_mn,status_ex,status_re,ank_ang,ank_vel,ank_torque,peak_ank_torque,step_energy,step_count,step_time,gait_state,movement,speed,incline,sys_time,eventFlags
294055,188,-2028,189,-51,-9,-47,12908,3,0,-106,-32,35397,-80,34,127,0,0,3550,-21,0,1790,353,140,5255,-4,0,-4,0,294045,0
294065,180,-2028,177,-53,-11,-37,12907,13,-10,-87,0,35392,-94,34,127,0,0,3552,10,0,1790,353,140,5265,-4,0,-4,0,294045,0
294075,164,-2026,179,-44,-6,-37,12911,2,1,-57,-40,35387,-105,35,127,0,0,3555,21,0,1790,353,140,5275,-4,0,-4,0,294045,0
294085,180,-2031,183,-41,-10,-21,12911,3,3,-20,-8,35391,-94,34,127,0,0,3552,10,0,1790,353,140,5285,-4,0,-4,0,294061,0
294095,164,-2038,191,-44,-15,-16,12910,-6,-1,-11,8,35389,-59,35,127,0,0,3555,32,0,1790,353,140,5295,-4,0,-4,0,294077,0
294105,178,-2043,196,-40,-14,-14,12912,-8,1,-15,-24,35385,-58,35,127,0,0,3552,-10,0,1790,353,140,5305,-4,0,-4,0,294092,0
294115,154,-2048,192,-41,-9,-19,12912,0,-3,-29,16,35384,-65,35,127,0,0,3552,-10,0,1790,353,140,5315,-4,0,-4,0,294092,0
294125,153,-2058,189,-37,-5,-22,12912,0,-2,17,24,35382,-96,34,127,0,0,3557,21,0,1790,353,140,5325,-4,0,-4,0,294092,0
294135,162,-2055,195,-41,-15,-14,12918,7,10,45,48,35392,-81,35,127,0,0,3557,10,0,1790,353,140,5335,-4,0,-4,0,294123,0
294145,166,-2051,198,-40,-7,-19,12918,-7,-3,86,8,35383,-78,34,127,0,0,3557,10,0,1790,353,140,5345,-4,0,-4,0,294123,0
294155,162,-2046,202,-40,-2,-20,12920,1,-5,126,72,35378,-78,34,127,0,0,3561,21,0,1790,353,140,5355,-4,0,-4,0,294123,0
294165,156,-2049,208,-47,-1,-26,12923,1,3,175,48,35373,-89,35,127,0,0,3561,0,0,1790,353,140,5365,-4,0,-4,0,294202,0
294175,157,-2022,211,-50,-5,-25,12922,-9,-6,145,64,35388,-87,35,127,0,0,3561,10,0,1790,353,140,5375,-4,0,-4,0,294202,0
294185,166,-2023,205,-55,-5,-23,12925,2,-4,173,48,35378,-74,35,127,0,0,3561,0,0,1790,353,140,5385,-4,0,-4,0,294233,0
294195,143,-2027,196,-61,-3,-27,12924,6,-5,180,48,35377,-80,35,127,0,0,3561,0,0,1790,353,140,5395,-4,0,-4,0,294248,0
294205,164,-2017,194,-61,-1,-21,12924,-4,-6,159,80,35374,-85,34,127,0,0,3566,43,0,1790,353,140,5405,-4,0,-4,0,294248,0
294215,168,-2031,190,-56,-7,-12,12927,4,5,207,64,35375,-80,35,127,0,0,3566,43,0,1790,353,140,5415,-4,0,-4,0,294264,0
294225,165,-2033,173,-60,-6,0,12929,9,4,267,96,35372,-92,34,127,0,0,3566,0,0,1790,353,140,5425,-4,0,-4,0,294264,0
294235,173,-2029,183,-52,6,4,12931,12,-4,290,80,35367,-81,34,127,0,0,3566,0,0,1790,353,140,5435,-4,0,-4,0,294264,0
294245,176,-2030,188,-50,-5,12,12932,0,0,312,64,35371,-96,35,127,0,0,3570,54,0,1790,353,140,5445,-4,0,-4,0,294264,0
294255,156,-2030,184,-51,-7,22,12939,13,11,372,112,35382,-89,35,127,0,0,3568,-10,0,1790,353,140,5455,-4,0,-4,0,294264,0
294265,144,-2032,188,-43,-7,32,12939,4,-1,375,136,35381,-82,35,127,0,0,3572,0,0,1790,353,140,5465,-4,0,-4,0,294264,0
294275,159,-2025,194,-51,-12,36,12948,17,7,412,136,35378,-85,34,127,0,0,3577,43,0,1790,353,140,5475,-4,0,-4,0,294264,0
294285,137,-2044,186,-43,-9,23,12966,56,27,386,88,35373,-81,34,127,0,0,3577,10,0,1790,353,140,5485,-4,0,-4,0,294280,0
294295,137,-2053,184,-46,-12,20,12987,33,25,274,152,35386,-93,35,127,0,0,3581,65,0,1790,353,140,5495,-4,0,-4,0,294280,0
294305,123,-2056,199,-40,-8,-1,12992,1,-29,408,136,35386,-84,35,127,0,0,3583,-10,0,1790,353,140,5505,-4,0,-4,0,294280,0
294315,123,-2069,197,-46,-5,-13,12996,3,-39,430,128,35388,-85,35,127,0,0,3583,32,0,1790,353,140,5515,-4,0,-4,0,294326,0
294325,137,-2060,203,-51,-4,-29,12997,9,-8,436,160,35371,-71,35,127,0,0,3583,10,0,1790,353,140,5525,-4,0,-4,0,294326,0
294335,133,-2064,194,-54,-10,-37,12999,3,5,445,144,35377,-64,35,127,0,0,3585,21,0,1790,353,140,5535,-4,0,-4,0,294326,0
294345,130,-2060,186,-53,-15,-54,13003,12,1,469,136,35373,-69,34,127,0,0,3585,-10,0,1790,353,140,5545,-4,0,-4,0,294326,0
294355,125,-2048,195,-48,-8,-60,13004,7,-2,421,144,35376,-76,34,127,0,0,3583,-21,0,1790,353,140,5555,-4,0,-4,0,294326,0
294365,139,-2056,213,-61,-14,-70,13004,-1,-6,408,136,35375,-85,35,127,0,0,3583,-10,0,1790,353,140,5565,-4,0,-4,0,294342,0
294375,142,-2050,211,-69,-16,-82,13002,-4,-5,405,152,35385,-84,35,127,0,0,3583,-10,0,1790,353,140,5575,-4,0,-4,0,294358,0
294385,136,-2048,202,-79,-17,-81,13004,0,2,416,104,35398,-76,34,127,0,0,3585,-10,0,1790,353,140,5585,-4,0,-4,0,294373,0
294395,120,-2032,199,-77,-20,-80,13005,4,2,403,112,35389,-69,34,127,0,0,3583,10,0,1790,353,140,5595,-4,0,-4,0,294373,0
294405,154,-2021,189,-95,-19,-88,13004,0,0,415,112,35376,-67,34,127,0,0,3583,-21,0,1790,353,140,5605,-4,0,-4,0,294373,0
294415,144,-2022,192,-99,-18,-90,13005,7,0,392,112,35373,-94,35,127,0,0,3581,-10,0,1790,353,140,5615,-4,0,-4,0,294420,0
294425,161,-2020,199,-99,-16,-86,13004,-3,0,388,112,35383,-93,34,127,0,0,3581,-21,0,1790,353,140,5625,-4,0,-4,0,294420,0
294435,171,-2021,193,-97,-19,-80,13002,-7,5,371,80,35380,-78,35,127,0,0,3583,10,0,1790,353,140,5635,-4,0,-4,0,294420,0
294445,166,-2027,194,-108,-18,-76,13004,5,-2,379,112,35366,-83,34,127,0,0,3583,-10,0,1790,353,140,5645,-4,0,-4,0,294420,0
294455,167,-2030,196,-104,-11,-74,13003,-5,2,370,128,35356,-76,34,127,0,0,3583,10,0,1790,353,140,5655,-4,0,-4,0,294436,0
294465,182,-2038,178,-102,-10,-62,13004,3,0,377,80,35373,-85,35,127,0,0,3581,-32,0,1790,353,140,5665,-4,0,-4,0,294436,0
294475,169,-2033,177,-104,-18,-59,13004,0,2,358,88,35391,-71,34,127,0,0,3581,-10,0,1790,353,140,5675,-4,0,-4,0,294467,0
294485,165,-2043,179,-94,-15,-49,13002,-5,0,353,80,35386,-60,34,127,0,0,3581,-10,0,1790,353,140,5685,-4,0,-4,0,294467,0
294495,159,-2051,178,-96,-13,-45,13004,-4,6,334,104,35373,-78,35,127,0,0,3579,-10,0,1790,353,140,5695,-4,0,-4,0,294467,0
294505,142,-2051,172,-86,-11,-49,13003,-2,1,309,104,35366,-71,35,127,0,0,3581,10,0,1790,353,140,5705,-4,0,-4,0,294498,0
294515,159,-2059,168,-86,-11,-41,13003,-2,3,314,104,35380,-77,35,127,0,0,3579,0,0,1790,353,140,5715,-4,0,-4,0,294498,0
294525,122,-2048,172,-78,-13,-44,13002,5,3,314,104,35372,-69,35,127,0,0,3581,-21,0,1790,353,140,5725,-4,0,-4,0,294498,0
294535,130,-2051,166,-76,-11,-51,13002,0,0,318,136,35365,-65,35,127,0,0,3581,0,0,1790,353,140,5735,-4,0,-4,0,294514,0
294545,119,-2061,171,-70,-20,-65,13003,-1,-2,334,88,35369,-78,35,127,0,0,3581,0,0,1790,353,140,5745,-4,0,-4,0,294545,0
294555,125,-2063,177,-68,-21,-75,13003,-2,1,320,104,35379,-65,35,127,0,0,3581,32,0,1790,353,140,5755,-4,0,-4,0,294545,0
294565,147,-2052,181,-60,-14,-98,13002,9,1,307,136,35378,-69,34,127,0,0,3579,10,0,1790,353,140,5765,-4,0,-4,0,294545,0
294575,131,-2051,175,-66,-9,-107,13000,-20,-1,264,88,35369,-64,34,127,0,0,3577,-21,0,1790,353,140,5775,-4,0,-4,0,294561,0
294585,134,-2047,182,-65,-8,-123,12997,-6,-15,200,72,35365,-80,35,127,0,0,3574,10,0,1790,353,140,5785,-4,0,-4,0,294561,0
294595,135,-2053,183,-68,-12,-121,12995,-10,1,152,40,35380,-71,34,127,0,0,3572,0,0,1790,353,140,5795,-4,0,-4,0,294639,0
294605,144,-2046,197,-78,-10,-142,12992,-11,-1,87,-8,35383,-47,35,127,0,0,3570,-21,0,1790,353,140,5805,-4,0,-4,0,294639,0
294615,132,-2038,191,-76,-10,-161,12988,0,-5,19,0,35380,-48,34,127,0,0,3568,-43,0,1790,353,140,5815,-4,0,-4,0,294655,0
294625,132,-2036,191,-90,-13,-181,12980,-7,-11,-70,-16,35368,-65,34,127,0,0,3561,-32,0,1790,353,140,5825,-4,0,-4,0,294655,0
294635,150,-2033,196,-92,-14,-178,12978,-14,7,-181,-56,35368,-98,35,127,0,0,3559,-43,0,1790,353,140,5835,-4,0,-4,0,294655,0
294645,130,-2029,210,-108,-13,-199,12967,-23,-6,-226,-56,35372,-89,34,127,0,0,3555,-87,0,1790,353,140,5845,-4,0,-4,0,294670,0
294655,160,-2030,207,-116,-14,-210,12947,-65,-35,-300,-128,35365,-79,34,127,0,0,3550,-43,0,1790,353,140,5855,-4,0,-4,0,294670,0
294665,144,-2033,174,-115,-1,-226,12914,-49,-50,-166,-72,35362,-97,35,127,0,0,3548,-32,0,1790,353,140,5865,-4,0,-4,0,294670,0
294675,199,-2017,167,-116,-18,-195,12916,1,46,-375,-144,35369,-95,35,127,0,0,3541,-65,0,1790,353,140,5875,-4,0,-4,0,294670,0
294685,176,-2028,162,-112,-18,-184,12903,-21,36,-461,-160,35374,-88,35,127,0,0,3537,-21,0,1790,353,140,5885,-4,0,-4,0,294670,0
294695,224,-2025,154,-114,-13,-166,12894,-23,-25,-511,-192,35384,-82,35,127,0,0,3533,-54,0,1790,353,140,5895,-4,0,-4,0,294670,0
294705,223,-2043,163,-101,-8,-135,12869,-64,-22,-425,-160,35396,-80,35,127,0,0,3531,-32,0,1790,353,140,5905,-4,0,-4,0,294670,0
294715,214,-2043,156,-87,-6,-123,12846,-32,-30,-399,-96,35403,-94,35,127,0,0,3526,-32,0,1790,353,140,5915,-4,0,-4,0,294701,0
294725,225,-2047,160,-85,-22,-78,12847,10,55,-489,-152,35403,-80,35,127,0,0,3526,-43,0,1790,353,140,5925,-4,0,-4,0,294701,0
294735,212,-2043,157,-80,-18,-64,12845,0,36,-504,-168,35383,-68,34,127,0,0,3526,0,0,1790,353,140,5935,-4,0,-4,0,294717,0
294745,201,-2052,157,-67,-17,-47,12841,-6,-11,-518,-160,35370,-70,34,127,0,0,3524,10,0,1790,353,140,5945,-4,0,-4,0,294717,0
294755,198,-2049,163,-70,-12,-43,12836,-10,-1,-512,-152,35370,-79,35,127,0,0,3524,0,0,1790,353,140,5955,-4,0,-4,0,294748,0
294765,170,-2054,176,-57,-22,-35,12830,-19,-6,-504,-136,35382,-82,34,127,0,0,3524,0,0,1790,353,140,5965,-4,0,-4,0,294748,0
294775,159,-2050,170,-58,-11,-42,12819,-22,-13,-426,-88,35387,-67,35,127,0,0,3524,0,0,1790,353,140,5975,-4,0,-4,0,294748,0
294785,141,-2041,176,-63,-15,-53,12809,-21,-12,-325,-64,35381,-79,34,127,0,0,3524,-21,0,1790,353,140,5985,-4,0,-4,0,294779,0
294795,158,-2038,169,-57,-16,-57,12800,-16,3,-307,-80,35380,-114,34,127,0,0,3526,21,0,1790,353,140,5995,-4,0,-4,0,294779,0
294805,159,-2044,184,-66,-20,-62,12800,6,23,-284,-80,35382,-130,35,127,0,0,3524,-21,0,1790,353,140,6005,-4,0,-4,0,294779,0
294815,158,-2039,181,-67,-10,-79,12797,-8,10,-314,-72,35382,-130,34,127,0,0,3524,0,0,1790,353,140,6015,-4,0,-4,0,294826,0
294825,160,-2041,167,-71,-13,-86,12798,-2,3,-330,-64,35384,-112,34,127,0,0,3520,-32,0,1790,353,140,6025,-4,0,-4,0,294826,0
294835,178,-2035,169,-71,-20,-90,12794,-15,-1,-369,-96,35382,-112,35,127,0,0,3522,0,0,1790,353,140,6035,-4,0,-4,0,294826,0
294845,165,-2042,167,-66,-11,-90,12794,-3,-2,-397,-136,35386,-114,34,127,0,0,3520,0,0,1790,353,140,6045,-4,0,-4,0,294842,0
294855,162,-2045,169,-69,-12,-94,12789,-6,-4,-404,-88,35377,-124,35,127,0,0,3513,-54,0,1790,353,140,6055,-4,0,-4,0,294842,0
294865,177,-2043,159,-63,-14,-100,12782,-16,-7,-483,-144,35371,-128,34,127,0,0,3513,-43,0,1790,353,140,6065,-4,0,-4,0,294858,0
294875,190,-2044,156,-65,-24,-92,12782,-4,3,-490,-136,35378,-134,34,127,0,0,3515,-10,0,1790,353,140,6075,-4,0,-4,0,294858,0
294885,182,-2040,160,-56,-15,-89,12778,-8,2,-515,-168,35387,-146,35,127,0,0,3513,-10,0,1790,353,140,6085,-4,0,-4,0,294858,0
294895,182,-2040,166,-53,-11,-84,12771,-17,-10,-495,-168,35398,-144,34,127,0,0,3511,-10,0,1790,353,140,6095,-4,0,-4,0,294936,0
294905,191,-2045,168,-59,-14,-75,12761,-19,-12,-451,-184,35393,-129,35,127,0,0,3511,-10,0,1790,353,140,6105,-4,0,-4,0,294936,0
294915,191,-2040,170,-49,-17,-74,12739,-56,-27,-335,-96,35386,-111,35,127,0,0,3509,-21,0,1790,353,140,6115,-4,0,-4,0,294936,0
294925,188,-2039,161,-49,-13,-68,12728,-3,-3,-307,-104,35376,-128,35,127,0,0,3509,-10,0,1790,353,140,6125,-4,0,-4,0,294951,0
294935,207,-2041,173,-50,-18,-59,12729,-1,55,-347,-96,35381,-163,34,127,0,0,3509,-21,0,1790,353,140,6135,-4,0,-4,0,294967,0
294945,181,-2033,167,-49,-13,-51,12728,0,18,-353,-88,35393,-152,35,127,0,0,3509,0,0,1790,353,140,6145,-4,0,-4,0,294983,0
294955,188,-2036,170,-53,-11,-51,12727,-9,-1,-381,-88,35393,-149,35,127,0,0,3509,0,0,1790,353,140,6155,-4,0,-4,0,294983,0
294965,186,-2035,171,-55,-18,-52,12730,6,7,-330,-104,35393,-142,35,127,0,0,3509,-10,0,1790,353,140,6165,-4,0,-4,0,294983,0
294975,166,-2036,177,-48,-13,-52,12727,-6,1,-351,-88,35389,-140,35,127,0,0,3511,10,0,1790,353,140,6175,-4,0,-4,0,294983,0
294985,194,-2038,173,-58,-4,-59,12728,-3,-6,-377,-88,35399,-126,34,127,0,0,3511,65,0,1790,353,140,6185,-4,0,-4,0,295029,0
294995,182,-2041,168,-49,-18,-50,12728,2,7,-353,-160,35392,-101,34,127,0,0,3504,-54,0,1790,353,140,6195,-4,0,-4,0,295029,0
295005,160,-2041,168,-54,-16,-57,12722,1,-8,-429,-120,35386,-114,35,127,0,0,3506,10,0,1790,353,140,6205,-4,0,-4,0,295029,0
295015,176,-2047,170,-56,-10,-61,12726,12,4,-359,-88,35382,-130,35,127,0,0,3506,-21,0,1790,353,140,6215,-4,0,-4,0,295029,0
295025,172,-2045,176,-61,-12,-68,12722,-14,6,-398,-56,35388,-141,35,127,0,0,3504,-21,0,1790,353,140,6225,-4,0,-4,0,295029,0
295035,179,-2038,166,-63,-17,-79,12721,-10,-16,-468,-56,35386,-148,34,127,0,0,3504,-10,0,1790,353,140,6235,-4,0,-4,0,295029,0
295045,183,-2038,179,-65,-8,-80,12720,-7,6,-486,-88,35378,-137,34,127,0,0,3506,43,0,1790,353,140,6245,-4,0,-4,0,295029,0
295055,172,-2042,165,-58,-12,-80,12722,0,-4,-456,-160,35374,-166,35,127,0,0,3502,-21,0,1790,353,140,6255,-4,0,-4,0,295029,0
295065,167,-2047,172,-66,-11,-88,12718,-1,-4,-481,-176,35379,-157,34,127,0,0,3502,-21,0,1790,353,140,6265,-4,0,-4,0,295045,0
295075,178,-2034,169,-54,-3,-85,12717,-2,-3,-513,-168,35389,-153,35,127,0,0,3502,-10,0,1790,353,140,6275,-4,0,-4,0,295061,0
295085,176,-2040,165,-59,-14,-85,12715,-1,1,-535,-120,35398,-146,35,127,0,0,3500,-10,0,1790,353,140,6285,-4,0,-4,0,295061,0
295095,186,-2040,162,-56,-11,-92,12713,-13,0,-579,-144,35391,-147,35,127,0,0,3498,-10,0,1790,353,140,6295,-4,0,-4,0,295076,0
295105,184,-2033,164,-58,-12,-90,12710,-3,3,-578,-168,35389,-160,35,127,0,0,3498,0,0,1790,353,140,6305,-4,0,-4,0,295092,0
295115,188,-2040,170,-59,-13,-89,12702,-18,-12,-568,-184,35390,-158,35,127,0,0,3495,0,0,1790,353,140,6315,-4,0,-4,0,295092,0
295125,196,-2033,172,-55,-16,-81,12691,-43,-13,-560,-152,35383,-149,35,127,0,0,3491,-43,0,1790,353,140,6325,-4,0,-4,0,295092,0
295135,196,-2040,158,-58,-13,-81,12666,-71,-41,-423,-136,35382,-144,35,127,0,0,3493,0,0,1790,353,140,6335,-4,0,-4,0,295123,0
295145,206,-2039,159,-47,-8,-82,12658,-2,3,-420,-104,35378,-119,34,127,0,0,3491,-10,0,1790,353,140,6345,-4,0,-4,0,295139,0
295155,213,-2045,162,-48,-15,-76,12658,-5,56,-475,-96,35389,-104,34,127,0,0,3491,0,0,1790,353,140,6355,-4,0,-4,0,295139,0
295165,210,-2042,158,-48,-12,-67,12657,-8,6,-495,-128,35380,-99,34,127,0,0,3489,-10,0,1790,353,140,6365,-4,0,-4,0,295139,0
295175,199,-2035,159,-49,-13,-65,12654,-21,-11,-542,-144,35387,-131,35,127,0,0,3487,10,0,1790,353,140,6375,-4,0,-4,0,295170,0
295185,205,-2041,165,-43,-7,-56,12653,-4,2,-544,-160,35390,-142,34,127,0,0,3487,-10,0,1790,353,140,6385,-4,0,-4,0,295170,0
295195,213,-2042,161,-40,-11,-45,12650,-3,0,-542,-120,35395,-136,34,127,0,0,3491,21,0,1790,353,140,6395,-4,0,-4,0,295170,0
295205,229,-2042,155,-34,-14,-33,12651,3,5,-524,-88,35387,-125,35,127,0,0,3487,0,0,1790,353,140,6405,-4,0,-4,0,295186,0
295215,244,-2034,156,-32,-2,-33,12652,1,7,-493,-136,35385,-108,35,127,0,0,3489,-21,0,1790,353,140,6415,-4,0,-4,0,295217,0
295225,192,-2034,162,-24,-6,-21,12651,8,-6,-465,-112,35374,-116,35,127,0,0,3489,-43,0,1790,353,140,6425,-4,0,-4,0,295217,0
295235,193,-2042,177,-24,-3,-17,12648,-11,-7,-522,-160,35381,-117,34,127,0,0,3489,0,0,1790,353,140,6435,-4,0,-4,0,295217,0
295245,189,-2036,166,-41,3,-8,12649,3,6,-473,-104,35369,-99,35,127,0,0,3491,10,0,1790,353,140,6445,-4,0,-4,0,295232,0
295255,194,-2030,163,-41,4,-3,12649,-1,10,-473,-56,35369,-100,34,127,0,0,3491,21,0,1790,353,140,6455,-4,0,-4,0,295232,0
295265,198,-2034,160,-31,4,-6,12651,3,-1,-411,-128,35360,-98,34,127,0,0,3489,-54,0,1790,353,140,6465,-4,0,-4,0,295264,0
295275,197,-2038,161,-34,-2,-2,12648,-6,-6,-442,-112,35375,-107,35,127,0,0,3491,-10,0,1790,353,140,6475,-4,0,-4,0,295264,0
295285,202,-2040,174,-35,-4,14,12649,-6,-5,-470,-104,35381,-92,34,127,0,0,3491,10,0,1790,353,140,6485,-4,0,-4,0,295264,0
295295,185,-2041,169,-29,-7,33,12651,0,11,-423,-80,35383,-97,34,127,0,0,3493,21,0,1790,353,140,6495,-4,0,-4,0,295264,0
295305,189,-2046,154,-22,-8,35,12655,5,14,-327,-80,35372,-104,35,127,0,0,3498,10,0,1790,353,140,6505,-4,0,-4,0,295295,0
295315,195,-2053,153,-29,-5,43,12658,11,2,-258,-48,35373,-95,35,127,0,0,3502,43,0,1790,353,140,6515,-4,0,-4,0,295295,0
295325,172,-2048,156,-21,-9,57,12660,9,1,-177,-8,35371,-100,34,127,0,0,3504,54,0,1790,353,140,6525,-4,0,-4,0,295295,0
295335,176,-2055,158,-19,-5,52,12666,10,6,-99,64,35369,-105,34,127,0,0,3506,43,0,1790,353,140,6535,-4,0,-4,0,295311,0
295345,178,-2041,152,-12,-8,47,12672,15,4,-1,24,35367,-107,34,127,0,0,3509,21,0,1790,353,140,6545,-4,0,-4,0,295389,0
295355,166,-2028,149,-5,-8,39,12677,18,-2,106,32,35365,-102,35,127,0,0,3511,-32,0,1790,353,140,6555,-4,0,-4,0,295389,0
295365,167,-2033,155,6,3,33,12681,-3,-2,117,48,35370,-111,35,127,0,0,3515,21,0,1790,353,140,6565,-4,0,-4,0,295389,0
295375,164,-2016,162,12,-6,29,12689,21,-1,173,56,35367,-122,34,127,0,0,3520,54,0,1790,353,140,6575,-4,0,-4,0,295404,0
295385,174,-2013,159,15,-10,34,12712,61,48,131,32,35368,-123,34,127,0,0,3520,32,0,1790,353,140,6585,-4,0,-4,0,295404,0
295395,187,-2016,169,18,-7,35,12732,15,21,114,32,35373,-132,35,127,0,0,3524,32,0,1790,353,140,6595,-4,0,-4,0,295404,0
295405,166,-2030,157,23,-3,37,12728,-15,-64,179,40,35376,-149,34,127,0,0,3524,43,0,1790,353,140,6605,-4,0,-4,0,295404,0
295415,184,-2028,164,21,-7,49,12735,12,-17,245,72,35375,-142,35,127,0,0,3528,21,0,1790,353,140,6615,-4,0,-4,0,295404,0
295425,169,-2053,175,27,-13,47,12738,11,5,346,80,35367,-146,34,127,0,0,3531,10,0,1790,353,140,6625,-4,0,-4,0,295404,0
295435,188,-2059,171,31,-13,55,12745,13,2,383,88,35366,-134,34,127,0,0,3533,10,0,1790,353,140,6635,-4,0,-4,0,295404,0
295445,179,-2073,167,33,-10,50,12749,11,1,419,88,35379,-139,35,127,0,0,3537,32,0,1790,353,140,6645,-4,0,-4,0,295436,0
295455,175,-2062,177,44,-4,58,12763,36,5,455,160,35392,-133,35,127,0,0,3537,10,0,1790,353,140,6655,-4,0,-4,0,295436,0
295465,190,-2069,183,41,-17,74,12796,78,61,301,104,35382,-128,34,127,0,0,3544,32,0,1790,353,140,6665,-4,0,-4,0,295436,0
295475,192,-2055,186,41,-19,71,12812,19,3,370,128,35369,-128,35,127,0,0,3544,21,0,1790,353,140,6675,-4,0,-4,0,295467,0
295485,154,-2042,164,44,-7,65,12815,16,-65,465,168,35374,-112,35,127,0,0,3552,21,0,1790,353,140,6685,-4,0,-4,0,295467,0
295495,157,-2038,177,44,-8,63,12829,42,1,458,160,35378,-94,35,127,0,0,3552,43,0,1790,353,140,6695,-4,0,-4,0,295467,0
295505,161,-2023,183,38,-19,70,12860,71,59,304,112,35380,-92,34,127,0,0,3559,54,0,1790,353,140,6705,-4,0,-4,0,295482,0
295515,161,-2022,185,34,-14,62,12874,19,-4,361,136,35368,-87,34,127,0,0,3561,32,0,1790,353,140,6715,-4,0,-4,0,295498,0
295525,149,-2018,183,35,-4,50,12879,12,-60,459,160,35375,-91,35,127,0,0,3563,54,0,1790,353,140,6725,-4,0,-4,0,295529,0
295535,157,-2023,190,39,-7,44,12900,64,14,404,144,35382,-73,34,127,0,0,3566,21,0,1790,353,140,6735,-4,0,-4,0,295529,0
295545,180,-2021,198,24,-17,58,12933,55,53,248,112,35378,-61,34,127,0,0,3570,54,0,1790,353,140,6745,-4,0,-4,0,295529,0
295555,136,-2039,193,19,-15,40,12931,-4,-45,419,160,35367,-71,34,127,0,0,3568,-10,0,1790,353,140,6755,-4,0,-4,0,295529,0
295565,153,-2036,185,18,-2,30,12933,1,-55,436,176,35357,-91,35,127,0,0,3574,21,0,1790,353,140,6765,-4,0,-4,0,295545,0
295575,143,-2040,189,18,-4,33,12938,6,5,471,152,35369,-100,34,127,0,0,3577,32,0,1790,353,140,6775,-4,0,-4,0,295561,0
295585,142,-2041,204,18,-9,20,12944,23,8,552,152,35381,-82,35,127,0,0,3577,-10,0,1790,353,140,6785,-4,0,-4,0,295561,0
295595,151,-2050,197,9,-9,13,12958,36,20,493,192,35376,-82,34,127,0,0,3579,-10,0,1790,353,140,6795,-4,0,-4,0,295576,0
295605,134,-2048,196,5,-7,0,12984,57,36,387,152,35366,-81,34,127,0,0,3583,21,0,1790,353,140,6805,-4,0,-4,0,295607,0
295615,139,-2046,200,1,-13,-9,13002,23,7,427,104,35371,-89,35,127,0,0,3585,-10,0,1790,353,140,6815,-4,0,-4,0,295607,0
295625,111,-2063,203,-11,-12,-34,12999,-1,-58,457,120,35378,-73,34,127,0,0,3585,10,0,1790,353,140,6825,-4,0,-4,0,295607,0
295635,119,-2057,218,-16,-2,-45,13003,10,-26,452,152,35376,-68,34,127,0,0,3585,10,0,1790,353,140,6835,-4,0,-4,0,295623,0
295645,134,-2046,216,-34,-16,-59,13002,3,5,456,120,35361,-76,35,127,0,0,3583,-21,0,1790,353,140,6845,-4,0,-4,0,295623,0
295655,122,-2042,212,-44,-15,-70,12999,0,-2,439,144,35369,-75,34,127,0,0,3585,21,0,1790,353,140,6855,-4,0,-4,0,295654,0
295665,133,-2038,204,-53,-17,-76,13004,1,5,434,104,35387,-79,35,127,0,0,3581,-54,0,1790,353,140,6865,-4,0,-4,0,295654,0
295675,136,-2034,199,-60,-14,-81,13001,-3,-8,425,144,35385,-90,34,127,0,0,3583,10,0,1790,353,140,6875,-4,0,-4,0,295654,0
295685,139,-2024,197,-59,-20,-92,13004,-3,-2,384,112,35371,-87,34,127,0,0,3581,-10,0,1790,353,140,6885,-4,0,-4,0,295670,0
295695,155,-2033,205,-63,-20,-91,13002,0,1,415,104,35364,-92,35,127,0,0,3581,-21,0,1790,353,140,6895,-4,0,-4,0,295670,0
295705,147,-2035,191,-66,-9,-107,13001,-6,-6,380,88,35368,-78,34,127,0,0,3583,-10,0,1790,353,140,6905,-4,0,-4,0,295686,0
295715,151,-2031,194,-70,-11,-119,13002,6,-3,364,64,35372,-67,35,127,0,0,3579,-32,0,1790,353,140,6915,-4,0,-4,0,295686,0
295725,146,-2033,203,-78,-1,-129,12998,-4,-4,323,72,35372,-58,35,127,0,0,3574,-65,0,1790,353,140,6925,-4,0,-4,0,295701,0
295735,175,-2033,201,-77,-2,-121,12995,-8,-3,204,40,35370,-71,35,127,0,0,3574,-21,0,1790,353,140,6935,-4,0,-4,0,295717,0
295745,175,-2042,191,-81,-7,-118,12991,-1,-1,174,48,35372,-76,35,127,0,0,3572,0,0,1790,353,140,6945,-4,0,-4,0,295732,0
295755,172,-2037,193,-84,-8,-118,12990,-1,7,92,8,35379,-73,35,127,0,0,3570,-21,0,1790,353,140,6955,-4,0,-4,0,295732,0
295765,162,-2038,190,-86,-5,-121,12982,-7,-8,35,0,35372,-58,35,127,0,0,3568,-10,0,1790,353,140,6965,-4,0,-4,0,295748,0
295775,172,-2036,192,-83,-2,-119,12980,0,-1,-36,-16,35368,-65,35,127,0,0,3563,-32,0,1790,353,140,6975,-4,0,-4,0,295779,0
295785,163,-2047,182,-90,-13,-113,12978,-5,10,-102,-32,35373,-73,34,127,0,0,3561,-43,0,1790,353,140,6985,-4,0,-4,0,295779,0
295795,147,-2039,184,-91,-11,-115,12967,-30,-22,-175,-64,35382,-71,34,127,0,0,3559,-21,0,1790,353,140,6995,-4,0,-4,0,295795,0
295805,149,-2045,187,-90,-7,-128,12954,-25,-14,-157,-40,35381,-66,34,127,0,0,3559,0,0,1790,353,140,7005,-4,0,-4,0,295795,0
295815,147,-2050,190,-97,-8,-126,12938,-41,-11,-102,-72,35371,-81,35,127,0,0,3557,0,0,1790,353,140,7015,-4,0,-4,0,295795,0
295825,152,-2046,178,-93,-3,-137,12925,-21,-10,-120,-40,35376,-92,35,127,0,0,3552,0,0,1790,353,140,7025,-4,0,-4,0,295795,0
295835,153,-2051,182,-95,0,-138,12924,10,30,-184,-72,35388,-81,35,127,0,0,3548,-65,0,1790,353,140,7035,-4,0,-4,0,295826,0
295845,161,-2042,178,-88,-1,-149,12916,-16,14,-287,-72,35387,-83,34,127,0,0,3546,-32,0,1790,353,140,7045,-4,0,-4,0,295826,0
295855,182,-2046,175,-92,-8,-133,12912,-9,-8,-382,-104,35376,-77,34,127,0,0,3544,0,0,1790,353,140,7055,-4,0,-4,0,295826,0
295865,178,-2038,191,-84,-10,-130,12907,-7,3,-424,-80,35375,-98,35,127,0,0,3539,-32,0,1790,353,140,7065,-4,0,-4,0,295857,0
295875,190,-2033,185,-83,-7,-124,12899,-21,-15,-458,-128,35389,-92,35,127,0,0,3537,-43,0,1790,353,140,7075,-4,0,-4,0,295857,0
295885,187,-2033,182,-82,-6,-115,12889,-25,-6,-474,-88,35392,-69,35,127,0,0,3537,0,0,1790,353,140,7085,-4,0,-4,0,295873,0
295895,177,-2026,167,-87,-9,-117,12864,-58,-32,-357,-72,35381,-69,34,127,0,0,3533,-32,0,1790,353,140,7095,-4,0,-4,0,295873,0
295905,173,-2033,175,-72,0,-107,12850,-16,-11,-379,-112,35373,-75,34,127,0,0,3531,-21,0,1790,353,140,7105,-4,0,-4,0,295889,0
295915,180,-2032,180,-78,-6,-102,12850,1,46,-391,-80,35388,-90,35,127,0,0,3531,0,0,1790,353,140,7115,-4,0,-4,0,295889,0
295925,179,-2038,164,-75,-12,-97,12849,-18,21,-429,-96,35398,-79,35,127,0,0,3531,-10,0,1790,353,140,7125,-4,0,-4,0,295904,0
295935,167,-2038,157,-70,5,-93,12845,-9,-7,-491,-168,35389,-85,34,127,0,0,3524,-32,0,1790,353,140,7135,-4,0,-4,0,295920,0
295945,185,-2039,162,-58,-1,-89,12835,-25,-5,-477,-152,35367,-72,34,127,0,0,3526,10,0,1790,353,140,7145,-4,0,-4,0,295920,0
295955,189,-2044,179,-51,-3,-71,12827,-24,-13,-492,-120,35367,-71,35,127,0,0,3522,10,0,1790,353,140,7155,-4,0,-4,0,295935,0
295965,186,-2044,183,-62,-9,-69,12803,-65,-23,-362,-80,35378,-69,35,127,0,0,3524,10,0,1790,353,140,7165,-4,0,-4,0,295951,0
295975,171,-2046,172,-57,-3,-60,12791,-3,-12,-293,-80,35397,-91,35,127,0,0,3522,-10,0,1790,353,140,7175,-4,0,-4,0,295951,0
295985,179,-2051,177,-55,-8,-45,12791,-2,49,-333,-88,35395,-94,35,127,0,0,3522,-21,0,1790,353,140,7185,-4,0,-4,0,295967,0
295995,172,-2038,181,-51,-8,-51,12792,0,29,-301,-96,35395,-121,35,127,0,0,3520,-32,0,1790,353,140,7195,-4,0,-4,0,295967,0
296005,155,-2044,185,-59,-7,-63,12790,-5,-2,-358,-72,35392,-146,35,127,0,0,3520,-10,0,1790,353,140,7205,-4,0,-4,0,296014,0
296015,182,-2047,193,-60,-8,-63,12790,0,2,-369,-72,35396,-137,35,127,0,0,3520,-21,0,1790,353,140,7215,-4,0,-4,0,296014,0
296025,158,-2042,189,-60,-12,-68,12792,4,-1,-364,-152,35389,-118,35,127,0,0,3522,-10,0,1790,353,140,7225,-4,0,-4,0,296014,0
296035,150,-2033,192,-64,-8,-64,12788,-8,-4,-370,-64,35384,-119,35,127,0,0,3520,21,0,1790,353,140,7235,-4,0,-4,0,296014,0
296045,162,-2043,182,-64,-6,-79,12789,2,1,-362,-72,35385,-125,34,127,0,0,3517,-43,0,1790,353,140,7245,-4,0,-4,0,296014,0
296055,180,-2036,180,-68,-15,-74,12786,-11,1,-415,-88,35386,-112,35,127,0,0,3517,-10,0,1790,353,140,7255,-4,0,-4,0,296154,0
296065,179,-2034,173,-70,-14,-75,12786,3,-6,-431,-120,35391,-121,34,127,0,0,3513,-43,0,1790,353,140,7265,-4,0,-4,0,296154,0
296075,184,-2039,168,-74,-9,-75,12778,-23,-10,-493,-96,35384,-126,34,127,0,0,3515,10,0,1790,353,140,7275,-4,0,-4,0,296154,0
296085,170,-2038,179,-65,-7,-77,12777,0,-7,-465,-112,35385,-149,35,127,0,0,3513,-43,0,1790,353,140,7285,-4,0,-4,0,296154,0
296095,185,-2039,170,-67,-9,-78,12773,-14,8,-495,-104,35383,-125,34,127,0,0,3509,-43,0,1790,353,140,7295,-4,0,-4,0,296154,0
296105,184,-2043,168,-65,-8,-78,12764,-27,-13,-505,-160,35374,-113,34,127,0,0,3515,43,0,1790,353,140,7305,-4,0,-4,0,296170,0
296115,172,-2041,173,-60,-10,-73,12751,-35,-25,-377,-120,35372,-141,35,127,0,0,3509,-43,0,1790,353,140,7315,-4,0,-4,0,296170,0
296125,165,-2044,164,-59,-5,-74,12731,-40,-21,-280,-72,35376,-146,35,127,0,0,3511,-21,0,1790,353,140,7325,-4,0,-4,0,296170,0
296135,175,-2045,174,-57,-11,-63,12730,7,27,-309,-104,35386,-146,35,127,0,0,3509,-10,0,1790,353,140,7335,-4,0,-4,0,296170,0
296145,182,-2036,177,-58,-13,-66,12727,-3,33,-354,-56,35382,-137,34,127,0,0,3509,10,0,1790,353,140,7345,-4,0,-4,0,296170,0
296155,202,-2037,175,-62,-12,-62,12727,-12,3,-345,-64,35374,-130,34,127,0,0,3509,-21,0,1790,353,140,7355,-4,0,-4,0,296170,0
296165,171,-2044,174,-53,-4,-60,12729,11,3,-333,-96,35373,-145,35,127,0,0,3509,-21,0,1790,353,140,7365,-4,0,-4,0,296170,0
296175,173,-2032,179,-56,-5,-67,12727,-5,-6,-373,-80,35379,-149,35,127,0,0,3509,10,0,1790,353,140,7375,-4,0,-4,0,296170,0
296185,180,-2045,177,-54,-10,-66,12728,6,3,-338,-96,35375,-145,34,127,0,0,3509,0,0,1790,353,140,7385,-4,0,-4,0,296170,0
296195,175,-2039,175,-56,-8,-69,12726,-8,1,-362,-80,35375,-126,34,127,0,0,3509,0,0,1790,353,140,7395,-4,0,-4,0,296170,0
296205,181,-2043,163,-53,-17,-71,12727,-2,2,-397,-112,35379,-118,35,127,0,0,3504,-21,0,1790,353,140,7405,-4,0,-4,0,296217,0
296215,189,-2046,175,-53,-10,-77,12725,-3,0,-450,-96,35398,-119,35,127,0,0,3504,-21,0,1790,353,140,7415,-4,0,-4,0,296217,0
296225,184,-2043,169,-56,-7,-76,12724,3,-5,-467,-88,35405,-127,35,127,0,0,3502,-21,0,1790,353,140,7425,-4,0,-4,0,296232,0
296235,204,-2040,171,-51,-11,-78,12721,-5,7,-482,-128,35398,-133,34,127,0,0,3502,-32,0,1790,353,140,7435,-4,0,-4,0,296232,0
296245,174,-2036,174,-52,-11,-73,12719,-1,-5,-508,-144,35383,-150,34,127,0,0,3502,-21,0,1790,353,140,7445,-4,0,-4,0,296232,0
296255,183,-2038,171,-47,-7,-74,12716,-9,-2,-518,-136,35380,-157,35,127,0,0,3500,-21,0,1790,353,140,7455,-4,0,-4,0,296232,0
296265,192,-2046,170,-48,-16,-70,12717,3,4,-517,-144,35384,-157,34,127,0,0,3500,-21,0,1790,353,140,7465,-4,0,-4,0,296263,0
296275,187,-2038,169,-47,-14,-69,12715,5,4,-513,-136,35386,-129,34,127,0,0,3500,-32,0,1790,353,140,7475,-4,0,-4,0,296263,0
296285,186,-2047,170,-41,-10,-58,12712,-11,-1,-577,-176,35379,-124,35,127,0,0,3500,0,0,1790,353,140,7485,-4,0,-4,0,296263,0
296295,177,-2041,163,-35,-7,-58,12709,4,-8,-490,-152,35378,-124,34,127,0,0,3498,-54,0,1790,353,140,7495,-4,0,-4,0,296263,0
296305,182,-2040,168,-42,-16,-59,12708,0,12,-529,-144,35377,-136,35,127,0,0,3500,10,0,1790,353,140,7505,-4,0,-4,0,296295,0
296315,190,-2043,173,-37,-7,-54,12711,9,7,-518,-136,35386,-134,35,127,0,0,3500,-21,0,1790,353,140,7515,-4,0,-4,0,296295,0
296325,184,-2041,178,-40,-8,-53,12706,-5,-4,-533,-128,35377,-127,35,127,0,0,3498,-21,0,1790,353,140,7525,-4,0,-4,0,296295,0
296335,195,-2044,171,-36,-7,-50,12703,-4,-8,-531,-160,35375,-143,35,127,0,0,3498,-21,0,1790,353,140,7535,-4,0,-4,0,296326,0
296345,199,-2041,173,-39,-14,-45,12701,-9,4,-511,-192,35381,-144,35,127,0,0,3495,-32,0,1790,353,140,7545,-4,0,-4,0,296326,0
296355,197,-2038,174,-35,-12,-31,12693,-36,-13,-521,-136,35386,-121,35,127,0,0,3498,21,0,1790,353,140,7555,-4,0,-4,0,296342,0
296365,199,-2037,169,-35,-6,-31,12677,-37,-31,-394,-136,35381,-112,35,127,0,0,3500,43,0,1790,353,140,7565,-4,0,-4,0,296342,0
296375,160,-2040,167,-28,-6,-28,12668,3,8,-312,-48,35365,-125,35,127,0,0,3498,10,0,1790,353,140,7575,-4,0,-4,0,296357,0
296385,189,-2041,170,-20,-3,-29,12670,-9,44,-343,-56,35381,-125,35,127,0,0,3498,0,0,1790,353,140,7585,-4,0,-4,0,296373,0
296395,191,-2033,175,-15,-10,-25,12668,-2,4,-355,-80,35386,-110,35,127,0,0,3498,10,0,1790,353,140,7595,-4,0,-4,0,296373,0
296405,205,-2039,182,-21,1,-23,12669,-1,1,-319,-96,35381,-118,35,127,0,0,3502,32,0,1790,353,140,7605,-4,0,-4,0,296373,0
296415,165,-2044,176,-17,-6,-8,12670,7,5,-274,-32,35367,-120,35,127,0,0,3502,65,0,1790,353,140,7615,-4,0,-4,0,296498,0
296425,224,-2044,178,-18,-5,-13,12672,-5,2,-217,-48,35370,-119,35,127,0,0,3502,32,0,1790,353,140,7625,-4,0,-4,0,296498,0
296435,196,-2057,164,-17,-12,-4,12671,0,-6,-206,-48,35382,-105,34,127,0,0,3500,-21,0,1790,353,140,7635,-4,0,-4,0,296498,0
296445,181,-2041,172,-10,-6,-7,12671,1,-12,-244,-48,35369,-110,34,127,0,0,3502,10,0,1790,353,140,7645,-4,0,-4,0,296498,0
296455,198,-2041,172,-5,-16,7,12673,-2,3,-171,-56,35367,-122,35,127,0,0,3502,0,0,1790,353,140,7655,-4,0,-4,0,296498,0
296465,194,-2038,177,-3,-18,13,12672,-7,-1,-203,-16,35364,-128,34,127,0,0,3506,54,0,1790,353,140,7665,-4,0,-4,0,296513,0
296475,186,-2050,174,6,-19,24,12679,17,5,-121,32,35373,-118,35,127,0,0,3506,21,0,1790,353,140,7675,-4,0,-4,0,296513,0
296485,183,-2020,170,4,-14,31,12681,3,8,-52,16,35369,-135,34,127,0,0,3509,21,0,1790,353,140,7685,-4,0,-4,0,296513,0
296495,199,-2021,157,8,-11,36,12686,10,-13,60,0,35359,-123,34,127,0,0,3513,21,0,1790,353,140,7695,-4,0,-4,0,296513,0
296505,192,-2021,171,13,-15,45,12699,34,22,14,8,35358,-142,35,127,0,0,3517,43,0,1790,353,140,7705,-4,0,-4,0,296513,0
296515,193,-2021,176,20,-13,43,12718,58,19,56,16,35365,-135,34,127,0,0,3517,0,0,1790,353,140,7715,-4,0,-4,0,296513,0
296525,211,-2034,186,13,-20,60,12726,-9,-7,13,56,35365,-141,35,127,0,0,3524,76,0,1790,353,140,7725,-4,0,-4,0,296513,0
296535,141,-2035,176,20,-18,70,12732,13,-29,176,56,35367,-139,35,127,0,0,3526,43,0,1790,353,140,7735,-4,0,-4,0,296513,0
296545,172,-2043,177,24,-6,65,12736,9,-4,275,96,35365,-116,35,127,0,0,3531,54,0,1790,353,140,7745,-4,0,-4,0,296513,0
296555,179,-2040,181,26,-14,75,12746,19,4,350,128,35384,-117,35,127,0,0,3533,32,0,1790,353,140,7755,-4,0,-4,0,296529,0
296565,163,-2048,185,28,-20,64,12757,27,13,380,120,35396,-106,35,127,0,0,3535,32,0,1790,353,140,7765,-4,0,-4,0,296560,0
296575,166,-2048,186,24,-12,55,12782,66,26,297,136,35392,-122,34,127,0,0,3539,21,0,1790,353,140,7775,-4,0,-4,0,296560,0
296585,194,-2041,193,20,-12,55,12804,26,29,286,144,35373,-119,34,127,0,0,3546,87,0,1790,353,140,7785,-4,0,-4,0,296560,0
296595,142,-2051,189,18,-13,59,12812,14,-40,411,120,35366,-101,35,127,0,0,3548,54,0,1790,353,140,7795,-4,0,-4,0,296576,0
296605,149,-2047,187,16,-13,57,12818,11,-32,454,160,35370,-100,34,127,0,0,3550,43,0,1790,353,140,7805,-4,0,-4,0,296576,0
296615,164,-2044,199,21,-12,51,12838,62,23,432,120,35378,-111,34,127,0,0,3555,10,0,1790,353,140,7815,-4,0,-4,0,296607,0
296625,187,-2047,206,3,-15,52,12869,49,51,264,96,35375,-111,35,127,0,0,3555,32,0,1790,353,140,7825,-4,0,-4,0,296607,0
296635,147,-2045,206,0,-9,41,12872,0,-40,371,144,35372,-106,34,127,0,0,3559,21,0,1790,353,140,7835,-4,0,-4,0,296607,0
296645,155,-2053,213,-13,-1,40,12875,16,-54,436,144,35366,-80,35,127,0,0,3563,21,0,1790,353,140,7845,-4,0,-4,0,296623,0
296655,165,-2047,236,-20,-5,32,12889,38,26,434,112,35368,-78,34,127,0,0,3563,0,0,1790,353,140,7855,-4,0,-4,0,296670,0
296665,135,-2039,225,-38,-14,38,12918,82,48,313,104,35371,-52,34,127,0,0,3566,-10,0,1790,353,140,7865,-4,0,-4,0,296670,0
296675,164,-2023,227,-47,-10,31,12929,-12,1,301,128,35373,-74,35,127,0,0,3570,65,0,1790,353,140,7875,-4,0,-4,0,296670,0
296685,137,-2018,212,-65,11,12,12930,0,-60,408,128,35376,-76,34,127,0,0,3570,10,0,1790,353,140,7885,-4,0,-4,0,296670,0
296695,145,-2022,208,-71,6,2,12931,2,-12,423,128,35370,-82,35,127,0,0,3572,32,0,1790,353,140,7895,-4,0,-4,0,296685,0
296705,134,-2029,207,-85,-3,-4,12934,8,-5,445,152,35363,-85,34,127,0,0,3574,43,0,1790,353,140,7905,-4,0,-4,0,296685,0
296715,130,-2052,198,-88,5,-13,12937,11,14,487,120,35370,-82,34,127,0,0,3572,-10,0,1790,353,140,7915,-4,0,-4,0,296717,0
296725,125,-2051,199,-92,5,-35,12936,-3,-11,447,136,35388,-94,35,127,0,0,3572,10,0,1790,353,140,7925,-4,0,-4,0,296717,0
296735,148,-2048,202,-99,-4,-40,12937,-4,-3,440,136,35396,-87,34,127,0,0,3572,0,0,1790,353,140,7935,-4,0,-4,0,296717,0
296745,152,-2045,192,-101,0,-46,12937,4,3,426,168,35381,-87,34,127,0,0,3574,21,0,1790,353,140,7945,-4,0,-4,0,296717,0
296755,154,-2054,194,-100,-1,-50,12939,-3,-2,441,168,35371,-85,35,127,0,0,3572,10,0,1790,353,140,7955,-4,0,-4,0,296748,0
296765,159,-2040,189,-110,-7,-45,12937,-9,-2,408,144,35364,-62,35,127,0,0,3574,32,0,1790,353,140,7965,-4,0,-4,0,296748,0
296775,158,-2054,193,-119,-8,-40,12939,-2,-5,437,168,35368,-59,35,127,0,0,3572,0,0,1790,353,140,7975,-4,0,-4,0,296748,0
296785,155,-2034,178,-103,-4,-48,12939,-3,-3,447,120,35361,-69,34,127,0,0,3574,21,0,1790,353,140,7985,-4,0,-4,0,296763,0
296795,145,-2030,172,-105,-13,-36,12938,-8,-3,442,128,35372,-68,35,127,0,0,3572,10,0,1790,353,140,7995,-4,0,-4,0,296857,0
296805,159,-2045,185,-107,-5,-37,12940,3,6,472,152,35368,-70,35,127,0,0,3572,-21,0,1790,353,140,8005,-4,0,-4,0,296857,0
296815,158,-2044,179,-101,-7,-42,12942,-1,2,446,144,35373,-71,35,127,0,0,3574,21,0,1790,353,140,8015,-4,0,-4,0,296857,0
296825,146,-2044,186,-104,-7,-35,12944,1,-2,479,144,35367,-85,34,127,0,0,3572,-32,0,1790,353,140,8025,-4,0,-4,0,296873,0
296835,152,-2048,187,-98,-8,-42,12942,-16,-3,402,160,35372,-91,34,127,0,0,3572,10,0,1790,353,140,8035,-4,0,-4,0,296873,0
296845,146,-2038,173,-98,-4,-43,12946,7,-5,419,120,35374,-86,35,127,0,0,3572,-21,0,1790,353,140,8045,-4,0,-4,0,296873,0
296855,148,-2039,167,-96,-6,-42,12944,4,-3,431,144,35381,-93,34,127,0,0,3572,0,0,1790,353,140,8055,-4,0,-4,0,296873,0
296865,148,-2045,177,-91,-14,-44,12949,8,6,427,136,35380,-80,35,127,0,0,3574,-10,0,1790,353,140,8065,-4,0,-4,0,296873,0
296875,134,-2046,175,-84,-15,-42,12947,2,3,433,136,35380,-83,34,127,0,0,3572,-21,0,1790,353,140,8075,-4,0,-4,0,296873,0
296885,143,-2053,177,-81,-8,-50,12948,4,-13,430,136,35379,-82,34,127,0,0,3572,-21,0,1790,353,140,8085,-4,0,-4,0,296873,0
296895,158,-2046,172,-81,-13,-55,12949,5,5,419,136,35384,-91,35,127,0,0,3574,0,0,1790,353,140,8095,-4,0,-4,0,296873,0
296905,155,-2053,169,-73,-10,-57,12949,2,-3,429,168,35393,-85,35,127,0,0,3574,0,0,1790,353,140,8105,-4,0,-4,0,296873,0
296915,159,-2039,168,-78,-12,-59,12950,-4,5,406,96,35399,-82,34,127,0,0,3574,21,0,1790,353,140,8115,-4,0,-4,0,296920,0
296925,152,-2040,169,-68,-16,-61,12952,5,-1,435,128,35395,-94,35,127,0,0,3574,10,0,1790,353,140,8125,-4,0,-4,0,296920,0
296935,155,-2036,173,-69,-18,-64,12954,-5,0,387,136,35392,-84,34,127,0,0,3574,21,0,1790,353,140,8135,-4,0,-4,0,296920,0
296945,152,-2030,174,-65,-15,-60,12953,-7,-1,379,136,35382,-80,35,127,0,0,3572,0,0,1790,353,140,8145,-4,0,-4,0,296920,0
296955,162,-2030,175,-66,-13,-64,12954,0,-1,376,136,35370,-71,34,127,0,0,3572,-21,0,1790,353,140,8155,-4,0,-4,0,296951,0
296965,153,-2031,176,-61,-16,-61,12955,3,2,397,120,35377,-82,34,127,0,0,3574,0,0,1790,353,140,8165,-4,0,-4,0,296951,0
296975,160,-2036,169,-64,-11,-59,12959,0,6,357,112,35381,-93,35,127,0,0,3574,21,0,1790,353,140,8175,-4,0,-4,0,296951,0
296985,170,-2037,173,-55,-16,-61,12961,-3,0,329,112,35392,-95,35,127,0,0,3572,10,0,1790,353,140,8185,-4,0,-4,0,296951,0
296995,164,-2041,171,-56,-17,-65,12961,-3,-10,331,104,35386,-86,35,127,0,0,3574,21,0,1790,353,140,8195,-4,0,-4,0,296998,0
297005,157,-2047,170,-58,-14,-62,12967,14,4,348,96,35388,-92,35,127,0,0,3572,-21,0,1790,353,140,8205,-4,0,-4,0,296998,0
297015,174,-2045,170,-52,-14,-63,12969,-1,7,281,72,35382,-91,35,127,0,0,3572,-10,0,1790,353,140,8215,-4,0,-4,0,296998,0
297025,154,-2040,171,-50,-19,-61,12970,1,-7,285,72,35387,-101,35,127,0,0,3572,10,0,1790,353,140,8225,-4,0,-4,0,296998,0
297035,171,-2042,176,-52,-13,-64,12971,-1,-5,305,88,35383,-81,35,127,0,0,3572,-10,0,1790,353,140,8235,-4,0,-4,0,297013,0
297045,170,-2036,182,-48,-15,-69,12970,-7,1,239,32,35388,-89,35,127,0,0,3572,32,0,1790,353,140,8245,-4,0,-4,0,297029,0
297055,167,-2034,178,-51,-16,-65,12970,-4,-3,224,112,35385,-67,35,127,0,0,3572,32,0,1790,353,140,8255,-4,0,-4,0,297045,0
297065,154,-2036,176,-52,-19,-70,12971,5,6,267,104,35389,-69,35,127,0,0,3572,0,0,1790,353,140,8265,-4,0,-4,0,297045,0
297075,172,-2032,180,-45,-17,-69,12970,-2,-3,243,32,35387,-64,34,127,0,0,3572,0,0,1790,353,140,8275,-4,0,-4,0,297045,0
297085,171,-2048,174,-46,-14,-60,12972,3,-2,267,32,35387,-75,34,127,0,0,3572,10,0,1790,353,140,8285,-4,0,-4,0,297060,0
297095,171,-2046,171,-46,-11,-53,12971,-2,4,243,32,35388,-95,35,127,0,0,3572,21,0,1790,353,140,8295,-4,0,-4,0,297091,0
297105,176,-2048,167,-41,-8,-54,12972,11,0,273,64,35392,-91,35,127,0,0,3572,0,0,1790,353,140,8305,-4,0,-4,0,297091,0
297115,166,-2050,166,-42,-12,-51,12969,-13,-5,238,104,35391,-97,35,127,0,0,3572,10,0,1790,353,140,8315,-4,0,-4,0,297091,0
297125,172,-2049,176,-42,-11,-46,12972,0,-2,197,80,35383,-88,34,127,0,0,3572,10,0,1790,353,140,8325,-4,0,-4,0,297107,0
297135,173,-2043,171,-41,-10,-44,12972,7,7,261,32,35372,-81,34,127,0,0,3572,0,0,1790,353,140,8335,-4,0,-4,0,297123,0
297145,165,-2035,171,-47,-14,-35,12970,2,-4,231,80,35380,-79,35,127,0,0,3570,-21,0,1790,353,140,8345,-4,0,-4,0,297123,0
297155,166,-2031,179,-41,-4,-43,12968,-5,-3,159,48,35384,-72,35,127,0,0,3572,21,0,1790,353,140,8355,-4,0,-4,0,297123,0
297165,168,-2035,187,-41,-12,-29,12972,11,15,218,40,35385,-64,35,127,0,0,3572,0,0,1790,353,140,8365,-4,0,-4,0,297232,0
297175,145,-2020,185,-46,-3,-32,12970,4,-3,239,112,35381,-68,35,127,0,0,3570,-10,0,1790,353,140,8375,-4,0,-4,0,297232,0
297185,152,-2041,180,-51,-19,-32,12970,-11,0,190,48,35379,-72,35,127,0,0,3572,10,0,1790,353,140,8385,-4,0,-4,0,297232,0
297195,149,-2034,184,-44,0,-32,12974,21,5,263,32,35387,-87,35,127,0,0,3572,-10,0,1790,353,140,8395,-4,0,-4,0,297232,0
297205,157,-2029,179,-47,-2,-27,12971,-4,0,245,72,35384,-83,35,127,0,0,3572,0,0,1790,353,140,8405,-4,0,-4,0,297232,0
297215,176,-2042,174,-55,-8,-23,12971,-10,-5,211,32,35377,-70,35,127,0,0,3570,0,0,1790,353,140,8415,-4,0,-4,0,297248,0
297225,154,-2034,173,-51,-2,-18,12970,-3,1,199,80,35370,-76,35,127,0,0,3570,0,0,1790,353,140,8425,-4,0,-4,0,297248,0
297235,195,-2039,174,-54,-3,-21,12973,-1,-1,250,56,35370,-75,35,127,0,0,3570,-32,0,1790,353,140,8435,-4,0,-4,0,297248,0
297245,136,-2040,178,-51,-7,-18,12971,-1,-11,230,104,35376,-75,34,127,0,0,3572,0,0,1790,353,140,8445,-4,0,-4,0,297248,0
297255,167,-2034,183,-58,-3,-16,12973,-9,1,219,64,35371,-71,34,127,0,0,3572,0,0,1790,353,140,8455,-4,0,-4,0,297248,0
297265,167,-2047,177,-55,-4,-21,12970,-3,1,196,72,35366,-79,35,127,0,0,3572,32,0,1790,353,140,8465,-4,0,-4,0,297248,0
297275,168,-2044,184,-61,-1,-16,12974,6,12,257,16,35373,-88,35,127,0,0,3570,-21,0,1790,353,140,8475,-4,0,-4,0,297248,0
297285,132,-2048,186,-62,-10,-25,12974,10,-1,261,96,35400,-87,35,127,0,0,3574,10,0,1790,353,140,8485,-4,0,-4,0,297279,0
297295,154,-2051,196,-68,-7,-30,12976,-1,-2,246,88,35409,-90,34,127,0,0,3572,-10,0,1790,353,140,8495,-4,0,-4,0,297295,0
297305,146,-2048,190,-72,-5,-41,12974,-8,-5,228,96,35398,-90,34,127,0,0,3572,21,0,1790,353,140,8505,-4,0,-4,0,297295,0
297315,175,-2051,191,-77,-8,-43,12976,-6,-3,253,80,35384,-98,35,127,0,0,3572,-32,0,1790,353,140,8515,-4,0,-4,0,297295,0
297325,143,-2059,171,-81,-16,-45,12975,5,-5,230,56,35377,-99,34,127,0,0,3572,-32,0,1790,353,140,8525,-4,0,-4,0,297295,0
297335,142,-2054,168,-74,-9,-42,12975,1,-1,230,96,35383,-88,35,127,0,0,3572,-10,0,1790,353,140,8535,-4,0,-4,0,297326,0
297345,157,-2062,165,-84,-7,-38,12976,-7,0,232,88,35386,-68,34,127,0,0,3572,-10,0,1790,353,140,8545,-4,0,-4,0,297326,0
297355,201,-2039,176,-75,-14,-35,12975,-8,-2,223,80,35382,-63,34,127,0,0,3572,10,0,1790,353,140,8555,-4,0,-4,0,297326,0
297365,154,-2030,175,-76,-13,-23,12976,0,2,239,80,35379,-75,35,127,0,0,3574,0,0,1790,353,140,8565,-4,0,-4,0,297341,0
297375,165,-2035,165,-72,-9,-12,12975,-7,-6,243,128,35382,-82,35,127,0,0,3574,32,0,1790,353,140,8575,-4,0,-4,0,297419,0
297385,177,-2036,159,-69,-9,7,12978,1,0,279,72,35383,-64,35,127,0,0,3574,-32,0,1790,353,140,8585,-4,0,-4,0,297419,0
297395,158,-2034,159,-62,-15,23,12975,-4,-4,279,104,35380,-67,35,127,0,0,3577,32,0,1790,353,140,8595,-4,0,-4,0,297419,0
297405,219,-2033,162,-54,-16,45,12980,-3,2,287,96,35384,-71,35,127,0,0,3577,21,0,1790,353,140,8605,-4,0,-4,0,297419,0
297415,161,-2029,147,-46,-19,55,12981,7,6,349,144,35377,-92,34,127,0,0,3581,43,0,1790,353,140,8615,-4,0,-4,0,297435,0
297425,178,-2035,159,-37,-14,66,12991,23,15,458,160,35373,-75,34,127,0,0,3585,21,0,1790,353,140,8625,-4,0,-4,0,297435,0
297435,173,-2035,167,-38,-13,81,13000,14,16,494,168,35373,-75,34,127,0,0,3588,21,0,1790,353,140,8635,-4,0,-4,0,297435,0
297445,149,-2046,174,-40,-15,86,13008,15,-10,505,184,35373,-75,34,127,0,0,3592,43,0,1790,353,140,8645,-4,0,-4,0,297435,0
297455,139,-2044,180,-35,-14,78,13027,62,19,550,216,35373,-75,34,127,0,0,3596,32,0,1790,353,140,8655,-4,0,-4,0,297435,0
297465,164,-2037,194,-40,-24,88,13078,111,89,309,104,35379,-78,35,127,0,0,3601,54,0,1790,353,140,8665,-4,0,-4,0,297435,0
297475,101,-2042,176,-48,-15,72,13113,74,32,278,120,35389,-32,35,127,0,0,3603,32,0,1790,353,140,8675,-4,0,-4,0,297498,0
297485,116,-2042,174,-51,-12,38,13116,-11,-93,394,120,35387,-16,34,127,0,0,3607,54,0,1790,353,140,8685,-4,0,-4,0,297498,0
297495,109,-2054,175,-52,-15,46,13121,15,-67,496,176,35374,6,34,127,0,0,3607,0,0,1790,353,140,8695,-4,0,-4,0,297498,0
297505,109,-2040,192,-58,-14,18,13121,-4,-6,526,200,35368,-24,35,127,0,0,3612,43,0,1790,353,140,8705,-4,0,-4,0,297498,0
297515,126,-2050,183,-61,-21,24,13128,6,2,526,216,35386,-34,35,127,0,0,3614,65,0,1790,353,140,8715,-4,0,-4,0,297513,0
297525,122,-2049,176,-68,-11,7,13136,30,14,620,176,35386,-31,35,127,0,0,3614,-21,0,1790,353,140,8725,-4,0,-4,0,297513,0
297535,124,-2047,173,-68,-17,-8,13139,6,-8,595,160,35382,-45,35,127,0,0,3614,0,0,1790,353,140,8735,-4,0,-4,0,297513,0
297545,138,-2061,173,-65,-1,-11,13142,10,-8,579,168,35387,-43,34,127,0,0,3614,-10,0,1790,353,140,8745,-4,0,-4,0,297513,0
297555,158,-2049,174,-70,-13,-11,13150,29,13,542,184,35395,-31,35,127,0,0,3616,21,0,1790,353,140,8755,-4,0,-4,0,297591,0
297565,140,-2045,164,-63,-8,-1,13170,51,26,464,96,35382,-14,35,127,0,0,3616,-21,0,1790,353,140,8765,-4,0,-4,0,297591,0
297575,157,-2045,165,-62,-7,2,13179,10,3,477,128,35371,-16,35,127,0,0,3618,0,0,1790,353,140,8775,-4,0,-4,0,297607,0
297585,154,-2043,156,-51,-2,7,13182,-1,-35,507,160,35364,-35,34,127,0,0,3621,10,0,1790,353,140,8785,-4,0,-4,0,297607,0
297595,159,-2039,160,-47,-8,20,13185,5,-6,546,152,35368,-55,35,127,0,0,3623,0,0,1790,353,140,8795,-4,0,-4,0,297607,0
297605,150,-2040,165,-48,-15,32,13188,1,-3,569,168,35367,-50,35,127,0,0,3623,0,0,1790,353,140,8805,-4,0,-4,0,297607,0
297615,159,-2027,166,-47,-10,40,13195,14,3,587,216,35362,-53,35,127,0,0,3627,32,0,1790,353,140,8815,-4,0,-4,0,297607,0
297625,131,-2037,163,-47,-9,51,13208,38,23,566,176,35359,-72,35,127,0,0,3627,0,0,1790,353,140,8825,-4,0,-4,0,297607,0
297635,125,-2029,168,-36,-6,47,13235,68,36,411,144,35365,-85,34,127,0,0,3632,43,0,1790,353,140,8835,-4,0,-4,0,297607,0
297645,137,-2039,181,-45,-12,43,13262,44,31,398,136,35378,-65,35,127,0,0,3636,32,0,1790,353,140,8845,-4,0,-4,0,297623,0
297655,108,-2043,176,-43,-6,34,13281,44,-18,413,120,35378,-57,35,127,0,0,3638,32,0,1790,353,140,8855,-4,0,-4,0,297654,0
297665,121,-2048,177,-44,-12,37,13308,45,0,324,56,35386,-59,35,127,0,0,3638,0,0,1790,353,140,8865,-4,0,-4,0,297654,0
297675,115,-2051,174,-44,-3,11,13307,1,-45,416,128,35381,-87,35,127,0,0,3643,0,0,1790,353,140,8875,-4,0,-4,0,297654,0
297685,100,-2050,170,-46,-7,-1,13311,16,-40,502,120,35371,-92,34,127,0,0,3645,-10,0,1790,353,140,8885,-4,0,-4,0,297654,0
297695,112,-2057,185,-51,-2,-6,13313,0,12,520,152,35365,-91,34,127,0,0,3645,10,0,1790,353,140,8895,-4,0,-4,0,297685,0
297705,112,-2052,178,-49,-10,-16,13317,14,-5,582,160,35363,-91,35,127,0,0,3643,-43,0,1790,353,140,8905,-4,0,-4,0,297685,0
297715,133,-2050,176,-47,-2,-29,13316,-11,-5,511,136,35370,-89,34,127,0,0,3647,10,0,1790,353,140,8915,-4,0,-4,0,297701,0
297725,124,-2048,176,-48,-5,-32,13319,-5,-10,534,176,35369,-86,35,127,0,0,3645,0,0,1790,353,140,8925,-4,0,-4,0,297701,0
297735,130,-2042,174,-54,-8,-30,13320,-3,3,519,208,35379,-100,34,127,0,0,3649,76,0,1790,353,140,8935,-4,0,-4,0,297732,0
297745,146,-2035,165,-49,-4,-44,13328,14,8,554,136,35372,-83,34,127,0,0,3647,0,0,1790,353,140,8945,-4,0,-4,0,297732,0
297755,140,-2045,163,-49,-4,-33,13332,8,5,527,176,35377,-96,35,127,0,0,3651,43,0,1790,353,140,8955,-4,0,-4,0,297732,0
297765,150,-2030,158,-40,-5,-33,13348,42,8,484,128,35380,-95,35,127,0,0,3649,-10,0,1790,353,140,8965,-4,0,-4,0,297763,0
297775,136,-2041,161,-44,-3,-23,13364,32,25,327,96,35376,-92,35,127,0,0,3649,0,0,1790,353,140,8975,-4,0,-4,0,297763,0
297785,110,-2032,157,-37,-7,-23,13365,-11,-31,346,128,35374,-74,35,127,0,0,3649,-10,0,1790,353,140,8985,-4,0,-4,0,297763,0
297795,143,-2035,169,-36,-7,-17,13367,-1,-30,373,120,35374,-86,35,127,0,0,3651,0,0,1790,353,140,8995,-4,0,-4,0,297763,0
297805,139,-2044,174,-35,-5,-17,13366,0,-4,380,120,35381,-95,35,127,0,0,3651,0,0,1790,353,140,9005,-4,0,-4,0,297810,0
297815,137,-2040,173,-33,-9,-22,13368,11,-1,405,112,35391,-92,35,127,0,0,3651,-10,0,1790,353,140,9015,-4,0,-4,0,297810,0
297825,126,-2052,160,-33,-13,-12,13371,10,7,431,96,35386,-83,34,127,0,0,3654,0,0,1790,353,140,9025,-4,0,-4,0,297810,0
297835,116,-2046,174,-32,-8,-13,13372,0,0,450,128,35385,-75,34,127,0,0,3654,0,0,1790,353,140,9035,-4,0,-4,0,297810,0
297845,126,-2043,168,-33,-11,-17,13371,-3,3,443,128,35377,-85,35,127,0,0,3654,10,0,1790,353,140,9045,-4,0,-4,0,297826,0
297855,132,-2044,171,-23,-20,-11,13374,0,2,451,160,35387,-86,35,127,0,0,3656,21,0,1790,353,140,9055,-4,0,-4,0,297841,0
297865,132,-2048,166,-25,-16,-17,13376,10,-5,464,144,35378,-53,35,127,0,0,3658,43,0,1790,353,140,9065,-4,0,-4,0,297841,0
297875,120,-2046,171,-27,-16,-14,13377,-2,4,456,224,35376,-56,35,127,0,0,3658,43,0,1790,353,140,9075,-4,0,-4,0,297857,0
297885,132,-2048,176,-21,-12,-12,13383,6,8,475,152,35377,-59,34,127,0,0,3660,32,0,1790,353,140,9085,-4,0,-4,0,297857,0
297895,110,-2038,169,-20,-17,-14,13386,9,-3,528,136,35384,-72,35,127,0,0,3658,-10,0,1790,353,140,9095,-4,0,-4,0,297888,0
297905,119,-2042,172,-23,-7,-13,13388,1,-8,518,168,35380,-75,34,127,0,0,3660,0,0,1790,353,140,9105,-4,0,-4,0,297888,0
297915,130,-2042,169,-17,-11,-12,13397,25,10,489,184,35375,-71,34,127,0,0,3660,0,0,1790,353,140,9115,-4,0,-4,0,297888,0
297925,126,-2042,173,-20,-11,-12,13417,51,35,372,136,35377,-93,35,127,0,0,3660,-10,0,1790,353,140,9125,-4,0,-4,0,297904,0
297935,130,-2043,176,-22,-19,-7,13436,26,21,259,112,35380,-106,35,127,0,0,3660,10,0,1790,353,140,9135,-4,0,-4,0,297919,0
297945,110,-2041,172,-20,-8,-17,13431,-10,-52,298,152,35380,-108,35,127,0,0,3660,21,0,1790,353,140,9145,-4,0,-4,0,297935,0
297955,143,-2042,177,-23,-12,-17,13436,-3,-30,338,120,35376,-113,34,127,0,0,3665,21,0,1790,353,140,9155,-4,0,-4,0,297951,0
297965,117,-2044,182,-28,-11,-25,13435,-3,5,388,120,35376,-111,34,127,0,0,3665,0,0,1790,353,140,9165,-4,0,-4,0,297951,0
297975,127,-2048,173,-28,-12,-23,13437,-1,-5,358,144,35383,-109,35,127,0,0,3665,21,0,1790,353,140,9175,-4,0,-4,0,297951,0
297985,138,-2042,178,-23,-19,-24,13437,-4,7,380,152,35387,-103,34,127,0,0,3667,54,0,1790,353,140,9185,-4,0,-4,0,297966,0
297995,128,-2039,178,-23,-10,-13,13441,-1,11,373,152,35387,-97,34,127,0,0,3667,43,0,1790,353,140,9195,-4,0,-4,0,298029,0
298005,134,-2043,174,-26,-11,-13,13443,10,-6,421,168,35389,-117,35,127,0,0,3667,-10,0,1790,353,140,9205,-4,0,-4,0,298029,0
298015,116,-2045,182,-18,-5,-15,13444,6,2,421,176,35394,-117,35,127,0,0,3669,21,0,1790,353,140,9215,-4,0,-4,0,298029,0
298025,130,-2036,182,-21,-9,-9,13447,5,4,453,144,35395,-134,35,127,0,0,3669,21,0,1790,353,140,9225,-4,0,-4,0,298029,0
298035,120,-2045,178,-30,-15,-11,13451,6,0,490,128,35379,-133,35,127,0,0,3669,0,0,1790,353,140,9235,-4,0,-4,0,298029,0
298045,122,-2041,178,-31,-4,-5,13457,13,10,446,128,35376,-129,35,127,0,0,3671,10,0,1790,353,140,9245,-4,0,-4,0,298044,0
298055,112,-2043,182,-29,-10,-7,13466,24,8,431,136,35375,-129,34,127,0,0,3671,21,0,1790,353,140,9255,-4,0,-4,0,298044,0
298065,123,-2044,179,-27,-9,-8,13488,61,31,351,112,35385,-134,35,127,0,0,3671,-32,0,1790,353,140,9265,-4,0,-4,0,298044,0
298075,156,-2033,179,-30,-17,5,13496,-11,2,250,104,35395,-116,35,127,0,0,3673,10,0,1790,353,140,9275,-4,0,-4,0,298076,0
298085,112,-2041,169,-24,-6,9,13496,6,-51,322,160,35393,-94,35,127,0,0,3673,21,0,1790,353,140,9285,-4,0,-4,0,298076,0
298095,145,-2040,172,-29,-14,8,13499,0,-3,360,152,35393,-109,35,127,0,0,3678,21,0,1790,353,140,9295,-4,0,-4,0,298076,0
298105,126,-2043,177,-29,-15,10,13499,-1,2,402,176,35386,-136,34,127,0,0,3678,32,0,1790,353,140,9305,-4,0,-4,0,298076,0
298115,111,-2049,179,-27,-10,4,13503,5,-4,475,144,35387,-149,35,127,0,0,3680,10,0,1790,353,140,9315,-4,0,-4,0,298091,0
298125,121,-2039,181,-27,-9,8,13505,-2,3,517,128,35396,-141,35,127,0,0,3682,10,0,1790,353,140,9325,-4,0,-4,0,298107,0
298135,112,-2046,186,-32,-14,4,13508,7,0,557,160,35400,-139,35,127,0,0,3682,10,0,1790,353,140,9335,-4,0,-4,0,298107,0
298145,111,-2044,184,-29,-5,3,13516,10,6,567,136,35409,-147,35,127,0,0,3684,-10,0,1790,353,140,9345,-4,0,-4,0,298138,0
298155,111,-2037,179,-32,-8,7,13519,11,3,572,192,35408,-133,34,127,0,0,3687,21,0,1790,353,140,9355,-4,0,-4,0,298138,0
298165,108,-2048,172,-32,-7,3,13532,35,14,532,168,35395,-131,34,127,0,0,3689,0,0,1790,353,140,9365,-4,0,-4,0,298138,0
298175,107,-2048,176,-32,-11,9,13556,54,40,428,144,35381,-133,35,127,0,0,3689,21,0,1790,353,140,9375,-4,0,-4,0,298154,0
298185,120,-2041,177,-30,-16,13,13566,4,-3,433,120,35384,-122,35,127,0,0,3691,21,0,1790,353,140,9385,-4,0,-4,0,298169,0
298195,100,-2046,174,-29,-4,16,13567,11,-50,550,128,35389,-114,35,127,0,0,3691,-10,0,1790,353,140,9395,-4,0,-4,0,298185,0
298205,113,-2040,179,-38,-5,4,13568,3,-8,564,112,35385,-102,35,127,0,0,3691,10,0,1790,353,140,9405,-4,0,-4,0,298185,0
298215,120,-2045,179,-35,-9,8,13573,14,5,595,168,35385,-100,35,127,0,0,3695,10,0,1790,353,140,9415,-4,0,-4,0,298216,0
298225,94,-2041,181,-30,-7,6,13579,13,10,589,200,35393,-108,34,127,0,0,3697,10,0,1790,353,140,9425,-4,0,-4,0,298216,0
298235,108,-2036,185,-35,-5,-3,13589,30,13,561,168,35401,-85,35,127,0,0,3697,0,0,1790,353,140,9435,-4,0,-4,0,298216,0
298245,93,-2045,180,-34,-1,-10,13607,49,25,462,168,35394,-84,35,127,0,0,3700,10,0,1790,353,140,9445,-4,0,-4,0,298216,0
298255,115,-2044,182,-37,-10,-5,13632,47,29,377,112,35390,-77,35,127,0,0,3702,0,0,1790,353,140,9455,-4,0,-4,0,298247,0
298265,109,-2048,181,-39,-9,-12,13631,-7,-40,423,128,35383,-81,35,127,0,0,3702,10,0,1790,353,140,9465,-4,0,-4,0,298247,0
298275,105,-2041,179,-34,-3,-5,13631,-2,-43,405,88,35389,-85,35,127,0,0,3702,21,0,1790,353,140,9475,-4,0,-4,0,298247,0
298285,117,-2046,181,-36,-8,-4,13633,7,3,449,152,35388,-56,35,127,0,0,3704,10,0,1790,353,140,9485,-4,0,-4,0,298326,0
298295,106,-2049,175,-40,-9,-2,13634,4,-2,444,152,35374,-59,34,127,0,0,3704,21,0,1790,353,140,9495,-4,0,-4,0,298326,0
298305,106,-2051,173,-33,-8,2,13638,16,0,479,176,35370,-60,34,127,0,0,3704,-21,0,1790,353,140,9505,-4,0,-4,0,298326,0
298315,108,-2045,171,-26,-13,5,13639,0,3,452,128,35367,-72,35,127,0,0,3706,21,0,1790,353,140,9515,-4,0,-4,0,298341,0
298325,109,-2047,173,-36,-4,-1,13640,6,-6,478,192,35369,-81,34,127,0,0,3711,43,0,1790,353,140,9525,-4,0,-4,0,298341,0
298335,81,-2053,175,-25,-1,-11,13652,41,19,489,168,35364,-74,34,127,0,0,3708,0,0,1790,353,140,9535,-4,0,-4,0,298341,0
298345,109,-2056,172,-27,-6,1,13677,64,49,344,104,35368,-90,35,127,0,0,3706,-32,0,1790,353,140,9545,-4,0,-4,0,298341,0
298355,135,-2046,179,-25,-7,4,13684,-13,-18,323,120,35370,-85,34,127,0,0,3711,21,0,1790,353,140,9555,-4,0,-4,0,298341,0
298365,115,-2037,170,-23,0,10,13686,6,-51,351,80,35373,-91,35,127,0,0,3711,0,0,1790,353,140,9565,-4,0,-4,0,298341,0
298375,112,-2042,177,-14,-1,5,13686,2,-2,400,144,35378,-90,35,127,0,0,3715,43,0,1790,353,140,9575,-4,0,-4,0,298341,0
298385,109,-2044,189,-21,-13,26,13691,19,6,456,160,35393,-78,35,127,0,0,3715,10,0,1790,353,140,9585,-4,0,-4,0,298372,0
298395,109,-2045,175,-20,-12,28,13692,9,7,491,144,35401,-104,35,127,0,0,3717,10,0,1790,353,140,9595,-4,0,-4,0,298372,0
298405,100,-2044,183,-15,-7,40,13694,15,2,545,200,35397,-97,35,127,0,0,3722,54,0,1790,353,140,9605,-4,0,-4,0,298404,0
298415,108,-2041,177,-9,-6,36,13703,21,17,583,200,35381,-82,35,127,0,0,3722,21,0,1790,353,140,9615,-4,0,-4,0,298404,0
298425,96,-2041,182,-12,-10,41,13713,18,10,575,208,35370,-62,35,127,0,0,3726,32,0,1790,353,140,9625,-4,0,-4,0,298404,0
298435,87,-2039,175,-11,-16,38,13736,57,23,477,224,35369,-81,35,127,0,0,3728,65,0,1790,353,140,9635,-4,0,-4,0,298404,0
298445,86,-2046,176,-14,-14,29,13760,53,33,475,192,35382,-85,34,127,0,0,3730,10,0,1790,353,140,9645,-4,0,-4,0,298419,0
298455,56,-2046,187,-7,-8,10,13771,25,-27,505,168,35390,-61,34,127,0,0,3730,0,0,1790,353,140,9655,-4,0,-4,0,298450,0
298465,60,-2049,190,-13,2,-9,13777,24,-36,543,120,35383,-45,34,127,0,0,3735,0,0,1790,353,140,9665,-4,0,-4,0,298450,0
298475,63,-2051,200,-16,-2,-15,13806,88,44,383,144,35372,-60,34,127,0,0,3733,-10,0,1790,353,140,9675,-4,0,-4,0,298450,0
298485,82,-2047,200,-23,-8,-24,13828,17,33,297,88,35366,-59,35,127,0,0,3733,-21,0,1790,353,140,9685,-4,0,-4,0,298466,0
298495,79,-2044,182,-24,-1,-35,13824,-9,-74,373,120,35378,-64,35,127,0,0,3735,-10,0,1790,353,140,9695,-4,0,-4,0,298482,0
298505,117,-2041,189,-22,-2,-31,13828,1,-33,350,120,35375,-32,35,127,0,0,3737,21,0,1790,353,140,9705,-4,0,-4,0,298482,0
298515,117,-2046,196,-24,-7,-17,13828,7,1,390,72,35375,-39,35,127,0,0,3737,0,0,1790,353,140,9715,-4,0,-4,0,298482,0
298525,118,-2046,175,-18,-17,4,13828,-1,-1,418,96,35377,-44,35,127,0,0,3737,21,0,1790,353,140,9725,-4,0,-4,0,298513,0
298535,106,-2039,174,-7,-14,4,13833,15,3,422,136,35378,-49,35,127,0,0,3739,10,0,1790,353,140,9735,-4,0,-4,0,298529,0
298545,96,-2046,173,-9,-17,8,13841,24,15,397,112,35373,-51,35,127,0,0,3739,0,0,1790,353,140,9745,-4,0,-4,0,298529,0
298555,89,-2043,181,-8,-7,-3,13852,31,21,336,160,35374,-33,35,127,0,0,3741,32,0,1790,353,140,9755,-4,0,-4,0,298529,0
298565,80,-2042,196,-18,-8,-9,13871,38,22,293,96,35374,-59,35,127,0,0,3741,-10,0,1790,353,140,9765,-4,0,-4,0,298560,0
298575,86,-2051,207,-22,-4,-22,13871,-3,-31,307,104,35383,-46,35,127,0,0,3741,-10,0,1790,353,140,9775,-4,0,-4,0,298560,0
298585,77,-2047,192,-28,-5,-24,13872,-4,-33,314,96,35376,-43,35,127,0,0,3744,0,0,1790,353,140,9785,-4,0,-4,0,298560,0
298595,80,-2041,189,-29,-9,-25,13870,-7,2,298,112,35368,-32,34,127,0,0,3746,54,0,1790,353,140,9795,-4,0,-4,0,298575,0
298605,105,-2041,195,-25,-5,-29,13872,-1,-3,331,96,35367,-29,34,127,0,0,3744,21,0,1790,353,140,9805,-4,0,-4,0,298607,0
298615,100,-2046,188,-31,-12,-21,13873,5,3,356,112,35381,-50,35,127,0,0,3746,21,0,1790,353,140,9815,-4,0,-4,0,298607,0
298625,112,-2034,183,-27,-8,-10,13873,-5,0,369,128,35384,-35,35,127,0,0,3746,0,0,1790,353,140,9825,-4,0,-4,0,298607,0
298635,104,-2040,178,-24,-10,-8,13873,2,1,376,112,35374,-29,34,127,0,0,3746,0,0,1790,353,140,9835,-4,0,-4,0,298607,0
298645,96,-2050,179,-20,-9,5,13874,4,1,401,152,35366,-29,34,127,0,0,3748,43,0,1790,353,140,9845,-4,0,-4,0,298622,0
298655,93,-2040,184,-20,-6,12,13881,14,8,471,88,35378,-26,34,127,0,0,3750,10,0,1790,353,140,9855,-4,0,-4,0,298669,0
298665,70,-2031,187,-17,-5,3,13881,12,8,540,112,35386,-18,35,127,0,0,3748,-21,0,1790,353,140,9865,-4,0,-4,0,298685,0
298675,65,-2037,205,-16,-8,-12,13882,0,-8,527,168,35386,-3,35,127,0,0,3750,0,0,1790,353,140,9875,-4,0,-4,0,298700,0
298685,75,-2044,204,-36,-6,-16,13883,-4,8,482,120,35371,-19,35,127,0,0,3750,10,0,1790,353,140,9885,-4,0,-4,0,298700,0
298695,56,-2043,211,-36,-4,-27,13885,19,-2,524,176,35367,-39,34,127,0,0,3750,0,0,1790,353,140,9895,-4,0,-4,0,298700,0
298705,67,-2049,199,-44,-7,-34,13884,0,1,523,160,35366,-40,35,127,0,0,3750,-10,0,1790,353,140,9905,-4,0,-4,0,298700,0
298715,96,-2045,194,-45,-1,-38,13886,4,-1,525,160,35372,-43,35,127,0,0,3752,-32,0,1790,353,140,9915,-4,0,-4,0,298700,0
298725,85,-2045,180,-44,-4,-22,13886,6,3,538,160,35371,-9,35,127,0,0,3752,-10,0,1790,353,140,9925,-4,0,-4,0,298700,0
298735,89,-2052,185,-36,-9,-22,13885,-1,0,509,136,35378,-38,35,127,0,0,3755,65,0,1790,353,140,9935,-4,0,-4,0,298700,0
298745,114,-2049,173,-28,-11,-12,13887,1,7,534,120,35393,-26,35,127,0,0,3755,21,0,1790,353,140,9945,-4,0,-4,0,298763,0
298755,74,-2041,172,-26,-9,-11,13890,13,4,585,176,35396,-25,35,127,0,0,3755,0,0,1790,353,140,9955,-4,0,-4,0,298763,0
298765,87,-2042,182,-18,-7,-5,13892,-5,0,577,168,35393,-21,34,127,0,0,3755,0,0,1790,353,140,9965,-4,0,-4,0,298763,0
298775,82,-2045,180,-22,-10,-15,13894,12,3,620,192,35383,-30,34,127,0,0,3757,-10,0,1790,353,140,9975,-4,0,-4,0,298763,0
298785,75,-2037,201,-29,3,-17,13901,7,3,570,168,35387,-45,35,127,0,0,3757,10,0,1790,353,140,9985,-4,0,-4,0,298763,0
298795,69,-2041,208,-32,-3,-25,13915,36,23,523,184,35395,-32,34,127,0,0,3759,10,0,1790,353,140,9995,-4,0,-4,0,298763,0
298805,96,-2039,201,-33,-2,-23,13940,50,42,384,88,35396,-24,34,127,0,0,3759,21,0,1790,353,140,10005,-4,0,-4,0,298794,0
298815,81,-2048,203,-37,-7,-24,13940,-14,-25,373,128,35391,-45,35,127,0,0,3759,32,0,1790,353,140,10015,-4,0,-4,0,298794,0
298825,96,-2046,191,-36,-3,-22,13943,11,-45,400,120,35395,-61,34,127,0,0,3759,-10,0,1790,353,140,10025,-4,0,-4,0,298794,0
298835,76,-2047,198,-39,-8,-24,13941,4,4,410,120,35400,-63,34,127,0,0,3759,10,0,1790,353,140,10035,-4,0,-4,0,298825,0
298845,91,-2050,193,-47,-15,-28,13943,-8,0,435,136,35391,-44,34,127,0,0,3759,-10,0,1790,353,140,10045,-4,0,-4,0,298841,0
298855,78,-2048,179,-45,-12,-24,13942,-5,1,394,120,35384,-38,35,127,0,0,3759,0,0,1790,353,140,10055,-4,0,-4,0,298841,0
298865,71,-2035,188,-40,-8,-31,13944,13,0,427,152,35378,-49,35,127,0,0,3763,32,0,1790,353,140,10065,-4,0,-4,0,298841,0
298875,74,-2052,197,-39,-8,-33,13946,-5,6,461,168,35380,-59,35,127,0,0,3761,21,0,1790,353,140,10075,-4,0,-4,0,298841,0
298885,117,-2035,181,-43,-30,-63,13947,6,-3,471,128,35385,-59,35,127,0,0,3761,-32,0,1790,353,140,10085,-4,0,-4,0,298872,0
298895,73,-2085,198,-57,-48,-67,13945,-3,-8,452,168,35378,-46,35,127,0,0,3761,0,0,1790,353,140,10095,-4,0,-4,0,298888,0
298905,610,-2079,32,-137,-3,-451,13947,-1,5,437,128,35371,-62,35,127,0,0,3761,0,0,1790,353,140,10105,-4,0,-4,0,298888,0
298915,541,-1976,80,-163,18,-583,13946,-8,-4,375,-16,35369,-69,35,127,0,0,3741,-219,0,1790,353,140,10115,-4,0,-4,0,298888,0
298925,55,-2062,318,-130,-79,-172,13910,-100,-62,-155,-56,35379,-41,34,127,0,0,3733,-76,0,1790,353,140,10125,-4,0,-4,0,298919,0
298935,60,-2192,176,-104,-26,-171,13862,-93,-101,-83,0,35378,-32,34,127,0,0,3730,-21,0,1790,353,140,10135,-4,0,-4,0,298919,0
298945,676,-2046,-90,-148,56,-483,13869,42,83,-183,-72,35375,-22,34,127,0,0,3724,-98,0,1790,353,140,10145,-4,0,-4,0,298919,0
298955,692,-2003,-31,-171,6,-604,13854,-42,69,-349,-184,35382,-30,35,127,0,0,3706,-208,0,1790,353,140,10155,-4,0,-4,0,298950,0
298965,286,-1976,151,-191,-100,-418,13812,-134,-105,-578,-248,35390,-45,35,127,0,0,3695,-109,0,1790,353,140,10165,-4,0,-4,0,298950,0
298975,99,-2128,200,-137,-54,-350,13743,-164,-109,-471,-288,35391,-49,35,127,0,0,3684,-87,0,1790,353,140,10175,-4,0,-4,0,298950,0
298985,437,-2047,35,-130,48,-494,13659,-180,-78,-334,-208,35388,-78,35,127,0,0,3671,-142,0,1790,353,140,10185,-4,0,-4,0,298950,0
298995,657,-2046,29,-161,19,-567,13594,-135,4,-392,-224,35388,-96,34,127,0,0,3658,-131,0,1790,353,140,10195,-4,0,-4,0,299060,0
299005,431,-2001,72,-186,-54,-526,13529,-154,39,-415,-256,35398,-107,35,127,0,0,3640,-164,0,1790,353,140,10205,-4,0,-4,0,299060,0
299015,305,-2045,134,-167,-46,-439,13455,-156,-22,-482,-240,35389,-98,35,127,0,0,3629,-109,0,1790,353,140,10215,-4,0,-4,0,299075,0
299025,363,-2044,114,-130,-16,-372,13388,-132,-6,-432,-192,35380,-104,35,127,0,0,3625,-21,0,1790,353,140,10225,-4,0,-4,0,299075,0
299035,467,-2067,97,-130,-8,-371,13335,-97,39,-349,-136,35373,-117,34,127,0,0,3621,-10,0,1790,353,140,10235,-4,0,-4,0,299075,0
299045,466,-2001,117,-146,-17,-432,13297,-83,55,-302,-136,35377,-106,35,127,0,0,3614,-32,0,1790,353,140,10245,-4,0,-4,0,299075,0
299055,343,-2031,107,-154,-24,-412,13285,-6,77,-480,-168,35377,-87,35,127,0,0,3605,-76,0,1790,353,140,10255,-4,0,-4,0,299075,0
299065,348,-2059,59,-140,-10,-398,13268,-50,44,-604,-208,35373,-87,35,127,0,0,3599,-65,0,1790,353,140,10265,-4,0,-4,0,299075,0
299075,345,-2069,80,-104,-16,-386,13227,-98,-60,-519,-232,35370,-107,35,127,0,0,3590,-65,0,1790,353,140,10275,-4,0,-4,0,299075,0
299085,398,-2050,145,-113,-25,-408,13178,-125,-62,-515,-240,35381,-114,34,127,0,0,3583,-54,0,1790,353,140,10285,-4,0,-4,0,299075,0
299095,287,-2061,143,-118,-31,-424,13116,-137,-44,-372,-184,35383,-81,35,127,0,0,3574,-98,0,1790,353,140,10295,-4,0,-4,0,299075,0
299105,229,-2059,115,-122,-20,-426,13078,-48,18,-428,-216,35382,-46,35,127,0,0,3566,-98,0,1790,353,140,10305,-4,0,-4,0,299075,0
299115,284,-2043,99,-132,-22,-424,13042,-83,60,-506,-192,35390,-33,35,127,0,0,3555,-109,0,1790,353,140,10315,-4,0,-4,0,299107,0
299125,264,-2038,98,-120,-26,-420,13012,-76,12,-600,-232,35409,-40,35,127,0,0,3548,-87,0,1790,353,140,10325,-4,0,-4,0,299107,0
299135,307,-2039,108,-124,-15,-460,12960,-128,-41,-466,-184,35413,-58,34,127,0,0,3539,-76,0,1790,353,140,10335,-4,0,-4,0,299107,0
299145,298,-2048,124,-139,-8,-454,12905,-119,-52,-408,-192,35396,-63,34,127,0,0,3533,-65,0,1790,353,140,10345,-4,0,-4,0,299122,0
299155,252,-2046,134,-149,-13,-420,12870,-73,36,-461,-224,35387,-72,35,127,0,0,3524,-98,0,1790,353,140,10355,-4,0,-4,0,299169,0
299165,282,-2058,153,-174,-13,-380,12832,-75,34,-473,-176,35390,-67,35,127,0,0,3520,-10,0,1790,353,140,10365,-4,0,-4,0,299169,0
299175,264,-2125,123,-200,-16,-333,12804,-76,16,-461,-160,35393,-71,35,127,0,0,3517,-10,0,1790,353,140,10375,-4,0,-4,0,299169,0
299185,283,-2095,180,-191,25,-338,12778,-33,20,-342,-176,35384,-79,35,127,0,0,3515,-21,0,1790,353,140,10385,-4,0,-4,0,299169,0
299195,320,-2073,192,-163,1,-338,12779,8,63,-409,-104,35375,-92,35,127,0,0,3515,-32,0,1790,353,140,10395,-4,0,-4,0,299169,0
299205,276,-2077,259,-151,-37,-291,12780,7,58,-381,-48,35392,-130,35,127,0,0,3520,-10,0,1790,353,140,10405,-4,0,-4,0,299185,0
299215,303,-2160,208,-152,-59,-276,12784,3,-5,-329,-64,35405,-138,35,127,0,0,3524,43,0,1790,353,140,10415,-4,0,-4,0,299200,0
299225,332,-2036,175,-168,-102,-211,12784,-1,0,-293,-56,35400,-133,35,127,0,0,3526,65,0,1790,353,140,10425,-4,0,-4,0,299200,0
299235,287,-1983,167,-169,-86,-236,12791,27,6,-147,-8,35393,-113,35,127,0,0,3531,43,0,1790,353,140,10435,-4,0,-4,0,299232,0
299245,299,-1976,130,-181,-94,-225,12798,13,10,-15,16,35389,-102,35,127,0,0,3537,76,0,1790,353,140,10445,-4,0,-4,0,299232,0
299255,259,-1977,130,-173,-82,-212,12810,40,7,140,80,35386,-108,35,127,0,0,3539,21,0,1790,353,140,10455,-4,0,-4,0,299232,0
299265,305,-1995,121,-180,-66,-193,12817,-8,5,76,56,35393,-95,35,127,0,0,3544,98,0,1790,353,140,10465,-4,0,-4,0,299232,0
299275,295,-1981,96,-157,-45,-187,12828,40,-7,264,72,35381,-102,35,127,0,0,3541,-10,0,1790,353,140,10475,-4,0,-4,0,299263,0
299285,358,-2011,94,-147,-42,-132,12857,61,50,33,40,35386,-93,35,127,0,0,3548,32,0,1790,353,140,10485,-4,0,-4,0,299263,0
299295,354,-1968,101,-133,-48,-105,12864,5,-10,158,72,35390,-90,35,127,0,0,3550,32,0,1790,353,140,10495,-4,0,-4,0,299263,0
299305,365,-1965,69,-116,-38,-59,12864,4,-58,212,56,35387,-71,34,127,0,0,3552,32,0,1790,353,140,10505,-4,0,-4,0,299325,0
299315,360,-1960,73,-106,-37,-22,12868,7,-4,253,104,35377,-69,34,127,0,0,3552,10,0,1790,353,140,10515,-4,0,-4,0,299325,0
299325,356,-1963,89,-90,-27,-1,12876,14,13,254,48,35369,-74,35,127,0,0,3552,-10,0,1790,353,140,10525,-4,0,-4,0,299325,0
299335,340,-1978,94,-76,-21,11,12875,-5,-14,259,80,35374,-77,34,127,0,0,3555,21,0,1790,353,140,10535,-4,0,-4,0,299325,0
299345,305,-1971,95,-71,-13,36,12882,14,-2,254,64,35376,-82,35,127,0,0,3555,-10,0,1790,353,140,10545,-4,0,-4,0,299341,0
299355,287,-1982,98,-70,-17,57,12886,5,12,173,72,35375,-80,35,127,0,0,3555,0,0,1790,353,140,10555,-4,0,-4,0,299341,0
299365,246,-2013,115,-66,-10,73,12889,6,-10,162,64,35370,-70,35,127,0,0,3555,10,0,1790,353,140,10565,-4,0,-4,0,299341,0
299375,247,-2034,126,-52,-5,69,12894,17,7,190,40,35381,-84,35,127,0,0,3557,0,0,1790,353,140,10575,-4,0,-4,0,299341,0
299385,256,-2022,123,-59,23,62,12906,27,21,76,-16,35396,-65,35,127,0,0,3555,0,0,1790,353,140,10585,-4,0,-4,0,299372,0
299395,225,-2019,123,-60,27,52,12905,-4,-14,42,32,35405,-51,35,127,0,0,3552,-10,0,1790,353,140,10595,-4,0,-4,0,299372,0
299405,253,-2031,124,-60,35,53,12906,-1,-21,38,56,35392,-46,34,127,0,0,3555,0,0,1790,353,140,10605,-4,0,-4,0,299388,0
299415,273,-2032,143,-62,29,56,12907,-5,2,0,-8,35382,-63,34,127,0,0,3555,32,0,1790,353,140,10615,-4,0,-4,0,299388,0
299425,261,-2022,146,-68,19,45,12905,-12,-4,6,0,35377,-89,35,127,0,0,3552,10,0,1790,353,140,10625,-4,0,-4,0,299403,0
299435,248,-2026,147,-70,29,22,12904,-10,-1,-27,-24,35379,-89,34,127,0,0,3548,-43,0,1790,353,140,10635,-4,0,-4,0,299419,0
299445,244,-2022,141,-74,32,11,12894,-38,-21,-227,-32,35375,-78,34,127,0,0,3544,0,0,1790,353,140,10645,-4,0,-4,0,299419,0
299455,218,-2034,144,-76,19,9,12875,-53,-38,-166,-32,35373,-80,35,127,0,0,3537,-65,0,1790,353,140,10655,-4,0,-4,0,299466,0
299465,216,-2045,136,-90,22,13,12855,-46,-15,-244,-48,35380,-78,35,127,0,0,3533,-54,0,1790,353,140,10665,-4,0,-4,0,299466,0
299475,223,-2042,133,-87,24,9,12850,-7,23,-347,-128,35383,-95,34,127,0,0,3531,-32,0,1790,353,140,10675,-4,0,-4,0,299466,0
299485,235,-2018,124,-89,32,7,12844,-12,30,-407,-112,35372,-91,34,127,0,0,3526,-43,0,1790,353,140,10685,-4,0,-4,0,299481,0
299495,256,-2018,131,-93,31,-2,12835,-28,-12,-469,-152,35360,-84,35,127,0,0,3524,-21,0,1790,353,140,10695,-4,0,-4,0,299481,0
299505,230,-2015,149,-95,16,22,12811,-68,-36,-452,-168,35366,-95,34,127,0,0,3517,-43,0,1790,353,140,10705,-4,0,-4,0,299481,0
299515,232,-2017,147,-94,14,-5,12777,-52,-53,-361,-112,35378,-91,35,127,0,0,3511,-76,0,1790,353,140,10715,-4,0,-4,0,299513,0
299525,259,-2032,139,-110,11,-2,12762,-38,16,-561,-152,35386,-108,34,127,0,0,3504,-54,0,1790,353,140,10725,-4,0,-4,0,299513,0
299535,229,-1985,150,-107,18,-26,12726,-93,-6,-436,-120,35381,-110,34,127,0,0,3500,-54,0,1790,353,140,10735,-4,0,-4,0,299513,0
299545,205,-1997,135,-114,10,-39,12708,-11,-14,-494,-192,35372,-138,35,127,0,0,3489,-142,0,1790,353,140,10745,-4,0,-4,0,299513,0
299555,254,-2149,173,-130,-9,-42,12683,-83,32,-692,-224,35377,-141,35,127,0,0,3482,-76,0,1790,353,140,10755,-4,0,-4,0,299544,0
299565,127,-2116,184,-140,-41,-30,12636,-95,-64,-519,-216,35381,-119,35,127,0,0,3473,-76,0,1790,353,140,10765,-4,0,-4,0,299544,0
299575,139,-2050,175,-179,-27,-39,12594,-102,-34,-463,-144,35380,-113,34,127,0,0,3473,0,0,1790,353,140,10775,-4,0,-4,0,299580,0
299585,125,-2056,138,-205,-19,-107,12571,-33,40,-472,-144,35375,-101,34,127,0,0,3465,-76,0,1790,353,140,10785,-4,0,-4,0,299595,0
299595,146,-2050,152,-221,-30,-145,12540,-100,26,-483,-160,35369,-106,35,127,0,0,3460,-54,0,1790,353,140,10795,-4,0,-4,0,299595,0
299605,77,-2070,126,-248,-33,-220,12514,-37,-19,-513,-208,35374,-87,34,127,0,0,3451,-98,0,1790,353,140,10805,-4,0,-4,0,299595,0
299615,97,-2070,162,-262,-35,-274,12496,-49,33,-661,-224,35360,-94,34,127,0,0,3443,-120,0,1790,353,140,10815,-4,0,-4,0,299595,0
299625,44,-2098,178,-291,-34,-402,12458,-97,-17,-622,-272,35364,-108,35,127,0,0,3434,-120,0,1790,353,140,10825,-4,0,-4,0,299595,0
299635,23,-2085,195,-327,-42,-476,12406,-137,-68,-637,-288,35373,-99,35,127,0,0,3418,-131,0,1790,353,140,10835,-4,0,-4,0,299626,0
299645,4,-2061,208,-390,-53,-651,12329,-174,-76,-528,-360,35395,-79,34,127,0,0,3399,-175,0,1790,353,140,10845,-4,0,-4,0,299626,0
299655,-11,-2066,228,-430,-56,-774,12254,-165,-45,-563,-352,35388,-58,34,127,0,0,3379,-208,0,1790,353,140,10855,-4,0,-4,0,299626,0
299665,-35,-2024,241,-513,-73,-988,12167,-218,-28,-603,-512,35380,-55,35,127,0,0,3353,-252,0,1790,353,140,10865,-4,0,-4,0,299673,0
299675,-103,-2031,248,-572,-88,-1145,12054,-253,-80,-624,-576,35382,-82,35,127,0,0,3322,-296,0,1790,353,140,10875,-4,0,-4,0,299673,0
299685,-60,-2022,248,-658,-98,-1415,11925,-308,-71,-673,-688,35384,-90,35,127,0,0,3280,-406,0,1790,353,140,10885,-4,0,-4,0,299673,0
299695,-91,-2026,210,-725,-104,-1609,11773,-350,-77,-655,-856,35380,-94,34,127,0,0,3232,-494,0,1790,353,140,10895,-4,0,-4,0,299689,0
299705,-95,-2027,189,-810,-131,-1855,11595,-404,-95,-681,-1048,35361,-86,34,127,0,0,3179,-549,0,1790,353,140,10905,-4,0,-4,0,299689,0
299715,-75,-2046,168,-855,-138,-2017,11385,-484,-105,-671,-1184,35363,-82,35,127,0,0,3122,-637,0,1790,353,140,10915,-4,0,-4,0,299689,0
299725,-71,-2083,95,-935,-204,-2231,11149,-530,-114,-640,-1272,35385,-64,35,127,0,0,3062,-615,0,1790,353,140,10925,-4,0,-4,0,299704,0
299735,-53,-2260,97,-972,-312,-2309,10898,-566,-81,-661,-1400,35390,-56,35,127,0,0,3005,-571,0,1790,353,140,10935,-4,0,-4,0,299704,0
299745,-65,-2648,233,-910,-349,-2337,10634,-572,-55,-581,-1352,35383,-57,34,127,0,0,2959,-461,0,1790,353,140,10945,-4,0,-4,0,299720,0
299755,-34,-2491,230,-921,-327,-2389,10382,-545,0,-550,-1184,35380,-67,34,127,0,0,2922,-351,0,1790,353,140,10955,-4,0,-4,0,299814,0
299765,16,-2319,88,-993,-287,-2534,10154,-485,63,-543,-1024,35380,-71,35,127,0,0,2893,-307,0,1790,353,140,10965,-4,0,-4,0,299814,0
299775,113,-2341,19,-1026,-293,-2620,9953,-430,108,-542,-856,35383,-76,35,127,0,0,2869,-252,0,1790,353,140,10975,-4,0,-4,0,299814,0
299785,169,-2426,-20,-1004,-311,-2742,9774,-370,94,-488,-728,35370,-59,34,127,0,0,2852,-186,0,1790,353,140,10985,-4,0,-4,0,299814,0
299795,176,-2470,-25,-989,-312,-2834,9624,-313,97,-551,-576,35360,-64,35,127,0,0,2836,-142,0,1790,353,140,10995,-4,0,-4,0,299814,0
299805,91,-2490,-38,-988,-270,-2890,9492,-261,78,-517,-464,35362,-77,34,127,0,0,2825,-109,0,1790,353,140,11005,-4,0,-4,0,299814,0
299815,131,-2506,-31,-1021,-179,-2952,9387,-216,100,-476,-304,35366,-100,35,127,0,0,2821,0,0,1790,353,140,11015,-4,0,-4,0,299814,0
299825,162,-2555,27,-1041,-24,-3065,9324,-93,130,-399,-168,35363,-100,35,127,0,0,2821,0,0,1790,353,140,11025,-4,0,-4,0,299814,0
299835,145,-2559,32,-1061,-58,-2986,9304,-21,176,-341,-48,35359,-77,35,127,0,0,2836,164,0,1790,353,140,11035,-4,0,-4,0,299814,0
299845,401,-2664,115,-1114,-96,-2972,9335,92,176,71,128,35372,-96,34,127,0,0,2863,285,0,1790,353,140,11045,-4,0,-4,0,299829,0
299855,414,-2629,143,-1124,-150,-2874,9421,197,197,257,304,35390,-86,35,127,0,0,2898,384,0,1790,353,140,11055,-4,0,-4,0,299829,0
299865,440,-2434,115,-1098,-138,-2778,9526,265,134,467,576,35401,-71,35,127,0,0,2950,505,0,1790,353,140,11065,-4,0,-4,0,299861,0
299875,502,-2354,52,-1078,-135,-2752,9678,362,126,553,880,35395,-60,35,127,0,0,3019,648,0,1790,353,140,11075,-4,0,-4,0,299861,0
299885,682,-2204,-48,-1081,-106,-2655,9879,475,186,583,1256,35381,-72,35,127,0,0,3102,791,0,1790,353,140,11085,-4,0,-4,0,299861,0
299895,753,-2132,-76,-1078,-103,-2521,10139,600,199,631,1552,35373,-61,34,127,0,0,3186,900,0,1790,353,140,11095,-4,0,-4,0,299876,0
299905,735,-1966,-83,-969,-28,-2302,10455,738,217,582,1800,35374,-54,35,127,0,0,3271,856,0,1790,353,140,11105,-4,0,-4,0,299908,0
299915,726,-1831,-274,-954,106,-2159,10819,827,194,534,1968,35372,-50,35,127,0,0,3339,692,0,1790,353,140,11115,-4,0,-4,0,299923,0
299925,65,-1828,42,-664,537,-1851,11197,819,124,348,1568,35371,-64,35,127,0,0,3370,263,0,1790,353,140,11125,-4,0,-4,0,299923,0
299935,68,-1628,-19,-351,822,-1393,11526,678,-71,217,1104,35373,-79,35,127,0,0,3385,153,0,1790,353,140,11135,-4,0,-4,0,299939,0
299945,-13,-1215,104,-236,811,-813,11782,509,-238,198,632,35375,-58,34,127,0,0,3383,-21,0,1790,353,140,11145,-4,0,-4,0,299954,0
299955,10,-1251,125,-99,786,-328,11960,341,-288,154,232,35367,-69,34,127,0,0,3381,-32,0,1790,353,140,11155,-4,0,-4,0,299954,0
299965,-134,-1415,40,167,645,397,12039,75,-329,-58,0,35370,-91,35,127,0,0,3383,21,0,1790,353,140,11165,-4,0,-4,0,299954,0
299975,-171,-1452,27,361,576,843,12015,-70,-406,184,80,35377,-121,34,127,0,0,3381,0,0,1790,353,140,11175,-4,0,60,0,299954,0
299985,-111,-1408,42,559,521,1588,12021,44,-127,186,64,35392,-125,35,127,0,0,3379,-54,0,1790,353,140,11185,-4,0,66,0,299954,0
299995,-104,-1441,57,659,478,2076,12012,-29,44,172,104,35392,-119,34,127,0,0,3381,21,0,1790,353,140,11195,-4,0,70,0,300001,0
300005,-104,-1499,23,786,386,2763,12018,-9,-6,138,32,35386,-105,34,127,0,0,3381,0,0,1790,353,140,11205,-4,0,76,0,300001,0
300015,-111,-1551,23,847,325,3200,12017,11,-1,168,80,35386,-129,35,127,0,0,3383,21,0,1790,353,140,11215,-4,0,80,0,300017,0
300025,-116,-1630,56,942,269,3839,12018,-4,-5,191,136,35381,-122,35,127,0,0,3385,65,0,1790,353,140,11225,-4,0,86,0,300017,0
300035,-92,-1676,37,993,237,4244,12026,18,15,340,184,35375,-119,35,127,0,0,3396,120,0,1790,353,140,11235,-4,0,91,0,300048,0
300045,-69,-1728,39,1082,218,4789,12051,75,42,542,240,35376,-97,35,127,0,0,3414,153,0,1790,353,140,11245,-4,0,98,0,300048,0
300055,-69,-1775,30,1132,212,5124,12112,155,99,545,376,35378,-84,35,127,0,0,3438,241,0,1790,353,140,11255,-4,0,102,0,300048,0
300065,-1,-1837,20,1205,246,5568,12211,228,137,525,512,35394,-88,35,127,0,0,3471,318,0,1790,353,140,11265,-4,0,109,0,300048,0
300075,-32,-1893,14,1261,294,5831,12335,298,119,549,632,35405,-71,35,127,0,0,3513,428,0,1790,353,140,11275,-4,0,114,0,300048,0
300085,1,-1971,14,1327,376,6145,12485,327,99,548,760,35405,-71,35,127,0,0,3559,494,0,1790,353,140,11285,-4,0,121,0,300064,0
300095,-10,-2026,27,1368,433,6303,12659,384,94,529,920,35406,-51,34,127,0,0,3603,461,0,1790,353,140,11295,-4,0,126,9,300079,0
300105,3,-2116,61,1434,561,6491,12850,427,79,576,1056,35406,-78,35,127,0,0,3654,516,0,1790,353,140,11305,-4,0,132,6,300095,0
300115,-5,-2156,81,1464,646,6590,13063,484,75,552,1152,35403,-93,35,127,0,0,3704,494,0,1790,353,140,11315,-4,0,137,5,300095,0
300125,1,-2220,104,1506,762,6684,13291,512,67,597,1280,35382,-85,34,127,0,0,3755,505,0,1790,353,140,11325,-4,0,143,3,300111,0
300135,2,-2272,151,1529,839,6722,13536,544,57,551,1352,35371,-75,35,127,0,0,3805,505,0,1790,353,140,11335,-4,0,147,2,300111,0
300145,5,-2328,208,1521,953,6745,13789,555,53,557,1360,35376,-82,34,127,0,0,3856,472,0,1790,353,140,11345,-4,0,153,1,300111,0
300155,-22,-2354,248,1513,1006,6742,14051,576,28,545,1360,35388,-64,35,127,0,0,3906,472,0,1790,353,140,11355,-4,0,157,0,300142,0
300165,-64,-2400,285,1501,1029,6658,14313,570,11,514,1352,35379,-61,35,127,0,0,3955,472,0,1790,353,140,11365,-4,0,163,0,300158,0
300175,-62,-2422,302,1501,1028,6544,14574,570,1,531,1328,35373,-47,35,127,0,0,4001,428,0,1790,353,140,11375,-4,0,166,0,300158,0
300185,-36,-2435,321,1528,1031,6322,14837,571,1,478,1216,35369,-69,35,127,0,0,4040,395,0,1790,353,140,11385,-4,0,171,0,300158,0
300195,-32,-2443,321,1546,994,6158,15084,530,-27,438,1104,35383,-86,34,127,0,0,4075,351,0,1790,353,140,11395,-4,0,174,0,300220,0
300205,-54,-2407,311,1565,888,5878,15310,479,-73,434,1008,35389,-67,35,127,0,0,4104,296,0,1790,353,140,11405,-4,0,178,0,300220,0
300215,-81,-2360,324,1576,779,5652,15513,428,-84,436,832,35384,-70,35,127,0,0,4130,241,0,1790,353,140,11415,-4,0,180,0,300220,0
300225,-95,-2281,342,1559,612,5294,15697,392,-84,420,680,35372,-67,35,127,0,0,4150,208,0,1790,353,140,11425,-4,0,183,0,300220,0
300235,-83,-2252,311,1544,500,5049,15859,346,-84,404,552,35366,-88,35,127,0,0,4170,175,0,1790,353,140,11435,-4,0,185,0,300220,0
300245,-85,-2246,258,1505,353,4724,15992,275,-98,462,504,35371,-90,35,127,0,0,4192,219,0,1790,353,140,11445,-4,0,187,0,300220,0
300255,-54,-2237,239,1477,270,4502,16109,247,-92,529,536,35368,-96,35,127,0,0,4220,285,0,1790,353,140,11455,-4,0,188,0,300220,0
300265,-59,-2217,218,1421,189,4120,16234,293,-16,588,592,35378,-89,35,127,0,0,4249,274,0,1790,353,140,11465,-4,0,190,0,300251,0
300275,-35,-2204,216,1346,160,3856,16362,271,24,642,592,35389,-70,35,127,0,0,4278,285,0,1790,353,140,11475,-4,0,190,0,300251,0
300285,-5,-2175,211,1235,180,3373,16501,300,29,588,664,35390,-72,34,127,0,0,4308,296,0,1790,353,140,11485,-4,0,191,0,300267,0
300295,24,-2173,211,1173,233,2984,16647,325,26,547,616,35381,-69,34,127,0,0,4328,197,0,1790,353,140,11495,-4,0,191,0,300282,0
300305,91,-2110,162,1071,336,2338,16783,294,-3,545,480,35373,-77,35,127,0,0,4343,109,0,1790,353,140,11505,-4,0,191,0,300282,0
300315,58,-2034,128,979,331,1941,16881,204,-68,461,304,35381,-93,34,127,0,0,4337,-43,0,1790,353,140,11515,-4,0,191,0,300282,0
300325,137,-1913,197,840,472,1090,16947,116,-150,305,0,35388,-80,35,127,0,0,4322,-208,0,1790,353,140,11525,-4,0,190,0,300314,0
300335,158,-1872,177,729,540,584,16919,-135,-273,-195,-288,35383,-66,35,127,0,0,4280,-428,0,1790,353,140,11535,-4,0,189,0,300314,0
300345,91,-1887,150,543,677,-157,16803,-308,-359,-396,-544,35372,-54,34,127,0,0,4229,-494,0,1790,353,140,11545,-4,0,187,0,300329,0
300355,33,-1941,167,423,760,-563,16641,-377,-243,-448,-808,35371,-78,35,127,0,0,4177,-516,0,1790,353,140,11555,-4,0,186,0,300329,0
300365,8,-2003,183,300,960,-1124,16451,-425,-127,-449,-888,35380,-105,35,127,0,0,4133,-439,0,1790,353,140,11565,-4,0,184,-1,300345,0
300375,20,-2003,159,232,1140,-1489,16248,-459,-70,-414,-816,35377,-95,34,127,0,0,4100,-318,0,1790,353,140,11575,-4,0,182,-1,300345,0
300385,124,-1898,79,114,1502,-2041,16054,-400,-6,-369,-696,35372,-77,34,127,0,0,4073,-307,0,1790,353,140,11585,-4,0,179,-2,300361,0
300395,172,-1828,43,29,1796,-2397,15874,-379,55,-400,-600,35375,-64,34,127,0,0,4047,-274,0,1790,353,140,11595,-4,0,177,-2,300376,0
300405,-1405,-6829,-642,-807,446,-1686,15705,-367,52,-398,-384,35375,-96,35,127,0,0,4097,714,0,1790,353,140,11605,-4,0,174,-3,300392,0
300415,-216,-3002,1839,40,2319,-2170,15671,247,278,1582,1696,35392,-106,34,127,0,0,4282,1790,0,1790,353,140,11615,-4,0,172,-3,300407,0
300425,266,-1008,1137,544,1296,-2347,16009,866,1026,995,2344,35373,-87,34,127,0,0,4412,1307,0,1790,353,140,11625,-4,0,168,-3,300407,0
300435,-237,-1833,951,236,297,-1413,16464,1057,878,1014,3024,35359,-59,35,127,0,0,4576,1713,0,1790,353,140,11635,-4,0,166,-4,300407,0
300445,-953,-2297,575,164,45,-1022,17044,1383,455,1310,3992,35359,-16,35,127,0,0,4772,1955,0,1790,353,140,11645,-4,0,163,-4,300439,0
300455,-356,-2679,-462,319,761,-1674,17779,1695,542,1026,4312,35366,16,35,127,0,0,4928,1483,0,1790,353,140,11655,-4,0,161,-4,300439,0
300465,-319,-1489,-787,259,470,-2247,18562,1718,390,584,4064,35360,29,34,127,0,0,5042,1120,0,1790,353,140,11665,-4,0,157,-4,300439,0
300475,-913,-1752,-99,143,361,-2185,19305,1586,0,409,3680,35350,21,35,127,0,0,5152,1131,0,1790,353,140,11675,-4,0,155,-5,300454,0
300485,-836,-2738,134,154,113,-2410,19986,1467,-194,526,3424,35363,-22,34,127,0,0,5255,1010,0,1790,353,140,11685,-4,0,152,-5,300532,0
300495,-252,-2419,43,219,-230,-2672,20609,1330,-222,531,3112,35373,-35,35,127,0,0,5330,747,0,1790,353,140,11695,-4,0,149,-5,300532,0
300505,156,-2053,-24,50,-454,-2930,21164,1167,-244,406,2608,35372,-32,35,127,0,0,5385,527,0,1790,353,140,11705,-4,0,146,-5,300548,0
300515,-40,-2278,-31,21,-421,-3061,21636,972,-296,356,2128,35355,-43,35,127,0,0,5414,274,0,1790,353,140,11715,-4,0,143,-6,300548,0
300525,-235,-2152,471,254,-353,-3138,22010,756,-348,315,1432,35348,-50,35,127,0,0,5418,-10,0,1790,353,140,11725,-4,0,140,-6,300548,0
300535,203,-2235,427,197,-191,-3155,22281,528,-376,269,784,35357,-80,34,127,0,0,5400,-164,0,1790,353,140,11735,-4,0,137,-6,300548,0
300545,170,-2066,636,170,-183,-3017,22449,313,-395,232,168,35368,-71,35,127,0,0,5367,-296,0,1790,353,140,11745,-4,0,134,-7,300548,0
300555,354,-2143,592,50,-189,-2948,22469,-108,-473,-334,-296,35361,-67,34,127,0,0,5334,-373,0,1790,353,140,11755,-4,0,131,-7,300548,0
300565,28,-2057,720,199,-3,-3287,22357,-255,-564,-366,-672,35362,-53,34,127,0,0,5253,-878,0,1790,353,140,11765,-4,0,127,-7,300548,0
300575,-71,-1905,419,3,-171,-2841,22183,-461,-345,-726,-1248,35371,-58,35,127,0,0,5174,-747,0,1790,353,140,11775,-4,0,125,-7,300548,0
300585,-63,-1894,438,18,-70,-2717,21930,-583,-287,-571,-1496,35382,-72,35,127,0,0,5099,-758,0,1790,353,140,11785,-4,0,121,-8,300564,0
300595,-136,-1683,-40,-38,-45,-2593,21633,-678,-231,-563,-1696,35387,-50,35,127,0,0,5025,-747,0,1790,353,140,11795,-4,0,118,-8,300579,0
300605,-88,-1989,-12,28,-23,-2413,21304,-734,-143,-491,-1760,35382,-42,35,127,0,0,4959,-692,0,1790,353,140,11805,-4,0,115,-8,300595,0
300615,-214,-1951,126,90,-67,-2274,20963,-759,-87,-496,-1760,35374,-52,34,127,0,0,4895,-659,0,1790,353,140,11815,-4,0,112,-8,300595,0
300625,-208,-2098,288,121,-68,-2119,20616,-771,-32,-459,-1688,35369,-45,35,127,0,0,4836,-571,0,1790,353,140,11825,-4,0,109,-9,300626,0
300635,-221,-2050,340,129,-46,-2076,20269,-758,-19,-379,-1680,35372,-73,35,127,0,0,4779,-582,0,1790,353,140,11835,-4,0,109,-9,300626,0
300645,-89,-2044,447,118,-31,-2017,19928,-745,13,-342,-1560,35364,-55,35,127,0,0,4721,-571,0,1790,353,140,11845,-4,0,109,-9,300626,0
300655,-92,-1973,493,93,-73,-1914,19599,-699,30,-365,-1488,35369,-82,34,127,0,0,4669,-538,0,1790,353,140,11855,-4,0,109,-9,300642,0
300665,-61,-1986,528,32,-114,-1779,19284,-675,45,-350,-1400,35369,-81,35,127,0,0,4623,-450,0,1790,353,140,11865,-4,0,109,-9,300642,0
300675,-59,-1965,523,-11,-107,-1750,18989,-638,73,-374,-1376,35382,-63,35,127,0,0,4572,-461,0,1790,353,140,11875,-4,0,109,-9,300657,0
300685,-43,-1943,575,-102,-87,-1724,18710,-607,66,-381,-1232,35380,-53,35,127,0,0,4526,-494,0,1790,353,140,11885,-4,0,109,-9,300673,0
300695,-27,-1946,552,-165,-85,-1704,18441,-582,46,-414,-1328,35371,-43,35,127,0,0,4475,-505,0,1790,353,140,11895,-4,0,109,-9,300673,0
300705,-17,-1978,428,-203,-61,-1659,18173,-585,22,-414,-1232,35383,-57,35,127,0,0,4425,-483,0,1790,353,140,11905,-4,0,109,-9,300704,0
300715,37,-2001,362,-211,-68,-1646,17911,-567,5,-411,-1232,35385,-49,35,127,0,0,4374,-527,0,1790,353,140,11915,-4,0,109,-9,300704,0
300725,97,-2040,353,-207,-85,-1634,17650,-566,18,-455,-1200,35381,-55,34,127,0,0,4324,-505,0,1790,353,140,11925,-4,0,109,-9,300704,0
300735,64,-2048,365,-207,-87,-1595,17387,-572,0,-424,-1256,35366,-64,34,127,0,0,4278,-505,0,1790,353,140,11935,-4,0,109,-9,300704,0
300745,115,-2051,340,-206,-78,-1552,17126,-586,-10,-395,-1208,35364,-77,35,127,0,0,4231,-450,0,1790,353,140,11945,-4,0,109,-9,300735,0
300755,132,-2012,281,-190,-65,-1508,16878,-537,18,-414,-1112,35374,-57,35,127,0,0,4190,-439,0,1790,353,140,11955,-4,0,109,-9,300735,0
300765,222,-1961,233,-172,-64,-1444,16632,-529,36,-427,-1080,35371,-55,34,127,0,0,4146,-417,0,1790,353,140,11965,-4,0,109,-9,300751,0
300775,233,-1956,207,-160,-67,-1370,16392,-527,20,-398,-1024,35365,-66,35,127,0,0,4104,-417,0,1790,353,140,11975,-4,0,109,-9,300751,0
300785,231,-1973,173,-115,-57,-1285,16163,-493,24,-400,-912,35368,-77,34,127,0,0,4069,-362,0,1790,353,140,11985,-4,0,109,-9,300767,0
300795,267,-2005,216,-83,-49,-1220,15949,-471,48,-439,-904,35377,-89,35,127,0,0,4034,-329,0,1790,353,140,11995,-4,0,109,-9,300782,0
300805,309,-2034,295,-35,-47,-1187,15747,-438,48,-436,-864,35376,-91,35,127,0,0,3999,-351,0,1790,353,140,12005,-4,0,109,-9,300782,0
300815,362,-2030,304,-21,-37,-1168,15554,-410,41,-450,-848,35374,-87,35,127,0,0,3968,-329,0,1790,353,140,12015,-4,0,109,-9,300814,0
300825,319,-2015,306,-19,-38,-1093,15374,-396,50,-484,-816,35374,-99,35,127,0,0,3937,-318,0,1790,353,140,12025,-4,0,109,-9,300814,0
300835,263,-2012,293,-15,-51,-1039,15203,-380,34,-509,-800,35379,-73,34,127,0,0,3908,-263,0,1790,353,140,12035,-4,0,109,-9,300814,0
300845,239,-2001,287,5,-59,-1003,15034,-372,24,-500,-744,35379,-53,35,127,0,0,3878,-285,0,1790,353,140,12045,-4,0,109,-9,300814,0
300855,209,-1970,288,18,-62,-1007,14874,-359,16,-512,-736,35376,-43,35,127,0,0,3845,-329,0,1790,353,140,12055,-4,0,109,-9,300892,0
300865,169,-1979,301,34,-54,-996,14715,-352,17,-568,-688,35375,-74,35,127,0,0,3821,-230,0,1790,353,140,12065,-4,0,109,-9,300892,0
300875,196,-1975,301,42,-42,-1030,14558,-331,8,-525,-704,35377,-79,35,127,0,0,3794,-252,0,1790,353,140,12075,-4,0,109,-9,300892,0
300885,245,-2037,321,39,-31,-1108,14403,-358,4,-525,-704,35370,-54,35,127,0,0,3763,-285,0,1790,353,140,12085,-4,0,109,-9,300892,0
300895,208,-2036,356,28,-51,-1153,14249,-338,-2,-525,-712,35359,-58,34,127,0,0,3730,-307,0,1790,353,140,12095,-4,0,109,-9,300907,0
300905,214,-2029,414,17,-68,-1227,14094,-345,0,-550,-760,35358,-87,34,127,0,0,3695,-362,0,1790,353,140,12105,-4,0,109,-9,300907,0
300915,181,-2006,420,-9,-86,-1278,13931,-366,-12,-554,-896,35362,-106,35,127,0,0,3658,-395,0,1790,353,140,12115,-4,0,109,-9,300907,0
300925,177,-1992,431,-40,-95,-1351,13760,-370,-34,-557,-880,35366,-92,34,127,0,0,3621,-395,0,1790,353,140,12125,-4,0,109,-9,300907,0
300935,172,-1961,367,-101,-129,-1374,13573,-419,-39,-533,-928,35371,-51,34,127,0,0,3585,-373,0,1790,353,140,12135,-4,0,109,-9,300907,0
300945,175,-2030,394,-133,-133,-1419,13384,-410,-39,-539,-880,35388,-46,35,127,0,0,3546,-395,0,1790,353,140,12145,-4,0,109,-9,300939,0
300955,195,-2035,382,-119,-143,-1452,13196,-410,4,-522,-936,35399,-70,34,127,0,0,3511,-373,0,1790,353,140,12155,-4,0,109,-9,300954,0
300965,314,-2013,350,-134,-156,-1525,13007,-409,-1,-512,-896,35398,-56,35,127,0,0,3473,-362,0,1790,353,140,12165,-4,0,109,-9,300954,0
300975,359,-1988,369,-148,-216,-1564,12816,-422,-5,-556,-880,35386,-42,35,127,0,0,3434,-384,0,1790,353,140,12175,-4,0,109,-9,300954,0
300985,409,-2009,469,-146,-422,-1602,12621,-426,-4,-562,-896,35374,-38,35,127,0,0,3396,-384,0,1790,353,140,12185,-4,0,109,-9,300954,0
300995,380,-2141,493,-136,-442,-1587,12433,-408,5,-562,-944,35384,-76,35,127,0,0,3357,-417,0,1790,353,140,12195,-4,0,109,-9,300985,0
301005,191,-2237,506,-146,-399,-1574,12243,-427,-2,-581,-976,35392,-83,35,127,0,0,3326,-274,0,1790,353,140,12205,-4,0,109,-9,300985,0
301015,180,-2158,452,-153,-365,-1589,12048,-417,-14,-497,-808,35389,-58,35,127,0,0,3293,-329,0,1790,353,140,12215,-4,0,109,-9,300985,0
301025,345,-2030,337,-153,-374,-1650,11869,-386,38,-582,-848,35374,-72,34,127,0,0,3267,-263,0,1790,353,140,12225,-4,0,109,-9,301001,0
301035,363,-2001,282,-158,-394,-1687,11697,-371,37,-503,-776,35372,-88,34,127,0,0,3238,-274,0,1790,353,140,12235,-4,0,109,-9,301017,0
301045,359,-2014,227,-186,-400,-1735,11536,-357,32,-561,-744,35381,-112,35,127,0,0,3208,-296,0,1790,353,140,12245,-4,0,109,-9,301017,0
301055,280,-2009,276,-188,-391,-1773,11378,-357,25,-540,-688,35385,-71,34,127,0,0,3183,-241,0,1790,353,140,12255,-4,0,109,-9,301032,0
301065,299,-2047,340,-197,-408,-1860,11218,-338,6,-546,-640,35382,-42,34,127,0,0,3155,-274,0,1790,353,140,12265,-4,0,109,-9,301032,0
301075,363,-2035,371,-192,-415,-1945,11063,-336,13,-568,-624,35380,-51,35,127,0,0,3126,-285,0,1790,353,140,12275,-4,0,109,-9,301064,0
301085,365,-1949,324,-221,-428,-2053,10923,-315,31,-531,-624,35399,-71,35,127,0,0,3098,-296,0,1790,353,140,12285,-4,0,109,-9,301064,0
301095,359,-1918,320,-244,-425,-2080,10785,-323,24,-620,-632,35399,-75,34,127,0,0,3069,-263,0,1790,353,140,12295,-4,0,109,-9,301064,0
301105,452,-1918,343,-264,-449,-2153,10647,-294,6,-611,-648,35395,-56,34,127,0,0,3036,-318,0,1790,353,140,12305,-4,0,109,-9,301095,0
301115,517,-1867,343,-317,-494,-2234,10502,-333,-9,-636,-688,35377,-33,35,127,0,0,3001,-340,0,1790,353,140,12315,-4,0,109,-9,301095,0
301125,538,-2067,369,-344,-509,-2332,10355,-329,-22,-611,-736,35382,-48,34,127,0,0,2968,-373,0,1790,353,140,12325,-4,0,109,-9,301110,0
301135,538,-2178,449,-334,-537,-2292,10209,-309,-4,-648,-744,35384,-69,35,127,0,0,2939,-296,0,1790,353,140,12335,-4,0,109,-9,301110,0
301145,624,-2183,514,-332,-669,-2210,10066,-305,12,-622,-656,35390,-78,35,127,0,0,2922,-175,0,1790,353,140,12345,-4,0,2,0,301142,0
301155,620,-2117,530,-326,-773,-2227,9919,-322,0,-483,-528,35381,-53,35,127,0,0,2906,-131,0,1790,353,140,12355,-4,0,2,0,301142,0
301165,549,-2129,433,-382,-845,-2254,9803,-243,56,-491,-384,35378,-51,35,127,0,0,2893,-109,0,1790,353,140,12365,-4,0,3,0,301142,0
301175,470,-2171,409,-412,-834,-2267,9709,-185,100,-469,-328,35384,-62,34,127,0,0,2887,-76,0,1790,353,140,12375,-4,0,3,0,301173,0
301185,480,-2161,348,-416,-824,-2295,9654,-83,119,-496,-216,35384,-61,35,127,0,0,2887,0,0,1790,353,140,12385,-4,0,3,0,301173,0
301195,516,-2095,320,-406,-817,-2391,9619,-52,123,-392,-144,35379,-79,34,127,0,0,2887,21,0,1790,353,140,12395,-4,0,4,0,301173,0
301205,564,-2060,285,-413,-884,-2469,9621,17,105,-409,-120,35374,-93,34,127,0,0,2889,0,0,1790,353,140,12405,-4,0,5,0,301173,0
301215,692,-2166,322,-432,-953,-2444,9623,10,73,-318,-56,35386,-118,35,127,0,0,2898,76,0,1790,353,140,12415,-4,0,5,0,301189,0
301225,569,-2269,375,-406,-954,-2423,9638,45,25,-29,88,35402,-122,34,127,0,0,2917,186,0,1790,353,140,12425,-4,0,6,0,301313,0
301235,584,-2185,359,-395,-932,-2430,9686,141,86,289,232,35398,-106,34,127,0,0,2939,263,0,1790,353,140,12435,-4,0,6,0,301313,0
301245,708,-2090,358,-380,-1054,-2409,9779,217,154,282,296,35383,-107,34,127,0,0,2970,318,0,1790,353,140,12445,-4,0,7,0,301313,0
301255,826,-2122,311,-381,-1138,-2445,9878,238,91,479,488,35374,-94,34,127,0,0,3012,417,0,1790,353,140,12455,-4,0,8,0,301313,0
301265,647,-2124,201,-403,-1210,-2414,10020,335,97,484,640,35373,-72,35,127,0,0,3065,516,0,1790,353,140,12465,-4,0,9,0,301313,0
301275,494,-2252,163,-446,-1155,-2355,10190,396,135,503,872,35373,-53,35,127,0,0,3124,604,0,1790,353,140,12475,-4,0,10,0,301329,0
301285,479,-2317,111,-492,-965,-2307,10400,492,136,527,1152,35359,-44,35,127,0,0,3203,812,0,1790,353,140,12485,-4,0,11,0,301329,0
301295,353,-2269,45,-539,-890,-2370,10658,606,170,617,1576,35360,-73,34,127,0,0,3287,856,0,1790,353,140,12495,-4,0,12,0,301329,0
301305,406,-2164,77,-546,-916,-2516,10984,753,222,645,1880,35362,-67,35,127,0,0,3383,966,0,1790,353,140,12505,-4,0,13,0,301329,0
301315,316,-2204,163,-539,-985,-2514,11325,864,239,646,2184,35366,-63,35,127,0,0,3489,1098,0,1790,353,140,12515,-4,0,15,0,301329,0
301325,351,-2296,295,-496,-1181,-2562,11754,980,209,682,2488,35354,-39,35,127,0,0,3607,1208,0,1790,353,140,12525,-4,0,17,0,301329,0
301335,242,-2288,304,-542,-1330,-2578,12240,1105,206,721,2920,35347,-57,35,127,0,0,3741,1406,0,1790,353,140,12535,-4,0,18,0,301329,0
301345,173,-2170,335,-584,-1318,-2894,12793,1273,241,769,3248,35357,-45,34,127,0,0,3882,1340,0,1790,353,140,12545,-4,0,20,0,301329,0
301355,159,-2107,362,-673,-1596,-2991,13399,1361,237,724,3560,35373,-16,35,127,0,0,4020,1384,0,1790,353,140,12555,-4,0,22,0,301329,0
301365,261,-2537,31,-715,-1085,-3586,14047,1451,174,710,3896,35381,1,35,127,0,0,4192,1713,0,1790,353,140,12565,-4,0,24,0,301376,0
301375,-365,-2337,122,-834,-1210,-4376,14761,1604,211,616,3776,35377,15,35,127,0,0,4297,1010,0,1790,353,140,12575,-4,0,26,0,301376,0
301385,44,-2852,513,-1074,-1837,-3802,15471,1533,109,474,3768,35379,-2,35,127,0,0,4464,1724,0,1790,353,140,12585,-4,0,28,0,301376,0
301395,546,-3976,307,-1012,-1576,-5006,16212,1693,37,840,4176,35372,12,34,127,0,0,4614,1373,0,1790,353,140,12595,-4,0,30,0,301376,0
301405,-244,-4042,528,-810,-1871,-5438,16980,1640,134,417,3704,35348,2,34,127,0,0,4713,1032,0,1790,353,140,12605,-4,0,34,0,301376,0
301415,-390,-3906,709,-657,-2106,-5144,17668,1477,-141,554,3648,35351,-18,35,127,0,0,4849,1373,0,1790,353,140,12615,-4,0,36,0,301423,0
301425,-353,-3287,498,-504,-2681,-5401,18346,1510,-247,777,3912,35359,-18,34,127,0,0,5003,1549,0,1790,353,140,12625,-4,0,40,0,301423,0
301435,-243,-3136,318,-453,-3057,-5560,19066,1629,158,843,4104,35362,-16,35,127,0,0,5163,1582,0,1790,353,140,12635,-4,0,43,0,301423,0
301445,35,-3090,430,-241,-4271,-4963,19831,1706,172,850,4376,35349,7,34,127,0,0,5345,1867,0,1790,353,140,12645,-4,0,48,0,301423,0
301455,3,-3065,592,-85,-5321,-4434,20638,1818,158,1191,4528,35322,36,34,127,0,0,5572,2296,0,1790,353,140,12655,-4,0,51,0,301438,0
301465,-282,-2687,821,-57,-6459,-3318,21427,1606,64,40,2912,35334,9,35,127,0,0,5824,2537,0,1790,353,140,12665,-4,0,56,0,301454,0
301475,-434,-2106,980,-44,-7096,-2568,22009,1136,-454,-18,1808,35366,-18,35,127,0,0,6088,2647,0,1790,353,140,12675,-4,0,60,0,301454,0
301485,2086,-2702,-132,-317,-5433,-3081,22407,779,-759,83,1032,35380,-51,35,127,0,0,6277,1691,0,1790,353,140,12685,-4,0,66,0,301470,0
301495,855,-2186,-179,-190,-3969,-3337,22581,40,-727,-1892,-1968,35380,-72,35,127,0,0,6213,-856,0,1790,353,140,12695,-4,0,70,53,301470,0
301505,269,-2112,61,102,-2721,-3361,22122,-1392,-1645,-2644,-5552,35357,-24,35,127,0,0,6000,-2263,0,1790,353,140,12705,-4,0,76,50,301485,0
301515,196,-2064,362,68,-2379,-2883,21026,-2851,-2449,-2872,-8808,35325,108,35,127,0,0,5730,-2724,0,1790,353,140,12715,-4,0,81,48,301485,0
301525,256,-2225,274,116,-2406,-1822,19328,-4053,-2398,-1917,-10744,35273,297,35,127,0,0,5479,-2471,0,1790,353,140,12725,-4,0,87,45,301501,0
301535,381,-2156,-71,136,-2276,-1269,17387,-4149,-1686,1218,-3728,35239,356,34,127,0,0,5255,-2120,0,1790,353,140,12735,-4,0,92,43,301532,0
301545,137,-1771,-236,338,-1730,-597,16664,-243,1756,6903,2688,35315,88,34,127,0,0,5064,-1889,0,1790,353,140,12745,-4,0,99,40,301532,0
301555,816,-1856,-365,251,-1388,531,17161,1232,4957,1154,3360,35359,-46,35,127,0,0,4935,-1263,0,1790,353,140,12755,-4,0,104,38,301532,0
301565,470,-1614,-59,456,-712,756,17796,1475,2485,1028,3744,35400,-155,34,127,0,0,4792,-1395,0,1790,353,140,12765,-4,0,111,35,301532,0
301575,706,-1336,-160,384,-319,1194,18440,1290,296,-237,848,35345,36,34,127,0,0,4638,-1549,0,1790,353,140,12775,-4,0,116,33,301563,0
301585,1074,-1249,-224,276,333,1813,18659,-112,-782,-2674,-1384,35358,-14,35,127,0,0,4462,-1790,0,1790,353,140,12785,-4,0,123,29,301563,0
301595,579,-1066,-241,338,758,2007,18338,-877,-1964,-1268,-2944,35362,-19,34,127,0,0,4249,-2131,0,1790,353,140,12795,-4,0,128,28,301563,0
301605,783,-1083,-318,242,1247,2814,17767,-1393,-1497,-1154,-3840,35369,-2,34,127,0,0,4051,-1955,0,1790,353,140,12805,-4,0,136,25,301595,0
301615,591,-1142,-295,208,1499,3349,17031,-1695,-805,-772,-4256,35348,21,34,127,0,0,3884,-1647,0,1790,353,140,12815,-4,0,141,23,301610,0
301625,580,-1199,-195,163,1818,4165,16220,-1804,-454,-463,-4072,35336,29,35,127,0,0,3759,-1197,0,1790,353,140,12825,-4,0,149,20,301610,0
301635,664,-1241,-168,162,2056,4622,15440,-1664,-89,-248,-3560,35336,-10,35,127,0,0,3673,-823,0,1790,353,140,12835,-4,0,154,18,301610,0
301645,858,-1315,-172,175,2545,5186,14760,-1413,253,-164,-2896,35345,-41,34,127,0,0,3610,-637,0,1790,353,140,12845,-4,0,161,16,301626,0
301655,903,-1360,-203,171,2895,5509,14199,-1169,433,-189,-2432,35357,-42,35,127,0,0,3550,-593,0,1790,353,140,12855,-4,0,167,14,301626,0
301665,945,-1407,-81,213,3277,6000,13735,-979,410,-273,-2184,35357,-49,35,127,0,0,3482,-659,0,1790,353,140,12865,-4,0,175,12,301673,0
301675,964,-1453,0,249,3391,6350,13328,-869,287,-388,-2000,35359,-52,35,127,0,0,3418,-670,0,1790,353,140,12875,-4,0,180,11,301673,0
301685,947,-1556,68,311,3452,6913,12945,-831,152,-432,-1888,35367,-70,35,127,0,0,3361,-538,0,1790,353,140,12885,-4,0,188,9,301673,0
301695,920,-1603,84,359,3397,7272,12586,-768,95,-414,-1608,35368,-66,34,127,0,0,3315,-406,0,1790,353,140,12895,-4,0,193,7,301688,0
301705,907,-1657,100,448,3337,7746,12264,-691,108,-393,-1376,35346,-70,34,127,0,0,3293,-263,0,1790,353,140,12905,-4,0,201,6,301688,0
301715,911,-1683,98,525,3340,7998,11990,-563,167,-329,-960,35346,-67,35,127,0,0,3276,-153,0,1790,353,140,12915,-4,0,206,4,301688,0
301725,862,-1704,124,657,3422,8365,11780,-427,210,-355,-712,35368,-71,34,127,0,0,3267,-87,0,1790,353,140,12925,-4,0,214,3,301720,0
301735,838,-1763,146,769,3514,8574,11621,-312,223,-397,-416,35392,-85,34,127,0,0,3260,-21,0,1790,353,140,12935,-4,0,219,2,301720,0
301745,773,-1782,164,898,3681,8825,11505,-206,189,-317,-184,35390,-74,34,127,0,0,3262,0,0,1790,353,140,12945,-4,0,227,1,301720,0
301755,776,-1801,175,955,3780,8984,11460,-47,215,-274,-64,35370,-53,35,127,0,0,3267,54,0,1790,353,140,12955,-4,0,232,0,301751,0
301765,870,-1854,166,972,3841,9372,11477,47,260,-295,8,35376,-46,35,127,0,0,3280,153,0,1790,353,140,12965,-4,0,240,0,301751,0
301775,825,-1900,212,1037,3873,9537,11503,87,134,185,200,35374,-48,35,127,0,0,3309,296,0,1790,353,140,12975,-4,0,245,-1,301751,0
301785,802,-2007,242,1128,3763,9810,11589,229,133,377,448,35381,-47,35,127,0,0,3348,417,0,1790,353,140,12985,-4,0,253,-1,301767,0
301795,844,-2075,292,1188,3659,9931,11715,304,200,542,736,35371,-18,35,127,0,0,3405,582,0,1790,353,140,12995,-4,0,258,-2,301767,0
301805,919,-2233,315,1275,3413,10106,11889,408,161,586,1136,35373,-42,35,127,0,0,3480,747,0,1790,353,140,13005,-4,0,266,-3,301782,0
301815,901,-2349,322,1330,3170,10181,12124,560,204,672,1424,35391,-73,34,127,0,0,3555,780,0,1790,353,140,13015,-4,0,271,-3,301798,0
301825,1012,-2543,332,1340,2831,10164,12412,669,227,629,1680,35390,-67,35,127,0,0,3638,823,0,1790,353,140,13025,-4,0,278,-3,301798,0
301835,943,-2648,303,1333,2613,10023,12745,752,190,582,1936,35375,-71,34,127,0,0,3722,856,0,1790,353,140,13035,-4,0,283,-4,301813,0
301845,931,-2812,345,1264,2288,9699,13109,821,141,582,2040,35361,-59,34,127,0,0,3799,791,0,1790,353,140,13045,-4,0,289,-4,301829,0
301855,930,-2956,327,1211,2119,9417,13493,841,95,503,2048,35364,-57,35,127,0,0,3867,692,0,1790,353,140,13055,-4,0,293,-4,301845,0
301865,868,-3076,400,1089,1866,8957,13877,842,36,474,1992,35372,-61,34,127,0,0,3933,637,0,1790,353,140,13065,-4,0,299,-4,301845,0
301875,921,-3132,389,1083,1710,8652,14255,824,-16,433,1912,35371,-43,34,127,0,0,3994,582,0,1790,353,140,13075,-4,0,303,-4,301876,0
301885,1035,-2990,331,1091,1350,8233,14615,781,-39,410,1752,35362,-56,35,127,0,0,4051,560,0,1790,353,140,13085,-4,0,308,-4,301876,0
301895,1042,-2887,445,1168,977,7875,14962,748,-61,391,1584,35370,-46,34,127,0,0,4102,483,0,1790,353,140,13095,-4,0,311,-4,301876,0
301905,1050,-2640,476,1275,202,7237,15281,688,-76,350,1344,35377,-71,35,127,0,0,4139,362,0,1790,353,140,13105,-4,0,315,-4,301876,0
301915,1132,-2527,445,1318,-385,6818,15568,608,-113,331,1136,35380,-55,35,127,0,0,4168,285,0,1790,353,140,13115,-4,0,318,-4,301923,0
301925,1215,-2411,374,1412,-1316,6109,15812,516,-143,305,864,35372,-63,35,127,0,0,4190,175,0,1790,353,140,13125,-4,0,321,-4,301923,0
301935,1276,-2387,350,1434,-1923,5554,16014,410,-167,316,592,35377,-74,34,127,0,0,4196,43,0,1790,353,140,13135,-4,0,323,-4,301923,0
301945,1410,-2437,311,1400,-2676,4656,16159,280,-190,248,192,35378,-83,35,127,0,0,4183,-87,0,1790,353,140,13145,-4,0,325,-4,301923,0
301955,983,-2281,387,1347,-3020,3900,16213,8,-270,-278,-256,35373,-72,35,127,0,0,4148,-362,0,1790,353,140,13155,-4,0,326,-4,301954,0
301965,861,-2278,248,1144,-3194,2618,16119,-256,-469,-450,-520,35365,-48,35,127,0,0,4097,-516,0,1790,353,140,13165,-4,0,327,-4,301985,0
301975,705,-2379,144,929,-3139,1815,15964,-378,-400,-536,-792,35368,-62,35,127,0,0,4045,-516,0,1790,353,140,13175,-4,0,328,-4,301985,0
301985,491,-2598,29,585,-2683,507,15778,-437,-172,-548,-936,35377,-75,34,127,0,0,3994,-472,0,1790,353,140,13185,-4,0,328,-4,301985,0
301995,390,-2721,-68,315,-2118,-410,15576,-453,-97,-498,-928,35381,-82,35,127,0,0,3961,-307,0,1790,353,140,13195,-4,0,328,-4,301985,0
302005,358,-2706,-188,-119,-988,-1751,15376,-435,-29,-483,-856,35367,-73,34,127,0,0,3933,-263,0,1790,353,140,13205,-4,0,328,-4,301985,0
302015,369,-2561,-272,-431,-206,-2552,15192,-401,33,-485,-776,35361,-59,34,127,0,0,3906,-230,0,1790,353,140,13215,-4,0,328,-4,301985,0
302025,568,-2406,-293,-718,1021,-3750,15026,-359,64,-485,-648,35381,-66,35,127,0,0,3880,-307,0,1790,353,140,13225,-4,0,328,-4,302001,0
302035,700,-2274,-313,-868,1756,-4443,14868,-344,45,-523,-688,35393,-77,34,127,0,0,3845,-351,0,1790,353,140,13235,-4,0,328,-4,302032,0
302045,945,-2088,-287,-964,2692,-5392,14711,-345,17,-574,-784,35392,-81,34,127,0,0,3803,-450,0,1790,353,140,13245,-4,0,328,-4,302032,0
302055,1035,-2038,-317,-971,3192,-5903,14539,-390,-18,-637,-976,35372,-82,34,127,0,0,3761,-439,0,1644,703,141,7,1,0,328,-4,302032,0
302065,-1127,-7104,1667,-1831,3091,-2498,14333,-460,-102,-195,456,35368,-63,34,127,0,0,3963,2504,0,1644,703,141,17,1,0,328,-4,302048,0
302075,-68,-1566,2628,1373,4485,-3468,14540,868,681,2240,2968,35376,-44,35,127,0,0,4174,1867,0,1644,703,141,27,1,0,328,-4,302063,0
302085,-732,-1119,1903,593,-1834,-2224,15089,1270,1537,925,3608,35381,-8,34,127,0,0,4390,2318,0,1644,703,141,37,1,0,328,-4,302063,0
302095,483,-2511,1725,453,-1020,-1021,15836,1888,961,1924,5656,35360,40,34,127,0,0,4732,3416,0,1644,703,141,47,1,0,328,-4,302063,0
302105,-345,-1673,-1551,-991,-585,-3174,16949,2607,1112,1411,6400,35340,90,34,127,0,0,4965,2208,0,1644,703,141,57,1,0,328,-4,302079,0
302115,-1419,-2817,-2117,-870,267,-4000,18127,2548,842,390,5824,35334,96,35,127,0,0,5110,1384,0,1644,703,141,67,1,0,328,-4,302095,0
302125,-664,-3135,-311,-110,268,-4586,19194,2269,-112,152,4856,35343,85,34,127,0,0,5214,988,0,1644,703,141,77,1,0,328,-4,302126,0
302135,-191,-2605,831,-100,126,-4724,20111,1899,-495,53,3856,35362,12,34,127,0,0,5286,681,0,1644,703,141,87,1,0,328,-4,302126,0
302145,662,-3075,756,-516,358,-5294,20840,1476,-652,39,2768,35362,-49,35,127,0,0,5306,120,0,1644,703,141,97,1,0,328,-4,302126,0
302155,1395,-2672,154,-611,323,-5641,21385,1071,-719,-52,1352,35380,-77,34,127,0,0,5264,-505,0,1644,703,141,107,1,0,328,-4,302126,0
302165,985,-1747,-568,-724,-168,-5282,21713,551,-760,-389,-224,35387,-84,35,127,0,0,5178,-856,0,1644,703,141,117,1,0,328,-4,302173,0
302175,846,-1994,-391,-612,-319,-4859,21629,-382,-1211,-862,-984,35388,-67,34,127,0,0,5097,-802,0,1644,703,141,127,1,0,328,-4,302173,0
302185,1476,-2678,-243,-424,-86,-4544,21407,-532,-1073,-580,-1376,35377,-66,34,127,0,0,5014,-845,0,1644,703,141,137,1,0,328,-4,302173,0
302195,448,-1942,157,-136,168,-4552,21120,-686,-352,-748,-2000,35373,-61,35,127,0,0,4888,-1296,0,1644,703,141,147,1,0,328,-4,302173,0
302205,1021,-2082,817,-110,33,-3745,20719,-956,-336,-830,-2464,35366,-46,34,127,0,0,4781,-1043,0,1644,703,141,157,1,0,328,-4,302173,0
302215,976,-1949,629,-201,-40,-3278,20243,-1080,-372,-514,-2568,35371,-41,34,127,0,0,4682,-999,0,1644,703,141,167,1,0,328,-4,302235,0
302225,320,-2073,20,-252,-188,-2569,19733,-1136,-211,-392,-2576,35372,-43,34,127,0,0,4601,-845,0,1644,703,141,177,1,0,328,-4,302235,0
302235,131,-2187,-193,-162,-115,-2342,19235,-1066,-47,-292,-2360,35380,-59,34,127,0,0,4526,-736,0,1644,703,141,187,1,0,328,-4,302235,0
302245,43,-2210,-120,-33,-6,-2258,18772,-988,86,-322,-2192,35378,-65,35,127,0,0,4449,-736,0,1644,703,141,197,1,0,328,-4,302235,0
302255,97,-2104,67,33,-22,-2196,18339,-928,138,-363,-2152,35369,-64,34,127,0,0,4376,-747,0,1644,703,141,207,1,0,328,-4,302235,0
302265,29,-1840,73,104,-108,-2010,17926,-899,90,-370,-2048,35358,-47,34,127,0,0,4308,-692,0,1644,703,141,217,1,0,328,-4,302235,0
302275,-60,-1883,-53,170,-102,-1827,17532,-866,67,-388,-1864,35365,-69,35,127,0,0,4251,-549,0,1644,703,141,227,1,0,328,-4,302266,0
302285,83,-1858,8,333,-23,-1811,17156,-798,80,-301,-1624,35378,-61,35,127,0,0,4196,-527,0,1644,703,141,237,1,0,328,-4,302266,0
302295,215,-1929,125,333,21,-1795,16817,-722,102,-357,-1536,35381,-48,35,127,0,0,4144,-527,0,1644,703,141,247,1,0,328,-4,302266,0
302305,264,-1959,446,285,-50,-1673,16499,-675,112,-344,-1400,35371,-53,35,127,0,0,4091,-527,0,1644,703,141,257,1,0,328,-4,302298,0
302315,295,-1957,483,250,-97,-1614,16200,-648,81,-361,-1304,35362,-58,35,127,0,0,4047,-472,0,1644,703,141,267,1,0,328,-4,302376,0
302325,190,-2002,407,197,-106,-1565,15951,-605,81,-421,-1192,35371,-78,35,127,0,0,3999,-450,0,1644,703,141,277,1,0,328,-4,302376,0
302335,170,-1970,472,147,-84,-1585,15691,-552,79,-413,-1136,35378,-78,35,127,0,0,3955,-472,0,1644,703,141,287,1,0,328,-4,302376,0
302345,198,-1971,534,14,-94,-1580,15451,-516,76,-481,-1152,35360,-69,34,127,0,0,3913,-428,0,1644,703,141,297,1,0,328,-4,302376,0
302355,154,-1982,505,-35,-125,-1606,15223,-496,58,-518,-1152,35354,-72,34,127,0,0,3867,-461,0,1644,703,141,307,1,0,328,-4,302391,0
302365,144,-1960,392,-54,-113,-1719,14986,-524,-2,-566,-1152,35356,-78,35,127,0,0,3821,-472,0,1644,703,141,317,1,0,328,-4,302391,0
302375,120,-1960,362,-68,-100,-1747,14751,-512,-15,-547,-1232,35362,-91,34,127,0,0,3772,-505,0,1644,703,141,327,1,0,328,-4,302391,0
302385,178,-1993,341,-108,-105,-1784,14515,-510,1,-562,-1288,35355,-72,34,127,0,0,3722,-505,0,1644,703,141,337,1,0,328,-4,302391,0
302395,273,-1966,332,-147,-146,-1819,14271,-544,-12,-573,-1296,35345,-72,35,127,0,0,3673,-494,0,1644,703,141,347,1,0,328,-4,302391,0
302405,233,-1958,253,-175,-179,-1899,14023,-557,-28,-578,-1352,35351,-74,34,127,0,0,3623,-516,0,1644,703,141,357,1,0,328,-4,302391,0
302415,179,-1993,284,-200,-176,-1966,13769,-557,-28,-566,-1408,35370,-71,35,127,0,0,3570,-516,0,1644,703,141,367,1,0,328,-4,302391,0
302425,147,-1947,380,-242,-204,-2092,13502,-595,-6,-530,-1432,35391,-57,35,127,0,0,3515,-571,0,1644,703,141,377,1,0,328,-4,302407,0
302435,37,-1943,403,-290,-259,-2141,13230,-608,-57,-566,-1464,35391,-38,35,127,0,0,3454,-560,0,1644,703,141,387,1,0,328,-4,302438,0
302445,3,-1934,426,-364,-318,-2315,12951,-614,-82,-575,-1504,35388,-60,35,127,0,0,3394,-615,0,1644,703,141,397,1,0,328,-4,302438,0
302455,-71,-1919,410,-365,-448,-2479,12662,-643,-32,-596,-1536,35381,-75,34,127,0,0,3333,-637,0,1644,703,141,407,1,0,328,-4,302438,0
302465,-96,-2323,295,-505,-776,-2569,12364,-661,-32,-612,-1592,35369,-66,35,127,0,0,3273,-615,0,1644,703,141,417,1,0,328,-4,302438,0
302475,-210,-2200,721,-418,-1845,-2591,12060,-676,-30,-535,-1448,35365,-65,35,127,0,0,3243,-318,0,1644,703,141,427,1,0,328,-4,302454,0
302485,-653,-3453,873,-265,-1363,-2508,11782,-586,26,-446,-1216,35371,-90,35,127,0,0,3214,-274,0,1644,703,141,437,1,0,328,-4,302469,0
302495,-689,-2958,740,-392,-1479,-2620,11543,-493,132,-405,-792,35378,-102,35,127,0,0,3218,65,0,1644,703,141,447,1,0,328,-4,302469,0
302505,-548,-2378,330,-605,-875,-3099,11371,-332,200,-326,-344,35393,-80,35,127,0,0,3223,65,0,1644,703,141,457,1,0,328,-4,302516,0
302515,-228,-2281,236,-588,-939,-3419,11265,-177,253,-226,-112,35381,-68,35,127,0,0,3227,43,0,1644,703,141,467,1,0,328,-4,302532,0
302525,-2,-2499,307,-618,-1380,-3748,11262,46,334,-273,-72,35368,-81,35,127,0,0,3232,43,0,1644,703,141,477,1,0,328,-4,302532,0
302535,-253,-2690,361,-680,-1634,-3846,11279,22,240,-225,0,35369,-95,34,127,0,0,3240,109,0,1644,703,141,487,1,0,328,-4,302532,0
302545,-715,-2986,319,-919,-1495,-4089,11298,66,26,186,232,35368,-92,34,127,0,0,3271,307,0,1644,703,141,497,1,0,328,-4,302532,0
302555,-1011,-3105,282,-929,-1088,-4362,11378,216,127,409,384,35368,-74,34,127,0,0,3306,340,0,1644,703,141,507,1,0,328,-4,302532,0
302565,-758,-2620,405,-915,-961,-4859,11500,303,197,495,608,35362,-63,35,127,0,0,3353,450,0,1644,703,141,517,1,0,328,-4,302532,0
302575,-626,-2492,366,-973,-1150,-5084,11668,381,174,474,840,35382,-56,35,127,0,0,3410,571,0,1644,703,141,527,1,0,328,-4,302563,0
302585,-769,-2463,233,-981,-1593,-5720,11866,454,135,501,1112,35395,-52,35,127,0,0,3476,659,0,1644,703,141,537,1,0,328,-4,302563,0
302595,-1066,-2617,58,-1038,-1552,-6178,12100,537,128,548,1232,35397,-63,34,127,0,0,3537,670,0,1644,703,141,547,1,0,328,-4,302563,0
302605,-1740,-3121,-52,-1052,-1202,-6889,12361,594,120,523,1352,35375,-63,34,127,0,0,3601,670,0,1644,703,141,557,1,0,328,-4,302610,0
302615,-1959,-3171,-30,-1058,-1127,-7398,12647,645,94,535,1624,35362,-72,35,127,0,0,3684,834,0,1644,703,141,567,1,0,328,-4,302610,0
302625,-1735,-2891,90,-1028,-1338,-8088,12967,734,116,662,1984,35370,-68,34,127,0,0,3790,1098,0,1644,703,141,577,1,0,328,-4,302626,0
302635,-1254,-2964,-104,-986,-1433,-8689,13354,900,193,791,2504,35381,-37,35,127,0,0,3906,1186,0,1644,703,141,587,1,0,328,-4,302626,0
302645,-1440,-3230,-165,-885,-1465,-9108,13816,1052,266,701,2768,35366,-34,34,127,0,0,4025,1241,0,1644,703,141,597,1,0,328,-4,302626,0
302655,-203,-3337,-272,-758,-1326,-9882,14337,1204,245,793,3240,35354,-16,34,127,0,0,4172,1439,0,1644,703,141,607,1,0,328,-4,302626,0
302665,-32,-4161,64,-883,-2090,-10824,14942,1355,281,605,3288,35362,-33,34,127,0,0,4289,1087,0,1644,703,141,617,1,0,328,-4,302657,0
302675,-448,-4751,578,-786,-3093,-10340,15561,1365,191,545,3272,35370,-34,34,127,0,0,4425,1417,0,1644,703,141,627,1,0,328,-4,302673,0
302685,-638,-5279,925,-691,-3742,-9044,16199,1443,49,909,3856,35357,-16,34,127,0,0,4607,1856,0,1644,703,141,637,1,0,328,-4,302673,0
302695,-820,-5057,1127,-758,-4220,-8293,16940,1714,226,1182,4576,35338,-14,35,127,0,0,4820,2109,0,1644,703,141,647,1,0,328,-4,302688,0
302705,-1462,-3563,2040,-634,-6028,-6840,17798,1962,422,1175,5176,35324,28,34,127,0,0,5038,2153,0,1644,703,141,657,1,0,141,0,302704,0
302715,2380,-3679,976,-995,-4693,-7093,18756,2175,425,973,5176,35331,52,35,127,0,0,5154,834,0,1644,703,141,667,1,0,153,0,302704,0
302725,1067,-2439,193,-1419,-4034,-6246,19687,1917,161,-61,2672,35338,51,35,127,0,0,5047,-1252,0,1644,703,141,677,0,0,171,57,302704,0
302735,380,-2122,-42,-1373,-3833,-5502,20292,985,-667,-1438,-608,35350,-11,35,127,0,0,4833,-2175,0,1644,703,141,687,0,0,183,55,302719,0
302745,320,-2290,19,-1198,-3523,-4254,20125,-758,-2129,-1773,-2664,35359,-65,34,127,0,0,4590,-2438,0,1644,703,141,697,0,0,201,51,302735,0
302755,324,-2247,57,-1135,-3237,-3096,19548,-1496,-2296,-1481,-4320,35360,-55,35,127,0,0,4335,-2559,0,1644,703,141,707,0,0,213,49,302735,0
302765,303,-1979,74,-982,-2320,-1499,18706,-1971,-1252,-995,-5064,35347,12,35,127,0,0,4115,-2131,0,1644,703,141,717,0,0,231,45,302735,0
302775,369,-1547,-23,-847,-1569,-427,17755,-2128,-722,-590,-5168,35331,57,35,127,0,0,3924,-1856,0,1644,703,141,727,0,0,243,43,302751,0
302785,689,-1018,-19,-357,-97,1068,16773,-2170,-261,-368,-5048,35335,32,35,127,0,0,3755,-1680,0,1644,703,141,737,0,0,261,39,302766,0
302795,879,-822,-26,-49,768,2027,15798,-2134,-40,-350,-4872,35347,1,34,127,0,0,3592,-1647,0,1644,703,141,747,0,0,273,36,302782,0
302805,1149,-451,49,330,1799,3705,14866,-2005,92,-404,-4816,35354,-11,35,127,0,0,3436,-1560,0,1644,703,141,757,0,0,290,32,302782,0
302815,1441,-12,55,523,2360,4930,13981,-1907,176,-358,-4440,35345,-10,35,127,0,0,3306,-1263,0,1644,703,141,767,0,0,301,30,302813,0
302825,1696,726,-44,697,2921,6806,13163,-1754,213,-229,-4056,35342,-26,35,127,0,0,3194,-1120,0,1644,703,141,777,0,0,317,26,302813,0
302835,1708,1032,-128,716,2983,8070,12408,-1621,248,-201,-3456,35359,-34,35,127,0,0,3111,-845,0,1644,703,141,787,0,0,328,23,302813,0
302845,1622,833,-42,710,2514,9862,11737,-1414,278,-130,-2752,35374,-51,34,127,0,0,3047,-604,0,1644,703,141,797,0,0,343,20,302813,0
302855,1575,194,144,996,2094,10814,11181,-1145,382,-103,-2032,35375,-48,34,127,0,0,3008,-428,0,1644,703,141,807,0,0,352,18,302844,0
302865,1529,-125,267,1406,1448,12018,10752,-862,463,-138,-1504,35376,-84,35,127,0,0,2981,-318,0,1644,703,141,817,0,0,366,15,302844,0
302875,1482,-253,268,1730,1150,12681,10440,-630,472,-267,-1080,35379,-78,34,127,0,0,2957,-219,0,1644,703,141,827,0,0,375,13,302844,0
302885,1329,-86,72,2170,926,13505,10215,-438,382,-352,-768,35388,-97,35,127,0,0,2948,-109,0,1644,703,141,837,0,0,387,10,302860,0
302895,1301,-156,-118,2475,1026,13855,10052,-328,286,-428,-424,35393,-76,35,127,0,0,2939,-76,0,1644,703,141,847,0,0,395,8,302876,0
302905,1216,-287,-363,2876,1375,14058,9933,-250,204,-380,-256,35379,-62,35,127,0,0,2939,0,0,1644,703,141,857,0,0,407,6,302891,0
302915,1346,-403,-495,3134,1653,13967,9875,-78,187,-323,-96,35380,-57,35,127,0,0,2942,21,0,1644,703,141,867,0,0,415,5,302907,0
302925,1845,-774,-548,3344,2104,13692,9884,19,262,-486,-136,35375,-56,35,127,0,0,2942,21,0,1644,703,141,877,0,0,426,3,302907,0
302935,2069,-1174,-478,3424,2367,13383,9883,0,105,-421,-104,35382,-41,34,127,0,0,2946,43,0,1644,703,141,887,0,0,433,2,302907,0
302945,2518,-1734,-325,3230,2488,12864,9889,18,0,-259,56,35383,-25,35,127,0,0,2968,285,0,1644,703,141,897,0,0,443,0,302954,0
302955,2269,-2127,-199,3028,2521,12331,9945,167,107,312,368,35381,-19,35,127,0,0,3021,549,0,1644,703,141,907,0,0,449,0,302954,0
302965,2735,-2920,-77,2628,2630,10772,10078,338,241,536,784,35390,-31,34,127,0,0,3091,670,0,1644,703,141,917,0,0,457,-1,302954,0
302975,2813,-3320,-115,2332,2552,9502,10282,493,287,458,1128,35386,-37,34,127,0,0,3170,769,0,1644,703,141,927,0,0,462,-1,302954,0
302985,2626,-3538,78,1998,2158,7050,10540,607,239,465,1448,35372,-58,34,127,0,0,3243,714,0,1644,703,141,937,0,0,467,-2,302954,0
302995,2666,-3401,197,1834,1980,5275,10847,708,204,424,1496,35380,-66,35,127,0,0,3309,560,0,1644,703,141,947,0,0,469,-2,302985,0
303005,2816,-2247,3,1476,2068,3169,11175,714,134,332,1512,35385,-82,35,127,0,0,3370,571,0,1644,703,141,957,0,0,471,-3,302985,0
303015,2890,-1480,-287,970,1770,1829,11497,703,20,363,1592,35394,-83,34,127,0,0,3447,769,0,1644,703,141,967,0,0,472,-3,302985,0
303025,2673,-862,-205,381,1262,-808,11834,751,18,394,1576,35382,-68,34,127,0,0,3506,582,0,1644,703,141,977,0,0,471,-3,303016,0
303035,2586,-667,-257,180,831,-2486,12169,722,31,286,1352,35371,-72,35,127,0,0,3541,318,0,1644,703,141,987,0,0,470,-4,303016,0
303045,2190,-434,-419,10,-20,-4319,12465,613,-75,198,992,35373,-59,34,127,0,0,3566,274,0,1644,703,141,997,0,0,466,-4,303032,0
303055,2039,-389,-473,34,-439,-5157,12706,492,-176,193,824,35393,-78,35,127,0,0,3599,362,0,1644,703,141,1007,0,0,463,-4,303032,0
303065,-1153,-9498,-2574,-653,-1427,-4571,12900,403,-198,393,880,35386,-86,35,127,0,0,3682,889,0,1644,703,141,1017,0,0,458,-5,303063,0
303075,5177,-10472,3517,654,3119,-4164,13160,813,-1,1978,3872,35377,-60,35,127,0,0,3990,3054,0,1671,507,142,3,1,0,454,-5,303079,0
303085,-2099,16425,-2659,2829,-1931,-11158,13838,1519,979,253,568,35354,-26,35,127,0,0,3627,-4372,0,1671,507,142,13,1,0,449,-6,303079,0
303095,4486,-9582,-3264,-3945,-1536,-9338,13808,-873,-502,-4344,-3288,35352,18,34,127,0,0,3320,-3065,0,1671,507,142,23,1,0,443,-6,303094,0
303105,3661,-1352,2488,-2728,-836,-8452,13143,-1675,-2804,-1571,-4568,35340,69,35,127,0,0,3102,-2043,0,1671,507,142,33,1,0,435,-6,303094,0
303115,-1758,-1277,-1624,-2077,-522,-6809,12262,-2076,-1565,-1084,-5448,35335,58,35,127,0,0,2863,-2208,0,1671,507,142,43,1,0,430,-6,303094,0
303125,2410,-2751,-873,-1583,231,-6935,11260,-2172,-654,-372,-4952,35321,77,35,127,0,0,2676,-1977,0,1671,507,142,53,1,0,427,-6,303094,0
303135,2876,-3591,-181,-1280,-307,-6420,10305,-2084,-122,-568,-4984,35345,28,35,127,0,0,2480,-1889,0,1671,507,142,63,1,0,427,-6,303172,0
303145,1041,-2663,992,-1476,-603,-5571,9380,-2026,155,-567,-4816,35368,21,35,127,0,0,2298,-1823,0,1671,507,142,73,1,0,427,-6,303172,0
303155,638,-2084,539,-1488,-776,-4535,8481,-1950,102,-475,-4416,35365,3,35,127,0,0,2155,-1362,0,1671,507,142,83,1,0,427,-6,303188,0
303165,978,-1645,-1216,-924,-493,-3853,7648,-1762,175,-290,-3824,35351,-6,35,127,0,0,2043,-1098,0,1671,507,142,93,1,0,427,-6,303188,0
303175,1775,-1750,-1743,-534,-193,-3728,6929,-1499,354,-249,-3264,35349,-27,35,127,0,0,1951,-944,0,1671,507,142,103,1,0,427,-6,303188,0
303185,2221,-2072,-1118,-148,0,-2861,6320,-1279,429,-314,-2824,35362,-53,34,127,0,0,1869,-791,0,1671,507,142,113,1,0,427,-6,303188,0
303195,2566,-2482,-428,17,-176,-1899,5798,-1076,374,-288,-2256,35372,-52,34,127,0,0,1828,-395,0,1671,507,142,123,1,0,427,-6,303188,0
303205,2595,-3338,291,144,-310,-867,5376,-858,353,-235,-1624,35361,-50,35,127,0,0,1817,-87,0,1671,507,142,133,1,0,427,-6,303188,0
303215,1864,-4205,424,32,-588,-721,5061,-610,402,-179,-944,35363,-54,34,127,0,0,1830,153,0,1671,507,142,143,1,0,427,-6,303188,0
303225,649,-5857,1213,54,-646,482,4853,-377,403,20,168,35369,-64,35,127,0,0,1931,1076,0,1671,507,142,153,1,0,427,-6,303204,0
303235,-454,-4497,859,141,-770,857,4941,399,758,1101,1544,35392,-90,34,127,0,0,2107,1878,0,1671,507,142,163,1,0,427,-6,303219,0
303245,-469,-3545,-378,46,-501,838,5272,881,1054,1388,2936,35381,-77,34,127,0,0,2333,2241,0,1671,507,142,173,1,0,427,-6,303219,0
303255,-390,-3580,-414,312,-277,673,5825,1343,883,1233,3880,35360,-60,35,127,0,0,2564,2307,0,1671,507,142,183,1,0,427,-6,303266,0
303265,-666,-3011,81,645,-435,528,6556,1728,766,1273,4808,35351,-11,35,127,0,0,2827,2669,0,1671,507,142,193,1,0,427,-6,303266,0
303275,-668,-2442,759,774,-766,178,7476,2149,705,1247,5728,35336,52,35,127,0,0,3120,3010,0,1671,507,142,203,1,0,427,-6,303266,0
303285,-1540,-2708,556,417,-1426,-613,8586,2543,729,1146,6392,35324,89,34,127,0,0,3396,2702,0,1671,507,142,213,1,0,427,-6,303266,0
303295,-1227,-3021,231,330,-1471,-1289,9809,2762,584,880,7000,35307,110,34,127,0,0,3684,2867,0,1671,507,142,223,1,0,427,-6,303266,0
303305,-1336,-3065,-194,298,-1196,-2705,11134,2962,405,649,7176,35320,93,35,127,0,0,3944,2570,0,1671,507,142,233,1,0,427,-6,303282,0
303315,-1240,-2533,-91,-45,-998,-3395,12481,2926,245,486,6984,35346,64,35,127,0,0,4181,2373,0,1671,507,142,243,1,0,427,-6,303297,0
303325,-836,-2137,52,-561,-1245,-4950,13627,2755,-113,417,6776,35347,50,35,127,0,0,4385,1999,0,1671,507,142,253,1,0,427,-6,303329,0
303335,-1492,-2178,474,-937,-1380,-5264,14846,2651,-258,255,6080,35340,15,35,127,0,0,4552,1680,0,1671,507,142,263,1,2,456,-5,303329,0
303345,-1481,-2336,550,-1016,-1716,-5510,16003,2491,-226,232,5624,35335,0,34,127,0,0,4726,1735,0,1671,507,142,273,1,2,456,-5,303329,0
303355,-1626,-2321,443,-979,-1649,-5741,17062,2261,-317,419,5304,35349,-16,35,127,0,0,4899,1724,0,1671,507,142,283,1,2,456,-5,303329,0
303365,-1637,-2052,537,-1060,-1779,-5819,18043,2131,-330,617,5264,35360,1,35,127,0,0,5086,1900,0,1671,507,142,293,1,2,456,-5,303376,0
303375,-1307,-1831,689,-1171,-1847,-6025,19014,2142,-144,685,5272,35353,26,35,127,0,0,5262,1724,0,1671,507,142,303,1,2,456,-5,303376,0
303385,-223,-1766,624,-1476,-1742,-7350,19979,2095,-19,389,4408,35346,16,34,127,0,0,5297,153,0,1671,507,142,313,1,2,456,-5,303376,0
303395,-428,-2026,457,-1706,-2044,-7754,20801,1651,-318,-180,1840,35350,-8,35,127,0,0,5181,-1329,0,1671,507,142,323,1,2,456,-5,303376,0
303405,-999,-1927,98,-1607,-3068,-7466,21274,700,-1023,-1982,-896,35356,-64,34,127,0,0,5007,-1757,0,1671,507,142,333,0,2,456,-5,303376,0
303415,-887,-1868,83,-1634,-3831,-7307,21074,-652,-2023,-1116,-2280,35361,-80,34,127,0,0,4840,-1702,0,1671,507,142,343,0,2,456,-5,303391,0
303425,-728,-1988,213,-1613,-4905,-6715,20636,-1081,-1524,-1021,-3064,35359,-72,35,127,0,0,4693,-1439,0,1671,507,142,353,0,2,456,-5,303407,0
303435,-622,-1995,227,-1668,-5488,-6340,20055,-1330,-683,-624,-3248,35359,-55,34,127,0,0,4568,-1241,0,1671,507,142,363,0,2,456,-5,303438,0
303445,-490,-2092,192,-1729,-5969,-5863,19423,-1392,-447,-414,-3248,35357,-31,35,127,0,0,4451,-1186,0,1671,507,142,373,0,2,456,-5,303438,0
303455,-298,-2183,96,-1743,-5956,-5528,18797,-1366,-85,-418,-3176,35348,-37,34,127,0,0,4343,-1087,0,1671,507,142,383,0,2,456,-5,303454,0
303465,151,-2424,2,-1785,-5466,-4728,18182,-1331,33,-354,-3040,35344,-41,34,127,0,0,4240,-1010,0,1671,507,142,393,0,2,456,-5,303454,0
303475,493,-2563,-26,-1749,-4668,-4004,17594,-1274,75,-312,-2896,35352,-61,35,127,0,0,4141,-999,0,1671,507,142,403,0,2,456,-5,303454,0
303485,700,-2352,49,-1557,-3181,-2683,17027,-1231,88,-311,-2800,35371,-66,34,127,0,0,4034,-1098,0,1671,507,142,413,0,2,456,-5,303469,0
303495,704,-1975,-64,-1350,-2153,-1917,16473,-1231,57,-460,-2880,35374,-63,34,127,0,0,3911,-1219,0,1671,507,142,423,0,2,456,-5,303516,0
303505,751,-1681,-36,-905,-768,-646,15895,-1292,-18,-585,-3200,35372,-57,35,127,0,0,3770,-1428,0,1671,507,142,433,0,2,456,-5,303516,0
303515,810,-1512,-164,-592,57,358,15273,-1391,-129,-637,-3416,35364,-48,34,127,0,0,3643,-1263,0,1671,507,142,443,0,2,456,-5,303516,0
303525,1042,-1230,-269,-206,1240,2032,14628,-1409,-132,-500,-3200,35367,-42,35,127,0,0,3546,-878,0,1671,507,142,453,0,2,456,-5,303516,0
303535,1239,-1009,-303,64,2043,3102,14025,-1285,30,-286,-2784,35357,-37,35,127,0,0,3473,-703,0,1671,507,142,463,0,2,456,-5,303516,0
303545,1416,-707,-395,501,3058,4565,13491,-1129,218,-213,-2392,35345,-24,35,127,0,0,3410,-659,0,1671,507,142,473,0,2,456,-5,303516,0
303555,1458,-579,-386,758,3510,5521,13028,-981,266,-249,-2048,35360,-57,35,127,0,0,3348,-637,0,1671,507,142,483,0,2,456,-5,303532,0
303565,1537,-478,-288,1069,3829,7084,12616,-882,236,-324,-1872,35382,-63,35,127,0,0,3300,-516,0,1671,507,142,493,0,2,456,-5,303547,0
303575,1558,-512,-208,1246,3800,8140,12250,-777,187,-338,-1544,35390,-62,34,127,0,0,3265,-351,0,1671,507,142,503,0,2,456,-5,303547,0
303585,1503,-848,-93,1561,3614,9568,11933,-662,178,-301,-1168,35368,-40,34,127,0,0,3240,-241,0,1671,507,142,513,0,2,456,-5,303563,0
