state_time,accelx,accely,accelz,gyrox,gyroy,gyroz,mot_ang,mot_vel,mot_acc,mot_cur,mot_volt,batt_volt,batt_curr,temperature,status_mn,status_ex,status_re,ank_ang,ank_vel,ank_torque,peak_ank_torque,step_energy,step_count,step_time,gait_state,movement,speed,incline,sys_time,eventFlags
97254,71,-2037,262,-38,-6,-25,14448,-1,1,300,88,35434,-97,34,127,0,0,3848,0,0,2720,126,46,4982,-4,0,34,0,97304,0
97264,82,-2036,266,-34,-2,-29,14448,5,-2,286,112,35437,-90,34,127,0,0,3850,-5,0,2720,126,46,4992,-4,0,34,0,97304,0
97274,71,-2042,262,-31,-3,-29,14447,-4,7,338,112,35434,-89,34,127,0,0,3854,16,0,2720,126,46,5002,-4,0,34,0,97304,0
97284,78,-2033,258,-35,-7,-23,14446,-9,-7,307,72,35420,-71,34,127,0,0,3856,54,0,2720,126,46,5012,-4,0,34,0,97319,0
97294,69,-2035,265,-40,-11,-14,14448,4,2,325,112,35417,-91,34,127,0,0,3854,49,0,2720,126,46,5022,-4,0,34,0,97319,0
97304,57,-2033,267,-37,-5,-17,14449,1,0,345,64,35419,-93,34,127,0,0,3852,-27,0,2720,126,46,5032,-4,0,34,0,97335,0
97314,43,-2039,271,-45,-1,-18,14449,17,-4,348,88,35416,-91,34,127,0,0,3851,-49,0,2720,126,46,5042,-4,0,34,0,97335,0
97324,58,-2042,279,-47,-7,-22,14448,2,0,348,112,35414,-92,34,127,0,0,3854,5,0,2720,126,46,5052,-4,0,34,0,97335,0
97334,50,-2036,272,-50,-8,-5,14448,-9,-2,359,112,35414,-96,34,127,0,0,3854,0,0,2720,126,46,5062,-4,0,34,0,97335,0
97344,72,-2043,266,-59,-18,5,14450,2,1,385,136,35417,-102,34,127,0,0,3856,10,0,2720,126,46,5072,-4,0,34,0,97335,0
97354,47,-2033,251,-54,-16,-6,14450,0,-1,420,160,35427,-82,34,127,0,0,3855,5,0,2720,126,46,5082,-4,0,34,0,97335,0
97364,40,-2033,253,-49,-5,-10,14451,0,1,446,104,35435,-69,34,127,0,0,3857,-27,0,2720,126,46,5092,-4,0,34,0,97351,0
97374,61,-2036,266,-52,-5,-23,14451,0,-3,451,176,35439,-83,34,127,0,0,3857,49,0,2720,126,46,5102,-4,0,34,0,97382,0
97384,74,-2041,269,-58,-8,-17,14455,-1,5,459,120,35430,-84,34,127,0,0,3859,5,0,2720,126,46,5112,-4,0,34,0,97382,0
97394,41,-2040,264,-56,-12,-24,14456,7,-2,494,144,35427,-83,34,127,0,0,3864,60,0,2720,126,46,5122,-4,0,34,0,97382,0
97404,39,-2042,263,-54,-9,-24,14461,10,0,562,184,35415,-76,34,127,0,0,3862,0,0,2720,126,46,5132,-4,0,34,0,97382,0
97414,49,-2035,264,-62,-12,-24,14460,-14,3,524,184,35415,-83,34,127,0,0,3862,32,0,2720,126,46,5142,-4,0,34,0,97413,0
97424,43,-2039,267,-67,-5,-27,14464,5,-11,540,176,35423,-93,34,127,0,0,3862,5,0,2720,126,46,5152,-4,0,34,0,97429,0
97434,38,-2037,267,-72,-12,-42,14466,7,-2,562,168,35427,-89,35,127,0,0,3862,0,0,2720,126,46,5162,-4,0,34,0,97429,0
97444,48,-2040,258,-71,-13,-42,14465,3,-5,562,128,35425,-85,34,127,0,0,3864,-10,0,2720,126,46,5172,-4,0,34,0,97429,0
97454,47,-2041,258,-64,-1,-44,14466,6,-5,557,168,35420,-68,34,127,0,0,3862,27,0,2720,126,46,5182,-4,0,34,0,97429,0
97464,56,-2031,254,-68,-9,-41,14467,4,4,555,168,35422,-65,34,127,0,0,3862,0,0,2720,126,46,5192,-4,0,34,0,97460,0
97474,74,-2042,256,-65,-8,-41,14467,-3,1,538,168,35427,-65,34,127,0,0,3862,27,0,2720,126,46,5202,-4,0,34,0,97460,0
97484,65,-2032,251,-69,-5,-39,14471,7,-1,541,112,35419,-59,34,127,0,0,3864,-10,0,2720,126,46,5212,-4,0,34,0,97460,0
97494,29,-2038,266,-69,-12,-37,14472,20,-1,559,160,35415,-85,34,127,0,0,3862,0,0,2720,126,46,5222,-4,0,34,0,97476,0
97504,47,-2035,270,-72,-10,-41,14472,-2,0,495,160,35418,-91,34,127,0,0,3862,0,0,2720,126,46,5232,-4,0,34,0,97491,0
97514,35,-2038,261,-65,-6,-36,14474,7,1,513,152,35424,-106,34,127,0,0,3856,-93,0,2720,126,46,5242,-4,0,34,0,97491,0
97524,60,-2037,259,-74,-10,-43,14475,2,2,462,152,35435,-93,34,127,0,0,3862,5,0,2720,126,46,5252,-4,0,34,0,97522,0
97534,29,-2032,259,-73,-13,-44,14480,15,5,489,144,35422,-86,34,127,0,0,3862,-27,0,2720,126,46,5262,-4,0,34,0,97522,0
97544,47,-2039,259,-75,-9,-49,14486,6,15,429,128,35415,-88,34,127,0,0,3859,-32,0,2720,126,46,5272,-4,0,34,0,97522,0
97554,40,-2040,262,-80,-11,-54,14492,21,0,393,120,35418,-78,34,127,0,0,3862,-10,0,2720,126,46,5282,-4,0,34,0,97538,0
97564,49,-2038,255,-77,-10,-50,14495,4,-4,354,112,35428,-90,34,127,0,0,3862,0,0,2720,126,46,5292,-4,0,34,0,97569,0
97574,63,-2039,252,-78,-5,-53,14499,11,-8,375,104,35428,-88,34,127,0,0,3862,-16,0,2720,126,46,5302,-4,0,34,0,97569,0
97584,56,-2037,255,-80,-6,-51,14502,7,-1,370,128,35420,-82,34,127,0,0,3861,-21,0,2720,126,46,5312,-4,0,34,0,97569,0
97594,64,-2035,249,-80,-6,-48,14502,0,-4,353,104,35419,-85,34,127,0,0,3862,0,0,2720,126,46,5322,-4,0,34,0,97569,0
97604,55,-2033,249,-80,-10,-48,14503,3,-6,358,96,35419,-81,34,127,0,0,3862,-16,0,2720,126,46,5332,-4,0,34,0,97601,0
97614,42,-2032,250,-71,-3,-49,14502,0,-2,355,96,35421,-74,34,127,0,0,3862,-5,0,2720,126,46,5342,-4,0,34,0,97601,0
97624,59,-2034,253,-69,-11,-45,14501,-15,6,336,96,35415,-64,34,127,0,0,3862,0,0,2720,126,46,5352,-4,0,34,0,97616,0
97634,60,-2033,249,-71,-6,-48,14503,-2,0,319,96,35415,-81,34,127,0,0,3862,16,0,2720,126,46,5362,-4,0,34,0,97647,0
97644,59,-2030,246,-70,-3,-51,14503,4,2,328,96,35421,-90,34,127,0,0,3866,32,0,2720,126,46,5372,-4,0,34,0,97647,0
97654,58,-2036,252,-68,-16,-47,14503,-1,1,338,96,35427,-79,34,127,0,0,3862,10,0,2720,126,46,5382,-4,0,34,0,97663,0
97664,54,-2036,257,-70,-5,-57,14504,10,3,338,120,35424,-87,34,127,0,0,3864,38,0,2720,126,46,5392,-4,0,34,0,97663,0
97674,65,-2042,243,-69,-10,-56,14504,0,1,361,120,35416,-86,34,127,0,0,3861,0,0,2720,126,46,5402,-4,0,34,0,97663,0
97684,61,-2042,251,-71,-7,-58,14505,0,-6,342,96,35415,-99,34,127,0,0,3862,-16,0,2720,126,46,5412,-4,0,34,0,97663,0
97694,29,-2044,247,-62,-14,-55,14505,3,3,355,96,35431,-88,34,127,0,0,3862,-32,0,2720,126,46,5422,-4,0,34,0,97679,0
97704,61,-2035,253,-63,-10,-60,14504,0,-6,320,96,35436,-76,34,127,0,0,3862,0,0,2720,126,46,5432,-4,0,34,0,97741,0
97714,46,-2038,243,-61,-8,-56,14506,4,3,350,96,35431,-93,34,127,0,0,3862,-43,0,2720,126,46,5442,-4,0,34,0,97741,0
97724,38,-2042,250,-63,-13,-62,14505,3,3,355,96,35428,-93,34,127,0,0,3862,-32,0,2720,126,46,5452,-4,0,34,0,97741,0
97734,54,-2037,241,-63,-9,-64,14504,-4,1,321,96,35425,-104,34,127,0,0,3862,0,0,2720,126,46,5462,-4,0,34,0,97741,0
97744,52,-2037,245,-59,-12,-63,14504,-9,0,294,96,35421,-95,34,127,0,0,3862,16,0,2720,126,46,5472,-4,0,34,0,97757,0
97754,63,-2042,252,-65,-12,-64,14504,-2,2,265,96,35412,-87,34,127,0,0,3862,38,0,2720,126,46,5482,-4,0,34,0,97757,0
97764,63,-2036,248,-58,-12,-65,14505,7,1,319,72,35419,-86,34,127,0,0,3863,-5,0,2720,126,46,5492,-4,0,34,0,97757,0
97774,43,-2046,248,-53,-7,-62,14504,3,-3,312,96,35427,-73,35,127,0,0,3859,-27,0,2720,126,46,5502,-4,0,34,0,97757,0
97784,64,-2038,244,-58,-10,-56,14502,-8,-5,271,72,35443,-73,34,127,0,0,3860,-5,0,2720,126,46,5512,-4,0,34,0,97772,0
97794,63,-2039,241,-48,-10,-63,14503,-1,4,265,96,35449,-70,34,127,0,0,3859,0,0,2720,126,46,5522,-4,0,34,0,97819,0
97804,81,-2036,249,-48,-10,-57,14505,2,4,298,72,35448,-61,34,127,0,0,3863,-16,0,2720,126,46,5532,-4,0,34,0,97819,0
97814,63,-2037,237,-43,-6,-52,14505,3,-5,318,96,35446,-67,34,127,0,0,3862,0,0,2720,126,46,5542,-4,0,34,0,97819,0
97824,61,-2031,239,-35,-10,-50,14504,-3,-3,315,72,35446,-74,35,127,0,0,3857,-71,0,2720,126,46,5552,-4,0,34,0,97819,0
97834,34,-2036,242,-32,-4,-52,14502,0,-5,256,56,35442,-87,34,127,0,0,3864,16,0,2720,126,46,5562,-4,0,34,0,97819,0
97844,39,-2039,243,-29,-11,-47,14503,-8,3,289,48,35442,-85,34,127,0,0,3858,-54,0,2720,126,46,5572,-4,0,34,0,97819,0
97854,52,-2034,241,-27,-12,-52,14502,1,-2,237,80,35442,-83,34,127,0,0,3863,65,0,2720,126,46,5582,-4,0,34,0,97851,0
97864,65,-2038,242,-24,-12,-50,14503,-8,11,261,96,35442,-87,34,127,0,0,3859,21,0,2720,126,46,5592,-4,0,34,0,97851,0
97874,61,-2029,244,-25,-5,-50,14503,0,5,270,96,35436,-82,34,127,0,0,3862,21,0,2720,126,46,5602,-4,0,34,0,97851,0
97884,66,-2039,256,-23,-12,-53,14502,-8,2,274,88,35429,-79,34,127,0,0,3859,-5,0,2720,126,46,5612,-4,0,34,0,97866,0
97894,67,-2032,251,-28,-14,-59,14505,13,2,284,48,35426,-45,34,127,0,0,3861,-27,0,2720,126,46,5622,-4,0,34,0,97882,0
97904,59,-2039,255,-25,-14,-62,14503,5,-2,293,56,35429,-38,35,127,0,0,3864,21,0,2720,126,46,5632,-4,0,34,0,97897,0
97914,59,-2032,255,-28,-20,-56,14503,-1,-2,257,48,35429,-50,34,127,0,0,3864,71,0,2720,126,46,5642,-4,0,34,0,97897,0
97924,44,-2038,255,-26,-18,-56,14506,8,6,293,48,35431,-67,34,127,0,0,3864,21,0,2720,126,46,5652,-4,0,34,0,97913,0
97934,44,-2037,255,-26,-20,-55,14504,3,-2,283,56,35429,-90,34,127,0,0,3858,-27,0,2720,126,46,5662,-4,0,34,0,97913,0
97944,64,-2039,248,-30,-21,-59,14502,1,-1,225,56,35433,-89,34,127,0,0,3864,60,0,2720,126,46,5672,-4,0,34,0,97929,0
97954,75,-2039,246,-29,-20,-60,14502,-3,7,261,48,35440,-83,34,127,0,0,3858,10,0,2720,126,46,5682,-4,0,34,0,97960,0
97964,76,-2039,253,-31,-15,-63,14503,0,-2,244,48,35433,-69,34,127,0,0,3855,-76,0,2720,126,46,5692,-4,0,34,0,97960,0
97974,59,-2041,260,-24,-19,-64,14500,-6,-7,162,32,35432,-80,34,127,0,0,3859,16,0,2720,126,46,5702,-4,0,34,0,97960,0
97984,51,-2037,254,-26,-22,-58,14501,3,8,213,32,35435,-95,34,127,0,0,3859,-5,0,2720,126,46,5712,-4,0,34,0,97960,0
97994,60,-2035,257,-29,-17,-57,14498,-7,3,187,8,35443,-85,34,127,0,0,3857,-10,0,2720,126,46,5722,-4,0,34,0,97976,0
98004,52,-2038,257,-30,-17,-59,14500,16,1,181,56,35443,-82,34,127,0,0,3858,16,0,2720,126,46,5732,-4,0,34,0,97991,0
98014,72,-2037,256,-32,-16,-52,14500,-15,10,153,32,35437,-80,34,127,0,0,3856,10,0,2720,126,46,5742,-4,0,34,0,98007,0
98024,61,-2044,256,-36,-20,-54,14500,15,1,173,32,35435,-82,34,127,0,0,3856,-32,0,2720,126,46,5752,-4,0,34,0,98022,0
98034,55,-2036,264,-38,-19,-52,14499,-4,5,191,32,35438,-84,34,127,0,0,3856,-32,0,2720,126,46,5762,-4,0,34,0,98022,0
98044,61,-2033,251,-41,-14,-52,14498,0,-3,141,16,35430,-80,34,127,0,0,3857,-5,0,2720,126,46,5772,-4,0,34,0,98022,0
98054,65,-2038,266,-37,-15,-44,14498,7,2,148,40,35428,-85,34,127,0,0,3856,0,0,2720,126,46,5782,-4,0,34,0,98038,0
98064,67,-2032,275,-49,-14,-44,14498,-15,6,115,16,35435,-93,34,127,0,0,3854,-21,0,2720,126,46,5792,-4,0,34,0,98069,0
98074,41,-2046,280,-63,-10,-40,14498,10,-4,122,40,35436,-85,34,127,0,0,3856,-10,0,2720,126,46,5802,-4,0,34,0,98069,0
98084,60,-2037,287,-68,-11,-40,14495,-21,3,104,40,35432,-83,34,127,0,0,3852,0,0,2720,126,46,5812,-4,0,34,0,98069,0
98094,67,-2035,268,-78,-14,-45,14494,-9,-10,45,48,35426,-70,34,127,0,0,3852,5,0,2720,126,46,5822,-4,0,34,0,98069,0
98104,68,-2039,255,-82,-17,-41,14497,0,5,97,40,35433,-76,34,127,0,0,3856,16,0,2720,126,46,5832,-4,0,34,0,98100,0
98114,66,-2040,246,-77,-17,-48,14496,-10,-6,130,40,35430,-71,34,127,0,0,3856,27,0,2720,126,46,5842,-4,0,34,0,98116,0
98124,60,-2040,238,-76,-8,-47,14496,-9,-13,98,16,35429,-57,34,127,0,0,3857,38,0,2720,126,46,5852,-4,0,34,0,98116,0
98134,76,-2038,239,-69,-10,-43,14498,8,-2,147,40,35417,-70,34,127,0,0,3852,-32,0,2720,126,46,5862,-4,0,34,0,98116,0
98144,94,-2047,228,-65,-10,-43,14497,0,4,133,16,35426,-53,34,127,0,0,3857,-38,0,2720,126,46,5872,-4,0,34,0,98132,0
98154,64,-2036,232,-53,-6,-26,14499,12,0,169,32,35429,-62,34,127,0,0,3856,-27,0,2720,126,46,5882,-4,0,34,0,98147,0
98164,68,-2034,244,-55,-6,-22,14495,-16,2,110,16,35433,-51,34,127,0,0,3857,27,0,2720,126,46,5892,-4,0,34,0,98147,0
98174,45,-2034,254,-51,-9,-28,14498,15,-3,121,40,35428,-71,34,127,0,0,3856,5,0,2720,126,46,5902,-4,0,34,0,98179,0
98184,44,-2038,258,-55,-10,-28,14497,2,11,167,16,35426,-88,34,127,0,0,3854,-43,0,2720,126,46,5912,-4,0,34,0,98179,0
98194,9,-2045,263,-57,-4,-26,14495,-9,-7,89,64,35429,-88,34,127,0,0,3855,16,0,2720,126,46,5922,-4,0,34,0,98179,0
98204,57,-2032,239,-52,-10,-28,14498,-1,8,105,40,35431,-84,34,127,0,0,3852,-5,0,2720,126,46,5932,-4,0,34,0,98179,0
98214,33,-2041,238,-49,4,-31,14498,8,-2,153,40,35430,-79,34,127,0,0,3852,-60,0,2720,126,46,5942,-4,0,34,0,98210,0
98224,52,-2037,233,-44,-6,-32,14495,-8,-3,115,16,35429,-76,34,127,0,0,3857,10,0,2720,126,46,5952,-4,0,34,0,98210,0
98234,29,-2035,239,-36,0,-20,14499,14,2,163,56,35432,-82,34,127,0,0,3855,-21,0,2720,126,46,5962,-4,0,34,0,98210,0
98244,70,-2038,248,-34,-4,-26,14497,-14,8,181,64,35434,-76,34,127,0,0,3855,-10,0,2720,126,46,5972,-4,0,34,0,98225,0
98254,57,-2032,257,-38,-3,-33,14498,-4,-8,165,16,35433,-70,34,127,0,0,3857,-21,0,2720,126,46,5982,-4,0,34,0,98249,0
98264,29,-2034,254,-40,-3,-30,14496,-3,-4,140,40,35421,-69,34,127,0,0,3859,60,0,2720,126,46,5992,-4,0,34,0,98249,0
98274,72,-2037,250,-40,-6,-36,14498,-8,4,158,40,35421,-80,34,127,0,0,3856,21,0,2720,126,46,6002,-4,0,34,0,98264,0
98284,44,-2043,254,-39,-7,-41,14498,-1,0,156,40,35428,-80,34,127,0,0,3859,32,0,2720,126,46,6012,-4,0,34,0,98264,0
98294,61,-2042,260,-39,-9,-48,14498,-3,-3,137,16,35438,-63,34,127,0,0,3857,21,0,2720,126,46,6022,-4,0,34,0,98280,0
98304,27,-2037,250,-40,-2,-57,14500,24,2,184,32,35435,-65,34,127,0,0,3856,-32,0,2720,126,46,6032,-4,0,34,0,98295,0
98314,21,-2040,256,-40,-12,-63,14497,-7,3,173,64,35424,-74,34,127,0,0,3855,-21,0,2720,126,46,6042,-4,0,34,0,98295,0
98324,46,-2035,255,-42,-16,-59,14499,5,-2,148,56,35427,-99,34,127,0,0,3855,5,0,2720,126,46,6052,-4,0,34,0,98311,0
98334,67,-2045,251,-43,-6,-73,14498,0,2,144,40,35426,-93,34,127,0,0,3856,0,0,2720,126,46,6062,-4,0,34,0,98311,0
98344,63,-2040,248,-48,-15,-68,14498,0,-3,163,16,35423,-92,34,127,0,0,3860,21,0,2720,126,46,6072,-4,0,34,0,98327,0
98354,36,-2041,254,-42,-16,-59,14498,0,-1,162,64,35424,-81,34,127,0,0,3851,-27,0,2720,126,46,6082,-4,0,34,0,98358,0
98364,71,-2035,245,-44,-14,-68,14499,7,1,124,56,35423,-81,34,127,0,0,3858,5,0,2720,126,46,6092,-4,0,34,0,98374,0
98374,78,-2036,254,-44,-15,-73,14499,-1,6,176,32,35429,-82,34,127,0,0,3859,27,0,2720,126,46,6102,-4,0,34,0,98405,0
98384,46,-2038,260,-50,-15,-75,14499,7,1,175,8,35420,-86,34,127,0,0,3854,-38,0,2720,126,46,6112,-4,0,34,0,98405,0
98394,53,-2042,267,-46,-2,-97,14495,-4,-8,91,0,35413,-78,34,127,0,0,3855,-32,0,2720,126,46,6122,-4,0,34,0,98405,0
98404,32,-2041,265,-49,-1,-101,14494,3,4,52,24,35415,-94,34,127,0,0,3854,0,0,2720,126,46,6132,-4,0,34,0,98405,0
98414,60,-2041,271,-66,-8,-101,14494,-7,4,23,-48,35420,-94,34,127,0,0,3850,-38,0,2720,126,46,6142,-4,0,34,0,98405,0
98424,71,-2040,272,-69,-16,-113,14484,-17,-19,-5,-32,35417,-86,34,127,0,0,3844,-71,0,2720,126,46,6152,-4,0,34,0,98405,0
98434,51,-2044,253,-80,-8,-124,14469,-37,-21,-24,-24,35423,-71,34,127,0,0,3845,-49,0,2720,126,46,6162,-4,0,34,0,98420,0
98444,50,-2042,257,-76,-4,-129,14452,-36,-19,23,-8,35426,-72,34,127,0,0,3843,-10,0,2720,126,46,6172,-4,0,34,0,98452,0
98454,57,-2044,265,-76,-8,-125,14451,0,21,-92,-32,35430,-76,34,127,0,0,3837,-49,0,2720,126,46,6182,-4,0,34,0,98467,0
98464,73,-2036,264,-84,-9,-144,14438,-25,18,-225,-32,35425,-74,34,127,0,0,3835,-10,0,2720,126,46,6192,-4,0,34,0,98467,0
98474,38,-2035,248,-89,-12,-143,14436,-11,-2,-306,-96,35411,-79,34,127,0,0,3832,-38,0,2720,126,46,6202,-4,0,34,0,98467,0
98484,57,-2033,243,-90,-3,-158,14428,-16,2,-338,-128,35406,-87,34,127,0,0,3830,-16,0,2720,126,46,6212,-4,0,34,0,98467,0
98494,72,-2044,252,-92,-4,-164,14420,-26,-12,-422,-136,35412,-95,34,127,0,0,3822,-54,0,2720,126,46,6222,-4,0,34,0,98483,0
98504,70,-2044,246,-94,-11,-163,14398,-53,-25,-409,-144,35428,-78,34,127,0,0,3824,-27,0,2720,126,46,6232,-4,0,34,0,98483,0
98514,52,-2042,237,-88,-3,-170,14374,-45,-39,-349,-112,35435,-67,34,127,0,0,3812,-71,0,2720,126,46,6242,-4,0,34,0,98498,0
98524,91,-2041,236,-90,-8,-165,14371,5,43,-477,-176,35440,-94,34,127,0,0,3812,-93,0,2720,126,46,6252,-4,0,34,0,98530,0
98534,107,-2037,249,-76,-4,-147,14360,-33,31,-555,-208,35435,-97,34,127,0,0,3807,-38,0,2720,126,46,6262,-4,0,34,0,98546,0
98544,110,-2035,239,-76,-12,-130,14328,-91,-51,-477,-168,35430,-103,34,127,0,0,3805,-38,0,2720,126,46,6272,-4,0,34,0,98550,0
98554,71,-2037,220,-72,-2,-115,14290,-49,-58,-299,-136,35424,-109,34,127,0,0,3804,-54,0,2720,126,46,6282,-4,0,34,0,98550,0
98564,143,-2039,215,-58,-10,-92,14268,-51,34,-321,-96,35415,-118,34,127,0,0,3804,43,0,2720,126,46,6292,-4,0,34,0,98554,0
98574,116,-2043,215,-44,-10,-61,14258,3,49,-239,-64,35427,-153,34,127,0,0,3804,38,0,2720,126,46,6302,-4,0,34,0,98554,0
98584,130,-2039,222,-35,-10,-38,14260,-2,51,-278,-72,35440,-150,34,127,0,0,3804,43,0,2720,126,46,6312,-4,0,34,0,98585,0
98594,127,-2030,219,-30,-13,-22,14260,4,16,-252,-72,35445,-141,34,127,0,0,3801,-5,0,2720,126,46,6322,-4,0,34,0,98585,0
98604,86,-2037,223,-22,-5,-16,14258,-1,1,-258,-72,35440,-135,34,127,0,0,3804,32,0,2720,126,46,6332,-4,0,34,0,98585,0
98614,79,-2036,236,-20,-4,-8,14259,-1,1,-243,-72,35439,-127,34,127,0,0,3801,-16,0,2720,126,46,6342,-4,0,34,0,98616,0
98624,68,-2036,253,-23,-7,-8,14259,5,3,-256,-72,35432,-137,34,127,0,0,3801,-5,0,2720,126,46,6352,-4,0,34,0,98616,0
98634,58,-2040,271,-27,-9,-24,14259,4,-2,-255,-48,35429,-126,34,127,0,0,3803,21,0,2720,126,46,6362,-4,0,34,0,98616,0
98644,57,-2039,265,-31,-10,-17,14260,-6,6,-222,-72,35418,-138,34,127,0,0,3804,0,0,2720,126,46,6372,-4,0,34,0,98616,0
98654,46,-2035,258,-45,-11,-24,14260,8,2,-192,-48,35425,-141,34,127,0,0,3803,-5,0,2720,126,46,6382,-4,0,34,0,98663,0
98664,64,-2043,259,-43,-11,-40,14260,-9,-2,-211,-48,35423,-133,34,127,0,0,3806,38,0,2720,126,46,6392,-4,0,34,0,98663,0
98674,75,-2041,248,-47,-10,-42,14261,5,1,-172,-48,35427,-141,34,127,0,0,3806,38,0,2720,126,46,6402,-4,0,34,0,98663,0
98684,71,-2049,253,-46,-14,-51,14261,-4,3,-163,-48,35411,-136,34,127,0,0,3806,16,0,2720,126,46,6412,-4,0,34,0,98663,0
98694,86,-2041,240,-47,-17,-53,14262,1,-2,-162,-80,35420,-151,34,127,0,0,3804,-27,0,2720,126,46,6422,-4,0,34,0,98694,0
98704,71,-2049,234,-38,-16,-57,14260,12,-4,-197,-72,35424,-132,34,127,0,0,3804,-5,0,2720,126,46,6432,-4,0,34,0,98694,0
98714,78,-2031,230,-40,-16,-48,14259,-6,-4,-226,-48,35430,-136,34,127,0,0,3803,27,0,2720,126,46,6442,-4,0,34,0,98694,0
98724,97,-2037,232,-31,-10,-49,14259,-4,6,-210,-48,35433,-138,34,127,0,0,3803,0,0,2720,126,46,6452,-4,0,34,0,98772,0
98734,82,-2039,242,-35,-13,-36,14262,7,5,-188,-48,35426,-136,34,127,0,0,3800,-60,0,2720,126,46,6462,-4,0,34,0,98772,0
98744,89,-2033,246,-31,-13,-36,14258,-2,-10,-242,-40,35428,-151,34,127,0,0,3803,16,0,2720,126,46,6472,-4,0,34,0,98788,0
98754,75,-2032,235,-27,-18,-26,14260,-3,10,-211,-48,35426,-150,34,127,0,0,3806,10,0,2720,126,46,6482,-4,0,34,0,98788,0
98764,50,-2037,239,-22,-12,-23,14261,12,11,-153,-80,35419,-151,34,127,0,0,3807,5,0,2720,126,46,6492,-4,0,34,0,98788,0
98774,69,-2032,246,-27,-12,-21,14259,-7,-11,-176,-24,35416,-150,34,127,0,0,3805,60,0,2720,126,46,6502,-4,0,34,0,98788,0
98784,84,-2035,240,-19,-9,-16,14260,-7,2,-171,-32,35416,-153,34,127,0,0,3805,16,0,2720,126,46,6512,-4,0,34,0,98788,0
98794,66,-2038,236,-14,-14,-16,14261,4,0,-165,-56,35422,-163,34,127,0,0,3806,10,0,2720,126,46,6522,-4,0,34,0,98788,0
98804,74,-2046,242,-8,-10,-15,14266,26,6,-57,-32,35430,-149,34,127,0,0,3808,-27,0,2720,126,46,6532,-4,0,34,0,98788,0
98814,78,-2042,244,-10,-10,-7,14265,14,5,-7,-8,35435,-143,34,127,0,0,3811,21,0,2720,126,46,6542,-4,0,34,0,98788,0
98824,94,-2035,252,-8,-13,-1,14267,-7,-2,12,8,35443,-145,34,127,0,0,3810,0,0,2720,126,46,6552,-4,0,34,0,98819,0
98834,64,-2045,250,5,-9,6,14268,6,4,44,8,35445,-135,34,127,0,0,3813,5,0,2720,126,46,6562,-4,0,34,0,98835,0
98844,68,-2041,249,1,-9,-4,14268,7,1,80,8,35441,-131,34,127,0,0,3813,10,0,2720,126,46,6572,-4,0,34,0,98835,0
98854,68,-2039,238,3,-17,-7,14269,6,3,112,24,35427,-134,34,127,0,0,3818,65,0,2720,126,46,6582,-4,0,34,0,98835,0
98864,44,-2049,247,4,-12,0,14275,5,10,139,40,35424,-139,34,127,0,0,3817,76,0,2720,126,46,6592,-4,0,34,0,98835,0
98874,39,-2034,242,8,-15,-15,14277,6,5,200,56,35434,-152,34,127,0,0,3816,16,0,2720,126,46,6602,-4,0,34,0,98866,0
98884,52,-2043,234,9,-4,-16,14286,17,12,160,64,35439,-148,35,127,0,0,3815,5,0,2720,126,46,6612,-4,0,34,0,98866,0
98894,75,-2037,246,15,4,-26,14294,17,8,142,72,35439,-148,34,127,0,0,3821,54,0,2720,126,46,6622,-4,0,34,0,98866,0
98904,63,-2035,246,19,-2,-25,14309,14,17,51,16,35432,-127,34,127,0,0,3822,43,0,2720,126,46,6632,-4,0,34,0,98913,0
98914,61,-2040,252,10,-7,-27,14308,-1,-22,105,40,35436,-113,34,127,0,0,3821,43,0,2720,126,46,6642,-4,0,34,0,98929,0
98924,71,-2039,256,19,-5,-38,14315,13,-24,159,56,35438,-103,34,127,0,0,3823,21,0,2720,126,46,6652,-4,0,34,0,98929,0
98934,74,-2040,264,14,-7,-30,14316,1,6,204,48,35438,-91,34,127,0,0,3823,0,0,2720,126,46,6662,-4,0,34,0,98929,0
98944,77,-2040,267,15,1,-34,14318,3,-17,223,48,35423,-111,34,127,0,0,3823,-16,0,2720,126,46,6672,-4,0,34,0,98929,0
98954,62,-2037,258,11,-12,-34,14315,-9,-5,156,24,35430,-117,34,127,0,0,3821,-21,0,2720,126,46,6682,-4,0,34,0,98929,0
98964,70,-2037,250,20,-4,-38,14317,2,0,158,48,35443,-108,34,127,0,0,3819,-43,0,2720,126,46,6692,-4,0,34,0,98960,0
98974,62,-2033,251,23,-7,-44,14318,11,6,224,48,35445,-104,34,127,0,0,3823,-49,0,2720,126,46,6702,-4,0,34,0,98960,0
98984,80,-2033,249,22,-11,-44,14318,-11,-2,193,72,35436,-96,34,127,0,0,3822,0,0,2720,126,46,6712,-4,0,34,0,98991,0
98994,69,-2029,250,21,0,-48,14320,-4,-1,168,48,35428,-115,34,127,0,0,3826,32,0,2720,126,46,6722,-4,0,34,0,98991,0
99004,43,-2035,252,29,0,-48,14323,11,10,254,40,35430,-116,34,127,0,0,3826,-5,0,2720,126,46,6732,-4,0,34,0,98991,0
99014,62,-2043,264,30,-8,-43,14320,-5,-4,222,40,35436,-117,34,127,0,0,3826,10,0,2720,126,46,6742,-4,0,34,0,98991,0
99024,79,-2033,265,26,-1,-54,14323,8,0,247,56,35442,-116,34,127,0,0,3828,5,0,2720,126,46,6752,-4,0,34,0,99007,0
99034,97,-2034,270,28,-9,-55,14323,3,2,258,56,35444,-111,35,127,0,0,3825,10,0,2720,126,46,6762,-4,0,34,0,99038,0
99044,92,-2049,274,20,-11,-46,14322,-3,-2,227,40,35444,-116,34,127,0,0,3826,-5,0,2720,126,46,6772,-4,0,34,0,99038,0
99054,74,-2042,267,24,-13,-35,14321,-2,1,215,64,35444,-120,34,127,0,0,3822,-16,0,2720,126,46,6782,-4,0,34,0,99038,0
99064,103,-2037,264,23,-8,-38,14322,1,1,205,40,35430,-114,34,127,0,0,3823,-43,0,2720,126,46,6792,-4,0,34,0,99054,0
99074,63,-2043,258,27,-13,-28,14321,0,1,195,40,35428,-104,34,127,0,0,3826,0,0,2720,126,46,6802,-4,0,34,0,99085,0
99084,68,-2034,260,29,-4,-26,14323,1,3,246,56,35431,-103,34,127,0,0,3825,10,0,2720,126,46,6812,-4,0,34,0,99085,0
99094,70,-2044,255,29,-13,-15,14321,-12,-3,233,64,35438,-108,34,127,0,0,3825,0,0,2720,126,46,6822,-4,0,34,0,99116,0
99104,76,-2026,254,33,-11,-8,14323,1,-4,227,56,35442,-103,35,127,0,0,3825,0,0,2720,126,46,6832,-4,0,34,0,99116,0
99114,78,-2041,269,36,-13,3,14322,3,3,248,88,35433,-121,34,127,0,0,3830,43,0,2720,126,46,6842,-4,0,34,0,99132,0
99124,70,-2038,273,36,-8,3,14327,11,12,338,96,35436,-122,34,127,0,0,3829,16,0,2720,126,46,6852,-4,0,34,0,99132,0
99134,88,-2037,276,35,-19,17,14330,3,1,339,112,35439,-129,34,127,0,0,3832,38,0,2720,126,46,6862,-4,0,34,0,99132,0
99144,73,-2039,275,33,-16,27,14333,0,-8,370,112,35446,-115,34,127,0,0,3832,16,0,2720,126,46,6872,-4,0,34,0,99147,0
99154,70,-2018,282,34,-16,30,14336,3,0,389,128,35439,-111,34,127,0,0,3837,71,0,2720,126,46,6882,-4,0,34,0,99147,0
99164,53,-2027,276,32,-6,34,14346,26,12,391,104,35429,-114,34,127,0,0,3837,54,0,2720,126,46,6892,-4,0,34,0,99147,0
99174,61,-2023,278,27,-14,25,14365,66,30,374,136,35432,-91,34,127,0,0,3840,43,0,2720,126,46,6902,-4,0,34,0,99147,0
99184,80,-2021,276,25,-21,41,14399,64,54,233,72,35440,-89,34,127,0,0,3840,0,0,2720,126,46,6912,-4,0,34,0,99194,0
99194,62,-2030,285,22,-22,31,14403,-2,-36,285,88,35439,-88,34,127,0,0,3843,0,0,2720,126,46,6922,-4,0,34,0,99194,0
99204,48,-2031,273,21,-16,35,14406,15,-63,356,104,35435,-79,34,127,0,0,3851,49,0,2720,126,46,6932,-4,0,34,0,99194,0
99214,60,-2024,286,21,-8,31,14419,37,21,349,128,35424,-76,34,127,0,0,3852,82,0,2720,126,46,6942,-4,0,34,0,99194,0
99224,49,-2039,281,14,-17,37,14444,48,45,249,120,35425,-66,34,127,0,0,3847,49,0,2720,126,46,6952,-4,0,34,0,99210,0
99234,56,-2042,296,11,-24,26,14446,-12,-22,337,120,35435,-63,34,127,0,0,3854,-21,0,2720,126,46,6962,-4,0,34,0,99210,0
99244,42,-2037,288,4,-17,26,14446,-6,-45,380,144,35447,-64,34,127,0,0,3852,0,0,2720,126,46,6972,-4,0,34,0,99241,0
99254,52,-2036,290,0,-16,20,14450,1,0,406,160,35444,-82,34,127,0,0,3858,27,0,2720,126,46,6982,-4,0,34,0,99241,0
99264,45,-2039,283,4,-15,18,14454,7,2,483,168,35437,-100,34,127,0,0,3860,21,0,2720,126,46,6992,-4,0,34,0,99241,0
99274,48,-2044,288,-10,-21,17,14462,18,12,544,176,35437,-101,34,127,0,0,3866,21,0,2720,126,46,7002,-4,0,34,0,99272,0
99284,48,-2039,280,-11,-18,9,14468,11,0,552,168,35439,-104,34,127,0,0,3866,43,0,2720,126,46,7012,-4,0,34,0,99272,0
99294,41,-2040,283,-16,-8,1,14476,25,4,556,176,35439,-94,34,127,0,0,3868,32,0,2720,126,46,7022,-4,0,34,0,99272,0
99304,41,-2043,280,-13,-13,-4,14495,51,22,483,160,35439,-100,34,127,0,0,3867,21,0,2720,126,46,7032,-4,0,34,0,99319,0
99314,48,-2027,284,-19,-16,-8,14518,40,30,393,136,35429,-86,34,127,0,0,3869,5,0,2720,126,46,7042,-4,0,34,0,99319,0
99324,41,-2034,274,-14,-10,-19,14518,-10,-31,478,136,35422,-76,34,127,0,0,3872,10,0,2720,126,46,7052,-4,0,34,0,99319,0
99334,37,-2032,279,-15,-7,-28,14520,3,-41,485,136,35424,-78,34,127,0,0,3869,-32,0,2720,126,46,7062,-4,0,34,0,99335,0
99344,36,-2028,281,-16,-7,-39,14523,11,-6,500,152,35422,-73,34,127,0,0,3871,-38,0,2720,126,46,7072,-4,0,34,0,99335,0
99354,35,-2031,284,-20,-8,-37,14524,7,4,497,152,35436,-70,34,127,0,0,3871,-27,0,2720,126,46,7082,-4,0,34,0,99335,0
99364,42,-2027,287,-22,-9,-45,14523,-9,-6,471,128,35433,-83,34,127,0,0,3872,21,0,2720,126,46,7092,-4,0,34,0,99366,0
99374,45,-2029,284,-23,-7,-49,14524,1,3,469,152,35432,-77,34,127,0,0,3871,5,0,2720,126,46,7102,-4,0,34,0,99366,0
99384,43,-2034,285,-25,-2,-52,14525,3,0,458,144,35426,-88,34,127,0,0,3871,21,0,2720,126,46,7112,-4,0,34,0,99366,0
99394,40,-2038,288,-27,-1,-59,14526,8,7,488,144,35429,-74,34,127,0,0,3874,5,0,2720,126,46,7122,-4,0,34,0,99366,0
99404,32,-2034,291,-31,-12,-61,14529,3,13,483,136,35426,-76,34,127,0,0,3871,10,0,2720,126,46,7132,-4,0,34,0,99413,0
99414,31,-2031,281,-34,-12,-62,14531,3,-3,468,136,35423,-79,34,127,0,0,3871,-32,0,2720,126,46,7142,-4,0,34,0,99413,0
99424,46,-2038,272,-31,-6,-70,14530,-7,-3,418,136,35420,-82,34,127,0,0,3871,5,0,2720,126,46,7152,-4,0,34,0,99413,0
99434,48,-2039,274,-34,-8,-77,14532,4,2,441,136,35421,-76,34,127,0,0,3868,-60,0,2720,126,46,7162,-4,0,34,0,99413,0
99444,62,-2033,291,-37,-13,-75,14532,0,-6,413,136,35433,-62,34,127,0,0,3871,5,0,2720,126,46,7172,-4,0,34,0,99444,0
99454,62,-2037,289,-43,-14,-69,14532,1,-2,404,136,35430,-64,34,127,0,0,3871,21,0,2720,126,46,7182,-4,0,34,0,99460,0
99464,41,-2037,276,-43,-11,-68,14533,2,-1,418,128,35424,-72,34,127,0,0,3868,-5,0,2720,126,46,7192,-4,0,34,0,99460,0
99474,40,-2041,286,-38,-8,-71,14532,1,-2,405,136,35418,-66,34,127,0,0,3871,10,0,2720,126,46,7202,-4,0,34,0,99460,0
99484,61,-2034,293,-40,-4,-72,14532,0,-4,402,112,35425,-72,34,127,0,0,3869,5,0,2720,126,46,7212,-4,0,34,0,99475,0
99494,72,-2033,293,-49,-12,-72,14531,-1,-2,391,136,35426,-78,34,127,0,0,3871,38,0,2720,126,46,7222,-4,0,34,0,99491,0
99504,60,-2038,290,-50,-13,-65,14534,1,-2,423,136,35428,-84,34,127,0,0,3871,0,0,2720,126,46,7232,-4,0,34,0,99507,0
99514,70,-2034,285,-58,-6,-69,14537,10,8,435,72,35427,-78,34,127,0,0,3870,-16,0,2720,126,46,7242,-4,0,34,0,99507,0
99524,68,-2038,293,-54,-6,-67,14537,-2,-8,374,104,35424,-77,34,127,0,0,3869,0,0,2720,126,46,7252,-4,0,34,0,99507,0
99534,65,-2030,290,-62,-11,-60,14538,2,-4,380,72,35430,-84,34,127,0,0,3870,-5,0,2720,126,46,7262,-4,0,34,0,99553,0
99544,53,-2026,290,-60,-9,-69,14539,12,0,391,96,35428,-72,34,127,0,0,3869,-27,0,2720,126,46,7272,-4,0,34,0,99553,0
99554,59,-2033,290,-62,-16,-64,14537,-4,3,329,96,35427,-85,34,127,0,0,3869,5,0,2720,126,46,7282,-4,0,34,0,99553,0
99564,51,-2033,288,-68,-17,-74,14538,5,5,356,96,35425,-79,34,127,0,0,3866,-27,0,2720,126,46,7292,-4,0,34,0,99553,0
99574,55,-2029,294,-67,-14,-74,14537,-5,3,305,96,35414,-69,34,127,0,0,3866,5,0,2720,126,46,7302,-4,0,34,0,99553,0
99584,62,-2028,290,-68,-5,-73,14537,2,-4,291,72,35419,-72,34,127,0,0,3867,10,0,2720,126,46,7312,-4,0,34,0,99569,0
99594,54,-2037,282,-74,-14,-82,14534,-12,4,266,56,35427,-64,34,127,0,0,3864,-16,0,2720,126,46,7322,-4,0,34,0,99585,0
99604,43,-2032,281,-74,-9,-84,14530,-10,-12,233,88,35433,-70,34,127,0,0,3863,32,0,2720,126,46,7332,-4,0,34,0,99585,0
99614,64,-2040,290,-77,-17,-87,14533,0,5,232,40,35439,-64,34,127,0,0,3862,-32,0,2720,126,46,7342,-4,0,34,0,99585,0
99624,59,-2037,287,-78,-16,-101,14523,-21,-8,211,56,35434,-70,34,127,0,0,3862,0,0,2720,126,46,7352,-4,0,34,0,99647,0
99634,60,-2036,276,-87,-19,-101,14523,-13,-5,161,8,35435,-90,34,127,0,0,3858,-32,0,2720,126,46,7362,-4,0,34,0,99647,0
99644,63,-2032,274,-75,-3,-109,14517,-13,3,118,24,35440,-95,34,127,0,0,3858,-38,0,2720,126,46,7372,-4,0,34,0,99663,0
99654,71,-2040,276,-77,-8,-109,14512,-8,-8,29,-16,35440,-88,34,127,0,0,3854,-21,0,2720,126,46,7382,-4,0,34,0,99663,0
99664,67,-2035,282,-81,-8,-108,14505,-9,3,-14,0,35426,-82,34,127,0,0,3854,0,0,2720,126,46,7392,-4,0,34,0,99663,0
99674,81,-2030,273,-71,-9,-93,14507,-3,11,-46,-8,35419,-87,34,127,0,0,3850,-27,0,2720,126,46,7402,-4,0,34,0,99663,0
99684,75,-2038,272,-75,-16,-96,14501,-6,2,-81,-16,35422,-103,34,127,0,0,3851,-5,0,2720,126,46,7412,-4,0,34,0,99663,0
99694,85,-2035,277,-71,-16,-82,14502,-9,-1,-110,-40,35435,-82,34,127,0,0,3852,16,0,2720,126,46,7422,-4,0,34,0,99678,0
99704,61,-2032,273,-75,-17,-75,14495,-20,-1,-153,-32,35448,-86,34,127,0,0,3846,0,0,2720,126,46,7432,-4,0,34,0,99694,0
99714,74,-2033,276,-72,-12,-79,14489,-17,-8,-167,-40,35444,-69,34,127,0,0,3844,-49,0,2720,126,46,7442,-4,0,34,0,99710,0
99724,80,-2031,271,-65,-7,-75,14484,-4,-4,-143,-32,35433,-87,34,127,0,0,3847,-16,0,2720,126,46,7452,-4,0,34,0,99710,0
99734,81,-2032,277,-63,-10,-75,14481,-9,7,-147,-48,35429,-72,34,127,0,0,3848,27,0,2720,126,46,7462,-4,0,34,0,99725,0
99744,60,-2037,275,-63,-11,-73,14473,-9,-1,-43,-32,35426,-65,34,127,0,0,3841,-65,0,2720,126,46,7472,-4,0,34,0,99725,0
99754,69,-2030,262,-60,-15,-71,14457,-50,-23,-102,0,35431,-79,34,127,0,0,3845,32,0,2720,126,46,7482,-4,0,34,0,99725,0
99764,63,-2037,256,-56,-5,-70,14457,13,5,-22,-40,35430,-85,34,127,0,0,3847,-5,0,2720,126,46,7492,-4,0,34,0,99757,0
99774,66,-2031,276,-52,-10,-64,14455,7,33,-13,-16,35429,-106,34,127,0,0,3846,27,0,2720,126,46,7502,-4,0,34,0,99772,0
99784,67,-2038,276,-51,-11,-62,14452,-20,0,-68,-8,35433,-96,34,127,0,0,3843,27,0,2720,126,46,7512,-4,0,34,0,99772,0
99794,71,-2040,268,-54,-11,-61,14456,5,4,-26,-40,35429,-99,34,127,0,0,3844,-38,0,2720,126,46,7522,-4,0,34,0,99772,0
99804,70,-2040,272,-53,-12,-65,14452,0,-1,-52,-32,35435,-96,34,127,0,0,3844,0,0,2720,126,46,7532,-4,0,34,0,99788,0
99814,84,-2036,270,-51,-6,-56,14452,12,-8,-64,-8,35438,-83,34,127,0,0,3839,-5,0,2720,126,46,7542,-4,0,34,0,99788,0
99824,90,-2035,274,-57,-10,-54,14450,-7,-6,-122,-32,35450,-89,34,127,0,0,3844,16,0,2720,126,46,7552,-4,0,34,0,99882,0
99834,79,-2030,280,-53,-13,-44,14448,-6,-1,-123,-8,35442,-81,34,127,0,0,3839,16,0,2720,126,46,7562,-4,0,34,0,99882,0
99844,75,-2024,279,-50,-8,-52,14450,0,4,-88,-8,35435,-84,34,127,0,0,3843,-16,0,2720,126,46,7572,-4,0,34,0,99882,0
99854,80,-2040,279,-53,-13,-55,14449,-1,2,-89,-8,35436,-91,34,127,0,0,3839,0,0,2720,126,46,7582,-4,0,34,0,99882,0
99864,78,-2035,282,-51,-11,-53,14450,0,-2,-91,-32,35427,-86,35,127,0,0,3844,-10,0,2720,126,46,7592,-4,0,34,0,99897,0
99874,52,-2043,283,-53,-10,-46,14449,2,7,-91,-32,35427,-80,34,127,0,0,3840,-16,0,2720,126,46,7602,-4,0,34,0,99897,0
99884,58,-2034,285,-63,-14,-53,14450,9,-2,-102,-32,35422,-66,34,127,0,0,3840,-16,0,2720,126,46,7612,-4,0,34,0,99897,0
99894,67,-2037,275,-59,-15,-58,14445,-14,-4,-137,-24,35423,-77,34,127,0,0,3840,27,0,2720,126,46,7622,-4,0,34,0,99897,0
99904,84,-2045,277,-58,-12,-53,14445,-20,2,-168,-24,35426,-88,34,127,0,0,3840,21,0,2720,126,46,7632,-4,0,34,0,99897,0
99914,84,-2033,278,-63,-5,-54,14448,12,7,-110,-24,35433,-77,34,127,0,0,3840,0,0,2720,126,46,7642,-4,0,34,0,99897,0
99924,74,-2036,286,-61,-16,-52,14446,-3,-4,-98,-24,35442,-82,34,127,0,0,3837,-32,0,2720,126,46,7652,-4,0,34,0,99897,0
99934,61,-2044,281,-65,-10,-54,14446,5,-10,-153,-48,35451,-74,34,127,0,0,3835,-65,0,2720,126,46,7662,-4,0,34,0,99928,0
99944,90,-2036,278,-64,-3,-50,14443,1,-2,-213,-64,35453,-93,34,127,0,0,3836,-32,0,2720,126,46,7672,-4,0,34,0,99928,0
99954,65,-2032,279,-69,-9,-49,14443,12,2,-188,-40,35450,-78,34,127,0,0,3841,32,0,2720,126,46,7682,-4,0,34,0,99944,0
99964,67,-2036,285,-71,-12,-42,14440,-16,8,-202,-40,35438,-79,34,127,0,0,3835,10,0,2720,126,46,7692,-4,0,34,0,99944,0
99974,88,-2026,267,-76,-8,-51,14442,2,-4,-210,-56,35442,-98,35,127,0,0,3839,10,0,2720,126,46,7702,-4,0,34,0,99975,0
99984,63,-2027,269,-71,-13,-51,14441,-5,6,-202,-56,35447,-98,34,127,0,0,3839,27,0,2720,126,46,7712,-4,0,34,0,99975,0
99994,73,-2027,269,-66,-3,-50,14442,1,2,-199,-64,35453,-94,34,127,0,0,3836,-5,0,2720,126,46,7722,-4,0,34,0,99975,0
100004,53,-2041,274,-72,-2,-56,14441,5,0,-215,-56,35446,-85,34,127,0,0,3836,5,0,2720,126,46,7732,-4,0,34,0,100006,0
100014,71,-2034,269,-79,-8,-57,14437,-23,-5,-288,-80,35445,-73,34,127,0,0,3837,38,0,2720,126,46,7742,-4,0,34,0,100006,0
100024,45,-2042,263,-75,-6,-58,14437,5,-6,-299,-72,35444,-81,34,127,0,0,3837,43,0,2720,126,46,7752,-4,0,34,0,100006,0
100034,70,-2036,272,-77,-3,-62,14437,0,12,-295,-72,35451,-64,34,127,0,0,3830,-21,0,2720,126,46,7762,-4,0,34,0,100006,0
100044,70,-2044,279,-75,-6,-74,14435,0,-7,-336,-96,35448,-58,34,127,0,0,3832,-32,0,2720,126,46,7772,-4,0,34,0,100038,0
100054,81,-2030,282,-83,-9,-68,14431,-14,-4,-378,-88,35447,-58,34,127,0,0,3832,0,0,2720,126,46,7782,-4,0,34,0,100038,0
100064,65,-2028,276,-81,-5,-68,14431,0,-1,-356,-88,35446,-88,34,127,0,0,3828,-32,0,2720,126,46,7792,-4,0,34,0,100038,0
100074,80,-2025,279,-90,-3,-69,14429,-6,-1,-372,-104,35450,-92,34,127,0,0,3829,-21,0,2720,126,46,7802,-4,0,34,0,100069,0
100084,76,-2024,274,-93,-8,-67,14428,-2,-6,-411,-104,35441,-84,34,127,0,0,3833,38,0,2720,126,46,7812,-4,0,34,0,100069,0
100094,74,-2034,272,-90,-2,-65,14424,-5,-2,-392,-120,35435,-82,34,127,0,0,3827,0,0,2720,126,46,7822,-4,0,34,0,100069,0
100104,77,-2036,269,-94,-4,-72,14417,-33,-7,-435,-104,35434,-79,34,127,0,0,3824,-32,0,2720,126,46,7832,-4,0,34,0,100100,0
100114,65,-2052,275,-102,-1,-77,14411,-23,-13,-380,-96,35439,-60,34,127,0,0,3827,-16,0,2720,126,46,7842,-4,0,34,0,100100,0
100124,67,-2056,274,-106,-3,-71,14410,-4,6,-391,-112,35448,-58,34,127,0,0,3828,0,0,2720,126,46,7852,-4,0,34,0,100131,0
100134,63,-2039,271,-116,3,-86,14398,-25,-4,-347,-112,35443,-51,34,127,0,0,3826,5,0,2720,126,46,7862,-4,0,34,0,100131,0
100144,58,-2043,274,-112,8,-95,14388,-14,-17,-308,-72,35433,-88,34,127,0,0,3822,0,0,2720,126,46,7872,-4,0,34,0,100147,0
100154,73,-2030,288,-118,-8,-96,14384,-23,18,-446,-112,35434,-80,34,127,0,0,3821,54,0,2720,126,46,7882,-4,0,34,0,100147,0
100164,40,-2037,279,-122,-3,-107,14380,0,8,-421,-152,35433,-81,35,127,0,0,3819,-21,0,2720,126,46,7892,-4,0,34,0,100147,0
100174,65,-2038,276,-132,5,-120,14376,-3,8,-445,-144,35436,-77,34,127,0,0,3816,-21,0,2720,126,46,7902,-4,0,34,0,100147,0
100184,72,-2040,267,-133,0,-118,14373,-12,4,-510,-136,35436,-72,34,127,0,0,3810,-21,0,2720,126,46,7912,-4,0,34,0,100241,0
100194,83,-2034,261,-124,-3,-125,14366,-20,-11,-545,-168,35441,-88,34,127,0,0,3808,-32,0,2720,126,46,7922,-4,0,34,0,100272,0
100204,85,-2039,251,-130,3,-122,14355,-31,-10,-539,-192,35440,-84,34,127,0,0,3807,-65,0,2720,126,46,7932,-4,0,34,0,100272,0
100214,100,-2033,245,-134,0,-113,14322,-98,-45,-445,-152,35434,-78,34,127,0,0,3805,10,0,2720,126,46,7942,-4,0,34,0,100272,0
100224,55,-2042,235,-123,4,-120,14290,-45,-59,-298,-112,35422,-93,34,127,0,0,3803,-38,0,2720,126,46,7952,-4,0,34,0,100288,0
100234,120,-2032,246,-112,1,-102,14278,-27,49,-339,-112,35417,-120,34,127,0,0,3801,-38,0,2720,126,46,7962,-4,0,34,0,100288,0
100244,115,-2030,249,-116,-9,-87,14260,-47,29,-328,-72,35421,-150,34,127,0,0,3801,21,0,2720,126,46,7972,-4,0,34,0,100288,0
100254,96,-2025,242,-102,-3,-78,14256,1,8,-369,-88,35426,-147,34,127,0,0,3802,93,0,2720,126,46,7982,-4,0,34,0,100288,0
100264,86,-2028,244,-93,-1,-69,14256,-4,41,-359,-88,35419,-145,34,127,0,0,3795,10,0,2720,126,46,7992,-4,0,34,0,100288,0
100274,79,-2027,242,-90,0,-69,14256,5,7,-349,-136,35414,-152,34,127,0,0,3797,-54,0,2720,126,46,8002,-4,0,34,0,100288,0
100284,88,-2032,246,-93,-7,-67,14254,0,-10,-386,-104,35420,-154,34,127,0,0,3796,0,0,2720,126,46,8012,-4,0,34,0,100288,0
100294,84,-2027,243,-91,-3,-64,14252,-4,0,-396,-104,35427,-146,34,127,0,0,3796,0,0,2720,126,46,8022,-4,0,34,0,100288,0
100304,79,-2037,248,-86,-2,-63,14254,-1,0,-419,-128,35427,-148,34,127,0,0,3791,-60,0,2720,126,46,8032,-4,0,34,0,100288,0
100314,70,-2032,240,-83,-3,-70,14248,1,-10,-446,-144,35427,-144,34,127,0,0,3799,10,0,2720,126,46,8042,-4,0,34,0,100288,0
100324,73,-2041,240,-77,-2,-65,14250,-2,6,-438,-120,35443,-151,34,127,0,0,3791,-21,0,2720,126,46,8052,-4,0,34,0,100335,0
100334,73,-2040,250,-72,-9,-70,14247,0,4,-505,-136,35444,-137,34,127,0,0,3792,0,0,2720,126,46,8062,-4,0,34,0,100335,0
100344,74,-2048,247,-68,-2,-73,14245,-1,2,-531,-160,35435,-145,34,127,0,0,3790,-5,0,2720,126,46,8072,-4,0,34,0,100335,0
100354,71,-2044,248,-64,2,-86,14243,-1,-3,-518,-128,35415,-136,34,127,0,0,3792,32,0,2720,126,46,8082,-4,0,34,0,100335,0
100364,78,-2039,256,-65,-5,-89,14240,-29,1,-568,-152,35416,-156,34,127,0,0,3786,-5,0,2720,126,46,8092,-4,0,34,0,100366,0
100374,75,-2042,247,-69,-9,-100,14236,-14,-8,-610,-184,35424,-152,34,127,0,0,3785,-5,0,2720,126,46,8102,-4,0,34,0,100366,0
100384,78,-2033,257,-64,-7,-110,14230,-15,-13,-582,-176,35434,-138,34,127,0,0,3785,0,0,2720,126,46,8112,-4,0,34,0,100381,0
100394,81,-2038,253,-68,-1,-114,14224,-20,0,-590,-184,35439,-136,34,127,0,0,3783,-32,0,2720,126,46,8122,-4,0,34,0,100381,0
100404,79,-2052,249,-69,-6,-115,14195,-76,-36,-462,-152,35439,-121,34,127,0,0,3781,-16,0,2720,126,46,8132,-4,0,34,0,100381,0
100414,73,-2038,246,-62,4,-124,14171,-33,-32,-444,-128,35441,-131,34,127,0,0,3779,16,0,2720,126,46,8142,-4,0,34,0,100397,0
100424,106,-2044,244,-62,-3,-116,14164,-14,43,-492,-160,35446,-107,34,127,0,0,3778,10,0,2720,126,46,8152,-4,0,34,0,100428,0
100434,96,-2034,240,-65,-4,-112,14147,-52,15,-436,-152,35438,-100,34,127,0,0,3776,5,0,2720,126,46,8162,-4,0,34,0,100428,0
100444,95,-2037,236,-62,2,-117,14122,-48,-33,-324,-128,35424,-98,34,127,0,0,3777,16,0,2720,126,46,8172,-4,0,34,0,100428,0
100454,116,-2035,241,-49,6,-97,14118,3,25,-325,-120,35418,-101,34,127,0,0,3770,-10,0,2720,126,46,8182,-4,0,34,0,100428,0
100464,131,-2031,242,-49,1,-86,14116,-9,45,-393,-136,35425,-81,34,127,0,0,3771,-5,0,2720,126,46,8192,-4,0,34,0,100459,0
100474,112,-2039,244,-46,-4,-66,14118,10,3,-399,-136,35431,-82,34,127,0,0,3768,-32,0,2720,126,46,8202,-4,0,34,0,100459,0
100484,104,-2033,238,-37,-4,-58,14116,11,4,-398,-136,35427,-86,34,127,0,0,3765,-76,0,2720,126,46,8212,-4,0,34,0,100459,0
100494,109,-2041,247,-40,-5,-48,14112,-6,-7,-423,-128,35424,-115,34,127,0,0,3768,-27,0,2720,126,46,8222,-4,0,34,0,100475,0
100504,112,-2045,247,-38,-3,-36,14112,-5,8,-423,-128,35425,-109,34,127,0,0,3765,-21,0,2720,126,46,8232,-4,0,34,0,100506,0
100514,101,-2036,243,-35,0,-34,14112,0,4,-440,-128,35428,-99,34,127,0,0,3768,-5,0,2720,126,46,8242,-4,0,34,0,100506,0
100524,76,-2046,248,-39,-14,-33,14110,6,0,-402,-128,35424,-84,34,127,0,0,3768,-16,0,2720,126,46,8252,-4,0,34,0,100506,0
100534,83,-2035,255,-41,-5,-30,14111,0,-1,-408,-120,35421,-94,34,127,0,0,3768,0,0,2720,126,46,8262,-4,0,34,0,100506,0
100544,88,-2028,260,-42,-9,-30,14111,3,3,-427,-128,35430,-89,34,127,0,0,3768,5,0,2720,126,46,8272,-4,0,34,0,100538,0
100554,88,-2038,261,-53,-7,-38,14108,-4,-2,-432,-120,35433,-79,34,127,0,0,3768,5,0,2720,126,46,8282,-4,0,34,0,100538,0
100564,75,-2030,261,-63,-13,-40,14105,-9,-3,-418,-112,35428,-90,34,127,0,0,3768,0,0,2720,126,46,8292,-4,0,34,0,100538,0
100574,81,-2035,275,-66,-9,-45,14105,0,6,-426,-112,35424,-96,34,127,0,0,3768,16,0,2720,126,46,8302,-4,0,34,0,100569,0
100584,89,-2042,273,-82,-19,-54,14104,-1,0,-366,-112,35427,-95,34,127,0,0,3768,-16,0,2720,126,46,8312,-4,0,34,0,100569,0
100594,100,-2041,264,-104,-24,-54,14102,-9,-4,-394,-104,35439,-83,34,127,0,0,3765,-5,0,2720,126,46,8322,-4,0,34,0,100569,0
100604,100,-2041,265,-96,-19,-61,14100,-3,-5,-374,-104,35434,-92,34,127,0,0,3768,-16,0,2720,126,46,8332,-4,0,34,0,100600,0
100614,76,-2036,248,-96,-24,-56,14098,-7,7,-374,-104,35424,-116,34,127,0,0,3768,0,0,2720,126,46,8342,-4,0,34,0,100600,0
100624,85,-2035,234,-102,-27,-56,14096,-3,-1,-363,-96,35428,-107,34,127,0,0,3768,0,0,2720,126,46,8352,-4,0,34,0,100600,0
100634,79,-2043,220,-94,-16,-68,14089,-22,-13,-334,-80,35433,-105,34,127,0,0,3761,-49,0,2720,126,46,8362,-4,0,34,0,100647,0
100644,102,-2035,222,-83,-16,-76,14078,-31,-11,-286,-88,35433,-99,34,127,0,0,3766,-27,0,2720,126,46,8372,-4,0,34,0,100647,0
100654,91,-2031,238,-78,-4,-83,14069,-8,-5,-239,-64,35427,-91,34,127,0,0,3766,0,0,2720,126,46,8382,-4,0,34,0,100647,0
100664,113,-2038,253,-82,-5,-78,14070,-5,25,-278,-64,35430,-97,34,127,0,0,3762,-16,0,2720,126,46,8392,-4,0,34,0,100647,0
100674,115,-2040,261,-82,-16,-65,14067,-11,11,-320,-112,35427,-92,34,127,0,0,3765,21,0,2720,126,46,8402,-4,0,34,0,100647,0
100684,103,-2043,245,-83,-21,-64,14066,0,-5,-317,-80,35439,-99,34,127,0,0,3760,-27,0,2720,126,46,8412,-4,0,34,0,100678,0
100694,105,-2035,244,-86,-14,-59,14064,3,7,-331,-104,35444,-93,34,127,0,0,3758,-54,0,2720,126,46,8422,-4,0,34,0,100694,0
100704,107,-2043,242,-77,-9,-56,14062,-4,-5,-356,-80,35448,-95,34,127,0,0,3760,-21,0,2720,126,46,8432,-4,0,34,0,100694,0
100714,106,-2036,234,-74,-12,-51,14062,-3,3,-377,-96,35443,-101,34,127,0,0,3758,-16,0,2720,126,46,8442,-4,0,34,0,100694,0
100724,104,-2045,222,-74,-17,-51,14061,5,0,-379,-96,35440,-93,35,127,0,0,3761,5,0,2720,126,46,8452,-4,0,34,0,100709,0
100734,112,-2036,230,-66,-4,-45,14059,-9,4,-367,-120,35444,-95,34,127,0,0,3762,21,0,2720,126,46,8462,-4,0,34,0,100709,0
100744,102,-2036,224,-59,-14,-43,14062,15,-3,-327,-96,35442,-87,34,127,0,0,3761,-16,0,2720,126,46,8472,-4,0,34,0,100756,0
100754,94,-2039,235,-57,-10,-36,14059,-5,0,-364,-136,35445,-72,34,127,0,0,3763,5,0,2720,126,46,8482,-4,0,34,0,100756,0
100764,85,-2043,240,-58,-7,-37,14061,14,-5,-332,-96,35438,-64,34,127,0,0,3761,0,0,2720,126,46,8492,-4,0,34,0,100756,0
100774,105,-2046,236,-57,-10,-37,14059,0,6,-338,-96,35429,-62,34,127,0,0,3765,21,0,2720,126,46,8502,-4,0,34,0,100756,0
100784,62,-2046,244,-59,-27,-28,14061,11,-1,-272,-96,35421,-92,34,127,0,0,3765,5,0,2720,126,46,8512,-4,0,34,0,100756,0
100794,65,-2047,248,-59,-19,-30,14060,-2,2,-283,-96,35436,-80,34,127,0,0,3765,0,0,2720,126,46,8522,-4,0,34,0,100772,0
100804,56,-2045,251,-65,-23,-36,14061,0,-1,-298,-72,35452,-78,34,127,0,0,3760,0,0,2720,126,46,8532,-4,0,34,0,100803,0
100814,58,-2042,239,-61,-11,-44,14061,7,11,-291,-120,35452,-87,34,127,0,0,3762,-65,0,2720,126,46,8542,-4,0,34,0,100803,0
100824,63,-2038,240,-65,-20,-58,14058,-2,-8,-344,-96,35433,-96,34,127,0,0,3765,49,0,2720,126,46,8552,-4,0,34,0,100803,0
100834,96,-2041,239,-66,-16,-65,14062,5,8,-265,-72,35433,-101,34,127,0,0,3760,-32,0,2720,126,46,8562,-4,0,34,0,100819,0
100844,96,-2041,244,-62,-12,-66,14058,-9,0,-302,-96,35444,-74,34,127,0,0,3761,-16,0,2720,126,46,8572,-4,0,34,0,100850,0
100854,90,-2037,248,-70,-20,-76,14059,-6,-12,-344,-88,35450,-58,34,127,0,0,3761,0,0,2720,126,46,8582,-4,0,34,0,100850,0
100864,93,-2048,243,-69,-20,-83,14060,5,10,-342,-96,35439,-64,34,127,0,0,3761,5,0,2720,126,46,8592,-4,0,34,0,100850,0
100874,76,-2044,239,-65,-5,-95,14059,7,1,-352,-136,35431,-80,34,127,0,0,3760,-16,0,2720,126,46,8602,-4,0,34,0,100850,0
100884,99,-2045,241,-60,-7,-99,14057,2,-3,-393,-160,35440,-80,34,127,0,0,3761,-5,0,2720,126,46,8612,-4,0,34,0,100881,0
100894,90,-2044,238,-62,-1,-90,14054,-2,0,-429,-152,35441,-61,34,127,0,0,3755,-32,0,2720,126,46,8622,-4,0,34,0,100881,0
100904,103,-2044,239,-60,-8,-91,14048,-13,-2,-502,-192,35437,-69,34,127,0,0,3750,-65,0,2720,126,46,8632,-4,0,34,0,100881,0
100914,90,-2043,230,-59,0,-91,14039,-9,-15,-443,-168,35438,-87,34,127,0,0,3754,-65,0,2720,126,46,8642,-4,0,34,0,100913,0
100924,115,-2029,233,-60,-11,-78,14035,-12,2,-498,-160,35441,-93,34,127,0,0,3757,43,0,2720,126,46,8652,-4,0,34,0,100928,0
100934,108,-2026,224,-53,-14,-66,14024,-28,-1,-439,-144,35444,-94,34,127,0,0,3744,-27,0,2720,126,46,8662,-4,0,34,0,100944,0
100944,130,-2027,219,-49,-14,-68,14006,-42,-29,-397,-104,35434,-92,34,127,0,0,3750,-16,0,2720,126,46,8672,-4,0,34,0,100959,0
100954,110,-2020,212,-39,-7,-59,13999,9,6,-380,-112,35429,-97,34,127,0,0,3745,-32,0,2720,126,46,8682,-4,0,34,0,100959,0
100964,116,-2025,225,-31,-8,-51,13998,0,40,-415,-112,35437,-95,34,127,0,0,3748,-10,0,2720,126,46,8692,-4,0,34,0,100975,0
100974,112,-2033,226,-24,-8,-37,13997,-8,8,-389,-112,35442,-93,34,127,0,0,3748,0,0,2720,126,46,8702,-4,0,34,0,100975,0
100984,113,-2035,230,-18,-11,-33,13999,6,0,-383,-112,35437,-101,34,127,0,0,3751,32,0,2720,126,46,8712,-4,0,34,0,100975,0
100994,113,-2038,229,-22,-7,-30,13999,1,2,-380,-112,35433,-95,34,127,0,0,3748,10,0,2720,126,46,8722,-4,0,34,0,100975,0
101004,108,-2034,230,-23,-4,-29,13998,0,-1,-373,-112,35448,-106,34,127,0,0,3751,27,0,2720,126,46,8732,-4,0,34,0,100975,0
101014,96,-2048,229,-9,-2,-29,13999,1,1,-357,-112,35454,-71,34,127,0,0,3751,27,0,2720,126,46,8742,-4,0,34,0,101022,0
101024,84,-2039,230,-10,1,-29,13999,5,0,-326,-88,35453,-68,34,127,0,0,3750,0,0,2720,126,46,8752,-4,0,34,0,101022,0
101034,114,-2041,231,-3,4,-32,13999,-6,-2,-344,-88,35439,-67,34,127,0,0,3747,-5,0,2720,126,46,8762,-4,0,34,0,101037,0
101044,133,-2047,232,-11,7,-28,13998,-7,-5,-392,-112,35428,-87,34,127,0,0,3748,0,0,2720,126,46,8772,-4,0,34,0,101037,0
101054,116,-2045,246,-8,-4,-17,13999,5,0,-373,-112,35427,-93,34,127,0,0,3751,27,0,2720,126,46,8782,-4,0,34,0,101037,0
101064,108,-2047,245,-7,0,-16,13999,0,2,-348,-88,35440,-89,34,127,0,0,3750,16,0,2720,126,46,8792,-4,0,34,0,101069,0
101074,128,-2044,248,-9,0,-11,13999,-3,0,-342,-88,35441,-93,34,127,0,0,3747,-5,0,2720,126,46,8802,-4,0,34,0,101069,0
101084,126,-2042,251,-6,5,-6,13999,-3,-1,-367,-112,35437,-101,34,127,0,0,3748,-32,0,2720,126,46,8812,-4,0,34,0,101069,0
101094,99,-2040,247,-6,2,7,13999,11,2,-317,-40,35436,-110,34,127,0,0,3748,-10,0,2720,126,46,8822,-4,0,34,0,101069,0
101104,148,-2034,256,-11,2,8,14000,-11,6,-319,-88,35439,-82,34,127,0,0,3750,-43,0,2720,126,46,8832,-4,0,34,0,101100,0
101114,97,-2033,252,-16,-2,22,14000,9,-4,-291,-48,35442,-85,34,127,0,0,3755,49,0,2720,126,46,8842,-4,0,34,0,101100,0
101124,93,-2031,253,-22,-9,25,14002,-3,5,-201,-48,35437,-87,34,127,0,0,3755,-5,0,2720,126,46,8852,-4,0,34,0,101100,0
101134,85,-2035,250,-25,-5,21,14003,4,-4,-180,-24,35441,-112,34,127,0,0,3760,38,0,2720,126,46,8862,-4,0,34,0,101131,0
101144,75,-2033,243,-33,-3,14,14005,8,6,-114,-32,35436,-78,34,127,0,0,3760,27,0,2720,126,46,8872,-4,0,34,0,101131,0
101154,72,-2048,259,-33,-1,5,14007,7,-3,-73,-8,35436,-82,34,127,0,0,3759,5,0,2720,126,46,8882,-4,0,34,0,101131,0
101164,69,-2048,271,-38,7,-6,14008,5,1,-35,8,35433,-71,34,127,0,0,3761,32,0,2720,126,46,8892,-4,0,34,0,101162,0
101174,86,-2049,270,-57,4,-21,14013,14,11,45,0,35430,-99,34,127,0,0,3765,10,0,2720,126,46,8902,-4,0,34,0,101162,0
101184,86,-2052,268,-59,2,-24,14017,8,2,60,16,35430,-94,34,127,0,0,3763,-10,0,2720,126,46,8912,-4,0,34,0,101162,0
101194,77,-2036,245,-63,5,-34,14018,7,-7,83,16,35429,-74,34,127,0,0,3767,16,0,2720,126,46,8922,-4,0,34,0,101178,0
101204,67,-2050,244,-61,2,-30,14019,-2,-3,45,-16,35434,-86,34,127,0,0,3765,21,0,2720,126,46,8932,-4,0,34,0,101194,0
101214,82,-2036,235,-66,2,-44,14019,14,0,66,32,35434,-84,34,127,0,0,3762,16,0,2720,126,46,8942,-4,0,34,0,101194,0
101224,90,-2034,246,-66,-4,-39,14018,-16,12,8,16,35436,-102,34,127,0,0,3763,16,0,2720,126,46,8952,-4,0,34,0,101209,0
101234,79,-2030,235,-64,-2,-44,14020,5,-6,29,8,35433,-67,34,127,0,0,3763,0,0,2720,126,46,8962,-4,0,34,0,101209,0
101244,84,-2029,241,-67,-5,-42,14018,-6,-1,17,16,35435,-69,34,127,0,0,3763,16,0,2720,126,46,8972,-4,0,34,0,101241,0
101254,96,-2033,239,-57,-1,-48,14021,2,3,19,8,35437,-65,34,127,0,0,3760,-32,0,2720,126,46,8982,-4,0,34,0,101241,0
101264,105,-2032,241,-66,-10,-46,14019,4,-1,7,8,35437,-79,34,127,0,0,3767,21,0,2720,126,46,8992,-4,0,34,0,101241,0
101274,111,-2028,245,-61,-12,-43,14020,-8,4,19,8,35435,-81,34,127,0,0,3763,38,0,2720,126,46,9002,-4,0,34,0,101256,0
101284,96,-2028,238,-57,-1,-51,14021,5,8,60,8,35431,-82,34,127,0,0,3763,-43,0,2720,126,46,9012,-4,0,34,0,101272,0
101294,76,-2035,236,-60,-10,-38,14019,-5,0,48,8,35431,-86,34,127,0,0,3763,-27,0,2720,126,46,9022,-4,0,34,0,101287,0
101304,91,-2041,234,-55,-13,-44,14021,4,-1,14,8,35436,-90,34,127,0,0,3767,32,0,2720,126,46,9032,-4,0,34,0,101303,0
101314,111,-2044,235,-57,-12,-50,14022,8,5,85,56,35430,-85,34,127,0,0,3765,21,0,2720,126,46,9042,-4,0,34,0,101319,0
101324,108,-2045,230,-53,-17,-38,14025,-14,4,-5,-48,35434,-90,34,127,0,0,3766,0,0,2720,126,46,9052,-4,0,34,0,101319,0
101334,82,-2031,239,-50,-13,-36,14022,12,-15,89,8,35422,-92,34,127,0,0,3767,10,0,2720,126,46,9062,-4,0,34,0,101334,0
101344,86,-2041,244,-47,-18,-35,14027,0,8,15,16,35424,-100,34,127,0,0,3766,43,0,2720,126,46,9072,-4,0,34,0,101334,0
101354,95,-2037,234,-49,-16,-40,14027,8,-2,42,-8,35428,-96,34,127,0,0,3763,-10,0,2720,126,46,9082,-4,0,34,0,101334,0
101364,91,-2031,235,-43,-12,-32,14024,-11,-8,-42,24,35427,-82,34,127,0,0,3762,27,0,2720,126,46,9092,-4,0,34,0,101350,0
101374,130,-2035,227,-47,-13,-33,14025,7,1,-34,0,35429,-90,34,127,0,0,3763,5,0,2720,126,46,9102,-4,0,34,0,101381,0
101384,87,-2041,236,-46,-15,-34,14027,21,10,61,16,35430,-99,34,127,0,0,3766,-10,0,2720,126,46,9112,-4,0,34,0,101381,0
101394,104,-2039,238,-38,-20,-32,14026,-7,-3,23,0,35433,-113,34,127,0,0,3767,21,0,2720,126,46,9122,-4,0,34,0,101381,0
101404,90,-2041,236,-39,-13,-26,14024,-7,-5,-9,24,35431,-95,34,127,0,0,3762,27,0,2720,126,46,9132,-4,0,34,0,101381,0
101414,83,-2037,237,-35,-19,-24,14030,11,8,42,16,35434,-87,34,127,0,0,3766,-38,0,2720,126,46,9142,-4,0,34,0,101412,0
101424,102,-2041,231,-29,-20,-24,14032,13,11,81,32,35437,-96,34,127,0,0,3768,5,0,2720,126,46,9152,-4,0,34,0,101412,0
101434,111,-2042,233,-27,-12,-24,14037,-1,-1,12,24,35439,-96,34,127,0,0,3768,54,0,2720,126,46,9162,-4,0,34,0,101412,0
101444,93,-2035,234,-24,-15,-20,14041,10,1,18,16,35439,-91,34,127,0,0,3771,32,0,2720,126,46,9172,-4,0,34,0,101428,0
101454,100,-2035,235,-26,-15,-22,14049,27,11,71,24,35435,-93,34,127,0,0,3770,27,0,2720,126,46,9182,-4,0,34,0,101444,0
101464,96,-2041,244,-22,-13,-15,14051,-8,4,-7,16,35433,-92,34,127,0,0,3770,16,0,2720,126,46,9192,-4,0,34,0,101444,0
101474,93,-2032,244,-24,-9,-19,14053,2,-14,27,16,35436,-99,34,127,0,0,3770,0,0,2720,126,46,9202,-4,0,34,0,101459,0
101484,91,-2043,243,-18,-10,-22,14055,5,-11,60,32,35439,-92,34,127,0,0,3769,-10,0,2720,126,46,9212,-4,0,34,0,101475,0
101494,99,-2030,245,-19,-14,-21,14055,-1,-2,10,56,35430,-77,34,127,0,0,3768,10,0,2720,126,46,9222,-4,0,34,0,101475,0
101504,98,-2028,238,-27,-11,-18,14059,9,7,71,24,35430,-73,34,127,0,0,3772,-27,0,2720,126,46,9232,-4,0,34,0,101506,0
101514,70,-2036,238,-27,-17,-18,14060,-3,-6,89,48,35425,-85,34,127,0,0,3774,21,0,2720,126,46,9242,-4,0,34,0,101506,0
101524,93,-2033,237,-22,-4,-25,14065,7,-7,152,40,35423,-96,34,127,0,0,3774,0,0,2720,126,46,9252,-4,0,34,0,101506,0
101534,74,-2032,240,-21,-12,-28,14068,22,4,259,56,35423,-88,34,127,0,0,3777,-32,0,2720,126,46,9262,-4,0,34,0,101506,0
101544,100,-2034,245,-18,-8,-27,14069,-4,-4,230,48,35425,-82,34,127,0,0,3773,-38,0,2720,126,46,9272,-4,0,34,0,101584,0
101554,75,-2048,246,-18,-7,-30,14071,7,-13,237,72,35433,-74,34,127,0,0,3779,-21,0,2720,126,46,9282,-4,0,34,0,101584,0
101564,105,-2027,257,-17,-4,-21,14072,-2,0,251,72,35439,-86,34,127,0,0,3779,16,0,2720,126,46,9292,-4,0,34,0,101600,0
101574,118,-2061,279,-30,-13,-9,14074,7,-2,293,64,35433,-96,34,127,0,0,3779,-5,0,2720,126,46,9302,-4,0,34,0,101600,0
101584,107,-2069,271,-31,-17,0,14072,-4,-4,265,88,35419,-96,34,127,0,0,3781,32,0,2720,126,46,9312,-4,0,34,0,101600,0
101594,92,-2031,236,-30,-14,7,14078,8,4,320,80,35411,-105,34,127,0,0,3781,0,0,2720,126,46,9322,-4,0,34,0,101600,0
101604,64,-2030,228,-28,-12,-6,14081,1,6,357,128,35413,-101,34,127,0,0,3782,16,0,2720,126,46,9332,-4,0,34,0,101600,0
101614,45,-2040,234,-30,3,-33,14089,20,-1,351,88,35417,-102,34,127,0,0,3786,0,0,2720,126,46,9342,-4,0,34,0,101600,0
101624,44,-2044,262,-34,7,-45,14096,7,14,319,88,35427,-104,34,127,0,0,3782,-5,0,2720,126,46,9352,-4,0,34,0,101600,0
101634,119,-2037,258,-42,9,-49,14102,0,-8,195,56,35442,-99,34,127,0,0,3783,16,0,2720,126,46,9362,-4,0,34,0,101631,0
101644,112,-2030,238,-42,0,-30,14108,21,-3,254,72,35452,-106,34,127,0,0,3785,-5,0,2720,126,46,9372,-4,0,34,0,101631,0
101654,137,-2027,243,-38,-6,-18,14113,8,6,184,32,35452,-101,34,127,0,0,3786,27,0,2720,126,46,9382,-4,0,34,0,101678,0
101664,83,-2040,255,-42,-6,0,14115,2,-11,233,56,35442,-85,34,127,0,0,3785,0,0,2720,126,46,9392,-4,0,34,0,101694,0
101674,71,-2030,271,-52,-8,-3,14117,-8,-6,185,72,35433,-91,34,127,0,0,3788,38,0,2720,126,46,9402,-4,0,34,0,101694,0
101684,44,-2032,260,-55,-4,-16,14122,6,-3,224,72,35436,-98,34,127,0,0,3788,27,0,2720,126,46,9412,-4,0,34,0,101694,0
101694,50,-2026,236,-62,9,-34,14123,12,1,271,40,35430,-105,34,127,0,0,3789,-49,0,2720,126,46,9422,-4,0,34,0,101694,0
101704,52,-2032,237,-56,0,-37,14124,13,-7,263,64,35436,-99,34,127,0,0,3788,-16,0,2720,126,46,9432,-4,0,34,0,101694,0
101714,81,-2030,236,-52,-8,-38,14123,-5,-7,244,64,35424,-99,34,127,0,0,3784,-60,0,2720,126,46,9442,-4,0,34,0,101694,0
101724,91,-2037,240,-50,-9,-38,14124,8,1,192,64,35431,-108,34,127,0,0,3784,-27,0,2720,126,46,9452,-4,0,34,0,101709,0
101734,73,-2040,250,-55,-2,-36,14123,2,0,206,64,35444,-101,34,127,0,0,3784,-43,0,2720,126,46,9462,-4,0,34,0,101756,0
101744,94,-2040,260,-54,-3,-37,14122,-6,-4,178,64,35446,-85,34,127,0,0,3788,21,0,2720,126,46,9472,-4,0,34,0,101756,0
101754,116,-2042,257,-63,-12,-27,14124,-4,-1,217,80,35440,-82,34,127,0,0,3786,5,0,2720,126,46,9482,-4,0,34,0,101756,0
101764,109,-2050,252,-62,-13,-22,14122,-4,4,208,80,35425,-90,34,127,0,0,3786,10,0,2720,126,46,9492,-4,0,34,0,101756,0
101774,90,-2050,239,-60,-10,-13,14126,2,-3,250,80,35421,-102,34,127,0,0,3790,16,0,2720,126,46,9502,-4,0,34,0,101756,0
101784,77,-2044,245,-63,-19,-7,14126,-3,0,251,48,35428,-92,34,127,0,0,3791,10,0,2720,126,46,9512,-4,0,34,0,101756,0
101794,58,-2043,242,-59,-16,-18,14128,10,-1,309,72,35441,-90,34,127,0,0,3793,10,0,2720,126,46,9522,-4,0,34,0,101787,0
101804,72,-2044,235,-60,-13,-24,14131,6,2,309,88,35444,-78,34,127,0,0,3789,-27,0,2720,126,46,9532,-4,0,34,0,101787,0
101814,65,-2047,227,-57,-11,-39,14131,3,-12,286,96,35446,-97,34,127,0,0,3789,-38,0,2720,126,46,9542,-4,0,34,0,101787,0
101824,77,-2042,246,-49,-4,-46,14131,5,0,311,96,35447,-100,34,127,0,0,3792,-21,0,2720,126,46,9552,-4,0,34,0,101819,0
101834,96,-2038,243,-52,-11,-40,14131,-5,0,317,64,35444,-89,34,127,0,0,3793,-5,0,2720,126,46,9562,-4,0,34,0,101819,0
101844,86,-2044,240,-49,-4,-36,14131,2,2,314,72,35451,-92,34,127,0,0,3796,38,0,2720,126,46,9572,-4,0,34,0,101850,0
101854,92,-2035,239,-49,-16,-19,14134,1,13,346,112,35450,-81,34,127,0,0,3788,-43,0,2720,126,46,9582,-4,0,34,0,101865,0
101864,108,-2043,242,-50,-11,-14,14134,0,-6,304,88,35446,-109,34,127,0,0,3795,21,0,2720,126,46,9592,-4,0,34,0,101865,0
101874,91,-2037,230,-44,-16,-5,14138,11,3,386,80,35444,-101,34,127,0,0,3795,-21,0,2720,126,46,9602,-4,0,34,0,101865,0
101884,86,-2032,228,-38,-19,-3,14136,-6,4,361,104,35430,-110,34,127,0,0,3794,10,0,2720,126,46,9612,-4,0,34,0,101865,0
101894,83,-2031,229,-31,-8,1,14139,7,3,392,144,35440,-105,34,127,0,0,3795,21,0,2720,126,46,9622,-4,0,34,0,101881,0
101904,88,-2022,233,-27,-6,0,14142,-3,8,388,136,35452,-102,34,127,0,0,3799,32,0,2720,126,46,9632,-4,0,34,0,101897,0
101914,73,-2030,230,-28,-11,-1,14151,23,13,436,96,35454,-86,34,127,0,0,3800,-54,0,2720,126,46,9642,-4,0,34,0,101912,0
101924,73,-2035,245,-21,-9,-3,14164,42,13,377,128,35450,-85,34,127,0,0,3801,16,0,2720,126,46,9652,-4,0,34,0,101912,0
101934,71,-2037,249,-24,-3,-4,14189,53,36,241,72,35438,-93,34,127,0,0,3801,0,0,2720,126,46,9662,-4,0,34,0,101912,0
101944,74,-2044,252,-21,-8,-13,14195,-7,-17,231,80,35444,-110,34,127,0,0,3800,-16,0,2720,126,46,9672,-4,0,34,0,101944,0
101954,58,-2035,247,-23,-6,-23,14196,14,-44,284,56,35450,-101,34,127,0,0,3807,0,0,2720,126,46,9682,-4,0,34,0,101944,0
101964,48,-2052,246,-21,0,-33,14197,8,-1,338,56,35452,-103,34,127,0,0,3801,-49,0,2720,126,46,9692,-4,0,34,0,101944,0
101974,29,-2053,248,-24,-10,-34,14199,15,3,342,104,35446,-97,34,127,0,0,3805,-54,0,2720,126,46,9702,-4,0,34,0,101959,0
101984,69,-2042,244,-27,-12,-35,14198,-14,8,299,96,35445,-120,34,127,0,0,3805,16,0,2720,126,46,9712,-4,0,34,0,101959,0
101994,81,-2048,241,-25,-3,-41,14201,-1,3,304,120,35458,-116,34,127,0,0,3807,43,0,2720,126,46,9722,-4,0,34,0,101990,0
102004,88,-2037,249,-28,-4,-43,14202,5,5,346,64,35454,-111,34,127,0,0,3806,-27,0,2720,126,46,9732,-4,0,34,0,101990,0
102014,74,-2042,246,-19,-7,-35,14201,3,-4,321,96,35442,-120,34,127,0,0,3805,0,0,2720,126,46,9742,-4,0,34,0,101990,0
102024,87,-2034,235,-19,-2,-30,14202,0,3,299,88,35441,-114,34,127,0,0,3805,16,0,2720,126,46,9752,-4,0,34,0,102084,0
102034,96,-2037,242,-15,0,-19,14202,0,2,292,88,35449,-126,34,127,0,0,3805,5,0,2720,126,46,9762,-4,0,34,0,102084,0
102044,83,-2033,243,-16,-9,-15,14203,4,5,314,88,35448,-122,34,127,0,0,3808,32,0,2720,126,46,9772,-4,0,34,0,102084,0
102054,97,-2029,250,-20,-11,-2,14204,4,4,374,112,35438,-129,34,127,0,0,3811,43,0,2720,126,46,9782,-4,0,34,0,102084,0
102064,82,-2041,246,-20,-12,7,14208,11,10,379,152,35423,-133,34,127,0,0,3805,16,0,2720,126,46,9792,-4,0,34,0,102100,0
102074,68,-2042,256,-16,-14,9,14216,22,12,364,136,35428,-122,34,127,0,0,3812,0,0,2720,126,46,9802,-4,0,34,0,102100,0
102084,66,-2037,250,-18,-8,6,14235,54,29,321,96,35429,-130,34,127,0,0,3812,0,0,2720,126,46,9812,-4,0,34,0,102100,0
102094,89,-2031,256,-23,-18,15,14257,22,24,155,72,35427,-139,34,127,0,0,3814,38,0,2720,126,46,9822,-4,0,34,0,102100,0
102104,45,-2038,255,-20,-6,0,14256,2,-55,299,80,35422,-147,34,127,0,0,3814,-16,0,2720,126,46,9832,-4,0,34,0,102100,0
102114,47,-2035,252,-26,-3,-14,14258,7,-33,343,96,35429,-151,34,127,0,0,3816,-16,0,2720,126,46,9842,-4,0,34,0,102100,0
102124,77,-2038,257,-31,-7,-11,14259,-2,6,322,120,35442,-149,34,127,0,0,3818,38,0,2720,126,46,9852,-4,0,34,0,102100,0
102134,64,-2033,255,-33,-6,-13,14262,7,2,379,88,35456,-153,34,127,0,0,3819,-5,0,2720,126,46,9862,-4,0,34,0,102131,0
102144,51,-2043,256,-38,-5,-23,14261,-1,-1,404,112,35458,-147,34,127,0,0,3818,-5,0,2720,126,46,9872,-4,0,34,0,102131,0
102154,60,-2045,255,-37,-4,-27,14263,-1,-4,387,136,35449,-158,34,127,0,0,3817,5,0,2720,126,46,9882,-4,0,34,0,102131,0
102164,71,-2039,257,-44,-7,-31,14263,-6,-1,381,112,35446,-157,34,127,0,0,3822,32,0,2720,126,46,9892,-4,0,34,0,102162,0
102174,70,-2035,255,-40,-5,-40,14263,-1,-2,411,112,35443,-130,34,127,0,0,3818,5,0,2720,126,46,9902,-4,0,34,0,102193,0
102184,66,-2043,256,-44,-6,-49,14265,8,-1,425,128,35442,-123,34,127,0,0,3821,-21,0,2720,126,46,9912,-4,0,34,0,102193,0
102194,75,-2038,254,-48,-10,-57,14266,-8,-2,418,104,35438,-115,34,127,0,0,3818,0,0,2720,126,46,9922,-4,0,34,0,102193,0
102204,73,-2038,250,-51,-6,-57,14265,-4,-6,403,104,35432,-129,34,127,0,0,3825,60,0,2720,126,46,9932,-4,0,34,0,102193,0
102214,62,-2035,255,-53,-17,-50,14269,3,1,439,120,35431,-124,34,127,0,0,3824,21,0,2720,126,46,9942,-4,0,34,0,102193,0
102224,62,-2039,255,-55,-12,-54,14269,8,0,449,120,35425,-127,34,127,0,0,3824,16,0,2720,126,46,9952,-4,0,34,0,102209,0
102234,77,-2044,247,-50,-4,-58,14270,1,-11,440,120,35426,-152,34,127,0,0,3817,-43,0,2720,126,46,9962,-4,0,34,0,102225,0
102244,69,-2035,253,-52,-6,-56,14269,12,-2,392,96,35428,-146,34,127,0,0,3822,-21,0,2720,126,46,9972,-4,0,34,0,102240,0
102254,87,-2041,246,-57,-9,-50,14269,1,2,401,96,35430,-145,34,127,0,0,3822,16,0,2720,126,46,9982,-4,0,34,0,102240,0
102264,66,-2038,241,-53,-8,-46,14268,2,8,405,120,35426,-145,34,127,0,0,3821,32,0,2720,126,46,9992,-4,0,34,0,102272,0
102274,92,-2037,246,-51,-13,-46,14270,0,0,409,96,35429,-146,34,127,0,0,3818,-16,0,2720,126,46,10002,-4,0,34,0,102272,0
102284,58,-2039,243,-49,-8,-42,14268,8,-4,370,96,35434,-156,34,127,0,0,3818,-10,0,2720,126,46,10012,-4,0,34,0,102272,0
102294,88,-2046,250,-54,-3,-39,14269,3,1,376,96,35435,-144,34,127,0,0,3818,0,0,2720,126,46,10022,-4,0,34,0,102272,0
102304,73,-2040,256,-47,-9,-36,14269,9,10,418,120,35428,-146,34,127,0,0,3817,-43,0,2720,126,46,10032,-4,0,34,0,102287,0
102314,60,-2037,259,-57,-2,-35,14269,-7,1,388,120,35431,-141,34,127,0,0,3817,-38,0,2720,126,46,10042,-4,0,34,0,102303,0
102324,76,-2043,253,-59,-4,-38,14270,10,-1,378,96,35430,-137,34,127,0,0,3818,-16,0,2720,126,46,10052,-4,0,34,0,102303,0
102334,63,-2035,260,-55,-11,-37,14269,8,2,393,96,35436,-137,34,127,0,0,3818,-21,0,2720,126,46,10062,-4,0,34,0,102334,0
102344,71,-2035,257,-61,-15,-37,14268,-2,0,389,96,35433,-109,34,127,0,0,3818,-32,0,2720,126,46,10072,-4,0,34,0,102334,0
102354,63,-2043,247,-57,-5,-31,14268,-1,-1,363,96,35431,-121,34,127,0,0,3818,0,0,2720,126,46,10082,-4,0,34,0,102334,0
102364,68,-2040,241,-65,-7,-34,14269,9,-2,374,120,35434,-121,34,127,0,0,3821,21,0,2720,126,46,10092,-4,0,34,0,102365,0
102374,89,-2043,238,-54,-3,-35,14270,0,0,383,96,35431,-142,34,127,0,0,3825,60,0,2720,126,46,10102,-4,0,34,0,102365,0
102384,55,-2042,240,-56,-10,-26,14270,3,0,390,120,35427,-136,34,127,0,0,3821,54,0,2720,126,46,10112,-4,0,34,0,102365,0
102394,84,-2040,236,-50,-5,-21,14269,-5,4,392,144,35421,-137,34,127,0,0,3823,43,0,2720,126,46,10122,-4,0,34,0,102381,0
102404,60,-2040,235,-46,-8,-8,14271,1,2,435,160,35422,-158,34,127,0,0,3822,38,0,2720,126,46,10132,-4,0,34,0,102459,0
102414,82,-2035,239,-54,-23,-6,14273,0,-2,423,136,35432,-156,34,127,0,0,3826,49,0,2720,126,46,10142,-4,0,34,0,102459,0
102424,54,-2030,242,-46,-9,-12,14276,11,-4,477,152,35428,-160,34,127,0,0,3825,16,0,2720,126,46,10152,-4,0,34,0,102459,0
102434,64,-2037,254,-45,-7,-14,14282,20,12,511,144,35423,-163,34,127,0,0,3828,10,0,2720,126,46,10162,-4,0,34,0,102459,0
102444,58,-2038,243,-52,-7,-17,14304,60,35,413,96,35410,-161,34,127,0,0,3825,-32,0,2720,126,46,10172,-4,0,34,0,102459,0
102454,64,-2041,243,-49,-13,-22,14318,17,20,324,96,35415,-163,34,127,0,0,3827,0,0,2720,126,46,10182,-4,0,34,0,102475,0
102464,55,-2039,245,-42,-4,-28,14320,0,-43,400,88,35415,-131,34,127,0,0,3827,-49,0,2720,126,46,10192,-4,0,34,0,102475,0
102474,63,-2037,236,-42,0,-37,14317,-7,-26,321,96,35415,-117,34,127,0,0,3824,0,0,2720,126,46,10202,-4,0,34,0,102475,0
102484,76,-2040,239,-40,-5,-38,14320,10,7,326,112,35419,-115,34,127,0,0,3826,16,0,2720,126,46,10212,-4,0,34,0,102475,0
102494,77,-2031,242,-38,-6,-38,14318,-13,5,343,96,35434,-99,34,127,0,0,3830,21,0,2720,126,46,10222,-4,0,34,0,102475,0
102504,40,-2045,230,-43,-6,-31,14322,15,1,410,112,35445,-112,34,127,0,0,3829,-5,0,2720,126,46,10232,-4,0,34,0,102490,0
102514,77,-2040,235,-30,-3,-32,14323,-2,4,416,104,35461,-90,34,127,0,0,3829,-5,0,2720,126,46,10242,-4,0,34,0,102522,0
102524,88,-2038,236,-23,2,-32,14325,7,-4,447,128,35448,-103,34,127,0,0,3832,-10,0,2720,126,46,10252,-4,0,34,0,102522,0
102534,78,-2040,239,-22,-8,-23,14325,-1,4,426,96,35442,-104,34,127,0,0,3829,-5,0,2720,126,46,10262,-4,0,34,0,102522,0
102544,66,-2043,234,-25,-9,-17,14327,2,-5,417,128,35429,-112,34,127,0,0,3832,21,0,2720,126,46,10272,-4,0,34,0,102522,0
102554,72,-2038,243,-22,-12,-17,14326,-1,-2,441,120,35426,-107,34,127,0,0,3832,27,0,2720,126,46,10282,-4,0,34,0,102537,0
102564,66,-2044,246,-19,-10,-13,14327,3,1,444,120,35433,-111,34,127,0,0,3832,0,0,2720,126,46,10292,-4,0,34,0,102568,0
102574,58,-2041,253,-18,-8,-20,14329,9,-2,479,144,35433,-112,34,127,0,0,3837,32,0,2720,126,46,10302,-4,0,34,0,102568,0
102584,63,-2036,248,-15,-5,-21,14336,11,14,481,104,35438,-117,34,127,0,0,3835,-32,0,2720,126,46,10312,-4,0,34,0,102568,0
102594,61,-2039,251,-19,-13,-18,14335,1,-2,487,128,35430,-101,34,127,0,0,3837,27,0,2720,126,46,10322,-4,0,34,0,102584,0
102604,59,-2036,256,-26,-11,-20,14340,5,-4,499,120,35422,-96,34,127,0,0,3837,5,0,2720,126,46,10332,-4,0,34,0,102584,0
102614,68,-2034,251,-19,-11,-20,14347,22,11,470,136,35430,-86,34,127,0,0,3836,-10,0,2720,126,46,10342,-4,0,34,0,102615,0
102624,66,-2031,248,-24,-10,-20,14358,42,10,449,136,35438,-100,34,127,0,0,3841,16,0,2720,126,46,10352,-4,0,34,0,102615,0
102634,77,-2033,250,-20,-15,-10,14386,62,45,311,104,35438,-95,34,127,0,0,3840,27,0,2720,126,46,10362,-4,0,34,0,102615,0
102644,78,-2032,253,-22,-16,-7,14398,3,3,286,72,35430,-79,34,127,0,0,3840,-16,0,2720,126,46,10372,-4,0,34,0,102615,0
102654,50,-2039,237,-20,-12,-2,14395,4,-73,318,104,35430,-75,34,127,0,0,3843,16,0,2720,126,46,10382,-4,0,34,0,102646,0
102664,70,-2030,250,-22,-15,6,14400,6,-4,343,112,35431,-69,34,127,0,0,3841,0,0,2720,126,46,10392,-4,0,34,0,102646,0
102674,69,-2035,259,-19,-15,5,14400,7,7,370,96,35444,-88,34,127,0,0,3846,-16,0,2720,126,46,10402,-4,0,34,0,102662,0
102684,65,-2035,255,-23,-14,5,14400,1,-10,395,136,35439,-64,34,127,0,0,3850,65,0,2720,126,46,10412,-4,0,34,0,102662,0
102694,70,-2032,260,-27,-14,4,14410,21,20,405,120,35430,-74,34,127,0,0,3847,10,0,2720,126,46,10422,-4,0,34,0,102709,0
102704,69,-2041,260,-27,-11,-3,14429,42,32,327,112,35436,-79,34,127,0,0,3849,-21,0,2720,126,46,10432,-4,0,34,0,102709,0
102714,64,-2041,263,-23,-21,9,14443,13,12,244,104,35440,-87,34,127,0,0,3851,49,0,2720,126,46,10442,-4,0,34,0,102709,0
102724,45,-2034,257,-31,-13,3,14444,1,-33,373,96,35442,-88,34,127,0,0,3851,-5,0,2720,126,46,10452,-4,0,34,0,102709,0
102734,55,-2037,253,-34,-12,-6,14445,0,-27,387,120,35427,-82,34,127,0,0,3854,-10,0,2720,126,46,10462,-4,0,34,0,102709,0
102744,62,-2040,260,-36,-11,-10,14444,-10,1,362,120,35429,-90,34,127,0,0,3854,0,0,2720,126,46,10472,-4,0,34,0,102740,0
102754,56,-2040,257,-42,-16,-14,14446,2,-7,359,120,35433,-96,34,127,0,0,3857,32,0,2720,126,46,10482,-4,0,34,0,102740,0
102764,49,-2044,259,-38,-9,-17,14450,19,13,438,136,35433,-96,34,127,0,0,3852,-32,0,2720,126,46,10492,-4,0,34,0,102740,0
102774,49,-2048,251,-41,-7,-24,14449,-1,-1,401,136,35429,-100,34,127,0,0,3856,5,0,2720,126,46,10502,-4,0,34,0,102771,0
102784,57,-2044,246,-44,-11,-20,14450,-3,-4,418,152,35428,-91,34,127,0,0,3855,5,0,2720,126,46,10512,-4,0,34,0,102771,0
102794,74,-2042,253,-36,-9,-27,14451,3,5,432,128,35430,-102,34,127,0,0,3859,38,0,2720,126,46,10522,-4,0,34,0,102803,0
102804,57,-2034,254,-42,-15,-21,14452,0,2,462,128,35438,-96,34,127,0,0,3859,32,0,2720,126,46,10532,-4,0,34,0,102803,0
102814,49,-2037,258,-45,-12,-22,14454,0,1,484,152,35426,-86,34,127,0,0,3858,0,0,2720,126,46,10542,-4,0,34,0,102834,0
102824,46,-2039,258,-43,-11,-24,14455,3,-3,500,192,35424,-90,34,127,0,0,3862,71,0,2720,126,46,10552,-4,0,34,0,102834,0
102834,57,-2038,259,-48,-10,-33,14464,18,13,542,128,35429,-93,34,127,0,0,3858,-76,0,2720,126,46,10562,-4,0,34,0,102834,0
102844,50,-2037,256,-45,-6,-36,14462,10,-1,534,128,35434,-102,34,127,0,0,3855,-104,0,2720,126,46,10572,-4,0,34,0,102834,0
102854,24,-2032,238,-43,-7,-30,14459,-7,-18,460,160,35439,-91,34,127,0,0,3857,-38,0,2720,126,46,10582,-4,0,34,0,102834,0
102864,74,-2038,243,-40,-6,-34,14461,-6,3,452,136,35444,-86,34,127,0,0,3861,0,0,2720,126,46,10592,-4,0,34,0,102850,0
102874,54,-2038,237,-37,-12,-23,14463,0,2,469,136,35449,-98,34,127,0,0,3864,27,0,2720,126,46,10602,-4,0,34,0,102881,0
102884,20,-2045,243,-35,-9,-16,14462,3,5,492,176,35464,-101,34,127,0,0,3859,10,0,2720,126,46,10612,-4,0,34,0,102896,0
102894,68,-2042,228,-28,-9,-8,14464,5,2,522,128,35461,-107,34,127,0,0,3864,0,0,2720,126,46,10622,-4,0,34,0,102896,0
102904,75,-2037,242,-22,-10,3,14464,6,-2,548,152,35445,-110,34,127,0,0,3863,10,0,2720,126,46,10632,-4,0,34,0,102943,0
102914,66,-2040,255,-26,-15,25,14467,5,8,562,168,35435,-82,34,127,0,0,3866,5,0,2720,126,46,10642,-4,0,34,0,102943,0
102924,64,-2039,251,-13,-20,33,14477,25,17,598,200,35449,-92,34,127,0,0,3863,-16,0,2720,126,46,10652,-4,0,34,0,102943,0
102934,78,-2039,244,-14,-16,42,14496,43,30,454,184,35459,-79,34,127,0,0,3869,49,0,2720,126,46,10662,-4,0,34,0,102943,0
102944,70,-2031,247,-11,-13,58,14521,46,29,445,160,35464,-81,34,127,0,0,3874,49,0,2720,126,46,10672,-4,0,34,0,102959,0
102954,52,-2039,254,-11,-12,50,14533,30,-14,561,176,35462,-70,34,127,0,0,3875,5,0,2720,126,46,10682,-4,0,34,0,102959,0
102964,47,-2045,249,-15,-16,51,14564,84,10,439,144,35451,-74,34,127,0,0,3881,21,0,2720,126,46,10692,-4,0,34,0,102959,0
102974,62,-2041,270,-16,-17,56,14597,41,46,321,96,35453,-67,34,127,0,0,3886,65,0,2720,126,46,10702,-4,0,34,0,102959,0
102984,20,-2036,270,-19,-9,41,14612,27,-34,401,120,35463,-32,34,127,0,0,3884,16,0,2720,126,46,10712,-4,0,34,0,102975,0
102994,41,-2040,252,-23,-5,35,14635,47,-14,323,120,35459,-15,34,127,0,0,3885,-5,0,2720,126,46,10722,-4,0,34,0,102975,0
103004,57,-2035,259,-25,-10,40,14638,-15,-18,322,104,35459,-8,34,127,0,0,3892,71,0,2720,126,46,10732,-4,0,34,0,103006,0
103014,22,-2036,259,-29,-11,36,14643,22,-32,451,120,35453,-25,34,127,0,0,3891,-5,0,2720,126,46,10742,-4,0,34,0,103006,0
103024,65,-2039,266,-35,-11,30,14644,0,-1,477,168,35442,-25,34,127,0,0,3892,21,0,2720,126,46,10752,-4,0,34,0,103006,0
103034,47,-2041,268,-28,-10,26,14648,11,-2,517,160,35441,-32,34,127,0,0,3899,38,0,2720,126,46,10762,-4,0,34,0,103006,0
103044,28,-2043,259,-34,-4,16,14655,27,10,618,168,35444,-30,34,127,0,0,3901,5,0,2720,126,46,10772,-4,0,34,0,103037,0
103054,32,-2040,264,-41,-6,21,14661,16,8,613,176,35459,-34,34,127,0,0,3900,-5,0,2720,126,46,10782,-4,0,34,0,103037,0
103064,28,-2027,264,-39,-1,11,14673,27,14,549,176,35454,-34,34,127,0,0,3899,-16,0,2720,126,46,10792,-4,0,34,0,103037,0
103074,29,-2038,268,-45,-6,2,14697,52,34,374,152,35444,-49,34,127,0,0,3901,21,0,2720,126,46,10802,-4,0,34,0,103068,0
103084,35,-2041,262,-54,-6,-2,14711,8,-1,373,152,35436,-56,34,127,0,0,3900,-21,0,2720,126,46,10812,-4,0,34,0,103068,0
103094,21,-2038,249,-56,-2,-17,14712,10,-51,448,104,35450,-81,34,127,0,0,3912,32,0,2720,126,46,10822,-4,0,34,0,103068,0
103104,24,-2041,253,-56,2,-15,14716,20,-6,534,136,35455,-65,34,127,0,0,3906,-21,0,2720,126,46,10832,-4,0,34,0,103100,0
103114,52,-2033,259,-59,-8,-16,14717,-7,6,451,136,35441,-55,34,127,0,0,3910,32,0,2720,126,46,10842,-4,0,34,0,103100,0
103124,22,-2041,252,-60,-8,-12,14720,5,-2,478,176,35436,-48,34,127,0,0,3907,54,0,2720,126,46,10852,-4,0,34,0,103115,0
103134,42,-2039,258,-63,-2,-18,14721,3,2,503,152,35436,-61,34,127,0,0,3908,0,0,2720,126,46,10862,-4,0,34,0,103193,0
103144,36,-2043,261,-67,-6,-16,14727,18,2,533,120,35441,-60,34,127,0,0,3910,-49,0,2720,126,46,10872,-4,0,34,0,103193,0
103154,20,-2042,259,-61,2,-16,14733,18,0,494,152,35436,-59,34,127,0,0,3907,-38,0,2720,126,46,10882,-4,0,34,0,103193,0
103164,38,-2037,260,-66,-11,-17,14743,30,14,394,128,35427,-67,34,127,0,0,3911,16,0,2720,126,46,10892,-4,0,34,0,103193,0
103174,45,-2042,259,-66,-10,-14,14761,39,30,313,120,35422,-84,34,127,0,0,3913,65,0,2720,126,46,10902,-4,0,34,0,103209,0
103184,40,-2033,253,-58,-6,-11,14774,17,1,336,96,35425,-90,34,127,0,0,3916,32,0,2720,126,46,10912,-4,0,34,0,103224,0
103194,24,-2041,250,-58,-5,-11,14772,-6,-45,375,96,35424,-93,34,127,0,0,3916,16,0,2720,126,46,10922,-4,0,34,0,103224,0
103204,33,-2044,255,-61,-6,-15,14775,5,-21,385,112,35416,-99,34,127,0,0,3915,5,0,2720,126,46,10932,-4,0,34,0,103224,0
103214,49,-2033,252,-65,-12,-13,14773,-1,5,375,120,35421,-106,34,127,0,0,3918,65,0,2720,126,46,10942,-4,0,34,0,103224,0
103224,30,-2037,255,-56,-6,-5,14778,14,5,448,136,35433,-94,34,127,0,0,3917,27,0,2720,126,46,10952,-4,0,34,0,103224,0
103234,38,-2039,255,-64,-11,0,14782,5,7,436,128,35441,-88,34,127,0,0,3917,0,0,2720,126,46,10962,-4,0,34,0,103224,0
103244,32,-2031,242,-66,-1,5,14783,0,-14,437,144,35442,-87,34,127,0,0,3919,38,0,2720,126,46,10972,-4,0,34,0,103224,0
103254,29,-2030,256,-64,-3,0,14787,13,-1,473,112,35454,-74,34,127,0,0,3921,-5,0,2720,126,46,10982,-4,0,34,0,103256,0
103264,37,-2044,264,-60,-5,-2,14792,14,11,458,152,35455,-88,34,127,0,0,3918,-27,0,2720,126,46,10992,-4,0,34,0,103256,0
103274,22,-2038,254,-65,-3,-13,14808,59,16,460,144,35452,-80,34,127,0,0,3924,-38,0,2720,126,46,11002,-4,0,34,0,103256,0
103284,32,-2036,250,-66,-7,-6,14839,56,58,275,80,35432,-85,34,127,0,0,3921,-32,0,2720,126,46,11012,-4,0,34,0,103271,0
103294,13,-2046,248,-67,-10,-19,14836,-19,-37,349,88,35424,-88,34,127,0,0,3930,32,0,2720,126,46,11022,-4,0,34,0,103271,0
103304,21,-2033,243,-68,-2,-15,14842,6,-55,370,96,35423,-87,34,127,0,0,3926,16,0,2720,126,46,11032,-4,0,34,0,103287,0
103314,33,-2040,248,-68,-12,-15,14840,4,6,379,104,35438,-87,34,127,0,0,3929,60,0,2720,126,46,11042,-4,0,34,0,103318,0
103324,27,-2041,246,-63,-14,-14,14842,4,0,435,120,35429,-76,34,127,0,0,3925,-5,0,2720,126,46,11052,-4,0,34,0,103318,0
103334,19,-2046,250,-66,-11,-17,14842,1,-3,431,120,35425,-86,34,127,0,0,3928,-10,0,2720,126,46,11062,-4,0,34,0,103318,0
103344,32,-2036,250,-64,-13,-21,14844,4,-3,458,120,35418,-90,34,127,0,0,3928,-16,0,2720,126,46,11072,-4,0,34,0,103318,0
103354,12,-2043,241,-62,-14,-22,14842,-3,-2,442,144,35434,-76,34,127,0,0,3927,-21,0,2720,126,46,11082,-4,0,34,0,103349,0
103364,31,-2032,255,-62,0,-25,14844,6,5,446,120,35437,-77,34,127,0,0,3932,16,0,2720,126,46,11092,-4,0,34,0,103349,0
103374,17,-2035,248,-67,-12,-27,14847,7,1,493,112,35433,-83,34,127,0,0,3932,-16,0,2720,126,46,11102,-4,0,34,0,103349,0
103384,0,-2042,248,-69,-12,-30,14848,12,3,496,112,35427,-106,34,127,0,0,3932,-10,0,2720,126,46,11112,-4,0,34,0,103381,0
103394,18,-2030,242,-68,-8,-37,14847,-5,-3,454,136,35428,-99,34,127,0,0,3934,65,0,2720,126,46,11122,-4,0,34,0,103381,0
103404,10,-2047,238,-69,-8,-33,14850,1,5,483,128,35425,-88,34,127,0,0,3934,54,0,2720,126,46,11132,-4,0,34,0,103381,0
103414,28,-2031,248,-65,-7,-40,14850,3,2,482,104,35426,-87,34,127,0,0,3928,-27,0,2720,126,46,11142,-4,0,34,0,103412,0
103424,22,-2038,250,-64,-10,-42,14850,12,-3,454,128,35423,-88,34,127,0,0,3927,-43,0,2720,126,46,11152,-4,0,34,0,103428,0
103434,25,-2038,250,-64,-9,-36,14849,-5,-1,452,104,35433,-105,34,127,0,0,3935,16,0,2720,126,46,11162,-4,0,34,0,103428,0
103444,20,-2047,250,-58,-3,-40,14851,10,10,495,152,35437,-95,34,127,0,0,3929,-16,0,2720,126,46,11172,-4,0,34,0,103428,0
103454,45,-2045,232,-57,-10,-24,14852,3,4,475,128,35429,-97,34,127,0,0,3934,0,0,2720,126,46,11182,-4,0,34,0,103428,0
103464,40,-2040,238,-54,-13,-19,14852,-3,-15,453,144,35430,-106,34,127,0,0,3929,43,0,2720,126,46,11192,-4,0,34,0,103490,0
103474,49,-2035,247,-52,-9,2,14854,11,3,475,144,35433,-107,34,127,0,0,3933,-5,0,2720,126,46,11202,-4,0,34,0,103506,0
103484,46,-2047,247,-50,-13,13,14857,11,8,499,136,35430,-107,34,127,0,0,3936,32,0,2720,126,46,11212,-4,0,34,0,103506,0
103494,31,-2036,238,-42,-11,14,14862,16,2,526,176,35422,-88,34,127,0,0,3937,43,0,2720,126,46,11222,-4,0,34,0,103521,0
103504,21,-2036,237,-43,-10,13,14883,51,33,434,112,35408,-85,34,127,0,0,3938,-16,0,2720,126,46,11232,-4,0,34,0,103537,0
103514,29,-2052,229,-36,-14,6,14895,11,14,401,136,35414,-95,34,127,0,0,3939,10,0,2720,126,46,11242,-4,0,34,0,103537,0
103524,32,-2038,239,-35,-7,-2,14901,4,-39,467,120,35423,-88,34,127,0,0,3939,-21,0,2720,126,46,11252,-4,0,34,0,103537,0
103534,617,-2000,152,-115,17,-269,14902,8,-30,467,192,35425,-86,34,127,0,0,3946,87,0,2720,126,46,11262,-4,0,34,0,103537,0
103544,637,-1999,33,-202,-61,-479,14912,6,6,470,104,35417,-94,34,127,0,0,3939,-60,0,2720,126,46,11272,-4,0,34,0,103537,0
103554,-330,-1860,293,-208,-99,-194,14891,-75,-33,128,-80,35421,-95,34,127,0,0,3916,-159,0,2720,126,46,11282,-4,0,34,0,103553,0
103564,-96,-2236,413,-93,-27,-130,14845,-105,-120,-49,16,35432,-103,34,127,0,0,3916,32,0,2720,126,46,11292,-4,0,34,0,103553,0
103574,431,-2047,55,-99,68,-313,14840,19,33,12,8,35437,-94,34,127,0,0,3914,-32,0,2720,126,46,11302,-4,0,34,0,103553,0
103584,727,-2018,-17,-158,52,-554,14836,-19,92,-81,-80,35436,-108,34,127,0,0,3902,-170,0,2720,126,46,11312,-4,0,34,0,103584,0
103594,283,-1898,219,-172,-59,-455,14810,-84,-49,-435,-248,35433,-108,34,127,0,0,3885,-153,0,2720,126,46,11322,-4,0,34,0,103584,0
103604,82,-2040,267,-183,-74,-326,14751,-160,-112,-437,-224,35433,-109,34,127,0,0,3877,-65,0,2720,126,46,11332,-4,0,34,0,103584,0
103614,329,-2049,123,-132,32,-435,14681,-162,-95,-373,-200,35428,-98,34,127,0,0,3866,-76,0,2720,126,46,11342,-4,0,34,0,103599,0
103624,511,-2015,70,-154,35,-498,14615,-144,-10,-310,-208,35424,-62,34,127,0,0,3859,-98,0,2720,126,46,11352,-4,0,34,0,103615,0
103634,469,-1989,158,-193,-41,-529,14568,-107,42,-452,-256,35422,-58,34,127,0,0,3839,-115,0,2720,126,46,11362,-4,0,34,0,103615,0
103644,224,-2047,214,-190,-54,-484,14512,-144,15,-524,-304,35433,-49,34,127,0,0,3824,-148,0,2720,126,46,11372,-4,0,34,0,103631,0
103654,243,-2045,201,-183,-21,-423,14428,-192,-77,-396,-240,35440,-73,34,127,0,0,3815,-98,0,2720,126,46,11382,-4,0,34,0,103646,0
103664,341,-2070,141,-178,-28,-416,14361,-125,-24,-420,-216,35433,-75,34,127,0,0,3801,-87,0,2720,126,46,11392,-4,0,34,0,103646,0
103674,387,-2025,142,-184,-34,-478,14302,-145,58,-438,-192,35442,-85,34,127,0,0,3795,-54,0,2720,126,46,11402,-4,0,34,0,103662,0
103684,256,-2027,151,-192,-41,-503,14250,-123,18,-423,-224,35442,-121,34,127,0,0,3779,-137,0,2720,126,46,11412,-4,0,34,0,103677,0
103694,183,-2054,154,-201,-41,-534,14207,-91,26,-585,-280,35448,-137,34,127,0,0,3769,-153,0,2720,126,46,11422,-4,0,34,0,103677,0
103704,198,-2042,166,-203,-33,-569,14148,-134,-10,-538,-304,35450,-135,34,127,0,0,3756,-142,0,2720,126,46,11432,-4,0,34,0,103693,0
103714,181,-2061,174,-207,-37,-632,14072,-166,-58,-441,-296,35438,-97,34,127,0,0,3743,-126,0,2720,126,46,11442,-4,0,34,0,103709,0
103724,160,-2053,222,-233,-50,-704,13998,-157,-17,-483,-312,35436,-71,34,127,0,0,3724,-164,0,2720,126,46,11452,-4,0,34,0,103709,0
103734,106,-2044,243,-299,-65,-795,13926,-172,2,-546,-352,35444,-64,34,127,0,0,3706,-197,0,2720,126,46,11462,-4,0,34,0,103724,0
103744,80,-2032,205,-328,-57,-870,13838,-194,-34,-551,-416,35440,-45,34,127,0,0,3688,-214,0,2720,126,46,11472,-4,0,34,0,103724,0
103754,35,-2024,178,-360,-24,-970,13745,-212,-34,-605,-472,35429,-31,34,127,0,0,3656,-258,0,2720,126,46,11482,-4,0,34,0,103740,0
103764,111,-2019,184,-386,-14,-1066,13628,-263,-60,-520,-528,35431,-31,34,127,0,0,3633,-329,0,2720,126,46,11492,-4,0,34,0,103740,0
103774,133,-2014,189,-452,-22,-1160,13505,-279,-59,-528,-560,35431,-63,34,127,0,0,3606,-291,0,2720,126,46,11502,-4,0,34,0,103771,0
103784,68,-2014,188,-500,-13,-1197,13376,-286,-29,-571,-608,35439,-103,34,127,0,0,3581,-274,0,2720,126,46,11512,-4,0,34,0,103771,0
103794,35,-2058,160,-610,-11,-1228,13236,-306,-30,-503,-600,35423,-91,34,127,0,0,3551,-274,0,2720,126,46,11522,-4,0,34,0,103771,0
103804,1,-2098,195,-658,18,-1260,13091,-326,-25,-482,-536,35427,-84,34,127,0,0,3529,-247,0,2720,126,46,11532,-4,0,34,0,103802,0
103814,-23,-2296,314,-648,-19,-1425,12962,-281,16,-475,-536,35429,-59,34,127,0,0,3506,-302,0,2720,126,46,11542,-4,0,34,0,103802,0
103824,-3,-2424,385,-678,-27,-1497,12830,-289,24,-476,-520,35438,-60,34,127,0,0,3482,-285,0,2720,126,46,11552,-4,0,34,0,103802,0
103834,-139,-2502,560,-764,-5,-1566,12703,-284,5,-428,-448,35436,-73,34,127,0,0,3468,-186,0,2720,126,46,11562,-4,0,34,0,103834,0
103844,-144,-2271,500,-792,-105,-1662,12591,-228,31,-432,-328,35430,-94,34,127,0,0,3454,-115,0,2720,126,46,11572,-4,0,34,0,103834,0
103854,-104,-2238,351,-866,-226,-1901,12504,-174,80,-379,-304,35433,-111,34,127,0,0,3442,-181,0,2720,126,46,11582,-4,0,-20,0,103834,0
103864,-108,-2256,274,-878,-331,-2045,12441,-121,93,-524,-280,35453,-94,34,127,0,0,3431,-131,0,2720,126,46,11592,-4,0,-20,0,103849,0
103874,-257,-2278,209,-907,-478,-2289,12373,-157,39,-481,-280,35452,-69,34,127,0,0,3417,-115,0,2720,126,46,11602,-4,0,-20,0,103943,0
103884,-341,-2405,278,-921,-533,-2506,12301,-138,-26,-458,-296,35450,-40,34,127,0,0,3402,-164,0,2720,126,46,11612,-4,0,-21,0,103959,0
103894,-404,-2619,365,-907,-539,-2815,12239,-135,17,-507,-320,35441,-32,34,127,0,0,3387,-181,0,2720,126,46,11622,-4,0,-21,0,103959,0
103904,-347,-2634,351,-929,-576,-2964,12156,-189,-22,-471,-296,35437,-46,34,127,0,0,3377,-82,0,2720,126,46,11632,-4,0,-21,0,103959,0
103914,-291,-2677,237,-960,-581,-3169,12082,-145,-22,-384,-216,35434,-59,34,127,0,0,3370,-82,0,2720,126,46,11642,-4,0,-21,0,103959,0
103924,-148,-2656,201,-905,-596,-3295,12045,-52,87,-415,-128,35425,-68,34,127,0,0,3370,0,0,2720,126,46,11652,-4,0,-21,0,103959,0
103934,-97,-2548,73,-860,-683,-3378,12030,-26,121,-336,-32,35429,-74,34,127,0,0,3380,109,0,2720,126,46,11662,-4,0,-20,0,103959,0
103944,212,-2623,105,-852,-742,-3418,12053,82,106,6,72,35428,-88,34,127,0,0,3396,159,0,2720,126,46,11672,-4,0,-20,0,103959,0
103954,81,-2384,169,-770,-851,-3254,12116,153,148,209,192,35434,-98,34,127,0,0,3424,241,0,2720,126,46,11682,-4,0,-20,0,103959,0
103964,276,-2238,77,-790,-960,-3165,12204,209,125,434,464,35429,-85,34,127,0,0,3471,411,0,2720,126,46,11692,-4,0,-19,0,103959,0
103974,380,-1989,-4,-802,-1097,-2978,12335,326,117,536,728,35429,-75,34,127,0,0,3528,615,0,2720,126,46,11702,-4,0,-18,0,103959,0
103984,151,-1716,41,-757,-932,-2641,12507,391,166,532,920,35434,-70,34,127,0,0,3568,444,0,2720,126,46,11712,-4,0,-18,0,103974,0
103994,63,-2076,-136,-674,-398,-2391,12702,427,118,389,728,35456,-93,34,127,0,0,3581,65,0,2720,126,46,11722,-4,0,-17,0,103974,0
104004,131,-2022,16,-533,-153,-1994,12874,347,0,284,296,35471,-96,34,127,0,0,3569,-142,0,2720,126,46,11732,-4,0,-16,0,104006,0
104014,-205,-1692,183,-406,36,-1273,12962,89,-200,-147,-136,35455,-101,34,127,0,0,3547,-219,0,2720,126,46,11742,-4,0,-15,0,104006,0
104024,-118,-1570,251,-343,117,-839,12904,-181,-471,-172,-112,35441,-97,34,127,0,0,3532,-214,0,2720,126,46,11752,-4,0,-14,0,104006,0
104034,-48,-1423,76,-226,147,-149,12840,-129,-293,-213,-96,35428,-85,34,127,0,0,3531,-49,0,2720,126,46,11762,-4,0,-12,0,104021,0
104044,-7,-1421,43,-172,200,328,12802,-78,61,-192,-64,35433,-82,34,127,0,0,3526,-5,0,2720,126,46,11772,-4,0,-10,0,104037,0
104054,-61,-1436,114,-43,316,1016,12789,5,97,-138,-56,35433,-71,34,127,0,0,3524,-38,0,2720,126,46,11782,-4,0,-8,0,104052,0
104064,-7,-1454,143,16,427,1468,12789,-14,72,-259,-80,35433,-76,34,127,0,0,3522,-21,0,2720,126,46,11792,-4,0,-6,0,104052,0
104074,-5,-1498,153,105,631,2111,12786,4,5,-263,-48,35443,-106,34,127,0,0,3524,5,0,2720,126,46,11802,-4,0,-4,0,104052,0
104084,27,-1524,137,149,772,2519,12788,0,10,-216,-32,35449,-108,34,127,0,0,3523,5,0,2720,126,46,11812,-4,0,-2,0,104084,0
104094,50,-1563,147,224,977,3190,12790,10,5,-201,-16,35448,-98,34,127,0,0,3528,43,0,2720,126,46,11822,-4,0,0,0,104084,0
104104,97,-1577,154,296,1118,3602,12796,25,14,49,104,35443,-103,34,127,0,0,3545,164,0,2720,126,46,11832,-4,0,2,0,104084,0
104114,103,-1626,153,422,1313,4158,12832,95,71,345,208,35440,-104,34,127,0,0,3562,175,0,2720,126,46,11842,-4,0,5,0,104115,0
104124,108,-1675,159,523,1436,4503,12896,144,110,386,328,35436,-113,34,127,0,0,3587,247,0,2720,126,46,11852,-4,0,8,0,104115,0
104134,150,-1733,176,687,1613,4992,12979,181,76,469,424,35433,-75,34,127,0,0,3624,384,0,2720,126,46,11862,-4,0,11,0,104115,0
104144,119,-1785,193,813,1719,5288,13088,277,85,573,624,35435,-59,34,127,0,0,3657,395,0,2720,126,46,11872,-4,0,13,0,104131,0
104154,130,-1879,215,982,1820,5718,13231,321,131,595,856,35434,-46,34,127,0,0,3712,549,0,2720,126,46,11882,-4,0,17,0,104146,0
104164,124,-1954,232,1108,1865,5936,13411,426,126,607,1136,35439,-48,34,127,0,0,3765,587,0,2720,126,46,11892,-4,0,19,0,104146,0
104174,175,-2057,245,1300,1925,6204,13634,513,155,615,1344,35435,-65,34,127,0,0,3836,620,0,2720,126,46,11902,-4,0,23,0,104146,0
104184,194,-2112,266,1429,1939,6344,13894,608,151,612,1528,35430,-75,34,127,0,0,3905,675,0,2720,126,46,11912,-4,0,25,0,104209,0
104194,196,-2176,276,1591,1943,6475,14190,671,143,592,1704,35438,-79,34,127,0,0,3974,686,0,2720,126,46,11922,-4,0,29,0,104209,0
104204,190,-2214,296,1693,1926,6511,14515,726,126,525,1712,35436,-72,34,127,0,0,4038,648,0,2720,126,46,11932,-4,0,31,0,104224,0
104214,186,-2249,268,1862,1890,6483,14848,731,70,517,1672,35431,-59,34,127,0,0,4100,598,0,2720,126,46,11942,-4,0,35,0,104224,0
104224,203,-2235,243,1994,1870,6433,15176,710,11,472,1616,35433,-68,34,127,0,0,4149,560,0,2720,126,46,11952,-4,0,37,0,104224,0
104234,168,-2031,185,2090,1839,6297,15491,682,-32,476,1504,35427,-58,34,127,0,0,4200,444,0,2720,126,46,11962,-4,0,40,0,104240,0
104244,308,-1994,139,1945,1770,6214,15790,639,-49,422,1344,35436,-83,34,127,0,0,4245,401,0,2720,126,46,11972,-4,0,42,0,104271,0
104254,361,-2266,203,1758,1710,6002,16066,580,-77,435,1224,35437,-80,34,127,0,0,4280,351,0,2720,126,46,11982,-4,0,45,2,104271,0
104264,338,-2418,187,1608,1636,5822,16309,516,-109,462,1016,35427,-56,34,127,0,0,4309,280,0,2720,126,46,11992,-4,0,47,1,104287,0
104274,386,-2628,221,1437,1448,5516,16518,445,-117,456,848,35422,-68,34,127,0,0,4330,241,0,2720,126,46,12002,-4,0,49,1,104287,0
104284,441,-2659,254,1376,1289,5193,16697,371,-121,483,648,35416,-78,34,127,0,0,4342,71,0,2720,126,46,12012,-4,0,51,1,104287,0
104294,516,-2452,325,1339,988,4558,16846,314,-109,437,416,35419,-105,34,127,0,0,4352,32,0,2720,126,46,12022,-4,0,52,0,104287,0
104304,545,-2285,329,1422,725,4084,16949,206,-146,404,240,35426,-94,34,127,0,0,4348,16,0,2720,126,46,12032,-4,0,53,0,104287,0
104314,544,-1907,239,1384,294,3122,17015,126,-158,288,104,35429,-67,34,127,0,0,4345,-27,0,2720,126,46,12042,-4,0,55,0,104334,0
104324,522,-1682,176,1230,91,2328,17022,-38,-187,306,64,35433,-57,34,127,0,0,4346,-43,0,2720,126,46,12052,-4,0,55,0,104334,0
104334,414,-1721,43,785,182,838,17018,8,-143,245,8,35439,-32,34,127,0,0,4336,-137,0,2720,126,46,12062,-4,0,55,0,104334,0
104344,309,-1909,-70,385,411,-125,17002,-51,-26,-117,-96,35434,-27,34,127,0,0,4319,-159,0,2720,126,46,12072,-4,0,55,0,104334,0
104354,228,-2295,-72,-32,953,-1392,16962,-110,-71,-317,-176,35416,-31,34,127,0,0,4307,-131,0,2720,126,46,12082,-4,0,55,-1,104334,0
104364,307,-2393,-28,-218,1319,-2085,16896,-144,-88,-294,-184,35424,-46,34,127,0,0,4301,-60,0,2720,126,46,12092,-4,0,55,-2,104349,0
104374,480,-2176,-1,-445,1727,-2853,16828,-119,-49,-172,-120,35448,-70,34,127,0,0,4291,-93,0,2720,126,46,12102,-4,0,54,-3,104365,0
104384,-1656,-4994,-311,-694,632,-2749,16776,-89,31,-159,8,35459,-83,34,127,0,0,4313,307,0,2720,126,46,12112,-4,0,53,-4,104365,0
104394,-96,-2035,1597,-237,800,-1657,16816,262,198,985,1144,35442,-97,34,127,0,0,4436,1137,0,2720,126,46,12122,-4,0,52,-5,104380,0
104404,-362,-1850,1583,191,-18,-1768,17045,560,569,822,1376,35431,-78,34,127,0,0,4498,587,0,2720,126,46,12132,-4,0,51,-6,104396,0
104414,-140,-2288,1319,405,-1576,-528,17312,617,441,883,1856,35428,-70,34,127,0,0,4612,1170,0,2720,126,46,12142,-4,0,50,-7,104396,0
104424,-81,-2069,1000,295,-1799,-416,17674,899,245,1256,2696,35430,-54,34,127,0,0,4757,1417,0,2720,126,46,12152,-4,0,50,-7,104396,0
104434,-856,-1874,-260,-261,-1631,-677,18175,1181,459,1042,3192,35422,-16,35,127,0,0,4897,1378,0,2720,126,46,12162,-4,0,48,-8,104443,0
104444,-699,-2233,-684,-268,-953,-1086,18767,1347,445,820,3320,35402,-11,34,127,0,0,5010,1087,0,2720,126,46,12172,-4,0,48,-9,104443,0
104454,-718,-2189,-300,97,-451,-1412,19374,1308,208,493,3032,35408,-3,34,127,0,0,5098,873,0,2720,126,46,12182,-4,0,46,-10,104443,0
104464,-770,-2262,241,281,-211,-1571,19938,1198,-64,483,2784,35414,-39,34,127,0,0,5172,780,0,2720,126,46,12192,-4,0,45,-10,104459,0
104474,-520,-2320,225,166,103,-2045,20443,1083,-203,510,2440,35421,-38,34,127,0,0,5232,527,0,2720,126,46,12202,-4,0,44,-11,104459,0
104484,13,-2434,290,23,283,-2523,20884,919,-237,369,1904,35431,-45,34,127,0,0,5245,93,0,2720,126,46,12212,-4,0,43,-12,104459,0
104494,293,-2342,84,-176,143,-2805,21235,702,-294,216,1088,35439,-61,34,127,0,0,5231,-214,0,2720,126,46,12222,-4,0,42,-13,104490,0
104504,-73,-2012,44,-180,-4,-2887,21468,434,-403,168,248,35452,-77,34,127,0,0,5193,-428,0,2720,126,46,12232,-4,0,41,-13,104490,0
104514,-6,-2076,-72,-108,-108,-2820,21537,-5,-533,-398,-304,35445,-73,34,127,0,0,5150,-417,0,2720,126,46,12242,-4,0,40,-14,104490,0
104524,389,-2307,-11,56,293,-3262,21418,-318,-691,-443,-768,35432,-77,34,127,0,0,5070,-889,0,2720,126,46,12252,-4,0,39,-15,104537,0
104534,263,-1915,345,136,174,-2903,21225,-487,-498,-606,-1320,35413,-77,34,127,0,0,4988,-812,0,2720,126,46,12262,-4,0,37,-15,104537,0
104544,324,-1971,541,101,67,-2682,20958,-628,-294,-606,-1584,35414,-88,34,127,0,0,4917,-686,0,2720,126,46,12272,-4,0,37,-15,104537,0
104554,172,-1767,419,64,-117,-2203,20640,-718,-245,-493,-1664,35411,-66,34,127,0,0,4851,-631,0,2720,126,46,12282,-4,0,37,-15,104552,0
104564,57,-1985,250,77,-111,-1998,20303,-750,-135,-385,-1568,35408,-58,34,127,0,0,4796,-543,0,2720,126,46,12292,-4,0,37,-15,104553,0
104574,-74,-1913,328,165,10,-1877,19969,-728,-42,-293,-1512,35416,-40,34,127,0,0,4746,-565,0,2720,126,46,12302,-4,0,37,-15,104557,0
104584,4,-1930,419,153,24,-1758,19649,-690,32,-298,-1360,35431,-72,34,127,0,0,4696,-494,0,2720,126,46,12312,-4,0,37,-15,104572,0
104594,-46,-1963,412,140,-32,-1526,19351,-638,73,-314,-1256,35441,-69,34,127,0,0,4653,-444,0,2720,126,46,12322,-4,0,37,-15,104588,0
104604,-105,-2014,308,116,-20,-1440,19075,-600,79,-342,-1176,35435,-56,34,127,0,0,4613,-384,0,2720,126,46,12332,-4,0,37,-15,104588,0
104614,-58,-2058,325,145,49,-1373,18817,-556,77,-336,-1080,35427,-70,34,127,0,0,4576,-401,0,2720,126,46,12342,-4,0,37,-15,104619,0
104624,118,-2108,331,143,37,-1308,18576,-525,71,-341,-968,35423,-78,34,127,0,0,4538,-340,0,2720,126,46,12352,-4,0,37,-15,104619,0
104634,51,-2011,428,114,-47,-1109,18354,-479,58,-326,-912,35428,-87,34,127,0,0,4501,-444,0,2720,126,46,12362,-4,0,37,-15,104635,0
104644,57,-2098,503,90,-72,-977,18142,-463,57,-350,-816,35432,-79,34,127,0,0,4473,-263,0,2720,126,46,12372,-4,0,37,-15,104650,0
104654,63,-2043,570,60,-71,-885,17946,-417,50,-314,-712,35421,-82,34,127,0,0,4445,-296,0,2720,126,46,12382,-4,0,37,-15,104650,0
104664,59,-2015,581,-4,-78,-851,17765,-390,61,-359,-584,35426,-98,34,127,0,0,4419,-252,0,2720,126,46,12392,-4,0,37,-15,104650,0
104674,-78,-2009,554,-82,-85,-815,17601,-362,59,-335,-528,35431,-83,34,127,0,0,4396,-252,0,2720,126,46,12402,-4,0,37,-15,104650,0
104684,-162,-2041,502,-100,-66,-843,17449,-330,59,-338,-472,35435,-65,34,127,0,0,4375,-208,0,2720,126,46,12412,-4,0,37,-15,104697,0
104694,-171,-2024,457,-124,-46,-923,17309,-300,46,-358,-464,35424,-95,34,127,0,0,4349,-258,0,2720,126,46,12422,-4,0,37,-15,104697,0
104704,-95,-2019,462,-174,-50,-978,17170,-314,26,-344,-480,35420,-96,34,127,0,0,4317,-247,0,2720,126,46,12432,-4,0,37,-15,104697,0
104714,-72,-2007,483,-249,-72,-1075,17033,-311,4,-417,-512,35423,-106,34,127,0,0,4282,-373,0,2720,126,46,12442,-4,0,37,-15,104713,0
104724,-121,-1982,480,-303,-85,-1141,16893,-313,0,-455,-576,35432,-68,34,127,0,0,4252,-329,0,2720,126,46,12452,-4,0,37,-15,104713,0
104734,-62,-1981,413,-362,-85,-1202,16739,-351,-33,-465,-632,35438,-59,34,127,0,0,4217,-335,0,2720,126,46,12462,-4,0,37,-15,104713,0
104744,-63,-1971,389,-386,-84,-1224,16573,-377,-53,-464,-672,35447,-76,34,127,0,0,4185,-313,0,2720,126,46,12472,-4,0,37,-15,104775,0
104754,53,-1986,399,-433,-78,-1325,16402,-390,-35,-429,-712,35446,-91,34,127,0,0,4141,-406,0,2720,126,46,12482,-4,0,37,-15,104775,0
104764,73,-2021,404,-453,-74,-1374,16226,-397,-27,-424,-784,35445,-104,34,127,0,0,4100,-472,0,2720,126,46,12492,-4,0,37,-15,104775,0
104774,56,-2026,373,-476,-71,-1388,16044,-402,-19,-480,-824,35427,-67,34,127,0,0,4060,-417,0,2720,126,46,12502,-4,0,37,-15,104775,0
104784,97,-2021,340,-468,-64,-1416,15852,-427,-21,-454,-864,35412,-59,34,127,0,0,4018,-422,0,2720,126,46,12512,-4,0,37,-15,104791,0
104794,101,-1993,287,-463,-76,-1422,15656,-434,-28,-482,-920,35416,-75,34,127,0,0,3978,-411,0,2720,126,46,12522,-4,0,37,-15,104791,0
104804,184,-1998,276,-459,-73,-1442,15460,-431,-8,-495,-944,35430,-88,34,127,0,0,3935,-439,0,2720,126,46,12532,-4,0,37,-15,104791,0
104814,163,-1986,214,-450,-78,-1456,15260,-435,-9,-519,-968,35443,-77,34,127,0,0,3892,-417,0,2720,126,46,12542,-4,0,37,-15,104791,0
104824,213,-1995,182,-437,-59,-1457,15053,-462,-20,-540,-1024,35446,-53,34,127,0,0,3845,-510,0,2720,126,46,12552,-4,0,37,-15,104807,0
104834,219,-1984,220,-392,-52,-1434,14841,-472,-31,-546,-1056,35442,-75,34,127,0,0,3811,-395,0,2720,126,46,12562,-4,0,37,-15,104822,0
104844,226,-2002,238,-356,-54,-1440,14624,-474,-16,-533,-1056,35444,-87,34,127,0,0,3768,-379,0,2720,126,46,12572,-4,0,37,-15,104853,0
104854,241,-2020,306,-333,-78,-1439,14409,-487,-2,-550,-1096,35442,-69,34,127,0,0,3724,-406,0,2720,126,46,12582,-4,0,37,-15,104853,0
104864,231,-2021,326,-337,-77,-1438,14190,-475,-15,-534,-1104,35431,-67,34,127,0,0,3682,-433,0,2720,126,46,12592,-4,0,37,-15,104853,0
104874,255,-2002,308,-342,-84,-1454,13971,-478,-11,-531,-1080,35427,-62,34,127,0,0,3636,-401,0,2720,126,46,12602,-4,0,37,-15,104853,0
104884,236,-1988,279,-327,-89,-1480,13752,-478,3,-559,-1144,35429,-83,34,127,0,0,3600,-444,0,2720,126,46,12612,-4,0,37,-15,104869,0
104894,246,-1988,260,-323,-86,-1496,13531,-492,-1,-533,-1136,35450,-67,34,127,0,0,3558,-401,0,2720,126,46,12622,-4,0,37,-15,104885,0
104904,252,-1978,264,-312,-95,-1518,13309,-483,-5,-534,-1120,35451,-73,34,127,0,0,3513,-433,0,2720,126,46,12632,-4,0,37,-15,104885,0
104914,298,-1967,227,-290,-99,-1561,13090,-489,6,-553,-1128,35440,-102,34,127,0,0,3469,-422,0,2720,126,46,12642,-4,0,37,-15,104885,0
104924,290,-1991,252,-296,-93,-1596,12867,-499,-6,-532,-1168,35437,-94,34,127,0,0,3421,-516,0,2720,126,46,12652,-4,0,37,-15,104916,0
104934,285,-2022,287,-287,-114,-1620,12635,-516,-27,-544,-1152,35438,-88,34,127,0,0,3373,-450,0,2720,126,46,12662,-4,0,37,-15,104916,0
104944,282,-2021,294,-279,-125,-1637,12403,-508,-24,-579,-1168,35444,-51,34,127,0,0,3331,-417,0,2720,126,46,12672,-4,0,37,-15,104932,0
104954,236,-1988,266,-275,-140,-1707,12164,-528,-2,-557,-1192,35438,-56,34,127,0,0,3278,-505,0,2720,126,46,12682,-4,0,37,-15,104947,0
104964,202,-1993,288,-303,-162,-1761,11922,-536,-21,-574,-1232,35439,-68,34,127,0,0,3227,-521,0,2720,126,46,12692,-4,0,37,-15,104947,0
104974,258,-2008,310,-319,-188,-1864,11676,-554,-6,-610,-1296,35439,-75,34,127,0,0,3178,-543,0,2720,126,46,12702,-4,0,37,-15,104963,0
104984,247,-1993,324,-339,-204,-1931,11425,-560,-24,-581,-1304,35442,-72,34,127,0,0,3125,-560,0,2720,126,46,12712,-4,0,37,-15,104963,0
104994,261,-1994,404,-380,-297,-2034,11157,-590,-44,-561,-1312,35427,-64,34,127,0,0,3077,-483,0,2720,126,46,12722,-4,0,37,-15,104978,0
105004,286,-1893,522,-373,-603,-2086,10893,-589,-13,-570,-1336,35432,-56,34,127,0,0,3016,-532,0,2720,126,46,12732,-4,0,37,-15,105010,0
105014,459,-2455,563,-405,-903,-2047,10635,-551,12,-534,-1288,35440,-59,34,127,0,0,2968,-549,0,2720,126,46,12742,-4,0,37,-15,105010,0
105024,-50,-2666,621,-524,-770,-1946,10411,-532,35,-543,-1128,35433,-51,34,127,0,0,2939,-296,0,2720,126,46,12752,-4,0,37,-15,105025,0
105034,-29,-2329,375,-593,-520,-2094,10192,-449,88,-503,-920,35418,-55,34,127,0,0,2915,-230,0,2720,126,46,12762,-4,0,37,-15,105025,0
105044,216,-2126,197,-575,-526,-2197,10008,-391,133,-504,-744,35420,-60,34,127,0,0,2899,-159,0,2720,126,46,12772,-4,0,37,-15,105025,0
105054,333,-2106,151,-588,-738,-2264,9848,-327,111,-489,-592,35435,-68,34,127,0,0,2885,-148,0,2720,126,46,12782,-4,0,37,-15,105072,0
105064,313,-2191,156,-638,-845,-2310,9711,-278,92,-436,-448,35447,-56,34,127,0,0,2871,-148,0,2720,126,46,12792,-4,0,37,-15,105072,0
105074,164,-2322,173,-691,-816,-2466,9612,-206,119,-475,-288,35439,-43,34,127,0,0,2864,-38,0,2720,126,46,12802,-4,0,37,-15,105072,0
105084,87,-2330,254,-705,-788,-2580,9539,-131,119,-448,-232,35428,-84,34,127,0,0,2861,-16,0,2720,126,46,12812,-4,0,37,-15,105072,0
105094,177,-2304,343,-671,-914,-2682,9506,-71,125,-492,-160,35425,-112,34,127,0,0,2858,10,0,2720,126,46,12822,-4,0,37,-15,105088,0
105104,283,-2300,256,-678,-939,-2824,9491,-7,100,-434,-136,35439,-141,34,127,0,0,2865,43,0,2720,126,46,12832,-4,0,37,-15,105088,0
105114,288,-2323,214,-732,-749,-3108,9498,15,84,-355,-40,35455,-114,34,127,0,0,2869,60,0,2720,126,46,12842,-4,0,37,-15,105119,0
105124,-71,-2219,190,-776,-774,-3079,9507,24,37,-139,24,35452,-100,34,127,0,0,2881,115,0,2720,126,46,12852,-4,0,37,-15,105119,0
105134,252,-2356,302,-789,-875,-3161,9530,80,35,139,152,35453,-127,34,127,0,0,2899,181,0,2720,126,46,12862,-4,0,37,-15,105119,0
105144,359,-2325,207,-742,-935,-3413,9602,178,130,277,256,35450,-145,34,127,0,0,2925,186,0,2720,126,46,12872,-4,0,5,0,105119,0
105154,211,-2169,224,-760,-1089,-3634,9688,189,127,378,344,35452,-132,34,127,0,0,2958,269,0,2720,126,46,12882,-4,0,11,0,105166,0
105164,86,-2174,225,-801,-1276,-3609,9798,249,61,392,480,35440,-97,34,127,0,0,2999,433,0,2720,126,46,12892,-4,0,12,0,105166,0
105174,136,-2320,179,-763,-1530,-3753,9933,324,89,488,720,35438,-66,34,127,0,0,3052,598,0,2720,126,46,12902,-4,0,14,0,105166,0
105184,115,-2438,74,-665,-1510,-3971,10107,404,125,537,952,35431,-47,34,127,0,0,3117,598,0,2720,126,46,12912,-4,0,16,0,105166,0
105194,-171,-2465,-102,-431,-1282,-4321,10321,494,151,456,1160,35433,-50,34,127,0,0,3183,675,0,2720,126,46,12922,-4,0,18,0,105181,0
105204,-456,-2474,-268,-352,-970,-4526,10572,578,152,477,1288,35444,-54,34,127,0,0,3242,626,0,2720,126,46,12932,-4,0,20,0,105181,0
105214,-285,-2580,-182,-333,-779,-4827,10847,630,114,441,1456,35451,-61,34,127,0,0,3320,823,0,2720,126,46,12942,-4,0,22,0,105213,0
105224,-273,-2489,43,-243,-683,-5022,11151,693,110,529,1656,35455,-66,34,127,0,0,3387,686,0,2720,126,46,12952,-4,0,25,0,105213,0
105234,554,-2504,5,-225,-982,-5230,11485,748,116,544,1904,35449,-70,34,127,0,0,3490,1010,0,2720,126,46,12962,-4,0,28,0,105213,0
105244,637,-2528,51,-302,-1179,-5616,11866,877,146,633,2096,35427,-31,34,127,0,0,3581,884,0,2720,126,46,12972,-4,0,31,0,105228,0
105254,570,-2476,48,-289,-1405,-5582,12281,914,157,514,2288,35419,-38,34,127,0,0,3681,1087,0,2720,126,46,12982,-4,0,34,0,105244,0
105264,1079,-2319,67,-410,-1651,-5945,12724,1004,108,622,2480,35426,-23,34,127,0,0,3776,856,0,2720,126,46,12992,-4,0,37,0,105244,0
105274,1124,-2997,567,-359,-2607,-5932,13181,997,97,463,2440,35438,-26,34,127,0,0,3867,983,0,2720,126,46,13002,-4,0,41,0,105260,0
105284,1215,-3665,687,-174,-2934,-5798,13640,1020,21,623,2712,35443,-11,34,127,0,0,3982,1192,0,2720,126,46,13012,-4,0,43,0,105275,0
105294,1101,-3934,725,4,-3356,-5226,14138,1125,75,730,3024,35425,-17,34,127,0,0,4119,1395,0,2720,126,46,13022,-4,0,48,0,105275,0
105304,961,-3716,689,65,-3479,-4588,14702,1298,200,929,3704,35416,-26,34,127,0,0,4308,1944,0,2720,126,46,13032,-4,0,51,0,105275,0
105314,441,-2727,842,193,-3989,-3489,15407,1655,392,1153,4584,35416,-3,34,127,0,0,4554,2471,0,2720,126,46,13042,-4,0,56,0,105306,0
105324,56,-2141,610,134,-4224,-2712,16292,2065,623,1271,5440,35397,49,34,127,0,0,4787,2438,0,2720,126,46,13052,-4,0,60,0,105322,0
105334,-289,-1846,452,-49,-4524,-1469,17318,2339,623,1279,6240,35375,96,34,127,0,0,5069,2828,0,2720,126,46,13062,-4,0,66,0,105322,0
105344,1193,-1899,393,-61,-4421,-1096,18482,2662,531,1228,6776,35363,133,34,127,0,0,5325,2438,0,2720,126,46,13072,-4,0,71,0,105338,0
105354,1703,-1316,223,-135,-3076,-1306,19722,2692,425,368,5704,35372,89,34,127,0,0,5396,604,0,2720,126,46,13082,-4,0,78,0,105369,0
105364,1543,-651,-126,-219,-1868,-975,20792,2173,-178,-203,3128,35399,28,34,127,0,0,5311,-950,0,2720,126,46,13092,-4,0,82,0,105385,0
105374,684,-153,-404,-167,-851,-466,21483,1158,-1048,-1389,-56,35425,-66,34,127,0,0,5110,-2010,0,2720,126,46,13102,-4,0,89,0,105400,0
105384,667,-349,-487,-126,-613,187,21446,-562,-2150,-2145,-2200,35425,-85,34,127,0,0,4893,-2208,0,2720,126,46,13112,-4,0,93,61,105400,0
105394,289,-811,-127,82,-513,1094,20983,-1218,-2281,-1405,-3688,35423,-66,34,127,0,0,4680,-2092,0,2720,126,46,13122,-4,0,100,56,105400,0
105404,264,-963,-14,99,-451,1836,20282,-1661,-1236,-936,-4240,35410,-18,34,127,0,0,4504,-1719,0,2720,126,46,13132,-4,0,104,53,105400,0
105414,133,-1122,-3,103,-277,2958,19467,-1822,-679,-479,-4248,35394,20,34,127,0,0,4368,-1274,0,2720,126,46,13142,-4,0,111,49,105400,0
105424,184,-1172,-64,128,-17,3596,18663,-1726,-195,-166,-3600,35394,-9,34,127,0,0,4289,-791,0,2720,126,46,13152,-4,0,115,46,105400,0
105434,359,-1187,-128,202,579,4347,17947,-1495,202,-30,-2792,35408,-44,34,127,0,0,4233,-565,0,2720,126,46,13162,-4,0,122,41,105447,0
105444,508,-1139,-89,203,1046,4761,17343,-1247,383,26,-2088,35429,-84,34,127,0,0,4184,-554,0,2720,126,46,13172,-4,0,127,38,105447,0
105454,583,-1182,-23,335,1750,5336,16853,-1003,438,1,-1624,35436,-77,34,127,0,0,4130,-576,0,2720,126,46,13182,-4,0,134,34,105447,0
105464,599,-1118,-91,350,2130,5762,16461,-807,411,-142,-1464,35421,-74,34,127,0,0,4069,-587,0,2720,126,46,13192,-4,0,139,31,105447,0
105474,616,-1022,-141,340,2518,6437,16126,-715,292,-264,-1416,35409,-75,34,127,0,0,4007,-593,0,2720,126,46,13202,-4,0,147,27,105463,0
105484,614,-984,-166,352,2705,6898,15818,-666,157,-348,-1320,35430,-77,34,127,0,0,3970,-379,0,2720,126,46,13212,-4,0,152,24,105494,0
105494,603,-1053,-163,368,2895,7528,15536,-597,96,-325,-1128,35445,-84,34,127,0,0,3932,-307,0,2720,126,46,13222,-4,0,159,21,105494,0
105504,578,-1184,-113,422,3010,7910,15293,-499,125,-326,-848,35450,-71,34,127,0,0,3912,-208,0,2720,126,46,13232,-4,0,164,19,105494,0
105514,523,-1364,-48,561,3139,8404,15094,-405,165,-332,-632,35441,-64,34,127,0,0,3908,-71,0,2720,126,46,13242,-4,0,172,15,105494,0
105524,568,-1441,17,681,3254,8642,14935,-306,167,-293,-304,35441,-87,34,127,0,0,3912,-16,0,2720,126,46,13252,-4,0,177,13,105510,0
105534,588,-1507,57,849,3366,9038,14835,-176,195,-151,-64,35442,-107,34,127,0,0,3911,5,0,2720,126,46,13262,-4,0,184,11,105510,0
105544,589,-1561,75,936,3358,9385,14830,66,285,-78,-16,35430,-107,34,127,0,0,3919,54,0,2720,126,46,13272,-4,0,190,9,105525,0
105554,682,-1634,109,1095,3245,9965,14856,59,256,198,216,35422,-96,34,127,0,0,3946,285,0,2720,126,46,13282,-4,0,197,7,105556,0
105564,550,-1671,141,1241,3094,10269,14930,209,137,489,480,35424,-85,34,127,0,0,3986,390,0,2720,126,46,13292,-4,0,202,6,105556,0
105574,510,-1880,164,1416,2872,10644,15062,326,214,539,744,35431,-109,34,127,0,0,4044,543,0,2720,126,46,13302,-4,0,210,4,105556,0
105584,630,-2094,226,1546,2763,10778,15241,439,195,603,1112,35430,-88,34,127,0,0,4117,659,0,2720,126,46,13312,-4,0,215,3,105556,0
105594,619,-2341,286,1778,2488,10998,15474,551,199,635,1408,35418,-63,34,127,0,0,4198,845,0,2720,126,46,13322,-4,0,222,1,105588,0
105604,658,-2498,273,1898,2355,11045,15765,683,217,682,1728,35422,-55,34,127,0,0,4287,906,0,2720,126,46,13332,-4,0,227,1,105588,0
105614,741,-2783,232,2113,2183,10925,16109,786,214,677,1992,35432,-55,34,127,0,0,4371,878,0,2720,126,46,13342,-4,0,233,0,105588,0
105624,803,-2983,194,2268,2117,10678,16496,865,182,615,1976,35430,-54,34,127,0,0,4440,653,0,2720,126,46,13352,-4,0,238,0,105619,0
105634,912,-3212,192,2406,2023,10176,16876,806,68,445,1720,35422,-63,34,127,0,0,4475,362,0,2720,126,46,13362,-4,0,244,0,105619,0
105644,935,-3304,264,2423,1916,9806,17211,700,-103,314,1248,35420,-60,34,127,0,0,4485,27,0,2720,126,46,13372,-4,0,247,-1,105635,0
105654,989,-3343,326,2217,1619,9346,17470,515,-237,236,736,35433,-93,34,127,0,0,4487,-21,0,2720,126,46,13382,-4,0,252,-1,105635,0
105664,1162,-3466,323,2081,1460,9017,17646,339,-310,258,344,35425,-80,34,127,0,0,4489,-43,0,2720,126,46,13392,-4,0,255,-1,105650,0
105674,1201,-3357,249,2025,1003,8450,17748,197,-303,276,128,35439,-81,34,127,0,0,4489,-21,0,2720,126,46,13402,-4,0,259,-1,105666,0
105684,1202,-3227,398,1931,492,7797,17789,64,-252,179,8,35431,-61,34,127,0,0,4490,-49,0,2720,126,46,13412,-4,0,261,-1,105666,0
105694,1628,-2875,494,1923,-433,6367,17780,-36,-211,60,-24,35447,-59,34,127,0,0,4482,-71,0,2720,126,46,13422,-4,0,263,-1,105759,0
105704,1685,-2430,478,1910,-1125,5159,17767,-26,-107,-219,-184,35448,-53,34,127,0,0,4451,-324,0,2720,126,46,13432,-4,0,264,-1,105759,0
105714,1826,-2016,326,1594,-2025,3017,17698,-200,-107,-490,-520,35430,-34,34,127,0,0,4411,-505,0,2720,126,46,13442,-4,0,265,-1,105759,0
105724,1596,-1891,103,1083,-2395,1462,17560,-352,-249,-570,-832,35420,-48,34,127,0,0,4349,-615,0,2720,126,46,13452,-4,0,265,-1,105759,0
105734,1259,-2368,-23,226,-2456,-709,17375,-439,-221,-620,-1048,35415,-62,34,127,0,0,4294,-532,0,2720,126,46,13462,-4,0,264,-1,105759,0
105744,1033,-2802,-130,-107,-2234,-1915,17151,-516,-166,-509,-1056,35424,-94,34,127,0,0,4260,-291,0,2720,126,46,13472,-4,0,262,-2,105775,0
105754,931,-3133,-218,-423,-1625,-3246,16927,-466,-72,-349,-792,35426,-68,34,127,0,0,4249,-71,0,2720,126,46,13482,-4,0,261,-2,105775,0
105764,868,-3366,-413,-704,-884,-3902,16736,-397,67,-280,-384,35412,-62,34,127,0,0,4258,98,0,2720,126,46,13492,-4,0,261,-2,105775,0
105774,-1576,-6901,762,-1375,-315,-1606,16621,-86,178,1032,1152,35414,-82,34,127,0,0,4438,2158,0,1602,556,47,6,1,0,261,-2,105775,0
105784,-527,-3492,1474,304,1066,-1995,16912,846,917,1463,2496,35422,-68,34,127,0,0,4564,1104,0,1602,556,47,16,1,0,261,-2,105775,0
105794,727,361,885,511,-1099,-2090,17369,987,1131,479,2168,35429,-47,34,127,0,0,4626,609,0,1602,556,47,26,1,0,261,-2,105775,0
105804,242,-1545,714,529,-1465,-1035,17782,901,199,639,2464,35428,-23,34,127,0,0,4754,1312,0,1602,556,47,36,1,0,261,-2,105791,0
105814,-710,-2468,547,714,-1352,-145,18268,1171,40,1206,3400,35418,-11,34,127,0,0,4940,1878,0,1602,556,47,46,1,0,261,-2,105791,0
105824,-1166,-1960,427,905,-1328,-517,18922,1564,472,1213,4128,35422,-5,34,127,0,0,5122,1664,0,1602,556,47,56,1,0,261,-2,105806,0
105834,-841,-1556,-838,458,-435,-1415,19691,1719,566,736,4120,35421,12,34,127,0,0,5258,1274,0,1602,556,47,66,1,0,261,-2,105822,0
105844,-1149,-1432,-760,-46,152,-1799,20443,1606,186,433,3712,35407,13,34,127,0,0,5350,961,0,1602,556,47,76,1,0,261,-2,105822,0
105854,-971,-2431,34,36,610,-2252,21113,1433,-204,438,3424,35405,-3,34,127,0,0,5448,933,0,1602,556,47,86,1,0,261,-2,105838,0
105864,-701,-2557,308,224,524,-2433,21715,1271,-283,359,2032,35419,-26,34,127,0,0,5531,730,0,1602,556,47,96,1,0,261,-2,105869,0
105874,-283,-2178,239,195,57,-2693,22108,591,-488,-1385,-848,35437,-78,34,127,0,0,5581,494,0,1602,556,47,106,1,0,261,-2,105869,0
105884,-133,-2908,313,57,-171,-2817,21882,-707,-1606,-1311,-2376,35432,-66,34,127,0,0,5611,241,0,1602,556,47,116,1,0,261,-2,105869,0
105894,-140,-1985,208,113,-612,-2991,21397,-1246,-1681,-1415,-3904,35419,-47,34,127,0,0,5605,-49,0,1602,556,47,126,1,0,261,-2,105869,0
105904,52,-1883,138,-53,-472,-3134,20629,-1881,-1008,-1566,-5640,35401,20,34,127,0,0,5584,-274,0,1602,556,47,136,1,0,261,-2,105900,0
105914,-225,-1923,-61,-79,-144,-3365,19536,-2573,-1175,-1256,-6600,35401,74,34,127,0,0,5541,-477,0,1602,556,47,146,1,0,261,-2,105900,0
105924,745,-2434,230,-4,277,-3747,18286,-2812,-936,-1002,-7408,35390,112,34,127,0,0,5466,-889,0,1602,556,47,156,1,0,261,-2,105900,0
105934,191,-1888,557,71,107,-3602,17075,-2296,-279,2134,-496,35397,49,34,127,0,0,5350,-1060,0,1602,556,47,166,1,0,261,-2,105931,0
105944,-46,-1826,616,35,156,-3274,17112,965,2480,4688,3216,35403,-14,34,127,0,0,5261,-829,0,1602,556,47,176,1,0,261,-2,105931,0
105954,613,-2255,694,-137,-89,-2753,17768,1617,3774,1540,4696,35420,-11,34,127,0,0,5189,-785,0,1602,556,47,186,1,0,261,-2,105931,0
105964,-288,-1911,410,-139,-161,-2352,18692,2222,1594,1652,5320,35428,63,34,127,0,0,5117,-703,0,1602,556,47,196,1,0,261,-2,105963,0
105974,-88,-2111,166,-56,78,-2250,19659,1981,644,-226,2704,35409,79,34,127,0,0,5052,-697,0,1602,556,47,206,1,0,261,-2,105963,0
105984,-91,-1945,215,20,47,-2135,20305,1145,-555,-828,680,35421,6,34,127,0,0,4994,-593,0,1602,556,47,216,1,0,261,-2,105963,0
105994,20,-1864,297,42,-107,-1801,20524,84,-1443,-1582,-464,35444,-95,34,127,0,0,4937,-538,0,1602,556,47,226,1,0,261,-2,105978,0
106004,-223,-2013,269,124,-45,-1840,20376,-390,-1576,-449,-776,35465,-127,34,127,0,0,4885,-604,0,1602,556,47,236,1,0,261,-2,106041,0
106014,-98,-2030,327,170,23,-1710,20174,-460,-793,-373,-912,35456,-79,34,127,0,0,4838,-466,0,1602,556,47,246,1,0,261,-2,106041,0
106024,-66,-2022,542,153,9,-1613,19954,-492,-127,-365,-968,35444,-69,34,127,0,0,4785,-521,0,1602,556,47,256,1,0,261,-2,106056,0
106034,-66,-2030,694,66,-29,-1482,19744,-515,-62,-374,-992,35430,-61,34,127,0,0,4746,-477,0,1602,556,47,266,1,0,261,-2,106056,0
106044,-82,-2075,702,-18,-39,-1443,19516,-514,-19,-349,-984,35429,-74,34,127,0,0,4707,-417,0,1602,556,47,276,1,0,261,-2,106056,0
106054,-148,-2030,754,-133,-51,-1484,19292,-496,7,-377,-968,35422,-53,34,127,0,0,4664,-401,0,1602,556,47,286,1,0,261,-2,106088,0
106064,-185,-1965,738,-210,-66,-1533,19072,-497,12,-446,-1024,35408,-55,34,127,0,0,4615,-433,0,1602,556,47,296,1,0,261,-2,106088,0
106074,-263,-1931,703,-331,-90,-1638,18843,-515,-19,-455,-1112,35411,-64,34,127,0,0,4568,-483,0,1602,556,47,306,1,0,261,-2,106088,0
106084,-262,-1929,647,-424,-85,-1726,18606,-531,-36,-431,-1120,35436,-79,34,127,0,0,4512,-560,0,1602,556,47,316,1,0,261,-2,106103,0
106094,-196,-1884,616,-523,-74,-1869,18363,-552,-29,-483,-1280,35447,-61,34,127,0,0,4460,-598,0,1602,556,47,326,1,0,261,-2,106103,0
106104,-131,-1922,571,-585,-69,-1974,18100,-599,-56,-506,-1424,35436,-44,34,127,0,0,4393,-615,0,1602,556,47,336,1,0,261,-2,106119,0
106114,-99,-1913,485,-670,-85,-2069,17815,-636,-81,-478,-1520,35418,-59,34,127,0,0,4329,-670,0,1602,556,47,346,1,0,261,-2,106119,0
106124,-67,-1961,434,-714,-87,-2113,17510,-683,-78,-476,-1592,35421,-55,34,127,0,0,4263,-659,0,1602,556,47,356,1,0,261,-2,106119,0
106134,-4,-2016,320,-734,-92,-2195,17191,-718,6,-480,-1600,35423,-62,34,127,0,0,4192,-670,0,1602,556,47,366,1,0,261,-2,106119,0
106144,53,-2003,300,-731,-89,-2267,16864,-728,-11,-503,-1712,35427,-55,34,127,0,0,4124,-719,0,1602,556,47,376,1,0,261,-2,106119,0
106154,62,-2008,295,-735,-104,-2366,16523,-757,-113,-495,-1744,35433,-66,34,127,0,0,4050,-774,0,1602,556,47,386,1,0,261,-2,106166,0
106164,11,-1995,329,-732,-96,-2394,16173,-774,-46,-488,-1800,35448,-79,34,127,0,0,3979,-791,0,1602,556,47,396,1,0,261,-2,106166,0
106174,65,-1982,376,-733,-87,-2458,15815,-799,-27,-511,-1848,35453,-69,34,127,0,0,3906,-725,0,1602,556,47,406,1,0,261,-2,106166,0
106184,61,-1942,352,-738,-84,-2477,15451,-798,-30,-541,-1896,35429,-60,34,127,0,0,3834,-697,0,1602,556,47,416,1,0,261,-2,106166,0
106194,134,-1927,357,-732,-90,-2504,15084,-805,-11,-576,-1952,35428,-39,34,127,0,0,3759,-703,0,1602,556,47,426,1,0,261,-2,106181,0
106204,208,-1924,335,-740,-106,-2549,14712,-817,-19,-568,-1984,35424,-62,34,127,0,0,3683,-752,0,1602,556,47,436,1,0,261,-2,106181,0
106214,287,-1914,335,-750,-123,-2595,14338,-838,-17,-633,-2064,35445,-63,34,127,0,0,3606,-769,0,1602,556,47,446,1,0,261,-2,106228,0
106224,278,-1934,320,-751,-137,-2614,13958,-841,-14,-582,-2088,35434,-59,34,127,0,0,3535,-725,0,1602,556,47,456,1,0,261,-2,106228,0
106234,325,-1910,233,-725,-139,-2638,13577,-843,-19,-591,-2104,35421,-32,34,127,0,0,3455,-780,0,1602,556,47,466,1,0,261,-2,106228,0
106244,314,-1933,181,-695,-152,-2618,13188,-854,-21,-568,-2120,35412,-53,34,127,0,0,3376,-785,0,1602,556,47,476,1,0,261,-2,106228,0
106254,347,-1991,214,-611,-173,-2519,12791,-879,-28,-559,-2112,35416,-46,34,127,0,0,3304,-730,0,1602,556,47,486,1,0,261,-2,106228,0
106264,438,-1972,179,-556,-172,-2494,12391,-869,-18,-545,-2048,35436,-46,34,127,0,0,3227,-741,0,1602,556,47,496,1,0,261,-2,106259,0
106274,551,-1939,149,-513,-193,-2472,11994,-874,1,-533,-1992,35435,-25,34,127,0,0,3154,-769,0,1602,556,47,506,1,0,261,-2,106259,0
106284,472,-1975,173,-499,-259,-2387,11608,-844,27,-562,-1928,35429,-61,34,127,0,0,3091,-730,0,1602,556,47,516,1,0,261,-2,106275,0
106294,373,-2012,233,-456,-357,-2325,11233,-819,42,-486,-1832,35431,-65,34,127,0,0,3026,-664,0,1602,556,47,526,1,0,261,-2,106275,0
106304,342,-2016,254,-413,-457,-2416,10879,-770,62,-540,-1728,35430,-61,34,127,0,0,2965,-615,0,1602,556,47,536,1,0,261,-2,106291,0
106314,134,-1719,371,-481,-726,-2668,10549,-711,82,-562,-1632,35431,-44,34,127,0,0,2902,-604,0,1602,556,47,546,1,0,261,-2,106306,0
106324,281,-1725,575,-565,-1703,-2821,10237,-665,83,-576,-1584,35430,-62,34,127,0,0,2849,-532,0,1602,556,47,556,1,0,261,-2,106322,0
106334,-190,-3322,719,-698,-1396,-2648,9940,-646,70,-561,-1472,35433,-81,34,127,0,0,2802,-461,0,1602,556,47,566,1,0,261,-2,106322,0
106344,-827,-3320,824,-662,-1125,-2751,9659,-606,58,-512,-1208,35437,-75,34,127,0,0,2771,-203,0,1602,556,47,576,1,0,261,-2,106322,0
106354,-526,-2305,411,-809,-618,-3256,9424,-485,114,-462,-920,35431,-58,34,127,0,0,2755,-175,0,1602,556,47,586,1,0,261,-2,106353,0
106364,-128,-2119,346,-920,-778,-3453,9234,-386,181,-450,-704,35421,-61,34,127,0,0,2741,-148,0,1602,556,47,596,1,0,261,-2,106353,0
106374,191,-2376,346,-1074,-1167,-3659,9080,-322,158,-467,-520,35422,-59,34,127,0,0,2727,-93,0,1602,556,47,606,1,0,261,-2,106353,0
106384,91,-2714,252,-1111,-1217,-3798,8958,-264,121,-448,-360,35436,-67,34,127,0,0,2722,-38,0,1602,556,47,616,1,0,261,-2,106384,0
106394,44,-2812,249,-1156,-1041,-4097,8875,-140,126,-445,-232,35438,-40,34,127,0,0,2721,0,0,1602,556,47,626,1,0,261,-2,106384,0
106404,-54,-2798,361,-1222,-914,-4265,8834,-74,160,-359,-112,35427,-67,34,127,0,0,2725,65,0,1602,556,47,636,1,0,261,-2,106400,0
106414,-301,-2938,425,-1432,-1094,-4210,8845,67,176,-195,72,35426,-108,34,127,0,0,2754,291,0,1602,556,47,646,1,0,261,-2,106400,0
106424,-294,-2805,406,-1472,-1206,-4246,8903,175,194,392,432,35430,-124,34,127,0,0,2817,637,0,1602,556,47,656,1,0,261,-2,106494,0
106434,-281,-2176,353,-1231,-1184,-4969,9044,346,248,519,824,35437,-121,34,127,0,0,2881,648,0,1602,556,47,666,1,0,261,-2,106494,0
106444,-1069,-2023,180,-1209,-1537,-4911,9235,447,260,479,992,35422,-71,34,127,0,0,2945,725,0,1602,556,47,676,1,0,261,-2,106509,0
106454,-298,-3081,256,-1419,-1719,-5321,9466,547,164,594,1424,35409,-59,34,127,0,0,3047,999,0,1602,556,47,686,1,0,261,-2,106509,0
106464,-470,-3636,61,-1195,-1569,-6062,9768,723,212,673,1800,35413,-64,34,127,0,0,3138,873,0,1602,556,47,696,1,0,261,-2,106509,0
106474,-1284,-3665,-333,-912,-1514,-6382,10125,803,252,543,2000,35411,-59,34,127,0,0,3244,1054,0,1602,556,47,706,1,0,37,0,106509,0
106484,-1611,-3174,-346,-673,-1469,-6460,10533,948,203,711,2544,35402,-52,34,127,0,0,3387,1488,0,1602,556,47,716,1,0,41,0,106509,0
106494,-653,-2522,-698,-878,-1184,-7134,11050,1221,309,864,3240,35388,-22,34,127,0,0,3552,1713,0,1602,556,47,726,1,0,48,0,106509,0
106504,-312,-3034,-254,-1208,-934,-7746,11679,1431,435,677,3488,35395,-25,34,127,0,0,3694,1400,0,1602,556,47,736,1,0,53,0,106509,0
106514,1525,-3570,146,-870,-966,-8466,12354,1505,303,614,3856,35399,-21,34,127,0,0,3828,1230,0,1602,556,47,746,1,0,61,0,106509,0
106524,1344,-3782,763,-558,-2333,-8440,13050,1514,132,477,3560,35396,20,34,127,0,0,3941,1115,0,1602,556,47,756,1,0,66,0,106525,0
106534,1229,-4423,765,-165,-2949,-7312,13711,1442,-31,597,3832,35394,11,34,127,0,0,4108,1724,0,1602,556,47,766,1,0,74,0,106525,0
106544,802,-4316,864,-65,-3769,-6483,14420,1618,10,932,4416,35405,15,34,127,0,0,4315,2098,0,1602,556,47,776,1,0,80,0,106525,0
106554,-270,-3282,1344,5,-5016,-4837,15257,1971,337,1340,5648,35420,16,34,127,0,0,4616,3076,0,1602,556,47,786,1,0,90,0,106541,0
106564,-1089,-2627,1472,142,-5590,-3458,16346,2575,732,1649,6912,35403,102,34,127,0,0,4946,3367,0,1602,556,47,796,1,0,97,0,106556,0
106574,168,-2880,699,-416,-6272,-1772,17677,3110,956,1858,8488,35359,198,34,127,0,0,5366,4158,0,1602,556,47,806,1,0,108,0,106556,0
106584,947,-3428,557,-742,-5800,-1552,19278,3673,993,1282,8232,35327,251,34,127,0,0,5730,3482,0,1602,556,47,816,1,0,116,0,106572,0
106594,1527,-2505,679,-515,-3736,-1274,20805,3125,428,-469,4888,35358,155,34,127,0,0,5896,1384,0,1602,556,47,826,1,0,128,54,106587,0
106604,1128,-911,110,-342,-1845,-1215,21756,1557,-1254,-2343,128,35416,-22,34,127,0,0,5817,-950,0,1602,556,47,836,0,0,137,51,106587,0
106614,838,45,-778,-414,344,-1131,21669,-959,-3124,-4095,-4728,35436,-100,34,127,0,0,5570,-2598,0,1602,556,47,846,0,0,149,48,106619,0
106624,378,-150,-337,-276,857,-715,20699,-2564,-3791,-2221,-4264,35387,33,34,127,0,0,5240,-3356,0,1602,556,47,856,0,0,157,45,106619,0
106634,157,-644,-3,-409,1172,81,19898,-1062,-1483,4207,1272,35390,43,34,127,0,0,4927,-3147,0,1602,556,47,866,0,0,168,42,106619,0
106644,21,-1012,115,-514,1080,1727,19964,-68,2226,-1323,-1656,35393,55,34,127,0,0,4682,-2263,0,1602,556,47,876,0,0,176,39,106619,0
106654,75,-1112,138,-386,1243,2864,19596,-991,737,-1394,-2944,35432,-74,34,127,0,0,4509,-1746,0,1602,556,47,886,0,0,187,36,106634,0
106664,8,-970,83,-299,1108,3668,19015,-1365,-1312,-839,-3376,35409,-6,34,127,0,0,4383,-1137,0,1602,556,47,896,0,0,195,33,106650,0
106674,424,-977,46,-245,1292,4502,18377,-1394,-516,-347,-3088,35412,-21,34,127,0,0,4292,-845,0,1602,556,47,906,0,0,207,30,106666,0
106684,574,-957,126,-240,1553,5080,17781,-1273,-12,-192,-2640,35415,-55,34,127,0,0,4223,-637,0,1602,556,47,916,0,0,214,27,106666,0
106694,679,-1025,188,-52,1975,5830,17252,-1116,204,-164,-2256,35416,-66,34,127,0,0,4153,-648,0,1602,556,47,926,0,0,226,24,106681,0
106704,714,-971,68,28,2175,6351,16785,-984,254,-213,-2048,35430,-72,34,127,0,0,4084,-708,0,1602,556,47,936,0,0,233,22,106712,0
106714,698,-883,-60,129,2371,7217,16365,-889,210,-248,-1816,35432,-94,34,127,0,0,4026,-615,0,1602,556,47,946,0,0,245,19,106712,0
106724,706,-772,-93,193,2461,7779,15982,-814,170,-267,-1544,35442,-99,34,127,0,0,3984,-395,0,1602,556,47,956,0,0,252,17,106712,0
106734,675,-693,-150,292,2564,8536,15655,-675,171,-238,-1216,35442,-97,34,127,0,0,3958,-247,0,1602,556,47,966,0,0,263,14,106712,0
106744,625,-805,-121,367,2584,8965,15387,-550,217,-250,-856,35428,-58,35,127,0,0,3944,-93,0,1602,556,47,976,0,0,270,12,106728,0
106754,578,-1037,-62,541,2604,9533,15185,-410,244,-302,-528,35425,-63,34,127,0,0,3935,-21,0,1602,556,47,986,0,0,281,10,106744,0
106764,597,-1161,-27,694,2690,9813,15036,-278,229,-231,-200,35432,-62,34,127,0,0,3934,-10,0,1602,556,47,996,0,0,289,8,106775,0
106774,585,-1258,5,955,2825,10203,14963,-105,247,-163,-32,35439,-79,34,127,0,0,3934,0,0,1602,556,47,1006,0,0,299,6,106775,0
106784,523,-1256,24,1116,2899,10523,14970,36,299,-217,-8,35443,-106,34,127,0,0,3942,87,0,1602,556,47,1016,0,0,306,5,106790,0
106794,571,-1276,32,1348,2852,11108,14985,46,162,94,168,35432,-113,34,127,0,0,3969,302,0,1602,556,47,1026,0,0,317,3,106790,0
106804,505,-1310,65,1544,2782,11440,15060,220,127,409,376,35435,-138,34,127,0,0,4005,357,0,1602,556,47,1036,0,0,324,2,106790,0
106814,632,-1539,79,1843,2732,11906,15183,297,212,536,696,35433,-131,34,127,0,0,4060,510,0,1602,556,47,1046,0,0,334,0,106790,0
106824,622,-1724,93,2072,2706,12170,15353,408,174,561,992,35439,-97,34,127,0,0,4128,631,0,1602,556,47,1056,0,0,341,0,106837,0
106834,790,-1996,102,2341,2798,12341,15568,489,178,600,1192,35435,-45,34,127,0,0,4193,664,0,1602,556,47,1066,0,0,351,-1,106837,0
106844,632,-2232,236,2541,2855,12306,15818,557,155,499,1264,35432,-51,34,127,0,0,4231,516,0,1602,556,47,1076,0,0,357,-1,106853,0
106854,828,-2624,212,2691,3033,12146,16074,552,76,420,1096,35435,-74,34,127,0,0,4268,313,0,1602,556,47,1086,0,0,367,-2,106853,0
106864,898,-2859,229,2738,3106,11997,16304,493,-39,367,832,35428,-71,34,127,0,0,4284,181,0,1602,556,47,1096,0,0,373,-3,106853,0
106874,1130,-3230,206,2862,3117,11677,16497,402,-122,399,672,35422,-72,34,127,0,0,4309,203,0,1602,556,47,1106,0,0,381,-3,106853,0
106884,1294,-3461,185,2856,3044,11368,16664,361,-122,409,568,35435,-79,34,127,0,0,4325,208,0,1602,556,47,1116,0,0,386,-4,106915,0
106894,1479,-3821,322,2610,2875,10649,16805,295,-98,432,488,35450,-93,34,127,0,0,4345,175,0,1602,556,47,1126,0,0,394,-4,106915,0
106904,1644,-4162,401,2361,2837,10084,16921,237,-98,430,336,35458,-86,34,127,0,0,4353,87,0,1602,556,47,1136,0,0,398,-4,106915,0
106914,1924,-4403,516,2110,2300,9322,17019,211,-88,399,304,35432,-54,34,127,0,0,4369,137,0,1602,556,47,1146,0,0,403,-4,106915,0
106924,1951,-4379,801,1909,1605,8098,17101,164,-64,361,200,35417,-53,34,127,0,0,4372,21,0,1602,556,47,1156,0,0,406,-4,106915,0
106934,2735,-3749,769,1764,82,6000,17147,88,-102,248,56,35429,-58,34,127,0,0,4368,-27,0,1602,556,47,1166,0,0,409,-4,106915,0
106944,3113,-3009,629,1594,-898,4191,17141,-89,-161,-115,-184,35444,-74,34,127,0,0,4329,-373,0,1602,556,47,1176,0,0,410,-4,106931,0
106954,3192,-2310,342,1041,-2268,1417,17054,-250,-263,-512,-528,35447,-82,34,127,0,0,4284,-472,0,1602,556,47,1186,0,0,410,-4,106931,0
106964,2823,-2317,232,493,-2866,-438,16912,-338,-260,-588,-912,35438,-71,34,127,0,0,4224,-571,0,1602,556,47,1196,0,0,409,-4,106947,0
106974,2353,-2864,231,-275,-3297,-2727,16721,-454,-199,-603,-1000,35448,-86,34,127,0,0,4183,-313,0,1602,556,47,1206,0,0,406,-5,106994,0
106984,2020,-3198,116,-423,-3258,-3912,16513,-442,-135,-423,-808,35444,-97,34,127,0,0,4168,-71,0,1602,556,47,1216,0,0,404,-5,106994,0
