state_time,accelx,accely,accelz,gyrox,gyroy,gyroz,mot_ang,mot_vel,mot_acc,mot_cur,mot_volt,batt_volt,batt_curr,temperature,status_mn,status_ex,status_re,ank_ang,ank_vel,ank_torque,peak_ank_torque,step_energy,step_count,step_time,gait_state,movement,speed,incline,sys_time,eventFlags
534437,209,-2039,150,-12,-8,-27,12431,20,20,556,136,35258,-68,36,127,0,0,3476,0,0,2316,1492,245,7505,-4,0,115,-1,534450,0
534447,204,-2040,147,-13,-13,-33,12450,53,21,479,128,35262,-68,36,127,0,0,3476,10,0,2316,1492,245,7515,-4,0,115,-1,534450,0
534457,221,-2040,146,-14,-14,-39,12479,59,40,269,80,35263,-65,35,127,0,0,3476,-21,0,2316,1492,245,7525,-4,0,115,-1,534465,0
534467,216,-2037,142,-13,-8,-44,12478,-10,-44,303,72,35259,-77,36,127,0,0,3478,21,0,2316,1492,245,7535,-4,0,115,-1,534465,0
534477,221,-2040,139,-10,-8,-45,12479,3,-61,274,56,35249,-94,35,127,0,0,3476,10,0,2316,1492,245,7545,-4,0,115,-1,534465,0
534487,224,-2043,138,-9,-5,-49,12479,5,11,307,64,35245,-89,35,127,0,0,3476,-10,0,2316,1492,245,7555,-4,0,115,-1,534465,0
534497,206,-2038,147,-12,-16,-43,12477,-9,2,281,56,35246,-91,36,127,0,0,3478,10,0,2316,1492,245,7565,-4,0,115,-1,534465,0
534507,211,-2045,142,-10,-13,-48,12481,21,5,342,56,35256,-99,35,127,0,0,3476,-21,0,2316,1492,245,7575,-4,0,115,-1,534465,0
534517,221,-2042,142,-11,-8,-52,12479,-10,0,338,96,35269,-103,36,127,0,0,3478,-21,0,2316,1492,245,7585,-4,0,115,-1,534512,0
534527,213,-2036,150,-9,-9,-54,12479,0,-7,281,72,35275,-100,35,127,0,0,3476,0,0,2316,1492,245,7595,-4,0,115,-1,534512,0
534537,252,-2034,140,-11,-6,-52,12479,-5,3,276,104,35267,-95,35,127,0,0,3476,21,0,2316,1492,245,7605,-4,0,115,-1,534512,0
534547,236,-2041,142,-10,0,-48,12479,-6,-1,270,72,35258,-100,36,127,0,0,3476,21,0,2316,1492,245,7615,-4,0,115,-1,534512,0
534557,235,-2038,140,2,-8,-42,12479,7,-1,280,72,35252,-87,35,127,0,0,3473,-21,0,2316,1492,245,7625,-4,0,115,-1,534544,0
534567,245,-2036,145,-1,-6,-36,12479,0,0,267,40,35255,-73,36,127,0,0,3476,10,0,2316,1492,245,7635,-4,0,115,-1,534559,0
534577,240,-2041,143,3,0,-29,12480,2,-4,318,64,35256,-92,36,127,0,0,3476,-43,0,2316,1492,245,7645,-4,0,115,-1,534559,0
534587,228,-2036,145,8,-2,-24,12477,-2,-1,282,112,35256,-85,36,127,0,0,3478,21,0,2316,1492,245,7655,-4,0,115,-1,534559,0
534597,239,-2039,146,7,-12,4,12480,-6,3,270,80,35251,-98,35,127,0,0,3478,10,0,2316,1492,245,7665,-4,0,115,-1,534559,0
534607,244,-2042,141,10,0,2,12482,23,3,335,96,35257,-104,35,127,0,0,3480,32,0,2316,1492,245,7675,-4,0,115,-1,534606,0
534617,249,-2035,135,12,-10,14,12484,-3,1,373,80,35262,-96,35,127,0,0,3480,21,0,2316,1492,245,7685,-4,0,115,-1,534606,0
534627,223,-2041,147,14,-4,18,12486,13,-1,430,128,35265,-106,36,127,0,0,3482,0,0,2316,1492,245,7695,-4,0,115,-1,534606,0
534637,237,-2032,145,22,-6,27,12492,13,14,403,184,35258,-88,36,127,0,0,3482,0,0,2316,1492,245,7705,-4,0,115,-1,534606,0
534647,234,-2039,151,24,-6,31,12501,29,12,432,144,35246,-88,36,127,0,0,3487,21,0,2316,1492,245,7715,-4,0,115,-1,534622,0
534657,222,-2035,149,21,-4,36,12525,71,45,370,112,35251,-88,35,127,0,0,3491,21,0,2316,1492,245,7725,-4,0,115,-1,534653,0
534667,238,-2033,158,17,-12,38,12541,0,11,320,112,35255,-75,35,127,0,0,3495,76,0,2316,1492,245,7735,-4,0,115,-1,534653,0
534677,187,-2035,145,21,-3,34,12542,14,-62,452,128,35260,-71,35,127,0,0,3493,21,0,2316,1492,245,7745,-4,0,115,-1,534653,0
534687,228,-2038,160,25,-2,22,12544,6,-13,498,176,35255,-60,36,127,0,0,3495,0,0,2316,1492,245,7755,-4,0,115,-1,534669,0
534697,210,-2029,164,19,1,21,12548,3,6,510,168,35237,-83,35,127,0,0,3500,32,0,2316,1492,245,7765,-4,0,115,-1,534669,0
534707,209,-2048,161,15,0,22,12551,11,2,589,160,35247,-84,35,127,0,0,3502,10,0,2316,1492,245,7775,-4,0,115,-1,534700,0
534717,229,-2035,159,19,-4,18,12561,21,10,563,176,35261,-87,36,127,0,0,3502,32,0,2316,1492,245,7785,-4,0,115,-1,534700,0
534727,220,-2032,160,11,-4,18,12577,36,20,519,168,35269,-83,35,127,0,0,3506,21,0,2316,1492,245,7795,-4,0,115,-1,534700,0
534737,229,-2039,160,14,-7,29,12606,61,39,398,160,35254,-77,35,127,0,0,3509,10,0,2316,1492,245,7805,-4,0,115,-1,534715,0
534747,222,-2039,156,16,-13,27,12618,15,-12,425,128,35243,-90,36,127,0,0,3511,10,0,2316,1492,245,7815,-4,0,115,-1,534715,0
534757,212,-2037,142,21,-9,30,12617,4,-58,514,144,35250,-76,35,127,0,0,3513,21,0,2316,1492,245,7825,-4,0,115,-1,534762,0
534767,224,-2041,151,26,-7,29,12629,32,3,513,176,35270,-69,36,127,0,0,3517,54,0,2316,1492,245,7835,-4,0,115,-1,534762,0
534777,208,-2042,139,37,-6,35,12657,89,55,425,176,35269,-70,35,127,0,0,3520,0,0,2316,1492,245,7845,-4,0,115,-1,534762,0
534787,252,-2031,145,41,-14,49,12683,33,38,375,168,35254,-75,35,127,0,0,3522,0,0,2316,1492,245,7855,-4,0,115,-1,534778,0
534797,210,-2033,154,52,2,47,12687,1,-59,460,176,35242,-105,36,127,0,0,3526,43,0,2316,1492,245,7865,-4,0,115,-1,534825,0
534807,229,-2038,164,53,1,62,12699,40,-26,504,168,35247,-115,35,127,0,0,3528,32,0,2316,1492,245,7875,-4,0,115,-1,534840,0
534817,228,-2030,158,56,-12,83,12727,67,51,386,136,35250,-132,36,127,0,0,3533,21,0,2316,1492,245,7885,-4,0,115,-1,534840,0
534827,250,-2029,153,56,-17,82,12737,-4,1,450,200,35251,-138,35,127,0,0,3539,87,0,2316,1492,245,7895,-4,0,115,-1,534856,0
534837,180,-2035,134,65,-3,86,12744,20,-56,625,224,35255,-150,35,127,0,0,3544,65,0,2316,1492,245,7905,-4,0,115,-1,534856,0
534847,202,-2030,149,72,8,75,12762,47,21,614,200,35254,-172,35,127,0,0,3548,65,0,2316,1492,245,7915,-4,0,115,-1,534856,0
534857,196,-2047,176,67,-2,89,12800,95,61,485,168,35252,-155,35,127,0,0,3550,54,0,2316,1492,245,7925,-4,0,115,-1,534856,0
534867,230,-2042,196,69,1,81,12824,31,13,470,176,35242,-136,35,127,0,0,3555,65,0,2316,1492,245,7935,-4,0,115,-1,534856,0
534877,197,-2040,181,66,-1,91,12843,49,-36,459,208,35246,-120,35,127,0,0,3559,54,0,2316,1492,245,7945,-4,0,115,-1,534856,0
534887,214,-2033,185,62,-1,95,12873,58,21,439,144,35257,-102,36,127,0,0,3563,10,0,2316,1492,245,7955,-4,0,115,-1,534856,0
534897,197,-2037,181,51,-3,96,12889,42,-6,486,168,35273,-85,35,127,0,0,3566,21,0,2316,1492,245,7965,-4,0,115,-1,534856,0
534907,180,-2033,159,53,-14,104,12917,70,2,350,176,35272,-70,35,127,0,0,3572,109,0,2316,1492,245,7975,-4,0,115,-1,534918,0
534917,199,-2036,180,48,-7,95,12937,16,16,434,160,35271,-69,35,127,0,0,3574,21,0,2316,1492,245,7985,-4,0,115,-1,534918,0
534927,164,-2039,187,42,-9,83,12939,19,-63,577,200,35266,-75,35,127,0,0,3577,0,0,2316,1492,245,7995,-4,0,115,-1,534918,0
534937,198,-2039,211,41,0,71,12949,15,-17,572,200,35260,-70,36,127,0,0,3583,54,0,2316,1492,245,8005,-4,0,115,-1,534918,0
534947,163,-2038,213,24,-16,74,12973,66,45,498,208,35248,-75,35,127,0,0,3585,32,0,2316,1492,245,8015,-4,0,115,-1,534918,0
534957,183,-2042,209,14,-8,60,13001,51,35,490,152,35243,-76,35,127,0,0,3588,-21,0,2316,1492,245,8025,-4,0,115,-1,534918,0
534967,184,-2041,211,7,-11,52,13016,34,-24,550,184,35249,-94,36,127,0,0,3594,32,0,2316,1492,245,8035,-4,0,115,-1,534965,0
534977,173,-2038,215,-8,-8,49,13052,94,12,416,120,35263,-94,35,127,0,0,3599,32,0,2316,1492,245,8045,-4,0,115,-1,534965,0
534987,184,-2031,206,-13,-22,32,13084,50,40,335,96,35267,-71,36,127,0,0,3599,43,0,2316,1492,245,8055,-4,0,115,-1,534965,0
534997,136,-2036,151,-25,-19,14,13105,43,-33,299,72,35260,-55,35,127,0,0,3603,54,0,2316,1492,245,8065,-4,0,115,-1,534965,0
535007,128,-2033,148,-11,-4,-18,13111,-4,-46,349,120,35249,-41,35,127,0,0,3601,10,0,2316,1492,245,8075,-4,0,115,-1,534965,0
535017,167,-2028,181,-9,1,-38,13109,-1,-42,362,112,35267,-39,36,127,0,0,3603,32,0,2316,1492,245,8085,-4,0,115,-1,535012,0
535027,180,-2037,200,-14,-10,-45,13114,-4,-6,408,136,35278,-17,35,127,0,0,3603,0,0,2316,1492,245,8095,-4,0,115,-1,535012,0
535037,176,-2039,206,-16,-10,-53,13111,-9,-6,343,88,35272,-6,35,127,0,0,3603,32,0,2316,1492,245,8105,-4,0,115,-1,535012,0
535047,186,-2040,208,-20,-3,-48,13114,18,-6,387,104,35257,-14,35,127,0,0,3603,0,0,2316,1492,245,8115,-4,0,115,-1,535012,0
535057,201,-2038,201,-31,-5,-42,13113,4,2,401,144,35255,-15,36,127,0,0,3603,0,0,2316,1492,245,8125,-4,0,115,-1,535043,0
535067,204,-2041,188,-37,-5,-38,13112,-12,-6,387,72,35274,-11,35,127,0,0,3603,0,0,2316,1492,245,8135,-4,0,115,-1,535043,0
535077,201,-2046,198,-40,-4,-9,13115,14,3,405,136,35277,-13,36,127,0,0,3605,0,0,2316,1492,245,8145,-4,0,115,-1,535059,0
535087,232,-2042,211,-38,-7,0,13117,1,4,418,136,35274,-13,36,127,0,0,3610,54,0,2316,1492,245,8155,-4,0,115,-1,535059,0
535097,206,-2038,223,-61,-10,28,13120,17,10,503,176,35263,-17,35,127,0,0,3607,21,0,2316,1492,245,8165,-4,0,115,-1,535090,0
535107,216,-2041,238,-71,-11,27,13123,11,7,541,192,35261,-21,36,127,0,0,3610,-21,0,2316,1492,245,8175,-4,0,115,-1,535090,0
535117,206,-2043,238,-96,-15,45,13125,8,-5,574,144,35263,-20,36,127,0,0,3612,-10,0,2316,1492,245,8185,-4,0,115,-1,535090,0
535127,195,-2041,238,-114,-21,47,13127,13,-1,642,192,35261,-14,36,127,0,0,3616,32,0,2316,1492,245,8195,-4,0,115,-1,535090,0
535137,194,-2039,216,-130,-19,57,13138,15,15,629,264,35262,-27,36,127,0,0,3621,65,0,2316,1492,245,8205,-4,0,115,-1,535122,0
535147,164,-2042,193,-139,-23,55,13164,78,43,618,200,35267,-9,35,127,0,0,3621,10,0,2316,1492,245,8215,-4,0,115,-1,535122,0
535157,197,-2039,185,-149,-29,56,13193,42,38,447,160,35267,-6,36,127,0,0,3625,65,0,2316,1492,245,8225,-4,0,115,-1,535122,0
535167,139,-2039,172,-149,-22,45,13206,34,-32,600,184,35256,-22,35,127,0,0,3625,-21,0,2316,1492,245,8235,-4,0,115,-1,535137,0
535177,159,-2039,180,-144,-8,28,13228,71,-18,460,168,35255,-65,35,127,0,0,3629,10,0,2316,1492,245,8245,-4,0,115,-1,535137,0
535187,170,-2033,192,-150,-13,34,13259,56,38,386,152,35266,-70,36,127,0,0,3634,54,0,2316,1492,245,8255,-4,0,115,-1,535184,0
535197,144,-2040,200,-163,-15,13,13278,44,-11,425,176,35278,-74,35,127,0,0,3636,0,0,2316,1492,245,8265,-4,0,115,-1,535184,0
535207,161,-2040,207,-169,-11,12,13301,46,-16,299,88,35269,-70,35,127,0,0,3636,0,0,2316,1492,245,8275,-4,0,115,-1,535184,0
535217,145,-2045,223,-189,-11,-14,13302,-4,-36,336,104,35264,-109,36,127,0,0,3640,43,0,2316,1492,245,8285,-4,0,115,-1,535200,0
535227,138,-2043,219,-206,-13,-16,13306,3,-41,389,96,35262,-99,36,127,0,0,3638,10,0,2316,1492,245,8295,-4,0,115,-1,535200,0
535237,130,-2040,188,-218,-28,-42,13305,-1,8,370,112,35278,-98,35,127,0,0,3638,21,0,2316,1492,245,8305,-4,0,115,-1,535247,0
535247,136,-2044,168,-222,-29,-59,13305,-1,-6,384,128,35286,-93,35,127,0,0,3638,-10,0,2316,1492,245,8315,-4,0,115,-1,535247,0
535257,114,-2046,162,-217,-24,-72,13305,9,0,379,96,35285,-89,36,127,0,0,3638,0,0,2316,1492,245,8325,-4,0,115,-1,535262,0
535267,161,-2040,164,-213,-25,-83,13304,-4,-6,353,104,35277,-90,36,127,0,0,3638,21,0,2316,1492,245,8335,-4,0,115,-1,535262,0
535277,193,-2034,153,-210,-22,-78,13307,3,4,374,56,35263,-79,36,127,0,0,3636,-32,0,2316,1492,245,8345,-4,0,115,-1,535262,0
535287,190,-2044,142,-204,-24,-71,13304,13,-3,336,112,35262,-70,35,127,0,0,3640,32,0,2316,1492,245,8355,-4,0,115,-1,535262,0
535297,236,-2036,126,-186,-19,-49,13306,-4,2,381,96,35259,-64,35,127,0,0,3640,10,0,2316,1492,245,8365,-4,0,115,-1,535278,0
535307,192,-2036,132,-180,-7,-39,13307,13,0,397,88,35263,-73,36,127,0,0,3638,-10,0,2316,1492,245,8375,-4,0,115,-1,535278,0
535317,204,-2035,132,-171,-10,-15,13305,-7,-5,363,64,35273,-82,36,127,0,0,3638,0,0,2316,1492,245,8385,-4,0,115,-1,535293,0
535327,195,-2028,137,-163,-9,-4,13306,0,3,360,56,35280,-84,36,127,0,0,3638,0,0,2316,1492,245,8395,-4,0,115,-1,535309,0
535337,215,-2040,134,-155,-8,-8,13305,-1,-1,339,64,35269,-96,35,127,0,0,3636,10,0,2316,1492,245,8405,-4,0,115,-1,535309,0
535347,178,-2045,145,-152,3,-2,13306,8,5,364,80,35257,-96,35,127,0,0,3636,-32,0,2316,1492,245,8415,-4,0,115,-1,535309,0
535357,148,-2041,145,-150,-11,-1,13304,-12,1,329,112,35256,-110,36,127,0,0,3638,10,0,2316,1492,245,8425,-4,0,115,-1,535325,0
535367,168,-2034,147,-142,0,5,13306,-1,0,343,96,35273,-102,36,127,0,0,3638,21,0,2316,1492,245,8435,-4,0,115,-1,535340,0
535377,157,-2030,147,-142,-4,2,13306,0,4,365,96,35269,-88,35,127,0,0,3640,32,0,2316,1492,245,8445,-4,0,115,-1,535356,0
535387,157,-2045,153,-148,-15,13,13306,-6,1,393,96,35274,-82,36,127,0,0,3640,32,0,2316,1492,245,8455,-4,0,115,-1,535356,0
535397,147,-2038,135,-143,-16,-7,13309,10,5,448,104,35262,-85,35,127,0,0,3640,0,0,2316,1492,245,8465,-4,0,115,-1,535356,0
535407,127,-2036,129,-142,-12,-25,13308,-6,3,427,112,35266,-86,36,127,0,0,3643,32,0,2316,1492,245,8475,-4,0,115,-1,535418,0
535417,153,-2034,156,-143,5,-44,13313,11,-1,477,128,35266,-94,36,127,0,0,3640,-21,0,2316,1492,245,8485,-4,0,115,-1,535418,0
535427,153,-2046,166,-153,-8,-58,13312,9,3,471,136,35264,-86,35,127,0,0,3643,-21,0,2316,1492,245,8495,-4,0,115,-1,535434,0
535437,146,-2040,148,-160,-22,-56,13313,7,-7,464,128,35266,-96,36,127,0,0,3640,-21,0,2316,1492,245,8505,-4,0,115,-1,535434,0
535447,166,-2040,152,-164,-22,-66,13313,3,5,424,144,35258,-91,35,127,0,0,3643,10,0,2316,1492,245,8515,-4,0,115,-1,535434,0
535457,165,-2034,153,-166,-37,-75,13313,2,-2,444,96,35252,-88,36,127,0,0,3643,10,0,2316,1492,245,8525,-4,0,115,-1,535434,0
535467,124,-2040,129,-166,-36,-83,13310,-1,2,407,152,35249,-93,36,127,0,0,3638,-10,0,2316,1492,245,8535,-4,0,115,-1,535465,0
535477,137,-2045,112,-161,-17,-115,13312,12,1,403,112,35254,-106,36,127,0,0,3640,-32,0,2316,1492,245,8545,-4,0,115,-1,535465,0
535487,177,-2042,121,-157,-2,-126,13311,6,-4,389,72,35268,-106,36,127,0,0,3634,-87,0,2316,1492,245,8555,-4,0,115,-1,535465,0
535497,201,-2054,130,-147,4,-107,13305,-5,-17,273,112,35268,-91,36,127,0,0,3636,0,0,2316,1492,245,8565,-4,0,115,-1,535481,0
535507,270,-2048,130,-136,-8,-68,13307,-15,2,240,80,35253,-88,35,127,0,0,3634,-10,0,2316,1492,245,8575,-4,0,115,-1,535481,0
535517,261,-2038,122,-134,-14,-30,13306,0,6,223,48,35250,-93,35,127,0,0,3634,0,0,2316,1492,245,8585,-4,0,115,-1,535481,0
535527,232,-2046,130,-130,-9,-6,13307,6,3,240,88,35261,-81,36,127,0,0,3634,-21,0,2316,1492,245,8595,-4,0,115,-1,535590,0
535537,211,-2043,149,-133,-5,22,13305,-13,-5,224,128,35274,-78,35,127,0,0,3636,32,0,2316,1492,245,8605,-4,0,115,-1,535590,0
535547,218,-2035,145,-139,1,33,13307,-4,0,277,72,35262,-79,35,127,0,0,3634,-21,0,2316,1492,245,8615,-4,0,115,-1,535590,0
535557,167,-2037,129,-151,-25,56,13308,5,0,297,56,35250,-98,36,127,0,0,3638,21,0,2316,1492,245,8625,-4,0,115,-1,535590,0
535567,174,-2039,113,-158,-44,79,13307,-13,0,346,160,35247,-95,35,127,0,0,3640,54,0,2316,1492,245,8635,-4,0,115,-1,535590,0
535577,116,-2043,146,-151,-40,52,13313,7,11,424,128,35250,-92,36,127,0,0,3645,21,0,2316,1492,245,8645,-4,0,115,-1,535606,0
535587,92,-2049,160,-162,-32,17,13314,4,-2,516,152,35258,-96,35,127,0,0,3649,54,0,2316,1492,245,8655,-4,0,115,-1,535606,0
535597,70,-2044,162,-191,-31,-31,13322,30,10,593,120,35263,-82,35,127,0,0,3647,-43,0,2316,1492,245,8665,-4,0,115,-1,535606,0
535607,58,-2044,162,-207,-29,-69,13327,3,7,574,176,35263,-91,36,127,0,0,3649,-10,0,2316,1492,245,8675,-4,0,115,-1,535606,0
535617,55,-2046,194,-233,-50,-131,13331,7,-8,543,120,35262,-92,35,127,0,0,3645,-10,0,2316,1492,245,8685,-4,0,115,-1,535606,0
535627,30,-2044,214,-269,-63,-187,13340,14,7,434,104,35249,-94,36,127,0,0,3645,-32,0,2316,1492,245,8695,-4,0,115,-1,535606,0
535637,-84,-2039,217,-326,-39,-371,13342,1,-4,363,56,35247,-96,35,127,0,0,3638,-87,0,2316,1492,245,8705,-4,0,115,-1,535606,0
535647,-91,-2030,223,-373,-36,-470,13327,-61,-43,120,0,35252,-85,35,127,0,0,3627,-131,0,2316,1492,245,8715,-4,0,115,-1,535621,0
535657,-207,-2047,254,-450,-53,-721,13291,-91,-86,-58,-112,35278,-89,36,127,0,0,3610,-186,0,2316,1492,245,8725,-4,0,115,-1,535684,0
535667,-288,-2040,302,-521,-90,-912,13257,-91,-39,-432,-264,35280,-77,36,127,0,0,3585,-252,0,2316,1492,245,8735,-4,0,115,-1,535684,0
535677,-486,-2049,362,-668,-122,-1312,13184,-185,-69,-553,-472,35267,-80,35,127,0,0,3552,-340,0,2316,1492,245,8745,-4,0,115,-1,535684,0
535687,-500,-2043,390,-761,-142,-1652,13069,-282,-156,-572,-608,35243,-73,35,127,0,0,3509,-428,0,2316,1492,245,8755,-4,0,115,-1,535684,0
535697,-591,-2023,395,-940,-168,-2199,12926,-334,-136,-608,-856,35240,-52,36,127,0,0,3454,-604,0,2316,1492,245,8765,-4,0,115,-1,535700,0
535707,-693,-2017,403,-1061,-166,-2603,12746,-434,-128,-718,-1160,35245,-42,35,127,0,0,3379,-736,0,2316,1492,245,8775,-4,0,115,-1,535700,0
535717,-774,-2098,389,-1230,-200,-3229,12506,-566,-194,-767,-1552,35240,-45,35,127,0,0,3291,-900,0,2316,1492,245,8785,-4,0,115,-1,535700,0
535727,-990,-2451,92,-1408,-325,-3565,12201,-728,-249,-836,-1984,35235,-56,36,127,0,0,3197,-944,0,2316,1492,245,8795,-4,0,115,-1,535700,0
535737,-1237,-3967,523,-1511,-746,-3726,11828,-848,-261,-694,-2056,35237,-44,36,127,0,0,3126,-714,0,2316,1492,245,8805,-4,0,115,-1,535715,0
535747,-1428,-4187,557,-1405,-836,-3910,11440,-837,-142,-464,-1720,35243,-41,36,127,0,0,3095,-263,0,2316,1492,245,8815,-4,0,115,-1,535731,0
535757,-1260,-3905,574,-1239,-859,-4418,11107,-683,97,-286,-1112,35253,-41,35,127,0,0,3089,-76,0,2316,1492,245,8825,-4,0,115,-1,535731,0
535767,-1090,-3879,318,-1198,-932,-4585,10862,-482,330,-269,-616,35254,-64,35,127,0,0,3098,131,0,2316,1492,245,8835,-4,0,115,-1,535746,0
535777,-379,-3679,45,-981,-1443,-4684,10703,-278,291,-107,16,35250,-81,36,127,0,0,3146,483,0,2316,1492,245,8845,-4,0,115,-1,535746,0
535787,-180,-3763,28,-976,-1710,-4645,10743,249,477,565,576,35252,-75,35,127,0,0,3216,703,0,2316,1492,245,8855,-4,0,6,0,535746,0
535797,1057,-3490,-432,-1048,-1975,-4720,10920,427,661,609,1376,35258,-38,36,127,0,0,3335,1241,0,2316,1492,245,8865,-4,0,13,0,535793,0
535807,1903,-3800,-510,-957,-1163,-5576,11209,717,458,722,1560,35263,-42,35,127,0,0,3364,131,0,2316,1492,245,8875,-4,0,16,0,535809,0
535817,1012,-4623,-227,-814,-161,-6097,11525,645,291,71,224,35252,-56,35,127,0,0,3273,-999,0,2316,1492,245,8885,-4,0,18,0,535809,0
535827,961,-4589,301,-745,-117,-5686,11584,-237,-435,-1531,-896,35249,-77,36,127,0,0,3188,-780,0,2316,1492,245,8895,-4,0,20,0,535809,0
535837,1204,-4149,444,-758,132,-5522,11380,-469,-1091,-528,-944,35248,-51,35,127,0,0,3150,-362,0,2316,1492,245,8905,-4,0,24,0,535809,0
535847,1539,-3516,98,-878,318,-5500,11165,-461,-505,-428,-880,35243,-46,35,127,0,0,3111,-417,0,2316,1492,245,8915,-4,0,26,0,535824,0
535857,1557,-2836,-214,-830,270,-5369,10965,-447,17,-572,-1064,35252,-73,36,127,0,0,3045,-681,0,2316,1492,245,8925,-4,0,30,0,535824,0
535867,1539,-2643,-358,-852,-13,-5114,10745,-507,-2,-728,-1336,35261,-78,36,127,0,0,2977,-670,0,2316,1492,245,8935,-4,0,32,0,535856,0
535877,1486,-2733,-251,-719,-326,-4696,10492,-576,-115,-663,-1376,35271,-79,35,127,0,0,2926,-472,0,2316,1492,245,8945,-4,0,35,0,535856,0
535887,1434,-2662,-164,-647,-412,-4470,10234,-556,-75,-574,-1240,35261,-61,35,127,0,0,2885,-439,0,2316,1492,245,8955,-4,0,38,0,535856,0
535897,1334,-2284,-90,-573,-532,-4129,9992,-532,26,-544,-1152,35247,-65,36,127,0,0,2845,-395,0,2316,1492,245,8965,-4,0,41,0,535856,0
535907,1284,-2186,-71,-469,-575,-3859,9763,-487,58,-543,-1112,35246,-62,36,127,0,0,2794,-494,0,2316,1492,245,8975,-4,0,43,0,535949,0
535917,1180,-1870,-186,-328,-612,-3347,9537,-486,27,-573,-1104,35247,-59,36,127,0,0,2755,-406,0,2316,1492,245,8985,-4,0,47,0,535949,0
535927,1067,-1653,-193,-224,-554,-2990,9318,-472,24,-532,-1032,35252,-58,35,127,0,0,2718,-362,0,2316,1492,245,8995,-4,0,49,0,535949,0
535937,917,-1311,-216,-93,-440,-2449,9112,-451,27,-515,-944,35247,-54,35,127,0,0,2680,-351,0,2316,1492,245,9005,-4,0,53,0,535949,0
535947,804,-1109,-187,-49,-282,-2059,8914,-430,38,-519,-904,35243,-57,36,127,0,0,2645,-362,0,2316,1492,245,9015,-4,0,55,0,535949,0
535957,616,-872,-150,-13,-22,-1425,8735,-389,50,-560,-840,35243,-59,35,127,0,0,2614,-285,0,2316,1492,245,9025,-4,0,59,0,535949,0
535967,506,-750,-131,16,168,-981,8562,-373,48,-527,-784,35243,-71,36,127,0,0,2586,-252,0,2316,1492,245,9035,-4,0,62,0,535949,0
535977,383,-573,-102,119,442,-319,8400,-346,29,-507,-704,35246,-101,35,127,0,0,2564,-197,0,2316,1492,245,9045,-4,0,65,0,535949,0
535987,359,-453,-98,182,587,130,8249,-296,38,-505,-552,35245,-90,35,127,0,0,2542,-208,0,2316,1492,245,9055,-4,0,68,0,535965,0
535997,326,-304,-92,296,729,830,8116,-285,61,-529,-512,35249,-90,36,127,0,0,2518,-219,0,2316,1492,245,9065,-4,0,72,0,535965,0
536007,288,-210,-96,385,782,1275,7993,-266,47,-511,-424,35264,-68,36,127,0,0,2498,-208,0,2316,1492,245,9075,-4,0,75,0,535981,0
536017,220,-87,-90,513,801,1934,7891,-218,60,-557,-416,35273,-92,36,127,0,0,2485,-142,0,2316,1492,245,9085,-4,0,79,0,535981,0
536027,169,-26,-92,592,807,2359,7797,-203,52,-498,-312,35272,-122,36,127,0,0,2474,-76,0,2316,1492,245,9095,-4,0,82,0,536028,0
536037,121,60,-100,707,818,2938,7719,-149,52,-440,-248,35265,-118,36,127,0,0,2469,-32,0,2316,1492,245,9105,-4,0,86,0,536028,0
536047,111,118,-104,781,823,3288,7674,-81,99,-460,-152,35265,-91,36,127,0,0,2467,0,0,2316,1492,245,9115,-4,0,89,147,536028,0
536057,103,162,-142,864,844,3752,7635,-57,74,-363,-104,35261,-73,35,127,0,0,2469,65,0,2316,1492,245,9125,-4,0,93,139,536028,0
536067,94,170,-176,912,865,4037,7635,15,86,-370,-80,35252,-52,36,127,0,0,2469,65,0,2316,1492,245,9135,-4,0,95,134,536043,0
536077,113,156,-184,949,902,4407,7635,-7,75,-359,-48,35254,-57,36,127,0,0,2469,32,0,2316,1492,245,9145,-4,0,99,126,536043,0
536087,28,98,-185,955,884,4652,7637,9,-10,-320,-72,35266,-38,36,127,0,0,2474,54,0,2316,1492,245,9155,-4,0,102,121,536059,0
536097,120,-1,-175,946,908,4964,7646,34,11,-88,48,35280,-35,35,127,0,0,2489,164,0,2316,1492,245,9165,-4,0,105,113,536074,0
536107,163,-101,-165,941,958,5113,7681,74,61,211,184,35275,-35,35,127,0,0,2509,230,0,2316,1492,245,9175,-4,0,108,109,536074,0
536117,282,-169,-151,936,1120,5223,7743,168,95,350,224,35270,-58,36,127,0,0,2531,208,0,2316,1492,245,9185,-4,0,112,101,536106,0
536127,465,-199,-135,881,1133,5328,7826,170,108,332,280,35272,-59,36,127,0,0,2551,230,0,2316,1492,245,9195,-4,0,114,97,536106,0
536137,671,-383,-35,822,968,5384,7906,176,28,400,312,35270,-71,36,127,0,0,2572,208,0,2316,1492,245,9205,-4,0,118,90,536106,0
536147,741,-568,-22,746,831,5343,8000,210,14,395,408,35262,-90,35,127,0,0,2601,285,0,2316,1492,245,9215,-4,0,120,86,536153,0
536157,889,-791,-30,640,621,5225,8105,234,39,494,440,35263,-126,35,127,0,0,2634,318,0,2316,1492,245,9225,-4,0,123,80,536153,0
536167,1003,-896,-41,565,468,5096,8229,285,60,491,592,35270,-119,36,127,0,0,2674,384,0,2316,1492,245,9235,-4,0,125,77,536153,0
536177,1202,-1095,-54,482,225,4796,8379,353,82,511,656,35277,-106,35,127,0,0,2718,395,0,2316,1492,245,9245,-4,0,127,72,536153,0
536187,1296,-1240,-79,436,89,4536,8550,380,92,464,744,35263,-50,35,127,0,0,2761,439,0,2316,1492,245,9255,-4,0,129,69,536153,0
536197,1320,-1451,-107,403,-17,4051,8724,379,41,419,784,35263,-61,36,127,0,0,2801,417,0,2316,1492,245,9265,-4,0,131,64,536199,0
536207,1343,-1606,-133,385,-43,3685,8908,411,27,445,752,35275,-55,36,127,0,0,2838,351,0,2316,1492,245,9275,-4,0,132,62,536199,0
536217,1464,-1816,-122,353,-26,3060,9087,379,11,388,752,35279,-67,36,127,0,0,2867,285,0,2316,1492,245,9285,-4,0,133,58,536199,0
536227,1473,-1922,-88,329,25,2631,9262,376,-16,394,608,35277,-71,36,127,0,0,2891,230,0,2316,1492,245,9295,-4,0,134,56,536199,0
536237,1426,-2153,-67,285,147,1970,9428,354,-25,331,464,35264,-40,36,127,0,0,2906,175,0,2316,1492,245,9305,-4,0,134,53,536215,0
536247,1351,-2308,-33,250,242,1546,9567,289,-75,292,376,35257,-54,36,127,0,0,2933,241,0,2316,1492,245,9315,-4,0,134,51,536215,0
536257,1299,-2392,9,191,445,898,9685,242,-90,384,456,35272,-66,36,127,0,0,2964,318,0,2316,1492,245,9325,-4,0,134,51,536309,0
536267,1270,-2419,36,143,577,478,9810,271,-34,403,496,35281,-79,35,127,0,0,3003,417,0,2316,1492,245,9335,-4,0,134,51,536309,0
536277,1248,-2443,68,91,707,-100,9951,336,32,521,672,35281,-67,35,127,0,0,3047,439,0,2316,1492,245,9345,-4,0,134,51,536324,0
536287,1278,-2464,77,52,706,-417,10116,369,88,517,880,35261,-50,35,127,0,0,3100,505,0,2316,1492,245,9355,-4,0,134,51,536324,0
536297,1242,-2449,192,38,616,-891,10315,447,106,456,936,35249,-62,35,127,0,0,3155,571,0,2316,1492,245,9365,-4,0,134,51,536324,0
536307,1212,-2366,210,19,475,-1145,10533,484,97,445,1000,35245,-67,35,127,0,0,3197,428,0,2316,1492,245,9375,-4,0,134,51,536340,0
536317,7989,-7456,-316,-194,775,-3873,10759,524,50,374,976,35242,-77,35,127,0,0,3164,-450,0,2316,1492,245,9385,-4,0,134,51,536340,0
536327,-1315,-4010,1243,531,-319,-3739,10849,-263,-176,-2120,-2328,35242,-81,35,127,0,0,2880,-2702,0,1692,9,246,7,1,3,134,51,536340,0
536337,98,-2501,746,98,-187,-2389,10412,-1051,-1370,-887,-2568,35233,-43,36,127,0,0,2770,-1164,0,1692,9,246,17,1,3,134,51,536340,0
536347,-1822,-2659,286,-833,-1763,-1565,9921,-1083,-1112,-557,-2384,35239,-22,35,127,0,0,2718,-417,0,1692,9,246,27,1,3,134,51,536340,0
536357,-803,-1735,-340,-759,-857,-2118,9479,-900,5,-223,-1736,35228,-11,35,127,0,0,2691,-230,0,1692,9,246,37,1,3,134,51,536340,0
536367,484,-2644,-513,-680,-1285,-2384,9134,-712,294,-251,-1264,35236,-43,36,127,0,0,2652,-417,0,1692,9,246,47,1,3,134,51,536340,0
536377,1143,-2856,263,-657,-396,-1647,8855,-577,314,-318,-912,35260,-59,36,127,0,0,2645,-21,0,1692,9,246,57,1,3,134,51,536340,0
536387,346,-1520,365,-691,-459,-1604,8649,-399,266,-307,-512,35278,-78,36,127,0,0,2641,-54,0,1692,9,246,67,1,3,134,51,536356,0
536397,634,-1202,-171,-872,-68,-1729,8514,-252,273,-325,-320,35279,-85,35,127,0,0,2627,-120,0,1692,9,246,77,1,3,134,51,536387,0
536407,961,-1027,-477,-776,112,-1774,8425,-185,223,-453,-320,35272,-90,36,127,0,0,2597,-340,0,1692,9,246,87,1,3,134,51,536402,0
536417,1527,-418,-497,-437,283,-1817,8332,-216,85,-646,-592,35260,-92,36,127,0,0,2546,-527,0,1692,9,246,97,1,3,134,51,536402,0
536427,1839,112,-468,-288,219,-1723,8199,-346,-88,-808,-1024,35258,-53,35,127,0,0,2469,-791,0,1692,9,246,107,1,3,134,51,536402,0
536437,2297,713,-499,-167,44,-1626,7991,-511,-226,-895,-1496,35247,-34,36,127,0,0,2357,-1153,0,1692,9,246,117,1,3,134,51,536402,0
536447,3554,-2560,-2656,-654,-46,-1908,7683,-757,-327,-1111,-2288,35248,-27,36,127,0,0,2175,-1900,0,1692,9,246,127,1,3,134,51,536465,0
536457,1387,-6675,337,-591,-471,183,7209,-1160,-522,-1106,-2672,35252,-15,36,127,0,0,2098,-439,0,1692,9,246,137,1,3,134,51,536465,0
536467,-1273,-4562,645,167,-232,334,6721,-1001,-377,-198,-1784,35251,-28,36,127,0,0,2091,21,0,1692,9,246,147,1,3,134,51,536465,0
536477,296,-1423,1414,-59,430,-292,6361,-685,242,-57,-680,35252,-20,35,127,0,0,2131,373,0,1692,9,246,157,1,3,134,51,536465,0
536487,1445,-1170,-434,-414,159,-509,6156,-367,544,-55,-184,35241,-56,35,127,0,0,2131,-21,0,1692,9,246,167,1,3,134,51,536481,0
536497,2214,-1525,-801,-441,-141,52,6077,-93,540,-28,-24,35245,-85,35,127,0,0,2122,-109,0,1692,9,246,177,1,3,134,51,536481,0
536507,1786,-2035,-674,-301,-266,587,6082,10,413,-410,-112,35251,-85,36,127,0,0,2124,21,0,1692,9,246,187,1,3,134,51,536481,0
536517,90,-2310,-494,53,-235,1011,6084,16,137,-249,-24,35271,-63,35,127,0,0,2142,186,0,1692,9,246,197,1,3,134,51,536481,0
536527,117,-1894,-15,138,52,694,6124,121,63,229,208,35281,-32,35,127,0,0,2170,252,0,1692,9,246,207,1,3,134,51,536512,0
536537,386,-2103,125,142,283,401,6203,185,154,315,208,35288,-38,36,127,0,0,2186,175,0,1692,9,246,217,1,3,134,51,536512,0
536547,987,-1990,83,187,211,434,6276,128,60,351,216,35273,-61,35,127,0,0,2203,153,0,1692,9,246,227,1,3,134,51,536512,0
536557,1053,-1965,-83,246,-31,746,6326,98,-63,437,248,35254,-87,36,127,0,0,2223,241,0,1692,9,246,237,1,3,134,51,536547,0
536567,707,-2005,-242,314,-65,888,6394,166,-15,492,392,35254,-98,35,127,0,0,2254,307,0,1692,9,246,247,1,3,134,51,536563,0
536577,486,-1975,-192,452,96,852,6495,236,97,555,456,35252,-96,35,127,0,0,2287,351,0,1692,9,246,257,1,3,134,51,536563,0
536587,533,-1951,-98,488,202,801,6611,266,96,515,528,35256,-112,36,127,0,0,2311,263,0,1692,9,246,267,1,3,134,51,536563,0
536597,834,-1967,152,525,199,861,6732,253,36,495,464,35245,-100,35,127,0,0,2337,241,0,1692,9,246,277,1,3,134,51,536563,0
536607,852,-1970,194,493,104,996,6854,264,5,482,504,35249,-80,36,127,0,0,2366,307,0,1692,9,246,287,1,3,134,51,536594,0
536617,704,-1960,139,455,19,1156,6975,277,1,553,568,35256,-68,35,127,0,0,2399,318,0,1692,9,246,297,1,3,134,51,536594,0
536627,647,-1949,58,432,43,1195,7112,303,26,524,584,35251,-72,35,127,0,0,2434,329,0,1692,9,246,307,1,3,134,51,536594,0
536637,549,-1960,21,423,108,1227,7255,318,47,545,648,35246,-96,36,127,0,0,2474,351,0,1692,9,246,317,1,3,134,51,536672,0
536647,593,-1960,83,428,132,1244,7408,347,33,563,704,35251,-103,35,127,0,0,2511,384,0,1692,9,246,327,1,3,134,51,536672,0
536657,655,-1980,156,410,97,1328,7570,362,38,505,736,35242,-95,35,127,0,0,2546,340,0,1692,9,246,337,1,3,134,51,536688,0
536667,631,-1979,161,388,60,1408,7718,351,22,523,744,35245,-82,36,127,0,0,2588,384,0,1692,9,246,347,1,3,134,51,536688,0
536677,573,-1960,80,386,59,1492,7890,390,22,517,784,35237,-60,36,127,0,0,2630,406,0,1692,9,246,357,1,3,134,51,536688,0
536687,574,-1950,69,371,66,1533,8070,398,37,485,864,35242,-62,35,127,0,0,2676,483,0,1692,9,246,367,1,3,134,51,536688,0
536697,567,-1982,136,347,72,1613,8260,423,32,516,936,35236,-68,35,127,0,0,2722,428,0,1692,9,246,377,1,3,134,51,536688,0
536707,542,-2004,192,323,50,1678,8462,441,41,478,976,35229,-69,35,127,0,0,2772,494,0,1692,9,246,387,1,3,134,51,536688,0
536717,456,-1981,275,250,-5,1740,8669,454,21,503,1040,35232,-60,36,127,0,0,2823,505,0,1692,9,246,397,1,3,134,51,536688,0
536727,386,-2007,226,222,-9,1761,8885,483,23,512,1080,35238,-53,36,127,0,0,2876,516,0,1692,9,246,407,1,3,134,51,536688,0
536737,328,-1999,142,179,-2,1730,9114,510,43,497,1112,35255,-63,35,127,0,0,2924,494,0,1692,9,246,417,1,3,134,51,536719,0
536747,284,-1984,102,166,4,1712,9347,513,27,529,1152,35270,-40,35,127,0,0,2979,516,0,1692,9,246,427,1,3,134,51,536751,0
536757,258,-1969,182,141,13,1661,9593,548,34,485,1232,35266,-41,36,127,0,0,3036,549,0,1692,9,246,437,1,3,134,51,536751,0
536767,220,-2015,217,120,-5,1622,9841,552,-25,503,1256,35253,-48,35,127,0,0,3093,604,0,1692,9,246,447,1,3,134,51,536751,0
536777,178,-2021,166,93,-41,1541,10100,564,52,502,1264,35236,-62,36,127,0,0,3144,527,0,1692,9,246,457,1,3,134,51,536751,0
536787,94,-2018,108,97,-33,1468,10365,588,86,434,1192,35231,-66,35,127,0,0,3194,461,0,1692,9,246,467,1,3,134,51,536751,0
536797,104,-1988,63,101,14,1349,10625,563,1,401,1208,35239,-63,35,127,0,0,3243,483,0,1692,9,246,477,1,3,134,51,536782,0
536807,98,-1998,98,97,2,1276,10881,554,-26,455,1144,35253,-68,36,127,0,0,3284,428,0,1692,9,246,487,1,3,134,51,536797,0
536817,26,-2010,161,102,-41,1128,11124,526,-35,419,1120,35264,-61,35,127,0,0,3322,373,0,1692,9,246,497,1,3,134,51,536797,0
536827,-59,-2023,152,81,-43,1024,11358,509,-43,410,992,35257,-53,35,127,0,0,3355,340,0,1692,9,246,507,1,3,134,51,536797,0
536837,-70,-2038,151,95,1,845,11566,453,-63,436,888,35247,-63,36,127,0,0,3383,307,0,1692,9,246,517,1,3,134,51,536829,0
536847,-3,-2024,130,83,4,721,11763,425,-61,415,720,35251,-71,36,127,0,0,3405,241,0,1692,9,246,527,1,3,134,51,536829,0
536857,-34,-2021,151,78,-44,559,11937,375,-65,399,632,35252,-69,36,127,0,0,3427,164,0,1692,9,246,537,1,3,134,51,536829,0
536867,-86,-2022,146,69,-56,444,12092,323,-74,378,440,35257,-80,36,127,0,0,3443,153,0,1692,9,246,547,1,3,134,51,536829,0
536877,-177,-2037,180,37,-30,203,12217,245,-95,355,320,35255,-77,36,127,0,0,3449,54,0,1692,9,246,557,1,3,134,51,536876,0
536887,-220,-2045,238,8,-35,28,12305,180,-129,361,200,35267,-80,35,127,0,0,3451,0,0,1692,9,246,567,1,3,134,51,536876,0
536897,-177,-2074,320,-74,-56,-174,12357,60,-127,186,120,35262,-62,35,127,0,0,3454,32,0,1692,9,246,577,1,3,134,51,536876,0
536907,-110,-2047,330,-109,-5,-396,12347,-23,-195,372,24,35255,-36,36,127,0,0,3443,-120,0,1692,9,246,587,1,3,134,51,536876,0
536917,-126,-2016,351,-220,-65,-632,12332,-52,-124,-43,-64,35245,-22,36,127,0,0,3427,-120,0,1692,9,246,597,1,3,134,51,536891,0
536927,-357,-1990,305,-329,-109,-850,12304,-73,-31,-358,-208,35252,-24,36,127,0,0,3401,-241,0,1692,9,246,607,1,3,134,51,536891,0
536937,-392,-2067,348,-450,-64,-1248,12232,-186,-112,-464,-368,35262,-30,35,127,0,0,3370,-329,0,1692,9,246,617,1,3,134,51,536922,0
536947,-313,-2060,332,-528,-15,-1461,12117,-270,-169,-516,-568,35278,-40,35,127,0,0,3326,-417,0,1692,9,246,627,1,3,134,51,536922,0
536957,-77,-2029,257,-612,-33,-1695,11969,-348,-139,-606,-816,35269,-53,35,127,0,0,3273,-516,0,1692,9,246,637,1,3,134,51,536922,0
536967,23,-2007,187,-645,-79,-1792,11788,-412,-127,-615,-944,35261,-82,35,127,0,0,3221,-527,0,1692,9,246,647,1,3,134,51,536938,0
536977,123,-2018,86,-660,-111,-1865,11575,-491,-125,-640,-1120,35256,-83,36,127,0,0,3168,-505,0,1692,9,246,657,1,3,134,51,536954,0
536987,175,-1947,27,-655,-81,-1928,11339,-530,-109,-560,-1208,35272,-58,36,127,0,0,3111,-582,0,1692,9,246,667,1,3,134,51,536954,0
536997,307,-2006,4,-664,-74,-1925,11086,-567,-80,-556,-1288,35266,-32,35,127,0,0,3052,-593,0,1692,9,246,677,1,3,134,51,536969,0
537007,399,-2065,96,-652,-80,-1868,10821,-588,-52,-542,-1312,35258,-40,36,127,0,0,2999,-538,0,1692,9,246,687,1,3,134,51,536969,0
537017,372,-2042,181,-662,-136,-1794,10563,-557,-11,-532,-1264,35260,-41,36,127,0,0,2948,-472,0,1692,9,246,697,1,3,134,51,537000,0
537027,314,-2043,200,-699,-168,-1763,10314,-553,28,-541,-1152,35273,-39,36,127,0,0,2909,-395,0,1692,9,246,707,1,3,134,51,537016,0
537037,256,-2130,188,-737,-195,-1730,10082,-491,52,-513,-1112,35266,-52,36,127,0,0,2871,-384,0,1692,9,246,717,1,3,134,51,537016,0
537047,309,-2074,225,-745,-196,-1775,9864,-464,60,-465,-984,35258,-39,35,127,0,0,2836,-340,0,1692,9,246,727,1,3,134,51,537016,0
537057,482,-2086,225,-815,-161,-1691,9663,-434,60,-500,-888,35248,-61,36,127,0,0,2803,-340,0,1692,9,246,737,1,3,134,51,537032,0
537067,846,-2112,158,-812,-173,-1557,9479,-391,61,-502,-784,35252,-57,35,127,0,0,2777,-274,0,1692,9,246,747,1,3,134,51,537063,0
537077,1085,-1981,-86,-770,-238,-1213,9307,-364,55,-465,-632,35257,-73,36,127,0,0,2761,-164,0,1692,9,246,757,1,3,134,51,537063,0
537087,1147,-2106,-46,-745,-500,-843,9153,-328,60,-417,-440,35260,-90,35,127,0,0,2755,-21,0,1692,9,246,767,1,3,134,51,537063,0
537097,501,-2531,136,-528,-1161,-217,9041,-208,107,-316,-192,35262,-71,35,127,0,0,2770,164,0,1692,9,246,777,1,3,134,51,537063,0
537107,382,-3968,75,-773,-708,345,9008,34,220,330,304,35264,-75,36,127,0,0,2827,560,0,1692,9,246,787,1,3,134,51,537079,0
537117,-154,-3537,317,-672,-530,867,9127,346,449,590,1032,35279,-68,36,127,0,0,2939,1164,0,1692,9,246,797,1,3,134,51,537110,0
537127,-278,-3106,-244,-642,-386,853,9359,594,511,899,1888,35278,-59,35,127,0,0,3087,1516,0,1692,9,246,807,1,3,134,51,537110,0
537137,-281,-3169,-470,-486,-247,762,9743,944,503,1021,2672,35273,-52,35,127,0,0,3247,1582,0,1692,9,246,817,1,3,134,51,537110,0
537147,-584,-3300,-422,-438,-348,1013,10266,1235,552,1018,3608,35255,-30,36,127,0,0,3434,1900,0,1692,9,246,827,1,3,134,51,537110,0
537157,-686,-3113,-57,-230,-207,974,10959,1639,600,1048,4392,35251,-6,36,127,0,0,3643,2087,0,1692,9,246,837,1,3,134,51,537141,0
537167,-889,-2573,187,-38,-14,837,11802,1945,614,1001,5040,35243,14,35,127,0,0,3867,2219,0,1692,9,246,847,1,3,134,51,537141,0
537177,-977,-2059,170,-215,-341,27,12754,2135,499,887,5376,35235,43,36,127,0,0,4075,2043,0,1692,9,246,857,1,3,134,51,537141,0
537187,-1001,-2666,51,-331,-306,-394,13736,2160,262,672,5520,35231,57,35,127,0,0,4275,1988,0,1692,9,246,867,1,3,134,51,537172,0
537197,-1889,-3583,281,-294,-497,-891,14732,2211,77,664,5584,35240,65,36,127,0,0,4486,2131,0,1692,9,246,877,1,3,134,51,537172,0
537207,-1573,-4082,382,-319,-415,-1326,15790,2376,149,781,5832,35242,57,35,127,0,0,4697,2043,0,1692,9,246,887,1,3,134,51,537188,0
537217,-878,-4118,725,-618,-32,-1858,16882,2403,191,750,5896,35238,54,35,127,0,0,4906,2109,0,1692,9,246,897,1,3,134,51,537188,0
537227,-167,-4308,894,-817,-32,-2733,17966,2382,53,729,5784,35226,51,36,127,0,0,5095,1845,0,1692,9,246,907,1,3,134,51,537204,0
537237,255,-4512,544,-1499,862,-4052,19027,2289,-51,375,5144,35226,63,36,127,0,0,5222,1230,0,1692,9,246,917,1,3,134,51,537204,0
537247,531,-4336,391,-1646,1629,-4663,19987,2027,-242,267,4760,35230,45,36,127,0,0,5385,1669,0,1692,9,246,927,1,3,134,51,537219,0
537257,1567,-3975,-60,-1218,4015,-7299,20869,1920,-350,568,4448,35230,14,35,127,0,0,5473,648,0,1692,9,246,937,1,3,134,51,537250,0
537267,1890,-3775,-272,-1300,4956,-8460,21651,1605,-319,-9,2624,35239,-9,35,127,0,0,5420,-648,0,1692,9,246,947,1,3,134,51,537250,0
537277,2019,-3612,402,-928,4796,-9565,22211,1039,-613,-517,280,35246,-45,35,127,0,0,5306,-1208,0,1692,9,246,957,0,3,134,51,537250,0
537287,2307,-3350,465,-686,4280,-9786,22284,-308,-1351,-2094,-1176,35257,-71,35,127,0,0,5187,-1175,0,1692,9,246,967,0,3,134,51,537250,0
537297,2069,-2917,254,-320,3310,-9957,22017,-669,-1681,-823,-1928,35251,-81,35,127,0,0,5071,-1131,0,1692,9,246,977,0,3,134,51,537282,0
537307,2246,-2984,114,-202,2660,-9821,21643,-874,-818,-687,-2192,35256,-72,35,127,0,0,4985,-856,0,1692,9,246,987,0,3,134,51,537282,0
537317,2041,-2979,292,171,1626,-9509,21226,-936,-292,-488,-2200,35251,-36,36,127,0,0,4915,-703,0,1692,9,246,997,0,3,134,51,537282,0
537327,2054,-2938,364,295,1022,-9234,20810,-902,-78,-367,-2008,35251,-36,36,127,0,0,4853,-593,0,1692,9,246,1007,0,3,134,51,537313,0
537337,1998,-2798,453,324,218,-8758,20413,-852,48,-318,-1776,35251,-36,36,127,0,0,4796,-593,0,1692,9,246,1017,0,3,134,51,537313,0
537347,1936,-2665,436,295,-284,-8438,20039,-815,76,-296,-1728,35251,-36,36,127,0,0,4730,-703,0,1692,9,246,1027,0,3,134,51,537313,0
537357,1814,-2291,333,197,-1021,-7956,19678,-790,66,-416,-1824,35241,-44,36,127,0,0,4647,-845,0,1692,9,246,1037,0,3,134,51,537438,0
537367,1722,-1996,279,56,-1517,-7568,19300,-870,-11,-578,-2144,35243,-37,36,127,0,0,4539,-1076,0,1692,9,246,1047,0,3,134,51,537438,0
537377,1512,-1590,133,-123,-2161,-6878,18865,-1011,-147,-747,-2680,35250,-37,35,127,0,0,4401,-1406,0,1692,9,246,1057,0,3,134,51,537438,0
537387,1269,-1350,9,-242,-2521,-6350,18341,-1211,-284,-777,-3128,35254,-12,36,127,0,0,4260,-1395,0,1692,9,246,1067,0,3,134,51,537454,0
537397,878,-1104,-78,-361,-2959,-5496,17740,-1369,-317,-684,-3392,35232,-11,35,127,0,0,4122,-1373,0,1692,9,246,1077,0,3,134,51,537454,0
537407,605,-1018,-148,-390,-3180,-4892,17091,-1454,-245,-543,-3480,35220,-11,35,127,0,0,3990,-1296,0,1692,9,246,1087,0,3,134,51,537454,0
537417,359,-951,-187,-411,-3357,-3953,16420,-1471,-130,-447,-3440,35233,-28,36,127,0,0,3867,-1219,0,1692,9,246,1097,0,3,134,51,537454,0
537427,154,-881,-169,-389,-3383,-3323,15754,-1464,-29,-412,-3344,35245,-37,35,127,0,0,3755,-1131,0,1692,9,246,1107,0,3,134,51,537454,0
537437,-134,-722,-138,-272,-3237,-2412,15117,-1374,62,-449,-3192,35239,-37,35,127,0,0,3647,-1098,0,1692,9,246,1117,0,3,134,51,537454,0
537447,-259,-520,-262,-146,-2990,-1814,14513,-1301,117,-495,-3120,35229,-57,36,127,0,0,3539,-1087,0,1692,9,246,1127,0,3,134,51,537454,0
537457,-495,-322,-258,146,-2477,-898,13935,-1251,117,-495,-3032,35228,-49,35,127,0,0,3434,-1054,0,1692,9,246,1137,0,3,134,51,537454,0
537467,-628,-167,-341,335,-2080,-299,13375,-1231,78,-505,-3000,35236,-43,35,127,0,0,3331,-1021,0,1692,9,246,1147,0,3,134,51,537454,0
537477,-716,41,-366,568,-1422,642,12815,-1226,29,-492,-2888,35238,-32,36,127,0,0,3238,-867,0,1692,9,246,1157,0,3,134,51,537454,0
537487,-695,190,-370,745,-976,1225,12270,-1176,26,-412,-2728,35237,-30,36,127,0,0,3157,-802,0,1692,9,246,1167,0,3,134,51,537454,0
537497,-612,394,-417,1015,-276,2097,11756,-1090,84,-367,-2416,35253,-53,36,127,0,0,3078,-758,0,1692,9,246,1177,0,3,134,51,537469,0
537507,-553,498,-434,1189,145,2686,11286,-1009,140,-387,-2176,35283,-48,36,127,0,0,3008,-725,0,1692,9,246,1187,0,3,134,51,537485,0
537517,-499,561,-367,1423,580,3518,10858,-914,167,-420,-1968,35293,-58,36,127,0,0,2942,-593,0,1692,9,246,1197,0,3,134,51,537485,0
537527,-483,489,-261,1566,742,4055,10478,-812,163,-440,-1712,35274,-48,36,127,0,0,2889,-494,0,1692,9,246,1207,0,3,134,51,537500,0
537537,-390,377,-178,1750,944,4766,10146,-699,180,-440,-1448,35251,-66,36,127,0,0,2852,-384,0,1692,9,246,1217,0,3,134,51,537516,0
537547,-277,368,-165,1810,1076,5180,9862,-601,179,-413,-1232,35251,-59,35,127,0,0,2816,-329,0,1692,9,246,1227,0,3,134,51,537516,0
537557,-64,484,-201,1890,1160,5727,9614,-520,167,-444,-1064,35256,-47,36,127,0,0,2783,-318,0,1692,9,246,1237,0,3,134,51,537532,0
537567,56,488,-199,1927,1105,6113,9403,-443,138,-482,-896,35252,-63,36,127,0,0,2750,-318,0,1692,9,246,1247,0,3,134,51,537532,0
537577,254,436,-200,1952,828,6582,9215,-402,115,-504,-776,35247,-79,36,127,0,0,2726,-252,0,1692,9,246,1257,0,3,134,51,537563,0
537587,363,328,-151,1910,607,6773,9049,-341,91,-472,-672,35254,-91,36,127,0,0,2704,-186,0,1692,9,246,1267,0,3,134,51,537563,0
537597,509,123,-135,1824,365,6962,8901,-310,67,-499,-584,35264,-66,35,127,0,0,2682,-219,0,1692,9,246,1277,0,3,134,51,537563,0
537607,678,16,-168,1753,225,7063,8769,-273,75,-514,-464,35260,-56,35,127,0,0,2667,-153,0,1692,9,246,1287,0,3,134,51,537578,0
537617,1042,-126,-224,1568,-39,7034,8666,-214,89,-555,-360,35248,-95,35,127,0,0,2656,-109,0,1692,9,246,1297,0,3,134,51,537578,0
537627,1217,-287,-223,1398,-158,6883,8579,-181,79,-463,-264,35257,-107,35,127,0,0,2649,-65,0,1692,9,246,1307,0,3,134,51,537625,0
537637,1405,-581,-245,1120,-149,6472,8520,-117,88,-492,-256,35269,-118,36,127,0,0,2638,-87,0,1692,9,246,1317,0,3,134,51,537625,0
537647,1598,-713,-291,939,-60,6094,8479,-79,100,-615,-248,35262,-98,35,127,0,0,2627,-87,0,1692,9,246,1327,0,3,134,51,537625,0
537657,1885,-905,-347,654,48,5446,8434,-105,26,-522,-224,35247,-85,35,127,0,0,2621,-54,0,1692,9,246,1337,0,3,134,51,537641,0
537667,2140,-1033,-394,448,165,4893,8401,-85,6,-528,-184,35236,-76,36,127,0,0,2616,-54,0,1692,9,246,1347,0,3,134,51,537641,0
537677,2164,-1270,-309,207,401,3990,8371,-44,34,-476,-168,35256,-54,36,127,0,0,2616,0,0,1692,9,246,1357,0,3,134,51,537657,0
537687,2227,-1393,-330,41,678,3369,8371,6,79,-607,-168,35272,-27,36,127,0,0,2616,0,0,1692,9,246,1367,0,3,134,51,537672,0
537697,2200,-1348,-272,-181,1156,2454,8372,0,53,-550,-176,35265,-25,35,127,0,0,2619,10,0,1692,9,246,1377,0,3,134,51,537672,0
537707,2275,-1395,-154,-226,1389,1905,8372,7,-6,-525,-144,35248,-32,35,127,0,0,2616,-10,0,1692,9,246,1387,0,3,134,51,537672,0
537717,2194,-1299,-28,-318,1522,1290,8371,2,1,-501,-120,35257,-50,36,127,0,0,2621,21,0,1692,9,246,1397,0,3,134,51,537688,0
537727,11227,-4738,-2239,-959,1389,-1424,8389,70,39,-319,176,35261,-38,36,127,0,0,2625,54,0,1692,9,246,1407,0,3,134,51,537703,0
537737,2331,-1929,711,-474,525,-4026,8386,-222,-18,-1599,-2112,35258,-22,35,127,0,0,2342,-2933,0,1442,406,247,5,1,3,128,88,537703,0
537747,5145,-679,-184,-152,-75,-2741,7977,-1086,-932,-1355,-2896,35241,13,35,127,0,0,2177,-1647,0,1442,406,247,15,1,3,128,88,537782,0
537757,294,-1076,654,-556,-1971,-323,7413,-1318,-1058,-930,-3352,35235,14,36,127,0,0,2030,-1340,0,1442,406,247,25,1,3,128,88,537782,0
537767,1139,-1863,371,-613,-2060,-36,6796,-1308,-206,-404,-2792,35233,8,36,127,0,0,1957,-769,0,1442,406,247,35,1,3,128,88,537782,0
537777,-626,-3238,852,-492,-2051,-1099,6267,-1107,168,-437,-2560,35230,-24,35,127,0,0,1858,-1010,0,1442,406,247,45,1,3,128,88,537782,0
537787,166,-3463,-292,-127,-433,-1637,5787,-1039,132,-707,-2736,35214,-27,36,127,0,0,1740,-1252,0,1442,406,247,55,1,3,128,88,537797,0
537797,1631,-2926,-97,-352,-340,-1049,5287,-1131,54,-778,-2792,35219,-46,35,127,0,0,1650,-867,0,1442,406,247,65,1,3,128,88,537797,0
537807,1616,-2184,-73,-497,-378,-607,4779,-1090,-65,-459,-2544,35230,-34,36,127,0,0,1586,-648,0,1442,406,247,75,1,3,128,88,537797,0
537817,1760,-2064,-356,-756,-464,15,4310,-985,64,-334,-2048,35232,-31,35,127,0,0,1546,-362,0,1442,406,247,85,1,3,128,88,537797,0
537827,1307,-1976,-524,-607,-483,360,3908,-853,200,-262,-1592,35231,-44,35,127,0,0,1524,-175,0,1442,406,247,95,1,3,128,88,537797,0
537837,1175,-1412,-652,-166,-293,489,3584,-645,272,-220,-1104,35248,-83,36,127,0,0,1502,-230,0,1442,406,247,105,1,3,128,88,537813,0
537847,1535,-1226,-632,-50,-170,610,3334,-509,298,-287,-808,35273,-75,35,127,0,0,1485,-197,0,1442,406,247,115,1,3,128,88,537813,0
537857,1525,-1035,-332,-29,-73,799,3141,-396,257,-357,-664,35285,-61,36,127,0,0,1454,-296,0,1442,406,247,125,1,3,128,88,537860,0
537867,2087,-1937,-472,-44,-76,609,2978,-357,157,-499,-752,35272,-72,36,127,0,0,1408,-494,0,1442,406,247,135,1,3,128,88,537875,0
537877,974,-3345,-177,-145,-24,1435,2806,-402,43,-623,-840,35254,-77,36,127,0,0,1395,-10,0,1442,406,247,145,1,3,128,88,537875,0
537887,15,-3327,5,66,-65,1476,2636,-342,-21,-307,-208,35253,-82,36,127,0,0,1428,318,0,1442,406,247,155,1,3,128,88,537875,0
537897,244,-1959,289,244,280,978,2577,43,205,431,336,35255,-71,35,127,0,0,1467,417,0,1442,406,247,165,1,3,128,88,537875,0
537907,915,-1519,-182,325,335,716,2691,279,591,397,408,35243,-97,35,127,0,0,1494,252,0,1442,406,247,175,1,3,128,88,537875,0
537917,1388,-1427,-672,272,141,910,2822,262,363,319,344,35252,-101,36,127,0,0,1511,186,0,1442,406,247,185,1,3,128,88,537891,0
537927,1264,-1790,-492,333,77,1109,2932,243,-17,368,352,35270,-97,36,127,0,0,1531,230,0,1442,406,247,195,1,3,128,88,537938,0
537937,784,-2121,-101,513,167,1269,3037,228,-47,437,432,35287,-70,35,127,0,0,1564,329,0,1442,406,247,205,1,3,128,88,537938,0
537947,638,-1988,97,561,281,1228,3151,272,1,570,584,35275,-65,35,127,0,0,1599,351,0,1442,406,247,215,1,3,128,88,537938,0
537957,1003,-1839,120,448,330,1208,3291,325,67,566,688,35250,-63,35,127,0,0,1632,329,0,1442,406,247,225,1,3,128,88,537938,0
537967,1187,-1821,34,373,252,1325,3448,356,91,509,712,35244,-94,35,127,0,0,1669,362,0,1442,406,247,235,1,3,128,88,537938,0
537977,1123,-1878,3,339,134,1548,3610,348,43,473,800,35256,-106,36,127,0,0,1709,406,0,1442,406,247,245,1,3,128,88,537938,0
537987,956,-1907,33,329,123,1670,3776,382,7,590,880,35275,-91,35,127,0,0,1755,472,0,1442,406,247,255,1,3,128,88,537953,0
537997,856,-1882,0,295,155,1775,3964,434,53,652,1032,35274,-59,35,127,0,0,1808,494,0,1442,406,247,265,1,3,128,88,537985,0
538007,904,-1881,-8,258,167,1826,4172,466,88,594,1128,35268,-66,36,127,0,0,1863,560,0,1442,406,247,275,1,3,128,88,537985,0
538017,931,-1935,-37,268,154,1938,4399,511,70,563,1216,35261,-84,35,127,0,0,1920,560,0,1442,406,247,285,1,3,128,88,537985,0
538027,896,-1926,-28,298,136,2017,4641,536,71,552,1296,35258,-66,36,127,0,0,1979,604,0,1442,406,247,295,1,3,128,88,538000,0
538037,794,-1895,-102,337,113,2112,4892,558,42,539,1360,35255,-46,35,127,0,0,2045,670,0,1442,406,247,305,1,3,128,88,538047,0
538047,739,-1863,-151,382,137,2154,5154,585,37,588,1496,35255,-36,35,127,0,0,2113,714,0,1442,406,247,315,1,3,128,88,538047,0
538057,699,-1918,-227,459,176,2196,5432,616,51,572,1576,35262,-52,36,127,0,0,2184,714,0,1442,406,247,325,1,3,128,88,538047,0
538067,707,-1923,-184,507,189,2221,5723,651,56,572,1600,35263,-66,35,127,0,0,2258,747,0,1442,406,247,335,1,3,128,88,538063,0
538077,658,-1947,5,545,167,2250,6028,678,48,565,1648,35247,-55,35,127,0,0,2324,692,0,1442,406,247,345,1,3,128,88,538063,0
538087,609,-1973,96,555,143,2271,6341,683,33,562,1656,35234,-73,36,127,0,0,2397,714,0,1442,406,247,355,1,3,128,88,538063,0
538097,539,-1893,68,548,103,2290,6654,697,21,561,1632,35252,-90,35,127,0,0,2460,648,0,1442,406,247,365,1,3,128,88,538063,0
538107,503,-1895,14,531,93,2293,6969,697,-1,580,1696,35278,-82,36,127,0,0,2531,714,0,1442,406,247,375,1,3,128,88,538078,0
538117,490,-1930,-36,543,105,2261,7288,701,9,550,1632,35298,-93,35,127,0,0,2599,659,0,1442,406,247,385,1,3,128,88,538125,0
538127,492,-1944,27,528,121,2232,7610,718,18,534,1592,35284,-77,35,127,0,0,2665,681,0,1442,406,247,395,1,3,128,88,538125,0
538137,486,-1946,192,510,81,2237,7925,685,-4,523,1608,35271,-84,35,127,0,0,2726,615,0,1442,406,247,405,1,3,128,88,538125,0
538147,436,-1923,227,470,24,2240,8242,694,-11,493,1584,35272,-78,36,127,0,0,2799,703,0,1442,406,247,415,1,3,128,88,538125,0
538157,268,-1964,120,437,-13,2175,8560,713,4,564,1640,35270,-47,36,127,0,0,2860,659,0,1442,406,247,425,1,3,128,88,538125,0
538167,212,-1999,56,431,12,2102,8883,712,17,474,1592,35272,-43,36,127,0,0,2922,637,0,1442,406,247,435,1,3,128,88,538141,0
538177,250,-1898,-12,479,42,1997,9198,693,-9,502,1560,35275,-43,36,127,0,0,2986,571,0,1442,406,247,445,1,3,128,88,538188,0
538187,105,-1919,66,427,-45,1892,9508,676,-30,520,1560,35291,-50,36,127,0,0,3049,626,0,1442,406,247,455,1,3,128,88,538188,0
538197,-172,-2020,211,412,-35,1617,9820,689,2,498,1560,35288,-37,36,127,0,0,3109,538,0,1442,406,247,465,1,3,128,88,538203,0
538207,-214,-1986,205,358,-11,1403,10125,659,-14,447,1416,35271,-28,35,127,0,0,3153,439,0,1442,406,247,475,1,3,128,88,538203,0
538217,-204,-1994,206,268,-2,1066,10408,612,-55,369,1232,35244,-45,35,127,0,0,3194,406,0,1442,406,247,485,1,3,128,88,538203,0
538227,-165,-2020,228,207,-12,836,10667,553,-83,356,1008,35257,-65,36,127,0,0,3221,263,0,1442,406,247,495,1,3,128,88,538203,0
538237,-133,-2034,231,108,-25,529,10896,476,-106,346,800,35266,-67,35,127,0,0,3240,175,0,1442,406,247,505,1,3,128,88,538203,0
538247,-172,-2043,275,40,-34,328,11080,374,-149,353,584,35271,-69,35,127,0,0,3254,120,0,1442,406,247,515,1,3,128,88,538219,0
538257,-144,-2048,323,-55,-51,60,11232,300,-146,342,352,35271,-82,36,127,0,0,3258,32,0,1442,406,247,525,1,3,128,88,538219,0
538267,-182,-2040,283,-126,-75,-103,11334,185,-166,264,184,35270,-90,35,127,0,0,3258,0,0,1442,406,247,535,1,3,128,88,538266,0
538277,14,-2029,233,-226,-86,-367,11360,-25,-244,209,48,35284,-98,35,127,0,0,3254,-65,0,1442,406,247,545,1,3,128,88,538266,0
538287,-196,-2045,178,-299,-70,-554,11335,-44,-262,124,-24,35275,-80,35,127,0,0,3236,-175,0,1442,406,247,555,1,3,128,88,538266,0
538297,-14,-2082,262,-383,-43,-770,11310,-95,-83,-345,-200,35261,-64,36,127,0,0,3221,-175,0,1442,406,247,565,1,3,128,88,538266,0
538307,-43,-2100,288,-424,-72,-873,11237,-180,-101,-371,-256,35250,-80,36,127,0,0,3197,-208,0,1442,406,247,575,1,3,128,88,538281,0
538317,15,-2049,262,-518,-90,-1033,11146,-207,-127,-430,-352,35259,-88,36,127,0,0,3172,-263,0,1442,406,247,585,1,3,128,88,538281,0
538327,41,-2014,187,-588,-104,-1138,11050,-216,-47,-510,-408,35279,-107,36,127,0,0,3144,-274,0,1442,406,247,595,1,3,128,88,538313,0
538337,100,-2086,195,-662,-124,-1266,10936,-273,-49,-485,-488,35276,-95,36,127,0,0,3113,-307,0,1442,406,247,605,1,3,128,88,538313,0
538347,102,-2098,213,-678,-140,-1353,10811,-283,-67,-552,-536,35259,-97,36,127,0,0,3082,-307,0,1442,406,247,615,1,3,128,88,538313,0
538357,86,-2063,220,-754,-166,-1465,10679,-279,-33,-549,-624,35257,-74,35,127,0,0,3045,-395,0,1442,406,247,625,1,3,128,88,538328,0
538367,235,-2086,212,-786,-157,-1493,10540,-322,-25,-642,-672,35267,-64,36,127,0,0,3010,-373,0,1442,406,247,635,1,3,128,88,538360,0
538377,441,-2043,105,-840,-156,-1477,10385,-337,-52,-555,-720,35273,-48,36,127,0,0,2979,-340,0,1442,406,247,645,1,3,128,88,538360,0
538387,590,-2021,66,-865,-181,-1444,10231,-330,-26,-557,-656,35258,-67,36,127,0,0,2950,-263,0,1442,406,247,655,1,3,128,88,538360,0
538397,600,-2272,11,-838,-262,-1253,10077,-330,2,-505,-608,35255,-83,36,127,0,0,2926,-208,0,1442,406,247,665,1,3,128,88,538360,0
538407,482,-2462,40,-761,-307,-1079,9929,-323,15,-447,-480,35263,-82,35,127,0,0,2915,-76,0,1442,406,247,675,1,3,128,88,538375,0
538417,433,-2918,433,-505,-818,-934,9815,-219,69,-352,-216,35261,-56,36,127,0,0,2917,10,0,1442,406,247,685,1,3,128,88,538391,0
538427,131,-3731,-23,-777,-867,-301,9750,-100,155,-51,144,35258,-55,36,127,0,0,2961,505,0,1442,406,247,695,1,3,128,88,538422,0
538437,-382,-3468,102,-769,-642,-70,9839,284,382,577,776,35265,-67,35,127,0,0,3062,1032,0,1442,406,247,705,1,3,128,88,538422,0
538447,-388,-3271,-123,-713,-388,-198,10050,546,529,795,1584,35264,-58,36,127,0,0,3177,1131,0,1442,406,247,715,1,3,128,88,538438,0
538457,-619,-3177,-322,-728,-259,-82,10374,794,450,839,2224,35264,-46,35,127,0,0,3315,1406,0,1442,406,247,725,1,3,128,88,538438,0
538467,-584,-3123,-278,-691,-230,-101,10830,1107,477,971,2920,35233,-13,35,127,0,0,3473,1593,0,1442,406,247,735,1,3,128,88,538438,0
538477,-615,-2815,-195,-565,-135,-323,11407,1348,485,963,3536,35233,-30,36,127,0,0,3645,1713,0,1442,406,247,745,1,3,128,88,538438,0
538487,-797,-2660,33,-510,-128,-579,12095,1578,445,959,4088,35238,-10,36,127,0,0,3823,1768,0,1442,406,247,755,1,3,128,88,538453,0
538497,-989,-2871,176,-415,-232,-931,12865,1733,375,864,4472,35236,5,36,127,0,0,4005,1790,0,1442,406,247,765,1,3,128,88,538469,0
538507,-1324,-2685,245,-428,-316,-1305,13680,1824,244,827,4672,35223,15,35,127,0,0,4190,1834,0,1442,406,247,775,1,3,128,88,538485,0
538517,-1507,-2922,327,-600,-410,-2076,14543,1933,184,715,4960,35215,22,35,127,0,0,4370,1812,0,1442,406,247,785,1,3,128,88,538485,0
538527,-1146,-3488,221,-662,-362,-2382,15462,2059,188,706,5120,35220,19,36,127,0,0,4568,1977,0,1442,406,247,795,1,3,128,88,538500,0
538537,-180,-4452,112,-865,-219,-2559,16428,2134,198,738,5176,35231,31,35,127,0,0,4761,1944,0,1442,406,247,805,1,3,128,88,538531,0
538547,908,-4742,33,-962,-108,-2948,17403,2163,110,846,5368,35228,45,35,127,0,0,4941,1746,0,1442,406,247,815,1,3,128,88,538531,0
538557,510,-4956,334,-1264,520,-3318,18369,2088,3,499,4920,35215,42,35,127,0,0,5080,1362,0,1442,406,247,825,1,3,128,88,538531,0
538567,-230,-4340,577,-1303,1373,-3620,19274,1965,-139,495,4792,35219,25,35,127,0,0,5260,1845,0,1442,406,247,835,1,3,128,88,538531,0
538577,1588,-3751,-73,-1192,3786,-6262,20174,1974,-124,614,4624,35228,2,35,127,0,0,5370,944,0,1442,406,247,845,1,3,128,88,538547,0
538587,1694,-3306,-320,-1378,4503,-7133,20995,1691,-151,88,3072,35246,-25,35,127,0,0,5356,-219,0,1442,406,247,855,1,3,128,88,538563,0
538597,1853,-3510,9,-1231,5171,-8044,21612,1202,-555,-218,1304,35249,-39,36,127,0,0,5288,-725,0,1442,406,247,865,0,3,128,88,538563,0
538607,1719,-3191,172,-895,4850,-8426,21936,439,-932,-1191,-480,35250,-71,36,127,0,0,5189,-988,0,1442,406,247,875,0,3,128,88,538578,0
538617,1898,-2778,271,-666,3927,-8596,21778,-446,-1499,-634,-1224,35255,-84,36,127,0,0,5102,-856,0,1442,406,247,885,0,3,128,88,538594,0
538627,2022,-2619,233,-550,3123,-8382,21523,-601,-1095,-616,-1536,35254,-78,36,127,0,0,5033,-626,0,1442,406,247,895,0,3,128,88,538594,0
538637,1944,-2503,216,-471,2102,-8090,21227,-661,-249,-436,-1392,35241,-61,36,127,0,0,4994,-384,0,1442,406,247,905,0,3,128,88,538609,0
538647,1951,-2480,192,-383,1529,-7854,20944,-600,-51,-307,-1112,35247,-69,36,127,0,0,4976,-153,0,1442,406,247,915,0,3,128,88,538609,0
538657,1888,-2453,134,-287,881,-7517,20702,-501,111,-253,-824,35247,-59,36,127,0,0,4959,-142,0,1442,406,247,925,0,3,128,88,538688,0
538667,1883,-2520,143,-228,593,-7323,20525,-412,168,-274,-568,35268,-63,36,127,0,0,4932,-285,0,1442,406,247,935,0,3,128,88,538688,0
538677,1797,-2434,208,-107,260,-7025,20350,-385,131,-337,-736,35263,-78,36,127,0,0,4880,-571,0,1442,406,247,945,0,3,128,88,538688,0
538687,1693,-2212,236,-60,31,-6777,20171,-418,24,-548,-1088,35245,-97,35,127,0,0,4792,-933,0,1442,406,247,955,0,3,128,88,538688,0
538697,1504,-1686,196,-103,-408,-6291,19924,-608,-160,-764,-1816,35241,-92,36,127,0,0,4684,-1131,0,1442,406,247,965,0,3,128,88,538688,0
538707,1372,-1445,143,-109,-759,-5906,19564,-877,-369,-863,-2424,35237,-50,35,127,0,0,4552,-1274,0,1442,406,247,975,0,3,128,88,538688,0
538717,1208,-1180,19,-109,-1195,-5260,19090,-1101,-444,-856,-3064,35229,-18,35,127,0,0,4396,-1571,0,1442,406,247,985,0,3,128,88,538688,0
538727,1036,-1059,-95,-140,-1427,-4803,18503,-1360,-427,-800,-3512,35216,-24,36,127,0,0,4242,-1538,0,1442,406,247,995,0,3,128,88,538688,0
538737,749,-827,-140,-183,-1742,-4068,17841,-1491,-359,-644,-3720,35218,-23,36,127,0,0,4093,-1494,0,1442,406,247,1005,0,3,128,88,538719,0
538747,612,-737,-131,-151,-1926,-3578,17130,-1588,-227,-534,-3808,35235,-25,35,127,0,0,3950,-1439,0,1442,406,247,1015,0,3,128,88,538734,0
538757,425,-587,-121,-171,-2151,-2811,16400,-1611,-124,-469,-3744,35240,-22,35,127,0,0,3816,-1351,0,1442,406,247,1025,0,3,128,88,538734,0
538767,296,-567,-107,-158,-2227,-2281,15674,-1593,134,-429,-3640,35230,-27,36,127,0,0,3695,-1219,0,1442,406,247,1035,0,3,128,88,538734,0
538777,100,-572,-112,-36,-2276,-1522,14980,-1498,145,-487,-3536,35222,-40,36,127,0,0,3581,-1109,0,1442,406,247,1045,0,3,128,88,538734,0
538787,-22,-451,-179,89,-2294,-1026,14324,-1407,-26,-413,-3296,35242,-41,35,127,0,0,3471,-1109,0,1442,406,247,1055,0,3,128,88,538781,0
538797,-148,-268,-250,321,-2168,-210,13720,-1305,178,-441,-3096,35254,-40,35,127,0,0,3375,-1010,0,1442,406,247,1065,0,3,128,88,538781,0
538807,-203,-75,-349,465,-2000,284,13143,-1256,147,-440,-2960,35247,-24,36,127,0,0,3284,-878,0,1442,406,247,1075,0,3,128,88,538781,0
538817,-255,175,-411,669,-1584,987,12590,-1208,96,-444,-2816,35230,-30,36,127,0,0,3186,-966,0,1442,406,247,1085,0,3,128,88,538781,0
538827,-309,306,-395,811,-1275,1444,12046,-1192,64,-507,-2768,35245,-34,35,127,0,0,3082,-1021,0,1442,406,247,1095,0,3,128,88,538813,0
538837,-465,379,-379,973,-967,2250,11511,-1173,37,-507,-2736,35253,-29,36,127,0,0,2983,-944,0,1442,406,247,1105,0,3,128,88,538813,0
538847,-499,376,-370,1059,-829,2812,10990,-1123,37,-438,-2432,35254,-40,35,127,0,0,2911,-714,0,1442,406,247,1115,0,3,128,88,538859,0
538857,-471,329,-304,1232,-521,3549,10520,-981,116,-351,-1992,35248,-44,35,127,0,0,2865,-439,0,1442,406,247,1125,0,3,128,88,538859,0
538867,-404,335,-298,1334,-234,3997,10129,-808,246,-341,-1560,35244,-81,36,127,0,0,2827,-329,0,1442,406,247,1135,0,3,128,88,538859,0
538877,-231,440,-292,1462,187,4600,9812,-653,297,-347,-1272,35253,-81,35,127,0,0,2797,-307,0,1442,406,247,1145,0,3,128,88,538859,0
538887,-132,506,-301,1526,379,4977,9552,-537,246,-412,-1072,35245,-75,35,127,0,0,2761,-340,0,1442,406,247,1155,0,3,128,88,538875,0
538897,73,553,-274,1633,477,5548,9335,-458,193,-445,-960,35233,-75,36,127,0,0,2731,-318,0,1442,406,247,1165,0,3,128,88,538875,0
538907,147,532,-292,1686,434,5914,9138,-425,126,-480,-816,35245,-78,35,127,0,0,2700,-296,0,1442,406,247,1175,0,3,128,88,538875,0
538917,352,463,-261,1728,249,6341,8965,-383,78,-497,-720,35268,-73,36,127,0,0,2678,-197,0,1442,406,247,1185,0,3,128,88,538875,0
538927,567,395,-256,1716,74,6520,8810,-331,66,-514,-560,35283,-59,35,127,0,0,2660,-186,0,1442,406,247,1195,0,3,128,88,538922,0
538937,885,140,-257,1606,-174,6624,8678,-272,83,-531,-464,35275,-69,35,127,0,0,2645,-142,0,1442,406,247,1205,0,3,128,88,538938,0
538947,1071,-57,-259,1514,-296,6600,8565,-244,87,-469,-376,35257,-108,35,127,0,0,2632,-131,0,1442,406,247,1215,0,3,128,88,538938,0
538957,1410,-344,-314,1281,-329,6398,8475,-176,76,-487,-304,35254,-111,35,127,0,0,2625,-32,0,1442,406,247,1225,0,3,128,88,538938,0
538967,1652,-488,-320,1100,-278,6101,8412,-112,93,-418,-168,35256,-82,35,127,0,0,2623,-32,0,1442,406,247,1235,0,3,128,88,538938,0
538977,1913,-784,-449,780,-92,5416,8378,-48,111,-367,-144,35257,-42,35,127,0,0,2625,0,0,1442,406,247,1245,0,3,128,88,538938,0
538987,2123,-939,-535,565,130,4886,8383,18,132,-469,-160,35263,-33,36,127,0,0,2623,21,0,1442,406,247,1255,0,3,128,88,538953,0
538997,2290,-1014,-561,251,489,4032,8383,17,60,-378,-72,35269,-24,35,127,0,0,2625,-21,0,1442,406,247,1265,0,3,128,88,539000,0
539007,2435,-1131,-577,81,689,3538,8384,6,-2,-297,-16,35289,-25,36,127,0,0,2641,142,0,1442,406,247,1275,0,3,128,88,539000,0
539017,2538,-1080,-476,-188,1108,2707,8409,79,43,170,176,35274,-21,35,127,0,0,2669,263,0,1442,406,247,1285,0,3,128,88,539000,0
539027,2383,-1132,-388,-341,1256,2263,8479,179,137,327,312,35257,-26,35,127,0,0,2700,340,0,1442,406,247,1295,0,3,128,88,539000,0
539037,6244,-1449,-1443,-926,2966,1061,8587,256,155,393,448,35252,-49,36,127,0,0,2768,703,0,1442,406,247,1305,0,3,128,88,539000,0
539047,8498,-3149,-913,-2181,2735,-5151,8769,450,210,208,-216,35266,-65,35,127,0,0,2597,-2274,0,1442,406,247,1315,0,3,128,88,539016,0
539057,3940,-456,-370,-161,2257,-2215,8627,-708,-449,-2000,-2352,35276,-80,35,127,0,0,2401,-1658,0,1588,387,248,9,1,3,118,93,539031,0
539067,2057,-371,-32,-528,1264,-1849,8179,-1047,-1308,-888,-2800,35266,-66,36,127,0,0,2236,-1691,0,1588,387,248,19,1,3,118,93,539031,0
539077,1656,-1309,581,-560,-645,400,7633,-1241,-726,-776,-2720,35253,-53,36,127,0,0,2157,-593,0,1588,387,248,29,1,3,118,93,539047,0
539087,745,-2708,1045,-514,-667,-859,7121,-1057,-131,-428,-2536,35255,-48,35,127,0,0,2043,-1230,0,1588,387,248,39,1,3,118,93,539078,0
539097,1175,-3236,754,222,9,-1054,6638,-1090,142,-793,-2760,35265,-51,35,127,0,0,1918,-1208,0,1588,387,248,49,1,3,118,93,539078,0
539107,1382,-2296,626,335,-62,-896,6124,-1142,-20,-705,-2880,35259,-27,36,127,0,0,1801,-1153,0,1588,387,248,59,1,3,118,93,539078,0
539117,2294,-1964,-41,180,-853,-286,5600,-1146,-66,-653,-2856,35250,-33,36,127,0,0,1702,-977,0,1588,387,248,69,1,3,118,93,539094,0
539127,1951,-2545,-259,130,-1012,274,5083,-1128,-8,-518,-2680,35248,-24,36,127,0,0,1628,-725,0,1588,387,248,79,1,3,118,93,539094,0
539137,1016,-2613,-629,168,-701,881,4592,-1043,59,-342,-2192,35260,-47,35,127,0,0,1588,-362,0,1588,387,248,89,1,3,118,93,539109,0
539147,745,-2424,-889,171,-126,944,4177,-856,200,-271,-1664,35267,-42,35,127,0,0,1562,-219,0,1588,387,248,99,1,3,118,93,539125,0
539157,810,-1738,-410,257,506,859,3837,-704,288,-277,-1280,35260,-60,36,127,0,0,1542,-164,0,1588,387,248,109,1,3,118,93,539125,0
539167,1064,-1446,-12,307,599,760,3567,-547,277,-302,-1000,35267,-74,36,127,0,0,1511,-307,0,1588,387,248,119,1,3,118,93,539141,0
539177,1729,-1206,240,294,308,844,3346,-467,223,-410,-936,35273,-69,36,127,0,0,1472,-395,0,1588,387,248,129,1,3,118,93,539141,0
539187,1761,-1142,141,371,11,1052,3144,-437,129,-485,-1000,35281,-57,35,127,0,0,1428,-439,0,1588,387,248,139,1,3,118,93,539250,0
539197,1628,-2779,319,644,-232,1034,2936,-462,18,-588,-1176,35280,-51,35,127,0,0,1364,-659,0,1588,387,248,149,1,3,118,93,539250,0
539207,785,-4420,129,823,-281,1373,2699,-559,-63,-711,-1312,35266,-49,35,127,0,0,1329,-307,0,1588,387,248,159,1,3,118,93,539266,0
539217,-430,-3066,109,230,-258,1894,2445,-526,-105,-339,-664,35268,-60,35,127,0,0,1362,395,0,1588,387,248,169,1,3,118,93,539266,0
539227,-188,-2297,-87,116,115,1506,2291,-199,150,354,336,35258,-62,35,127,0,0,1417,549,0,1588,387,248,179,1,3,118,93,539266,0
539237,951,-1319,-715,440,664,1019,2405,335,718,470,600,35247,-78,36,127,0,0,1456,384,0,1588,387,248,189,1,3,118,93,539281,0
539247,1680,-991,-506,547,452,965,2569,358,613,377,600,35243,-91,35,127,0,0,1480,208,0,1588,387,248,199,1,3,118,93,539281,0
539257,1544,-1919,-24,422,154,1637,2729,336,73,374,472,35254,-86,36,127,0,0,1511,307,0,1588,387,248,209,1,3,118,93,539281,0
539267,1228,-2030,67,470,45,1915,2874,313,-52,495,672,35258,-88,35,127,0,0,1560,461,0,1588,387,248,219,1,3,118,93,539281,0
539277,682,-1962,-99,542,196,1916,3045,391,15,554,936,35253,-71,35,127,0,0,1617,549,0,1588,387,248,229,1,3,118,93,539281,0
539287,625,-1919,-87,609,389,1737,3244,460,108,592,1072,35244,-76,36,127,0,0,1665,472,0,1588,387,248,239,1,3,118,93,539281,0
539297,925,-1828,33,585,425,1769,3464,495,101,548,1136,35257,-85,35,127,0,0,1711,505,0,1588,387,248,249,1,3,118,93,539281,0
539307,1086,-1797,80,551,313,1919,3695,515,60,563,1192,35265,-87,36,127,0,0,1766,516,0,1588,387,248,259,1,3,118,93,539297,0
539317,1026,-1860,85,534,205,2117,3933,526,29,625,1336,35270,-75,36,127,0,0,1828,615,0,1588,387,248,269,1,3,118,93,539297,0
539327,921,-1924,49,525,202,2186,4189,569,50,589,1408,35269,-70,36,127,0,0,1894,681,0,1588,387,248,279,1,3,118,93,539312,0
539337,819,-1943,35,514,222,2225,4462,612,65,557,1464,35271,-70,36,127,0,0,1955,604,0,1588,387,248,289,1,3,118,93,539312,0
539347,806,-1929,67,515,239,2266,4745,630,57,556,1528,35276,-48,35,127,0,0,2023,670,0,1588,387,248,299,1,3,118,93,539312,0
539357,737,-1883,85,538,226,2368,5034,641,27,571,1592,35273,-53,35,127,0,0,2096,736,0,1588,387,248,309,1,3,118,93,539344,0
539367,724,-1868,63,539,198,2421,5335,684,32,611,1672,35269,-38,36,127,0,0,2173,780,0,1588,387,248,319,1,3,118,93,539344,0
539377,701,-1874,29,545,181,2468,5650,708,49,617,1760,35267,-55,35,127,0,0,2254,812,0,1588,387,248,329,1,3,118,93,539344,0
539387,663,-1906,22,539,165,2476,5983,742,66,576,1816,35261,-74,35,127,0,0,2324,725,0,1588,387,248,339,1,3,118,93,539359,0
539397,583,-1945,85,561,162,2459,6320,744,46,565,1784,35259,-57,35,127,0,0,2397,692,0,1588,387,248,349,1,3,118,93,539391,0
539407,541,-1920,153,575,143,2462,6655,733,4,535,1720,35256,-48,36,127,0,0,2469,725,0,1588,387,248,359,1,3,118,93,539391,0
539417,520,-1923,174,573,119,2505,6990,732,-9,581,1776,35256,-33,35,127,0,0,2542,703,0,1588,387,248,369,1,3,118,93,539391,0
539427,550,-1948,143,558,100,2539,7330,755,9,598,1760,35262,-55,36,127,0,0,2614,714,0,1588,387,248,379,1,3,118,93,539391,0
539437,621,-1957,117,576,89,2634,7675,767,27,548,1832,35272,-54,36,127,0,0,2696,812,0,1588,387,248,389,1,3,118,93,539437,0
539447,531,-1892,111,550,4,2641,8028,779,17,552,1832,35266,-39,36,127,0,0,2775,791,0,1588,387,248,399,1,3,118,93,539437,0
539457,212,-1948,164,555,-27,2593,8385,792,24,525,1912,35253,-61,36,127,0,0,2852,812,0,1588,387,248,409,1,3,118,93,539437,0
539467,64,-1903,167,563,-3,2467,8750,809,20,543,1880,35243,-58,35,127,0,0,2926,747,0,1588,387,248,419,1,3,118,93,539437,0
539477,20,-1910,115,538,28,2224,9117,800,14,492,1832,35250,-63,36,127,0,0,3001,769,0,1588,387,248,429,1,3,118,93,539437,0
539487,19,-1963,143,512,38,2053,9477,787,-10,511,1808,35261,-46,36,127,0,0,3073,747,0,1588,387,248,439,1,3,118,93,539469,0
539497,68,-2013,216,481,25,1826,9832,779,-20,493,1792,35252,-51,36,127,0,0,3133,626,0,1588,387,248,449,1,3,118,93,539500,0
539507,65,-2001,245,463,-24,1682,10175,740,-35,458,1616,35249,-52,36,127,0,0,3188,505,0,1588,387,248,459,1,3,118,93,539500,0
539517,-65,-1964,278,405,-49,1491,10500,696,-62,385,1504,35256,-64,35,127,0,0,3238,472,0,1588,387,248,469,1,3,118,93,539500,0
539527,-111,-1967,335,354,-41,1334,10805,665,-74,413,1368,35246,-54,35,127,0,0,3284,461,0,1588,387,248,479,1,3,118,93,539516,0
539537,-128,-1992,370,255,-80,1059,11086,598,-87,430,1240,35238,-62,36,127,0,0,3322,384,0,1588,387,248,489,1,3,118,93,539516,0
539547,-147,-2037,359,159,-75,852,11341,531,-94,400,1056,35242,-72,36,127,0,0,3348,219,0,1588,387,248,499,1,3,118,93,539516,0
539557,-150,-2047,378,47,-43,526,11560,462,-122,397,816,35262,-75,36,127,0,0,3361,131,0,1588,387,248,509,1,3,118,93,539531,0
539567,-128,-2026,381,-23,-59,351,11741,380,-145,385,536,35278,-71,36,127,0,0,3377,109,0,1588,387,248,519,1,3,118,93,539547,0
539577,-141,-1988,349,-107,-51,100,11882,276,-136,330,288,35268,-68,36,127,0,0,3379,0,0,1588,387,248,529,1,3,118,93,539547,0
539587,-198,-2002,319,-182,-70,-19,11975,144,-173,224,80,35249,-79,35,127,0,0,3377,-10,0,1588,387,248,539,1,3,118,93,539594,0
539597,-232,-2072,284,-280,-62,-337,11988,-10,-247,180,8,35247,-112,36,127,0,0,3370,-76,0,1588,387,248,549,1,3,118,93,539594,0
539607,-234,-2104,302,-363,-81,-492,11962,-89,-222,-7,-96,35253,-126,35,127,0,0,3353,-186,0,1588,387,248,559,1,3,118,93,539594,0
539617,-348,-2104,331,-424,-50,-772,11906,-111,-137,-186,-128,35251,-119,35,127,0,0,3335,-241,0,1588,387,248,569,1,3,118,93,539594,0
539627,-215,-2083,343,-472,-50,-924,11851,-125,-43,-411,-264,35234,-121,36,127,0,0,3315,-219,0,1588,387,248,579,1,3,118,93,539594,0
539637,-179,-2092,306,-524,-93,-1093,11774,-189,-41,-475,-384,35243,-121,35,127,0,0,3291,-252,0,1588,387,248,589,1,3,118,93,539609,0
539647,-167,-2086,213,-530,-111,-1220,11674,-212,-97,-445,-416,35264,-101,36,127,0,0,3269,-252,0,1588,387,248,599,1,3,118,93,539640,0
539657,59,-2051,106,-600,-96,-1391,11565,-250,-53,-471,-432,35275,-80,36,127,0,0,3245,-274,0,1588,387,248,609,1,3,118,93,539656,0
539667,73,-2051,124,-612,-108,-1488,11464,-247,-26,-496,-488,35265,-45,36,127,0,0,3216,-285,0,1588,387,248,619,1,3,118,93,539656,0
539677,151,-2037,217,-644,-147,-1559,11342,-283,-24,-517,-544,35251,-51,36,127,0,0,3190,-307,0,1588,387,248,629,1,3,118,93,539656,0
539687,138,-2026,234,-686,-158,-1600,11201,-310,-54,-484,-568,35245,-64,35,127,0,0,3164,-219,0,1588,387,248,639,1,3,118,93,539656,0
539697,215,-2054,238,-781,-164,-1661,11061,-290,-24,-480,-568,35252,-92,35,127,0,0,3128,-329,0,1588,387,248,649,1,3,118,93,539656,0
539707,246,-1994,199,-825,-208,-1654,10923,-317,8,-474,-536,35260,-99,36,127,0,0,3102,-285,0,1588,387,248,659,1,3,118,93,539703,0
539717,358,-2795,-343,-1036,-601,-1562,10786,-310,-3,-529,-496,35262,-100,35,127,0,0,3084,-120,0,1588,387,248,669,1,3,118,93,539703,0
539727,-79,-3198,169,-845,-1113,-1343,10663,-233,35,-372,-248,35258,-93,36,127,0,0,3095,120,0,1588,387,248,679,1,3,118,93,539703,0
539737,-833,-4326,381,-529,-778,-822,10611,-36,184,39,232,35252,-79,35,127,0,0,3155,626,0,1588,387,248,689,1,3,118,93,539703,0
539747,-874,-3617,207,-553,-371,-611,10716,339,462,562,1072,35242,-44,35,127,0,0,3265,1186,0,1588,387,248,699,1,3,118,93,539719,0
539757,-557,-2551,-71,-659,28,-857,10954,608,566,915,1864,35244,-45,36,127,0,0,3392,1307,0,1588,387,248,709,1,3,118,93,539734,0
539767,-180,-2540,-173,-653,-153,-1215,11331,914,423,852,2456,35244,-56,35,127,0,0,3517,1219,0,1588,387,248,719,1,3,118,93,539734,0
539777,-468,-3127,40,-533,-278,-1260,11801,1083,378,753,2776,35251,-44,35,127,0,0,3649,1318,0,1588,387,248,729,1,3,118,93,539750,0
539787,-962,-3185,165,-451,-230,-1408,12333,1211,320,843,3208,35244,-38,35,127,0,0,3792,1450,0,1588,387,248,739,1,3,118,93,539765,0
539797,-1194,-3016,150,-478,-140,-1726,12934,1361,248,871,3688,35226,-21,36,127,0,0,3952,1625,0,1588,387,248,749,1,3,118,93,539765,0
539807,-1286,-3165,175,-466,-169,-1956,13606,1524,265,868,4112,35233,-8,36,127,0,0,4124,1735,0,1588,387,248,759,1,3,118,93,539781,0
539817,-1209,-3660,504,-415,-370,-2376,14342,1667,262,843,4384,35238,11,36,127,0,0,4295,1691,0,1588,387,248,769,1,3,118,93,539797,0
539827,-1179,-3914,375,-544,-455,-2413,15151,1830,262,874,4752,35234,17,36,127,0,0,4504,2109,0,1588,387,248,779,1,3,118,93,539797,0
539837,-620,-3598,174,-505,7,-2826,16062,2072,337,943,5184,35232,38,36,127,0,0,4706,1966,0,1588,387,248,789,1,3,118,93,539812,0
539847,150,-3515,-96,-648,345,-3282,17036,2147,333,827,5360,35217,48,36,127,0,0,4899,1911,0,1588,387,248,799,1,3,118,93,539828,0
539857,863,-3595,-275,-837,306,-3928,18019,2152,132,654,5048,35227,60,35,127,0,0,5044,1395,0,1588,387,248,809,1,3,118,93,539828,0
539867,972,-3629,90,-928,-43,-3948,18948,2003,-79,481,4840,35225,45,35,127,0,0,5216,1757,0,1588,387,248,819,1,3,118,93,539828,0
539877,1920,-4025,533,-606,232,-4813,19859,2023,-154,877,5360,35227,24,36,127,0,0,5453,2406,0,1588,387,248,829,1,3,118,93,539859,0
539887,2243,-4107,244,-432,1285,-6329,20835,2140,102,530,3696,35226,27,36,127,0,0,5578,1043,0,1588,387,248,839,1,3,118,93,539859,0
539897,2128,-4146,283,-426,1596,-7169,21576,1288,-277,-1397,-48,35244,-28,36,127,0,0,5592,65,0,1588,387,248,849,1,3,118,93,539859,0
539907,2695,-4407,351,-305,1415,-7596,21544,-623,-1971,-2758,-2800,35254,-38,35,127,0,0,5556,-439,0,1588,387,248,859,1,3,118,93,539875,0
539917,2279,-3454,764,-106,213,-7806,20970,-1551,-2605,-2048,-5144,35240,-28,35,127,0,0,5486,-692,0,1588,387,248,869,0,3,118,93,539890,0
539927,2628,-3191,588,-272,-631,-7810,20031,-2161,-1735,-268,-1064,35222,40,36,127,0,0,5422,-637,0,1588,387,248,879,0,3,118,93,539890,0
539937,1746,-2343,499,-350,-2149,-7615,19908,879,764,6107,4448,35223,71,36,127,0,0,5354,-703,0,1588,387,248,889,0,3,118,93,540000,0
539947,2830,-2642,47,-607,-2730,-6965,20670,1725,3593,684,3400,35217,102,36,127,0,0,5348,-32,0,1588,387,248,899,0,3,118,93,540000,0
539957,1818,-2222,179,-669,-3685,-6651,21329,1320,1406,-60,2024,35230,23,35,127,0,0,5352,65,0,1588,387,248,909,0,3,118,93,540000,0
539967,1647,-2144,102,-728,-4228,-6434,21788,879,-617,-42,1136,35208,33,35,127,0,0,5345,-21,0,1588,387,248,919,0,3,118,93,540015,0
539977,1778,-2353,129,-919,-4245,-6374,22065,512,-735,65,384,35236,-82,35,127,0,0,5310,-406,0,1588,387,248,929,0,3,118,93,540015,0
539987,1544,-2097,80,-1072,-4139,-6101,22152,-6,-690,-686,-560,35257,-88,36,127,0,0,5227,-867,0,1588,387,248,939,0,3,118,93,540015,0
539997,1159,-1737,135,-1155,-3734,-5891,21990,-451,-859,-669,-1464,35250,-82,35,127,0,0,5099,-1296,0,1588,387,248,949,0,3,118,93,540015,0
540007,979,-1517,-40,-1170,-3511,-5541,21688,-780,-738,-990,-2448,35238,-75,35,127,0,0,4941,-1571,0,1588,387,248,959,0,3,118,93,540015,0
540017,689,-1209,-225,-1306,-3058,-5009,21219,-1142,-583,-1012,-3208,35228,-42,36,127,0,0,4779,-1647,0,1588,387,248,969,0,3,118,93,540015,0
540027,541,-1056,-301,-1350,-2671,-4591,20612,-1411,-587,-903,-3744,35234,-26,35,127,0,0,4612,-1669,0,1588,387,248,979,0,3,118,93,540015,0
540037,354,-899,-293,-1344,-1902,-4029,19892,-1645,-485,-673,-4128,35230,-1,35,127,0,0,4438,-1779,0,1588,387,248,989,0,3,118,93,540015,0
540047,255,-735,-324,-1330,-1284,-3688,19102,-1779,-347,-715,-4496,35227,-8,36,127,0,0,4253,-1812,0,1588,387,248,999,0,3,118,93,540015,0
540057,47,-500,-342,-1347,-253,-3198,18257,-1880,-235,-634,-4664,35238,-22,35,127,0,0,4069,-1845,0,1588,387,248,1009,0,3,118,93,540015,0
540067,-71,-530,-283,-1306,362,-2801,17379,-1964,-164,-589,-4752,35268,-24,36,127,0,0,3897,-1636,0,1588,387,248,1019,0,3,118,93,540047,0
540077,-247,-647,-234,-1172,1090,-2106,16482,-1985,-108,-459,-4648,35280,-27,35,127,0,0,3746,-1483,0,1588,387,248,1029,0,3,118,93,540047,0
540087,-285,-657,-229,-1096,1577,-1666,15593,-1935,-27,-340,-4304,35280,-27,35,127,0,0,3621,-1219,0,1588,387,248,1039,0,3,118,93,540047,0
540097,-213,-467,-68,-864,2170,-1059,14785,-1711,170,-263,-3760,35247,-41,36,127,0,0,3517,-1043,0,1588,387,248,1049,0,3,118,93,540078,0
540107,-133,-219,-119,-686,2513,-696,14081,-1490,357,-288,-3408,35256,-50,35,127,0,0,3416,-1010,0,1588,387,248,1059,0,3,118,93,540078,0
540117,-32,54,-29,-363,2920,-123,13455,-1342,354,-376,-3160,35272,-40,36,127,0,0,3320,-988,0,1588,387,248,1069,0,3,118,93,540078,0
540127,-41,213,-73,-160,3023,290,12868,-1274,220,-402,-3048,35271,-56,36,127,0,0,3221,-1032,0,1588,387,248,1079,0,3,118,93,540125,0
540137,-33,358,-70,31,2854,1080,12298,-1245,99,-476,-2840,35249,-35,36,127,0,0,3135,-812,0,1588,387,248,1089,0,3,118,93,540125,0
540147,74,396,-6,189,2654,1599,11755,-1152,76,-325,-2424,35249,-50,36,127,0,0,3069,-648,0,1588,387,248,1099,0,3,118,93,540125,0
540157,139,296,-11,414,2341,2343,11273,-1026,175,-322,-2136,35266,-24,36,127,0,0,3014,-593,0,1588,387,248,1109,0,3,118,93,540125,0
540167,150,288,54,577,2146,2798,10853,-883,235,-336,-1792,35265,-41,36,127,0,0,2961,-505,0,1588,387,248,1119,0,3,118,93,540187,0
540177,185,309,125,816,1773,3491,10498,-750,245,-395,-1536,35272,-45,36,127,0,0,2915,-472,0,1588,387,248,1129,0,3,118,93,540187,0
540187,230,313,145,934,1473,3999,10199,-629,230,-454,-1360,35268,-59,35,127,0,0,2876,-384,0,1588,387,248,1139,0,3,118,93,540203,0
540197,351,350,113,1147,989,4713,9938,-557,179,-463,-1064,35273,-58,35,127,0,0,2845,-285,0,1588,387,248,1149,0,3,118,93,540203,0
540207,384,346,76,1265,730,5119,9715,-459,143,-429,-928,35260,-54,35,127,0,0,2821,-263,0,1588,387,248,1159,0,3,118,93,540203,0
540217,475,374,56,1435,417,5618,9522,-407,138,-486,-760,35249,-44,36,127,0,0,2792,-252,0,1588,387,248,1169,0,3,118,93,540203,0
540227,513,361,18,1539,234,5839,9358,-355,112,-480,-720,35246,-55,36,127,0,0,2766,-296,0,1588,387,248,1179,0,3,118,93,540203,0
540237,687,240,-46,1630,81,6121,9205,-341,72,-575,-656,35253,-78,36,127,0,0,2737,-263,0,1588,387,248,1189,0,3,118,93,540203,0
540247,769,131,-69,1642,59,6236,9054,-326,21,-515,-624,35264,-69,35,127,0,0,2715,-219,0,1588,387,248,1199,0,3,118,93,540218,0
540257,967,-126,-104,1592,205,6231,8916,-301,26,-473,-464,35271,-40,35,127,0,0,2700,-175,0,1588,387,248,1209,0,3,118,93,540218,0
540267,1109,-299,-115,1521,412,6141,8811,-220,84,-474,-336,35278,-53,36,127,0,0,2691,-120,0,1588,387,248,1219,0,3,118,93,540250,0
540277,1394,-498,-171,1356,793,5853,8738,-122,125,-516,-296,35276,-103,35,127,0,0,2685,-76,0,1588,387,248,1229,0,3,118,93,540250,0
540287,1705,-628,-207,1217,983,5568,8691,-93,111,-527,-200,35273,-118,36,127,0,0,2685,21,0,1588,387,248,1239,0,3,118,93,540250,0
540297,2012,-840,-243,994,1172,4935,8675,-12,104,-496,-136,35270,-122,36,127,0,0,2685,21,0,1588,387,248,1249,0,3,118,93,540281,0
540307,2173,-1016,-238,830,1272,4436,8669,-12,86,-483,-144,35268,-97,36,127,0,0,2685,32,0,1588,387,248,1259,0,3,118,93,540281,0
540317,2321,-1220,-212,574,1448,3623,8664,-11,26,-453,-128,35266,-115,36,127,0,0,2687,76,0,1588,387,248,1269,0,3,118,93,540328,0
540327,2261,-1232,-232,381,1512,3128,8666,6,11,-353,-48,35278,-108,35,127,0,0,2696,109,0,1588,387,248,1279,0,3,118,93,540343,0
540337,2394,-1138,-185,140,1578,2400,8683,58,37,-81,80,35264,-101,35,127,0,0,2715,219,0,1588,387,248,1289,0,3,118,93,540343,0
540347,2353,-1112,-170,34,1576,1972,8747,161,125,162,192,35253,-87,36,127,0,0,2746,329,0,1588,387,248,1299,0,3,118,93,540343,0
540357,2279,-1138,-159,-114,1580,1415,8838,203,135,384,368,35247,-98,35,127,0,0,2788,439,0,1588,387,248,1309,0,3,118,93,540343,0
540367,2125,-1080,-81,-133,1606,1024,8953,287,82,544,592,35252,-114,36,127,0,0,2834,461,0,1588,387,248,1319,0,3,118,93,540343,0
540377,8562,-3910,-327,-217,-218,-1362,9113,398,131,482,824,35257,-104,35,127,0,0,2880,527,0,1588,387,248,1329,0,3,118,93,540343,0
540387,6645,-3413,224,-253,845,-4694,9312,401,177,-164,-640,35270,-64,35,127,0,0,2665,-2537,0,1443,624,249,3,1,3,133,95,540390,0
540397,3007,-211,159,287,31,-1813,9073,-842,-736,-1690,-2512,35275,-48,36,127,0,0,2485,-1549,0,1443,624,249,13,1,3,133,95,540390,0
540407,1653,613,-450,-504,-474,-1499,8592,-1113,-1374,-875,-2920,35265,-24,36,127,0,0,2331,-1604,0,1443,624,249,23,1,3,133,95,540406,0
540417,739,-772,84,-960,-2436,-192,8027,-1267,-581,-717,-2920,35250,-30,35,127,0,0,2225,-955,0,1443,624,249,33,1,3,133,95,540406,0
540427,575,-2025,-46,-810,-1860,-785,7477,-1185,-129,-546,-2856,35231,-24,35,127,0,0,2096,-1340,0,1443,624,249,43,1,3,133,95,540422,0
540437,871,-3118,-180,-339,-554,-1044,6932,-1202,47,-736,-2968,35226,-33,36,127,0,0,1966,-1329,0,1443,624,249,53,1,3,133,95,540422,0
540447,1007,-3033,105,-259,-319,-951,6371,-1241,-28,-706,-3152,35231,-25,35,127,0,0,1836,-1296,0,1443,624,249,63,1,3,133,95,540422,0
540457,1964,-2660,417,-563,-525,-311,5803,-1233,-47,-536,-2920,35246,-15,35,127,0,0,1742,-911,0,1443,624,249,73,1,3,133,95,540422,0
540467,1393,-2563,263,-831,-690,207,5268,-1161,56,-529,-2704,35258,-32,35,127,0,0,1674,-637,0,1443,624,249,83,1,3,133,95,540468,0
540477,1267,-2748,80,-861,-576,583,4780,-1030,153,-328,-2192,35268,-35,36,127,0,0,1634,-340,0,1443,624,249,93,1,3,133,95,540468,0
540487,1090,-2472,-267,-659,-370,793,4368,-845,233,-240,-1592,35271,-54,36,127,0,0,1608,-219,0,1443,624,249,103,1,3,133,95,540468,0
540497,1200,-1602,-510,-560,-4,944,4047,-656,321,-262,-1136,35266,-64,35,127,0,0,1595,-142,0,1443,624,249,113,1,3,133,95,540468,0
540507,1320,-1272,-437,-583,130,1029,3797,-494,305,-232,-744,35252,-86,35,127,0,0,1582,-153,0,1443,624,249,123,1,3,133,95,540484,0
540517,1473,-957,-283,-589,128,1145,3614,-361,269,-350,-608,35258,-59,36,127,0,0,1557,-241,0,1443,624,249,133,1,3,133,95,540484,0
540527,1540,-976,-282,-454,47,1186,3458,-323,179,-456,-624,35263,-59,35,127,0,0,1522,-373,0,1443,624,249,143,1,3,133,95,540515,0
540537,1502,-1189,-142,-167,-69,1299,3307,-341,60,-566,-776,35273,-70,36,127,0,0,1474,-505,0,1443,624,249,153,1,3,133,95,540515,0
540547,1479,-1415,8,-3,-142,1400,3134,-393,-28,-603,-1056,35262,-89,35,127,0,0,1419,-593,0,1443,624,249,163,1,3,133,95,540515,0
540557,1703,-2017,13,22,-198,1512,2923,-495,-115,-702,-1304,35252,-77,35,127,0,0,1357,-615,0,1443,624,249,173,1,3,133,95,540531,0
540567,524,-4262,1020,295,-188,1496,2666,-613,-154,-772,-1664,35253,-74,36,127,0,0,1287,-670,0,1443,624,249,183,1,3,133,95,540547,0
540577,-865,-3855,778,-140,-358,2566,2356,-688,-202,-476,-1192,35265,-71,36,127,0,0,1302,230,0,1443,624,249,193,1,3,133,95,540547,0
540587,-633,-2410,750,-438,-345,2326,2120,-424,16,-8,136,35274,-75,35,127,0,0,1379,769,0,1443,624,249,203,1,3,133,95,540547,0
540597,478,-1685,-973,-268,318,1593,2191,359,746,808,776,35268,-76,35,127,0,0,1441,593,0,1443,624,249,213,1,3,133,95,540593,0
540607,1390,-804,-1096,78,377,1321,2390,468,874,489,920,35250,-54,36,127,0,0,1483,373,0,1443,624,249,223,1,3,133,95,540609,0
540617,1442,-1892,-670,151,130,1647,2597,459,234,358,856,35247,-72,35,127,0,0,1513,285,0,1443,624,249,233,1,3,133,95,540609,0
540627,1036,-2223,-81,287,-30,1957,2790,420,-10,410,856,35253,-73,36,127,0,0,1560,461,0,1443,624,249,243,1,3,133,95,540609,0
540637,311,-2034,183,362,15,1901,2986,466,-23,565,1120,35246,-80,35,127,0,0,1619,593,0,1443,624,249,253,1,3,133,95,540609,0
540647,270,-1922,-40,362,218,1662,3215,523,81,566,1192,35240,-57,35,127,0,0,1669,494,0,1443,624,249,263,1,3,133,95,540609,0
540657,755,-1826,-355,432,352,1503,3458,542,91,500,1216,35239,-69,36,127,0,0,1713,417,0,1443,624,249,273,1,3,133,95,540625,0
540667,953,-1813,-197,470,217,1591,3672,511,17,490,1176,35255,-77,36,127,0,0,1762,483,0,1443,624,249,283,1,3,133,95,540640,0
540677,864,-1865,50,481,187,1674,3908,517,-20,568,1224,35260,-86,36,127,0,0,1810,461,0,1443,624,249,293,1,3,133,95,540640,0
540687,847,-1882,130,463,219,1700,4143,519,-4,574,1216,35257,-78,36,127,0,0,1861,461,0,1443,624,249,303,1,3,133,95,540687,0
540697,808,-1913,145,449,209,1782,4383,532,12,489,1224,35247,-81,35,127,0,0,1916,571,0,1443,624,249,313,1,3,133,95,540687,0
540707,813,-1930,123,438,194,1847,4622,525,6,516,1216,35252,-71,36,127,0,0,1968,538,0,1443,624,249,323,1,3,133,95,540703,0
540717,827,-1890,84,424,165,1937,4864,538,8,532,1296,35260,-77,35,127,0,0,2030,626,0,1443,624,249,333,1,3,133,95,540703,0
540727,810,-1882,90,403,152,1997,5113,551,21,584,1360,35251,-72,35,127,0,0,2093,659,0,1443,624,249,343,1,3,133,95,540703,0
540737,734,-1938,126,374,109,2085,5373,584,40,568,1440,35243,-91,36,127,0,0,2155,692,0,1443,624,249,353,1,3,133,95,540703,0
540747,718,-1922,124,361,99,2119,5641,601,36,570,1512,35254,-98,35,127,0,0,2223,703,0,1443,624,249,363,1,3,133,95,540750,0
540757,664,-1906,87,317,86,2196,5922,621,38,593,1536,35267,-81,36,127,0,0,2291,659,0,1443,624,249,373,1,3,133,95,540750,0
540767,623,-1917,52,294,56,2229,6218,652,52,591,1592,35257,-65,35,127,0,0,2357,659,0,1443,624,249,383,1,3,133,95,540750,0
540777,552,-1952,85,259,75,2253,6517,658,1,563,1544,35240,-62,35,127,0,0,2421,626,0,1443,624,249,393,1,3,133,95,540750,0
540787,597,-1983,113,262,97,2278,6819,673,37,536,1544,35229,-58,35,127,0,0,2489,659,0,1443,624,249,403,1,3,133,95,540750,0
540797,695,-1951,74,292,69,2388,7119,665,7,596,1560,35247,-58,36,127,0,0,2555,681,0,1443,624,249,413,1,3,133,95,540781,0
540807,638,-1905,-31,331,8,2472,7424,667,0,585,1600,35258,-76,36,127,0,0,2625,725,0,1443,624,249,423,1,3,133,95,540781,0
540817,353,-1948,-106,411,-9,2494,7735,687,12,611,1640,35253,-67,36,127,0,0,2698,747,0,1443,624,249,433,1,3,133,95,540781,0
540827,186,-1956,-82,484,17,2409,8064,731,46,542,1688,35249,-78,36,127,0,0,2768,681,0,1443,624,249,443,1,3,133,95,540812,0
540837,49,-1974,6,545,63,2209,8395,723,29,484,1672,35241,-71,35,127,0,0,2838,692,0,1443,624,249,453,1,3,133,95,540812,0
540847,9,-1976,110,555,63,2055,8721,708,-8,508,1648,35242,-70,35,127,0,0,2898,626,0,1443,624,249,463,1,3,133,95,540812,0
540857,4,-2006,250,537,65,1862,9043,695,-15,452,1536,35237,-70,36,127,0,0,2957,571,0,1443,624,249,473,1,3,133,95,540828,0
540867,70,-1975,287,476,47,1735,9345,646,-43,489,1512,35234,-55,35,127,0,0,3016,615,0,1443,624,249,483,1,3,133,95,540843,0
540877,63,-2015,310,368,10,1570,9644,651,-47,501,1480,35243,-71,36,127,0,0,3071,527,0,1443,624,249,493,1,3,133,95,540843,0
540887,49,-2037,269,314,-12,1458,9936,633,-20,453,1408,35254,-77,35,127,0,0,3124,527,0,1443,624,249,503,1,3,133,95,540859,0
540897,10,-2006,187,253,-31,1285,10217,605,-35,470,1296,35261,-61,35,127,0,0,3168,439,0,1443,624,249,513,1,3,133,95,540859,0
540907,-33,-2003,120,224,-59,1174,10488,575,-43,389,1192,35261,-79,36,127,0,0,3214,450,0,1443,624,249,523,1,3,133,95,540890,0
540917,-105,-2002,93,217,-45,940,10740,549,-58,414,1056,35260,-70,35,127,0,0,3245,318,0,1443,624,249,533,1,3,133,95,540890,0
540927,-79,-2007,136,204,-9,785,10970,494,-79,428,944,35260,-70,36,127,0,0,3276,274,0,1443,624,249,543,1,3,133,95,540890,0
540937,-20,-2020,231,176,35,588,11175,440,-92,394,776,35253,-73,35,127,0,0,3295,197,0,1443,624,249,553,1,3,133,95,540906,0
540947,66,-2012,292,131,29,480,11353,375,-90,427,592,35251,-82,36,127,0,0,3313,164,0,1443,624,249,563,1,3,133,95,540937,0
540957,107,-2014,332,56,8,386,11503,317,-101,420,424,35252,-112,36,127,0,0,3326,87,0,1443,624,249,573,1,3,133,95,540937,0
540967,92,-2024,295,-4,-11,341,11626,237,-100,385,352,35253,-107,35,127,0,0,3339,142,0,1443,624,249,583,1,3,133,95,540937,0
540977,-37,-2077,282,-68,-14,253,11718,198,-110,407,288,35251,-85,35,127,0,0,3348,109,0,1443,624,249,593,1,3,133,95,540937,0
540987,-27,-2081,308,-116,-30,178,11789,122,-88,380,192,35254,-68,36,127,0,0,3355,76,0,1443,624,249,603,1,3,133,95,540968,0
540997,-182,-2075,336,-229,-85,-8,11831,66,-107,432,184,35259,-67,36,127,0,0,3361,65,0,1443,624,249,613,1,3,133,95,540968,0
541007,-326,-2067,376,-344,-97,-185,11852,49,-98,478,160,35263,-87,36,127,0,0,3359,-21,0,1443,624,249,623,1,3,133,95,541000,0
541017,-471,-2076,425,-510,-134,-481,11884,55,-8,252,96,35261,-96,36,127,0,0,3361,21,0,1443,624,249,633,1,3,133,95,541000,0
541027,-439,-2077,437,-612,-97,-817,11884,-24,-45,218,64,35247,-125,36,127,0,0,3350,-98,0,1443,624,249,643,1,3,133,95,541000,0
541037,-376,-2081,414,-769,-79,-1181,11865,-49,-96,-115,-104,35249,-134,35,127,0,0,3331,-186,0,1443,624,249,653,1,3,133,95,541000,0
541047,-193,-2065,447,-881,-99,-1389,11812,-171,-100,-396,-264,35248,-132,36,127,0,0,3302,-263,0,1443,624,249,663,1,3,133,95,541078,0
541057,57,-2061,463,-1053,-183,-1575,11710,-233,-175,-379,-384,35257,-122,35,127,0,0,3269,-329,0,1443,624,249,673,1,3,133,95,541093,0
541067,176,-2050,403,-1162,-235,-1614,11597,-273,-110,-564,-544,35255,-103,35,127,0,0,3236,-318,0,1443,624,249,683,1,3,133,95,541093,0
541077,93,-2395,347,-1247,-354,-1598,11456,-313,-80,-517,-632,35257,-81,36,127,0,0,3201,-329,0,1443,624,249,693,1,3,133,95,541093,0
541087,80,-2458,410,-1164,-333,-1463,11299,-368,-83,-473,-608,35254,-70,35,127,0,0,3183,-164,0,1443,624,249,703,1,3,133,95,541093,0
541097,511,-2704,50,-1102,-991,-1458,11148,-319,-30,-372,-352,35260,-65,36,127,0,0,3179,10,0,1443,624,249,713,1,3,133,95,541093,0
541107,-251,-3739,156,-1055,-811,-994,11038,-194,94,-259,-96,35258,-105,35,127,0,0,3194,252,0,1443,624,249,723,1,3,133,95,541093,0
541117,-638,-3442,196,-1032,-694,-549,11039,142,285,572,608,35257,-101,35,127,0,0,3276,834,0,1443,624,249,733,1,3,133,95,541093,0
541127,-227,-3192,26,-904,-590,-600,11212,455,564,655,1312,35260,-115,36,127,0,0,3379,1032,0,1443,624,249,743,1,3,133,95,541109,0
541137,-467,-2960,-328,-882,-509,-468,11486,684,526,868,1968,35280,-98,36,127,0,0,3502,1230,0,1443,624,249,753,1,3,133,95,541109,0
541147,-657,-2893,-247,-913,-572,-387,11872,922,403,916,2552,35278,-67,36,127,0,0,3647,1472,0,1443,624,249,763,1,3,133,95,541125,0
541157,-759,-2885,-105,-799,-296,-773,12377,1211,439,1114,3376,35272,-53,36,127,0,0,3803,1549,0,1443,624,249,773,1,3,133,95,541140,0
541167,-955,-2634,115,-692,-331,-987,13001,1408,463,834,3744,35251,0,35,127,0,0,3959,1560,0,1443,624,249,783,1,3,133,95,541140,0
541177,-954,-2278,139,-843,-377,-1432,13687,1558,345,851,4088,35251,5,36,127,0,0,4117,1582,0,1443,624,249,793,1,3,133,95,541171,0
541187,-1292,-2283,254,-890,-305,-1849,14423,1639,217,653,4152,35251,13,35,127,0,0,4269,1516,0,1443,624,249,803,1,3,133,95,541171,0
541197,-1212,-2942,83,-889,-397,-2434,15191,1708,157,666,4192,35245,8,35,127,0,0,4425,1560,0,1443,624,249,813,1,3,133,95,541171,0
541207,-1088,-3466,208,-803,-517,-2694,15991,1778,124,671,4376,35242,1,35,127,0,0,4587,1647,0,1443,624,249,823,1,3,133,95,541171,0
541217,-586,-3948,529,-710,-997,-2871,16808,1794,94,738,4440,35241,15,35,127,0,0,4754,1680,0,1443,624,249,833,1,3,133,95,541187,0
541227,-251,-4033,274,-837,-803,-3080,17635,1835,50,917,4736,35251,21,35,127,0,0,4937,1823,0,1443,624,249,843,1,3,133,95,541249,0
541237,398,-4392,341,-1025,-943,-3671,18502,1923,99,735,4696,35250,39,35,127,0,0,5082,1362,0,1443,624,249,853,1,3,133,95,541249,0
541247,323,-4535,625,-1020,-979,-3488,19353,1841,46,521,4536,35237,28,36,127,0,0,5244,1680,0,1443,624,249,863,1,3,133,95,541249,0
541257,209,-4013,468,-1032,-453,-4133,20198,1869,-60,855,4880,35231,15,35,127,0,0,5462,2230,0,1443,624,249,873,1,3,133,95,541249,0
541267,1172,-3705,216,-913,460,-4972,21078,1929,70,572,3800,35230,18,36,127,0,0,5675,2142,0,1443,624,249,883,1,3,133,95,541249,0
541277,1769,-3351,-388,-860,1869,-6248,21804,1433,-198,-353,1296,35236,-4,35,127,0,0,5809,1219,0,1443,624,249,893,1,3,133,95,541265,0
541287,1660,-3393,-325,-711,2577,-6872,22107,141,-1079,-2518,-1360,35239,-45,35,127,0,0,5851,351,0,1443,624,249,903,1,3,133,95,541265,0
541297,1798,-3425,28,-509,3038,-7690,21777,-965,-2084,-1699,-3456,35257,-72,36,127,0,0,5831,-285,0,1443,624,249,913,1,3,133,95,541265,0
541307,1911,-3297,212,-457,3012,-7846,21086,-1767,-1888,-1840,-5432,35267,-25,35,127,0,0,5763,-703,0,1443,624,249,923,0,3,133,95,541281,0
541317,1816,-3060,170,-437,2580,-7812,20040,-2520,-1380,-1567,-6888,35244,76,35,127,0,0,5682,-823,0,1443,624,249,933,0,3,133,95,541296,0
541327,1766,-2775,140,-352,2079,-7688,18730,-2995,-1200,-1117,-7672,35215,142,36,127,0,0,5603,-823,0,1443,624,249,943,0,3,133,95,541296,0
541337,1763,-2422,4,-387,1392,-7343,17287,-3252,-756,-948,-8256,35199,154,36,127,0,0,5537,-659,0,1443,624,249,953,0,3,133,95,541328,0
541347,1679,-2190,-9,-410,986,-7080,15726,-3479,-476,-647,-8296,35196,142,36,127,0,0,5484,-483,0,1443,624,249,963,0,3,133,95,541343,0
541357,1679,-2048,-115,-452,496,-6805,14231,-3103,-139,704,-2120,35212,88,35,127,0,0,5451,-318,0,1443,624,249,973,0,3,133,95,541343,0
541367,1035,-1735,71,-378,197,-6858,13986,786,2429,6892,4336,35224,10,35,127,0,0,5405,-483,0,1443,624,249,983,0,3,133,95,541343,0
541377,1736,-2068,-55,-426,29,-5856,14844,2245,4791,2521,7104,35205,64,36,127,0,0,5403,-10,0,1443,624,249,993,0,3,133,95,541359,0
541387,1261,-1799,-7,-371,-154,-5476,16269,3491,3093,2494,9968,35184,188,36,127,0,0,5398,-21,0,1443,624,249,1003,0,3,133,95,541359,0
541397,1108,-1440,-60,-402,-347,-5010,18196,4475,2082,1790,9240,35109,485,36,127,0,0,5394,-98,0,1443,624,249,1013,0,3,133,95,541406,0
541407,1278,-1422,-3,-474,-467,-4644,19985,3553,776,-1589,5448,35143,325,36,127,0,0,5378,-109,0,1443,624,249,1023,0,3,133,95,541406,0
541417,967,-1119,-14,-422,-631,-4419,21111,2089,-1608,-1279,2720,35197,100,36,127,0,0,5334,-461,0,1443,624,249,1033,0,3,133,95,541437,0
541427,1101,-995,-90,-446,-651,-4184,21743,1122,-2247,-807,624,35272,-163,36,127,0,0,5253,-845,0,1443,624,249,1043,0,3,133,95,541437,0
541437,1163,-797,-119,-457,-648,-3727,21908,-126,-1801,-1873,-880,35293,-205,36,127,0,0,5143,-1131,0,1443,624,249,1053,0,3,133,95,541437,0
541447,707,-558,-102,-374,-502,-3692,21681,-590,-1721,-823,-1944,35266,-109,35,127,0,0,4985,-1625,0,1443,624,249,1063,0,3,133,95,541437,0
541457,802,-435,-247,-390,-475,-3187,21280,-1008,-1057,-1120,-3032,35245,-46,35,127,0,0,4812,-1823,0,1443,624,249,1073,0,3,133,95,541437,0
541467,592,-335,-213,-377,-543,-2822,20693,-1410,-691,-1134,-3880,35235,-8,36,127,0,0,4616,-1955,0,1443,624,249,1083,0,3,133,95,541437,0
541477,430,-239,-232,-359,-749,-2182,19931,-1782,-691,-977,-4688,35234,3,35,127,0,0,4398,-2219,0,1443,624,249,1093,0,3,133,95,541453,0
541487,359,-226,-204,-299,-889,-1718,19031,-2049,-600,-804,-5112,35231,23,35,127,0,0,4194,-2043,0,1443,624,249,1103,0,3,133,95,541484,0
541497,176,-193,-267,-257,-1029,-1028,18071,-2124,-376,-565,-5240,35230,31,36,127,0,0,3996,-1944,0,1443,624,249,1113,0,3,133,95,541484,0
541507,63,-182,-233,-178,-1096,-493,17095,-2160,-136,-475,-5144,35230,29,36,127,0,0,3825,-1735,0,1443,624,249,1123,0,3,133,95,541484,0
541517,-17,-191,-121,10,-1159,276,16115,-2148,-42,-370,-4848,35233,12,36,127,0,0,3676,-1450,0,1443,624,249,1133,0,3,133,95,541499,0
541527,-42,-154,-86,183,-1169,760,15186,-1970,91,-250,-4328,35231,-21,35,127,0,0,3555,-1197,0,1443,624,249,1143,0,3,133,95,541499,0
541537,-89,-92,-88,386,-1018,1455,14374,-1701,324,-196,-3824,35242,-42,35,127,0,0,3456,-977,0,1443,624,249,1153,0,3,133,95,541515,0
541547,-47,53,-56,487,-875,1864,13679,-1455,448,-214,-3304,35255,-71,36,127,0,0,3372,-812,0,1443,624,249,1163,0,3,133,95,541515,0
541557,39,255,-99,677,-541,2402,13077,-1271,400,-236,-2888,35258,-71,35,127,0,0,3293,-780,0,1443,624,249,1173,0,3,133,95,541515,0
541567,62,334,-128,755,-328,2796,12535,-1160,296,-329,-2560,35252,-54,36,127,0,0,3216,-747,0,1443,624,249,1183,0,3,133,95,541546,0
541577,79,390,-162,891,-49,3423,12039,-1075,200,-406,-2352,35237,-48,35,127,0,0,3148,-648,0,1443,624,249,1193,0,3,133,95,541546,0
541587,130,390,-163,992,130,3810,11584,-967,162,-367,-2040,35229,-48,35,127,0,0,3087,-582,0,1443,624,249,1203,0,3,133,95,541562,0
541597,231,365,-139,1184,412,4295,11181,-850,172,-344,-1776,35243,-59,35,127,0,0,3027,-571,0,1443,624,249,1213,0,3,133,95,541562,0
541607,239,354,-119,1257,577,4569,10831,-741,189,-414,-1592,35260,-65,36,127,0,0,2975,-538,0,1443,624,249,1223,0,3,133,95,541593,0
541617,234,301,-120,1363,773,4900,10519,-656,178,-504,-1424,35267,-68,35,127,0,0,2931,-417,0,1443,624,249,1233,0,3,133,95,541593,0
541627,349,239,-152,1427,881,5052,10245,-577,134,-495,-1264,35260,-85,35,127,0,0,2893,-351,0,1443,624,249,1243,0,3,133,95,541593,0
541637,630,176,-176,1498,1062,5225,10004,-501,133,-497,-1032,35252,-82,36,127,0,0,2867,-252,0,1443,624,249,1253,0,3,133,95,541624,0
541647,852,146,-111,1512,1118,5275,9795,-425,127,-453,-856,35249,-77,35,127,0,0,2847,-208,0,1443,624,249,1263,0,3,133,95,541624,0
541657,1198,13,15,1445,1006,5264,9621,-350,138,-476,-688,35254,-65,35,127,0,0,2825,-197,0,1443,624,249,1273,0,3,133,95,541624,0
541667,1417,-144,60,1384,849,5212,9487,-314,117,-536,-560,35252,-69,36,127,0,0,2805,-208,0,1443,624,249,1283,0,3,133,95,541671,0
541677,1664,-381,29,1281,554,5044,9355,-280,85,-473,-464,35263,-75,35,127,0,0,2790,-153,0,1443,624,249,1293,0,3,133,95,541671,0
541687,1762,-521,-14,1220,383,4826,9250,-216,84,-533,-440,35254,-96,36,127,0,0,2777,-142,0,1443,624,249,1303,0,3,133,95,541671,0
541697,1891,-683,-122,1142,240,4308,9156,-194,72,-480,-344,35250,-79,35,127,0,0,2761,-186,0,1443,624,249,1313,0,3,133,95,541671,0
541707,1927,-756,-165,1076,190,3920,9087,-136,70,-572,-336,35231,-57,35,127,0,0,2748,-120,0,1443,624,249,1323,0,3,133,95,541671,0
541717,1976,-823,-189,986,251,3331,9021,-153,52,-578,-280,35233,-49,36,127,0,0,2744,-21,0,1443,624,249,1333,0,3,133,95,541687,0
541727,1971,-714,-259,869,417,2857,8956,-129,0,-381,-144,35239,-49,36,127,0,0,2746,32,0,1443,624,249,1343,0,3,133,95,541703,0
541737,1762,-729,-318,778,764,2347,8951,28,125,-436,-120,35246,-62,36,127,0,0,2750,54,0,1443,624,249,1353,0,3,133,95,541703,0
541747,1942,-659,-367,674,1041,2143,8961,19,143,-213,64,35250,-86,35,127,0,0,2779,307,0,1443,624,249,1363,0,3,133,95,541718,0
541757,7074,-3546,-935,683,-1881,-129,9019,148,106,282,336,35250,-95,36,127,0,0,2847,812,0,1443,624,249,1373,0,3,133,95,541734,0
541767,11028,-5084,-1771,-24,-748,-6368,9181,429,306,142,-560,35243,-99,36,127,0,0,2614,-2944,0,1862,1027,250,3,1,3,138,88,541734,0
541777,2938,-190,-307,1286,242,-1855,8954,-1003,-527,-2532,-3632,35239,-45,35,127,0,0,2326,-2471,0,1862,1027,250,13,1,3,138,88,541749,0
541787,3570,1525,-1321,448,-988,-1419,8292,-1507,-1697,-778,-3696,35231,-1,35,127,0,0,2148,-1911,0,1862,1027,250,23,1,3,138,88,541827,0
541797,1168,-1084,-348,-670,-3813,1093,7572,-1629,-864,-729,-3720,35222,26,35,127,0,0,2039,-911,0,1862,1027,250,33,1,3,138,88,541827,0
541807,279,-3255,672,-521,-2920,-244,6890,-1413,-51,-313,-3192,35222,34,35,127,0,0,1918,-1307,0,1862,1027,250,43,1,3,138,88,541827,0
541817,-176,-4352,-125,129,-575,-851,6282,-1330,238,-706,-3296,35233,-7,36,127,0,0,1777,-1362,0,1862,1027,250,53,1,3,138,88,541827,0
541827,116,-3153,-141,23,528,-980,5671,-1352,132,-776,-3544,35226,-1,36,127,0,0,1641,-1384,0,1862,1027,250,63,1,3,138,88,541843,0
541837,2381,-2062,-414,-491,-13,-135,5031,-1419,-66,-598,-3352,35217,-4,36,127,0,0,1546,-900,0,1862,1027,250,73,1,3,138,88,541874,0
541847,1821,-2578,-559,-725,-221,444,4414,-1331,-19,-350,-2944,35218,-16,35,127,0,0,1478,-615,0,1862,1027,250,83,1,3,138,88,541874,0
541857,1264,-2932,-126,-712,-138,1189,3859,-1170,177,-199,-2272,35226,-30,36,127,0,0,1452,-208,0,1862,1027,250,93,1,3,138,88,541874,0
541867,1126,-2565,-120,-541,211,1329,3404,-932,304,-100,-1456,35239,-59,36,127,0,0,1447,-21,0,1862,1027,250,103,1,3,138,88,541874,0
541877,974,-1537,97,-349,300,1198,3077,-641,430,-74,-752,35252,-79,36,127,0,0,1447,-21,0,1862,1027,250,113,1,3,138,88,541874,0
541887,1507,-1291,53,-297,175,1127,2868,-384,471,-184,-328,35256,-80,36,127,0,0,1441,-76,0,1862,1027,250,123,1,3,138,88,541874,0
541897,1609,-1218,-215,-145,-28,1177,2743,-244,397,-303,-296,35263,-78,36,127,0,0,1421,-175,0,1862,1027,250,133,1,3,138,88,541874,0
541907,1506,-1206,-361,-15,-110,1326,2658,-183,240,-507,-384,35253,-66,36,127,0,0,1395,-241,0,1862,1027,250,143,1,3,138,88,541874,0
541917,1285,-1387,-415,149,-77,1490,2555,-232,51,-575,-512,35253,-82,36,127,0,0,1366,-296,0,1862,1027,250,153,1,3,138,88,541890,0
541927,1220,-1596,-284,227,17,1574,2438,-279,-57,-623,-640,35250,-92,36,127,0,0,1335,-307,0,1862,1027,250,163,1,3,138,88,541921,0
541937,1236,-1839,-88,281,175,1660,2295,-321,-83,-571,-704,35255,-105,36,127,0,0,1305,-296,0,1862,1027,250,173,1,3,138,88,541921,0
541947,873,-3798,674,543,196,1543,2142,-347,-64,-569,-888,35254,-94,36,127,0,0,1267,-406,0,1862,1027,250,183,1,3,138,88,541921,0
541957,-140,-3501,1139,784,230,2241,1976,-375,-53,-545,-528,35247,-83,35,127,0,0,1281,219,0,1862,1027,250,193,1,3,138,88,541952,0
541967,135,-1844,508,108,-70,2430,1850,-205,38,100,336,35242,-86,36,127,0,0,1346,692,0,1862,1027,250,203,1,3,138,88,541968,0
541977,589,-1759,-545,-43,47,2074,1956,356,518,634,888,35252,-89,35,127,0,0,1415,659,0,1862,1027,250,213,1,3,138,88,541968,0
541987,980,-1298,-1072,258,358,1888,2165,495,658,516,1096,35263,-94,36,127,0,0,1469,538,0,1862,1027,250,223,1,3,138,88,541968,0
541997,1028,-1851,-760,666,387,1858,2405,543,237,472,1088,35268,-96,35,127,0,0,1509,384,0,1862,1027,250,233,1,3,138,88,541968,0
542007,876,-2063,-131,758,308,2055,2645,527,58,426,1088,35262,-78,35,127,0,0,1560,527,0,1862,1027,250,243,1,3,138,88,541984,0
542017,577,-1962,237,688,204,2091,2879,520,-8,513,1296,35262,-97,36,127,0,0,1621,615,0,1862,1027,250,253,1,3,138,88,541984,0
542027,499,-2010,103,735,249,1967,3136,579,36,594,1384,35278,-88,36,127,0,0,1680,615,0,1862,1027,250,263,1,3,138,88,542015,0
542037,684,-1744,-170,819,439,1768,3411,616,87,554,1408,35278,-90,36,127,0,0,1735,538,0,1862,1027,250,273,1,3,138,88,542015,0
542047,848,-1843,-90,803,449,1776,3686,589,37,491,1376,35269,-57,36,127,0,0,1784,527,0,1862,1027,250,283,1,3,138,88,542015,0
542057,925,-1860,169,804,321,1881,3956,600,-13,583,1344,35256,-48,36,127,0,0,1841,538,0,1862,1027,250,293,1,3,138,88,542046,0
542067,844,-1919,270,752,248,1986,4218,572,-23,558,1392,35258,-56,36,127,0,0,1902,637,0,1862,1027,250,303,1,3,138,88,542046,0
542077,758,-1893,315,710,262,2044,4492,605,0,513,1400,35265,-61,36,127,0,0,1959,582,0,1862,1027,250,313,1,3,138,88,542046,0
542087,818,-1882,312,657,278,2074,4768,607,18,518,1456,35268,-70,36,127,0,0,2023,670,0,1862,1027,250,323,1,3,138,88,542062,0
542097,896,-1917,334,551,200,2203,5043,604,1,559,1536,35261,-55,36,127,0,0,2093,670,0,1862,1027,250,333,1,3,138,88,542062,0
542107,834,-1915,299,497,139,2306,5330,643,21,605,1608,35265,-52,36,127,0,0,2168,769,0,1862,1027,250,343,1,3,138,88,542093,0
542117,746,-1931,202,429,74,2417,5633,688,50,638,1752,35260,-53,35,127,0,0,2247,769,0,1862,1027,250,353,1,3,138,88,542093,0
542127,675,-1954,99,426,100,2501,5951,701,64,608,1808,35249,-71,35,127,0,0,2326,780,0,1862,1027,250,363,1,3,138,88,542093,0
542137,751,-1823,67,410,106,2615,6290,746,60,595,1848,35248,-63,36,127,0,0,2408,780,0,1862,1027,250,373,1,3,138,88,542109,0
542147,682,-1874,189,382,56,2659,6636,778,50,619,1920,35249,-71,35,127,0,0,2489,802,0,1862,1027,250,383,1,3,138,88,542202,0
542157,523,-1938,308,363,29,2662,6992,785,32,631,2016,35249,-51,36,127,0,0,2568,780,0,1862,1027,250,393,1,3,138,88,542202,0
542167,437,-1935,277,316,6,2642,7367,829,52,590,1984,35250,-73,36,127,0,0,2647,812,0,1862,1027,250,403,1,3,138,88,542202,0
542177,313,-1940,164,276,-11,2560,7746,844,46,576,1944,35241,-56,36,127,0,0,2726,780,0,1862,1027,250,413,1,3,138,88,542202,0
542187,199,-1904,128,289,-31,2494,8129,841,14,508,1888,35237,-52,36,127,0,0,2799,736,0,1862,1027,250,423,1,3,138,88,542218,0
542197,91,-1927,114,304,-17,2292,8503,819,-19,489,1840,35242,-33,35,127,0,0,2874,714,0,1862,1027,250,433,1,3,138,88,542218,0
542207,61,-1944,184,320,0,2122,8863,786,-40,493,1800,35247,-39,36,127,0,0,2937,681,0,1862,1027,250,443,1,3,138,88,542218,0
542217,-25,-1980,292,289,-20,1854,9215,763,-35,449,1648,35247,-45,36,127,0,0,3005,659,0,1862,1027,250,453,1,3,138,88,542218,0
542227,-100,-1970,352,242,-40,1655,9547,720,-61,468,1600,35243,-34,36,127,0,0,3058,549,0,1862,1027,250,463,1,3,138,88,542218,0
542237,-123,-1973,340,132,-45,1363,9859,672,-63,444,1480,35251,-46,36,127,0,0,3111,505,0,1862,1027,250,473,1,3,138,88,542218,0
542247,-128,-2005,296,59,-43,1162,10154,622,-68,442,1344,35266,-32,36,127,0,0,3155,450,0,1862,1027,250,483,1,3,138,88,542218,0
542257,-132,-2022,291,-13,-20,847,10429,586,-70,367,1096,35277,-64,35,127,0,0,3186,274,0,1862,1027,250,493,1,3,138,88,542218,0
542267,-82,-2028,331,-62,-19,638,10673,509,-94,318,840,35293,-72,35,127,0,0,3208,208,0,1862,1027,250,503,1,3,138,88,542249,0
542277,-84,-2046,376,-148,-53,395,10875,407,-139,352,688,35295,-69,36,127,0,0,3223,109,0,1862,1027,250,513,1,3,138,88,542249,0
542287,-117,-2028,351,-209,-72,233,11041,327,-150,350,432,35284,-71,36,127,0,0,3232,87,0,1862,1027,250,523,1,3,138,88,542249,0
542297,-166,-2010,235,-292,-117,-40,11166,254,-146,299,272,35264,-74,36,127,0,0,3236,0,0,1862,1027,250,533,1,3,138,88,542280,0
542307,-163,-2033,226,-344,-133,-192,11239,115,-177,242,80,35260,-101,36,127,0,0,3236,-43,0,1862,1027,250,543,1,3,138,88,542280,0
542317,-167,-2048,286,-386,-70,-553,11240,-26,-246,230,40,35260,-99,36,127,0,0,3225,-131,0,1862,1027,250,553,1,3,138,88,542280,0
542327,-93,-2072,325,-438,-33,-694,11201,-117,-211,-91,-128,35263,-103,36,127,0,0,3208,-153,0,1862,1027,250,563,1,3,138,88,542296,0
542337,-14,-2058,325,-511,20,-903,11135,-168,-124,-316,-216,35260,-117,35,127,0,0,3181,-241,0,1862,1027,250,573,1,3,138,88,542296,0
542347,45,-2056,274,-555,-10,-983,11057,-173,-90,-466,-360,35258,-121,35,127,0,0,3155,-230,0,1862,1027,250,583,1,3,138,88,542343,0
542357,226,-2016,239,-605,-101,-1067,10963,-229,-55,-475,-400,35262,-132,35,127,0,0,3126,-307,0,1862,1027,250,593,1,3,138,88,542343,0
542367,165,-2045,183,-652,-120,-1079,10850,-252,-67,-523,-456,35258,-112,36,127,0,0,3098,-263,0,1862,1027,250,603,1,3,138,88,542343,0
542377,233,-2073,209,-693,-124,-1123,10730,-277,-48,-497,-440,35256,-89,36,127,0,0,3071,-274,0,1862,1027,250,613,1,3,138,88,542343,0
542387,245,-2051,206,-717,-149,-1140,10621,-237,0,-601,-528,35253,-75,36,127,0,0,3047,-241,0,1862,1027,250,623,1,3,138,88,542359,0
542397,254,-2036,181,-783,-168,-1171,10492,-288,-15,-545,-528,35255,-59,36,127,0,0,3019,-252,0,1862,1027,250,633,1,3,138,88,542390,0
542407,299,-2048,141,-811,-172,-1193,10362,-294,-37,-529,-504,35267,-69,36,127,0,0,2994,-252,0,1862,1027,250,643,1,3,138,88,542390,0
542417,269,-2158,78,-857,-211,-1143,10239,-258,9,-556,-480,35270,-96,35,127,0,0,2972,-219,0,1862,1027,250,653,1,3,138,88,542390,0
542427,386,-2249,173,-795,-263,-1073,10118,-262,23,-483,-432,35256,-101,35,127,0,0,2959,-87,0,1862,1027,250,663,1,3,138,88,542405,0
542437,521,-2498,6,-804,-576,-848,10016,-222,30,-429,-248,35245,-100,35,127,0,0,2957,21,0,1862,1027,250,673,1,3,138,88,542405,0
542447,771,-3514,150,-760,-1115,-555,9950,-87,89,-69,128,35252,-61,35,127,0,0,2992,351,0,1862,1027,250,683,1,3,138,88,542437,0
542457,-406,-3663,246,-430,-699,-82,10017,212,331,422,528,35257,-40,35,127,0,0,3062,791,0,1862,1027,250,693,1,3,138,88,542437,0
542467,-392,-2904,31,-489,-362,-47,10174,414,431,713,1248,35251,-39,35,127,0,0,3172,1120,0,1862,1027,250,703,1,3,138,88,542452,0
542477,-116,-2753,-83,-578,-171,-32,10447,679,382,825,1936,35240,-69,36,127,0,0,3293,1208,0,1862,1027,250,713,1,3,138,88,542452,0
542487,-34,-2766,50,-468,-230,32,10842,957,461,891,2616,35236,-68,35,127,0,0,3432,1362,0,1862,1027,250,723,1,3,138,88,542452,0
542497,-330,-2886,106,-445,-472,130,11350,1178,455,841,3064,35240,-55,36,127,0,0,3585,1571,0,1862,1027,250,733,1,3,138,88,542468,0
542507,-562,-2725,164,-475,-459,-12,11945,1380,376,924,3608,35243,-22,35,127,0,0,3750,1680,0,1862,1027,250,743,1,3,138,88,542566,0
542517,-1163,-2534,138,-425,-340,-494,12628,1538,348,867,3992,35237,4,35,127,0,0,3913,1647,0,1862,1027,250,753,1,3,138,88,542566,0
542527,-907,-2764,112,-408,-345,-872,13365,1648,268,838,4256,35221,1,36,127,0,0,4080,1658,0,1862,1027,250,763,1,3,138,88,542582,0
542537,-980,-3359,158,-441,-550,-1273,14137,1711,163,739,4456,35222,5,35,127,0,0,4245,1647,0,1862,1027,250,773,1,3,138,88,542582,0
542547,-1591,-3627,297,-436,-654,-1248,14949,1807,144,700,4696,35216,10,36,127,0,0,4431,1944,0,1862,1027,250,783,1,3,138,88,542582,0
542557,-1131,-3799,554,-440,-582,-1697,15841,2037,221,958,5120,35217,2,35,127,0,0,4642,2021,0,1862,1027,250,793,1,3,138,88,542582,0
542567,-741,-3714,508,-534,-500,-1918,16806,2145,309,856,5320,35203,20,35,127,0,0,4842,2043,0,1862,1027,250,803,1,3,138,88,542582,0
542577,459,-3828,121,-778,-241,-3118,17798,2185,193,761,5384,35203,34,36,127,0,0,5018,1746,0,1862,1027,250,813,1,3,138,88,542582,0
542587,510,-3895,-67,-1036,329,-3937,18774,2106,22,400,4688,35207,33,35,127,0,0,5126,988,0,1862,1027,250,823,1,3,138,88,542582,0
542597,673,-3618,159,-1242,750,-4275,19647,1842,-226,219,4264,35215,7,35,127,0,0,5277,1593,0,1862,1027,250,833,1,3,138,88,542582,0
542607,1761,-4085,60,-967,2236,-5693,20449,1759,-347,673,4232,35222,-17,36,127,0,0,5387,944,0,1862,1027,250,843,1,3,138,88,542597,0
542617,1737,-4028,-47,-885,3723,-7341,21189,1537,-229,159,2880,35232,-22,35,127,0,0,5365,-307,0,1862,1027,250,853,1,3,138,88,542597,0
542627,1847,-3981,235,-767,4263,-8136,21746,1066,-465,-242,752,35250,-50,36,127,0,0,5251,-1153,0,1862,1027,250,863,0,3,138,88,542597,0
542637,1962,-3511,352,-498,3837,-8353,21892,-195,-1116,-2064,-1112,35272,-75,36,127,0,0,5119,-1329,0,1862,1027,250,873,0,3,138,88,542597,0
542647,1596,-3021,286,-300,3322,-8572,21632,-665,-1667,-881,-2024,35272,-91,36,127,0,0,4989,-1285,0,1862,1027,250,883,0,3,138,88,542628,0
542657,1953,-2721,144,-189,2341,-8267,21244,-931,-1008,-761,-2312,35259,-54,35,127,0,0,4897,-878,0,1862,1027,250,893,0,3,138,88,542628,0
542667,1854,-2593,96,-102,1646,-8060,20803,-977,-356,-478,-2240,35236,-40,36,127,0,0,4833,-593,0,1862,1027,250,903,0,3,138,88,542628,0
542677,1866,-2567,138,-59,736,-7707,20416,-933,-71,-284,-1872,35234,-46,35,127,0,0,4794,-373,0,1862,1027,250,913,0,3,138,88,542660,0
542687,1837,-2534,233,-57,216,-7481,20028,-803,112,-147,-1408,35235,-62,35,127,0,0,4768,-285,0,1862,1027,250,923,0,3,138,88,542675,0
542697,1812,-2483,311,-108,-473,-7144,19702,-666,226,-147,-1072,35233,-75,36,127,0,0,4735,-318,0,1862,1027,250,933,0,3,138,88,542675,0
542707,1760,-2421,335,-160,-881,-6903,19440,-545,245,-232,-952,35243,-91,35,127,0,0,4693,-439,0,1862,1027,250,943,0,3,138,88,542675,0
542717,1586,-2105,299,-297,-1501,-6488,19213,-485,180,-400,-1112,35245,-55,36,127,0,0,4629,-659,0,1862,1027,250,953,0,3,138,88,542707,0
542727,1473,-1869,321,-414,-1925,-6143,18973,-550,29,-561,-1368,35251,-61,35,127,0,0,4554,-780,0,1862,1027,250,963,0,3,138,88,542707,0
542737,1276,-1528,237,-546,-2537,-5587,18688,-660,-122,-635,-1688,35244,-58,35,127,0,0,4464,-922,0,1862,1027,250,973,0,3,138,88,542707,0
542747,1097,-1333,137,-667,-2873,-5164,18349,-774,-193,-654,-2048,35242,-54,36,127,0,0,4372,-933,0,1862,1027,250,983,0,3,138,88,542707,0
542757,853,-1200,57,-838,-3208,-4532,17956,-887,-199,-552,-2152,35243,-43,35,127,0,0,4289,-834,0,1862,1027,250,993,0,3,138,88,542738,0
542767,703,-1132,80,-923,-3314,-4148,17541,-924,-136,-482,-2176,35229,-25,35,127,0,0,4212,-780,0,1862,1027,250,1003,0,3,138,88,542738,0
542777,520,-1026,79,-1010,-3230,-3616,17120,-929,35,-392,-2104,35225,-57,36,127,0,0,4133,-802,0,1862,1027,250,1013,0,3,138,88,542738,0
542787,409,-930,73,-1041,-3057,-3280,16703,-929,-50,-468,-2056,35237,-54,35,127,0,0,4051,-812,0,1862,1027,250,1023,0,3,138,88,542769,0
542797,247,-769,-31,-1102,-2699,-2773,16287,-922,-85,-459,-2088,35241,-61,36,127,0,0,3966,-845,0,1862,1027,250,1033,0,3,138,88,542769,0
542807,172,-670,-86,-1111,-2426,-2407,15866,-929,-7,-470,-2104,35245,-55,35,127,0,0,3886,-802,0,1862,1027,250,1043,0,3,138,88,542785,0
542817,97,-544,-115,-1080,-1988,-1830,15448,-915,1,-544,-2144,35239,-63,36,127,0,0,3805,-747,0,1862,1027,250,1053,0,3,138,88,542785,0
542827,44,-437,-134,-1020,-1653,-1444,15032,-908,7,-573,-2112,35242,-55,36,127,0,0,3728,-758,0,1862,1027,250,1063,0,3,138,88,542800,0
542837,19,-245,-209,-830,-1061,-940,14625,-880,26,-553,-2104,35242,-66,35,127,0,0,3654,-758,0,1862,1027,250,1073,0,3,138,88,542800,0
542847,-12,-134,-224,-674,-635,-612,14228,-881,38,-610,-2144,35236,-50,35,127,0,0,3574,-780,0,1862,1027,250,1083,0,3,138,88,542816,0
542857,-37,38,-199,-435,13,-65,13825,-884,7,-567,-2208,35235,-56,35,127,0,0,3489,-834,0,1862,1027,250,1093,0,3,138,88,542831,0
542867,-30,136,-213,-307,375,352,13416,-908,-23,-541,-2192,35238,-44,35,127,0,0,3412,-812,0,1862,1027,250,1103,0,3,138,88,542831,0
542877,2,265,-167,-119,851,977,13006,-906,-16,-517,-2112,35244,-50,36,127,0,0,3339,-703,0,1862,1027,250,1113,0,3,138,88,542941,0
542887,-5,263,-158,8,1134,1429,12602,-888,1,-474,-2056,35260,-42,36,127,0,0,3278,-626,0,1862,1027,250,1123,0,3,138,88,542941,0
542897,31,191,-71,220,1546,2084,12211,-843,35,-435,-1840,35248,-54,35,127,0,0,3225,-527,0,1862,1027,250,1133,0,3,138,88,542941,0
542907,91,154,-24,337,1790,2480,11848,-771,83,-385,-1584,35244,-53,35,127,0,0,3177,-483,0,1862,1027,250,1143,0,3,138,88,542956,0
542917,203,149,51,525,2128,3013,11526,-679,134,-418,-1432,35239,-70,36,127,0,0,3131,-516,0,1862,1027,250,1153,0,3,138,88,542956,0
542927,301,199,84,648,2269,3392,11232,-643,135,-472,-1312,35244,-58,35,127,0,0,3078,-505,0,1862,1027,250,1163,0,3,138,88,542956,0
542937,418,272,107,818,2235,4036,10957,-596,92,-514,-1304,35242,-85,35,127,0,0,3021,-560,0,1862,1027,250,1173,0,3,138,88,542956,0
542947,511,306,126,927,2067,4448,10689,-582,45,-525,-1272,35240,-68,36,127,0,0,2975,-505,0,1862,1027,250,1183,0,3,138,88,542956,0
542957,660,201,162,1101,1676,4991,10443,-532,55,-542,-1104,35238,-68,35,127,0,0,2939,-373,0,1862,1027,250,1193,0,3,138,88,542956,0
542967,729,96,159,1249,1396,5285,10217,-471,75,-523,-1032,35246,-69,36,127,0,0,2904,-373,0,1862,1027,250,1203,0,3,138,88,542956,0
542977,857,7,153,1461,983,5652,10014,-437,96,-540,-936,35248,-91,36,127,0,0,2876,-296,0,1862,1027,250,1213,0,3,138,88,542956,0
542987,959,-67,158,1577,712,5810,9824,-401,64,-502,-880,35248,-89,35,127,0,0,2845,-285,0,1862,1027,250,1223,0,3,138,88,542956,0
542997,1128,-189,172,1703,282,5949,9647,-379,52,-560,-864,35252,-92,35,127,0,0,2808,-329,0,1862,1027,250,1233,0,3,138,88,542972,0
543007,1222,-313,155,1732,60,5976,9479,-363,43,-583,-816,35273,-86,36,127,0,0,2775,-307,0,1862,1027,250,1243,0,3,138,88,542988,0
543017,1417,-486,102,1749,-193,5869,9313,-364,23,-557,-728,35289,-85,36,127,0,0,2746,-263,0,1862,1027,250,1253,0,3,138,88,542988,0
543027,1570,-599,40,1716,-298,5706,9156,-342,27,-550,-744,35287,-84,36,127,0,0,2718,-285,0,1862,1027,250,1263,0,3,138,88,543003,0
543037,1743,-767,-83,1613,-388,5325,9011,-321,34,-594,-704,35276,-69,36,127,0,0,2689,-296,0,1862,1027,250,1273,0,3,138,88,543003,0
543047,1812,-894,-165,1537,-370,4934,8861,-314,12,-632,-656,35260,-67,36,127,0,0,2658,-285,0,1862,1027,250,1283,0,3,138,88,543035,0
543057,1885,-1066,-260,1403,-236,4250,8717,-308,9,-651,-648,35253,-62,35,127,0,0,2630,-274,0,1862,1027,250,1293,0,3,138,88,543035,0
543067,1927,-1171,-294,1292,-39,3747,8575,-313,6,-573,-616,35244,-101,35,127,0,0,2605,-241,0,1862,1027,250,1303,0,3,138,88,543035,0
543077,1910,-1204,-301,1104,370,2974,8441,-286,13,-569,-528,35247,-111,35,127,0,0,2588,-175,0,1862,1027,250,1313,0,3,138,88,543066,0
543087,1846,-1081,-310,926,642,2506,8319,-249,32,-470,-384,35258,-74,36,127,0,0,2579,-120,0,1862,1027,250,1323,0,3,138,88,543066,0
543097,1875,-1007,-245,780,1138,1815,8241,-157,109,-516,-224,35261,-45,35,127,0,0,2581,43,0,1862,1027,250,1333,0,3,138,88,543066,0
543107,1868,-896,-276,716,1350,1413,8190,-95,131,-364,-88,35263,-51,35,127,0,0,2583,0,0,1862,1027,250,1343,0,3,138,88,543097,0
543117,7188,-3369,-650,615,-1139,-782,8190,61,150,-331,-8,35261,-71,36,127,0,0,2601,219,0,1862,1027,250,1353,0,3,138,88,543097,0
543127,8687,-4022,-369,614,-310,-4573,8220,8,184,-667,-992,35262,-84,35,127,0,0,2414,-2208,0,1648,451,251,3,1,3,124,90,543097,0
543137,3475,-180,-268,1040,-627,-2359,7956,-852,-488,-1834,-2872,35267,-56,36,127,0,0,2173,-2318,0,1648,451,251,13,1,3,124,90,543097,0
543147,2133,863,-604,300,-1572,-1401,7403,-1305,-1166,-1034,-3328,35260,-29,35,127,0,0,2012,-1593,0,1648,451,251,23,1,3,124,90,543160,0
543157,698,-877,-199,-324,-3524,417,6770,-1394,-704,-631,-3304,35251,2,35,127,0,0,1913,-878,0,1648,451,251,33,1,3,124,90,543160,0
543167,77,-2574,44,-357,-3073,-608,6172,-1257,-81,-468,-3024,35243,-12,36,127,0,0,1799,-1219,0,1648,451,251,43,1,3,124,90,543175,0
543177,50,-3235,-572,73,-494,-1394,5616,-1232,159,-814,-3312,35243,-16,36,127,0,0,1656,-1417,0,1648,451,251,53,1,3,124,90,543175,0
543187,276,-2700,-299,-104,-55,-1252,5012,-1378,-14,-910,-3680,35237,-19,36,127,0,0,1516,-1384,0,1648,451,251,63,1,3,124,90,543175,0
543197,2097,-2510,-53,-451,103,-578,4348,-1470,-220,-574,-3536,35235,-19,35,127,0,0,1412,-1021,0,1648,451,251,73,1,3,124,90,543175,0
543207,1911,-2644,-304,-819,-214,14,3698,-1401,-85,-385,-3184,35230,-17,35,127,0,0,1333,-725,0,1648,451,251,83,1,3,124,90,543175,0
543217,1456,-2996,212,-532,-191,562,3102,-1252,134,-236,-2600,35243,-27,36,127,0,0,1289,-428,0,1648,451,251,93,1,3,124,90,543191,0
543227,1458,-2766,77,-306,-146,776,2604,-1018,299,-170,-1888,35251,-20,35,127,0,0,1270,-175,0,1648,451,251,103,1,3,124,90,543253,0
543237,1283,-1916,15,-293,-35,1059,2219,-762,403,-112,-1152,35253,-42,35,127,0,0,1270,-10,0,1648,451,251,113,1,3,124,90,543269,0
543247,1201,-1587,40,-301,-7,1124,1958,-501,455,-165,-568,35255,-50,36,127,0,0,1270,0,0,1648,451,251,123,1,3,124,90,543269,0
543257,1264,-1166,-382,-239,52,1225,1798,-287,436,-222,-240,35265,-65,35,127,0,0,1270,0,0,1648,451,251,133,1,3,124,90,543269,0
543267,1416,-1154,-565,-94,66,1338,1718,-121,340,-198,-128,35278,-74,36,127,0,0,1267,-10,0,1648,451,251,143,1,3,124,90,543269,0
543277,1215,-1972,-278,300,58,1186,1722,34,316,-411,-288,35284,-96,36,127,0,0,1241,-307,0,1648,451,251,153,1,3,124,90,543269,0
543287,1207,-3032,164,441,15,1463,1667,-181,64,-816,-456,35275,-108,36,127,0,0,1226,-142,0,1648,451,251,163,1,3,124,90,543269,0
543297,-83,-2957,478,554,-28,1656,1571,-201,-214,-425,-184,35265,-98,35,127,0,0,1243,197,0,1648,451,251,173,1,3,124,90,543269,0
543307,305,-2161,272,99,46,1805,1552,82,49,239,384,35260,-88,36,127,0,0,1291,527,0,1648,451,251,183,1,3,124,90,543285,0
543317,856,-1613,-511,151,254,1515,1683,331,467,484,680,35263,-76,36,127,0,0,1342,483,0,1648,451,251,193,1,3,124,90,543285,0
543327,1178,-1418,-668,316,355,1478,1859,405,372,481,944,35260,-79,35,127,0,0,1382,406,0,1648,451,251,203,1,3,124,90,543331,0
543337,1239,-1811,-378,565,326,1617,2057,436,117,425,968,35251,-81,36,127,0,0,1426,417,0,1648,451,251,213,1,3,124,90,543331,0
543347,1164,-1981,-6,637,292,1835,2265,461,70,431,944,35256,-56,35,127,0,0,1467,461,0,1648,451,251,223,1,3,124,90,543331,0
543357,947,-1929,194,657,250,1957,2475,467,18,516,1152,35250,-40,36,127,0,0,1524,560,0,1648,451,251,233,1,3,124,90,543331,0
543367,833,-1885,135,680,290,1927,2705,515,46,553,1264,35252,-58,35,127,0,0,1579,560,0,1648,451,251,243,1,3,124,90,543331,0
543377,892,-1792,-11,715,378,1885,2959,560,86,531,1296,35252,-68,35,127,0,0,1634,549,0,1648,451,251,253,1,3,124,90,543347,0
543387,977,-1779,-46,708,346,1954,3225,592,58,540,1344,35259,-66,36,127,0,0,1689,549,0,1648,451,251,263,1,3,124,90,543363,0
543397,972,-1847,-5,732,289,2102,3491,589,25,519,1400,35258,-50,36,127,0,0,1746,593,0,1648,451,251,273,1,3,124,90,543363,0
543407,935,-1890,76,761,279,2154,3765,610,15,561,1488,35250,-58,35,127,0,0,1808,615,0,1648,451,251,283,1,3,124,90,543394,0
543417,829,-1907,153,808,313,2196,4051,638,39,582,1552,35245,-76,36,127,0,0,1872,648,0,1648,451,251,293,1,3,124,90,543409,0
543427,850,-1895,177,813,328,2233,4341,638,30,562,1576,35243,-69,35,127,0,0,1940,681,0,1648,451,251,303,1,3,124,90,543409,0
543437,876,-1851,176,744,304,2352,4641,657,29,546,1608,35246,-52,35,127,0,0,2010,692,0,1648,451,251,313,1,3,124,90,543409,0
543447,896,-1834,184,715,271,2453,4948,678,37,546,1656,35246,-69,35,127,0,0,2087,780,0,1648,451,251,323,1,3,124,90,543409,0
543457,851,-1888,211,706,226,2568,5260,693,29,598,1784,35247,-57,35,127,0,0,2166,812,0,1648,451,251,333,1,3,124,90,543425,0
543467,783,-1912,245,679,208,2631,5591,733,48,639,1872,35256,-68,36,127,0,0,2254,856,0,1648,451,251,343,1,3,124,90,543456,0
543477,724,-1978,337,649,194,2741,5942,790,74,631,1968,35260,-85,36,127,0,0,2335,812,0,1648,451,251,353,1,3,124,90,543456,0
543487,808,-1895,316,636,184,2856,6303,801,60,587,1976,35250,-82,35,127,0,0,2419,856,0,1648,451,251,363,1,3,124,90,543456,0
543497,637,-1849,337,495,29,2977,6671,818,31,632,2072,35244,-78,35,127,0,0,2509,878,0,1648,451,251,373,1,3,124,90,543472,0
543507,512,-1892,347,449,27,2997,7061,869,51,681,2104,35240,-50,36,127,0,0,2599,867,0,1648,451,251,383,1,3,124,90,543488,0
543517,393,-1914,313,388,32,2931,7463,897,70,612,2144,35244,-50,36,127,0,0,2689,933,0,1648,451,251,393,1,3,124,90,543488,0
543527,343,-1928,324,352,18,2872,7877,915,56,599,2136,35244,-26,36,127,0,0,2775,856,0,1648,451,251,403,1,3,124,90,543519,0
543537,303,-1911,312,306,-5,2790,8291,909,27,513,2136,35244,-56,35,127,0,0,2863,878,0,1648,451,251,413,1,3,124,90,543534,0
543547,271,-1906,263,270,-45,2729,8700,895,-15,551,2128,35235,-36,35,127,0,0,2946,845,0,1648,451,251,423,1,3,124,90,543534,0
543557,135,-1917,206,250,-55,2597,9109,902,-6,531,2136,35241,-55,36,127,0,0,3030,867,0,1648,451,251,433,1,3,124,90,543534,0
543567,97,-1949,205,257,-39,2463,9518,901,-4,582,2200,35248,-42,35,127,0,0,3117,856,0,1648,451,251,443,1,3,124,90,543534,0
543577,44,-1958,199,290,-67,2263,9934,913,22,489,2136,35250,-56,35,127,0,0,3194,736,0,1648,451,251,453,1,3,124,90,543550,0
543587,-47,-1943,181,296,-72,2089,10343,898,-4,494,2104,35250,-54,36,127,0,0,3271,747,0,1648,451,251,463,1,3,124,90,543566,0
543597,-148,-1949,215,264,-73,1830,10750,877,-20,421,1928,35248,-61,36,127,0,0,3333,626,0,1648,451,251,473,1,3,124,90,543566,0
543607,-219,-1978,250,232,-57,1626,11132,815,-45,406,1744,35240,-48,36,127,0,0,3385,538,0,1648,451,251,483,1,3,124,90,543675,0
543617,-207,-2014,347,197,-26,1285,11479,733,-110,400,1600,35251,-79,35,127,0,0,3434,483,0,1648,451,251,493,1,3,124,90,543675,0
543627,-237,-2014,364,155,-30,1054,11795,674,-132,432,1368,35248,-66,35,127,0,0,3469,329,0,1648,451,251,503,1,3,124,90,543691,0
543637,-219,-2028,428,56,-44,721,12071,581,-132,351,1064,35250,-86,36,127,0,0,3498,241,0,1648,451,251,513,1,3,124,90,543691,0
543647,-252,-2021,428,-10,-64,509,12298,466,-171,358,824,35247,-72,35,127,0,0,3517,164,0,1648,451,251,523,1,3,124,90,543691,0
543657,-299,-2030,394,-98,-54,154,12479,371,-181,407,576,35241,-61,36,127,0,0,3526,87,0,1648,451,251,533,1,3,124,90,543691,0
543667,-384,-2016,400,-165,-66,-76,12628,302,-149,319,320,35238,-80,35,127,0,0,3526,10,0,1648,451,251,543,1,3,124,90,543691,0
543677,-159,-2027,519,-285,-72,-494,12713,168,-175,200,96,35235,-81,35,127,0,0,3517,-109,0,1648,451,251,553,1,3,124,90,543691,0
543687,-342,-2086,480,-363,-81,-723,12718,-79,-304,-112,-152,35241,-112,35,127,0,0,3495,-241,0,1648,451,251,563,1,3,124,90,543691,0
543697,-368,-2070,464,-498,-27,-1119,12648,-182,-335,-267,-272,35245,-113,36,127,0,0,3467,-340,0,1648,451,251,573,1,3,124,90,543691,0
