state_time,accelx,accely,accelz,gyrox,gyroy,gyroz,mot_ang,mot_vel,mot_acc,mot_cur,mot_volt,batt_volt,batt_curr,temperature,status_mn,status_ex,status_re,ank_ang,ank_vel,ank_torque,peak_ank_torque,step_energy,step_count,step_time,gait_state,movement,speed,incline,sys_time,eventFlags
418219,245,-2077,229,-73,34,194,5925,8,11,195,40,35180,-30,35,127,0,0,2109,54,0,2263,155,192,32323,-4,0,65,34,418180,0
418229,239,-2076,219,-73,31,212,5928,-1,2,203,64,35179,-22,35,127,0,0,2107,43,0,2263,155,192,32333,-4,0,65,34,418195,0
418239,231,-2070,216,-73,38,212,5931,6,0,269,96,35169,-27,35,127,0,0,2111,32,0,2263,155,192,32343,-4,0,65,34,418242,0
418249,230,-2068,224,-65,48,220,5943,33,17,316,56,35173,-27,35,127,0,0,2113,10,0,2263,155,192,32353,-4,0,65,34,418242,0
418259,223,-2072,225,-62,50,229,5971,78,42,244,80,35180,-13,35,127,0,0,2118,21,0,2263,155,192,32363,-4,0,65,34,418242,0
418269,252,-2059,234,-62,37,250,6000,19,41,85,32,35188,-12,35,127,0,0,2120,32,0,2263,155,192,32373,-4,0,65,34,418258,0
418279,187,-2076,212,-58,40,236,5998,5,-70,221,88,35184,-8,35,127,0,0,2124,32,0,2263,155,192,32383,-4,0,65,34,418258,0
418289,221,-2061,227,-53,60,238,6002,11,-39,351,104,35176,-14,35,127,0,0,2131,43,0,2263,155,192,32393,-4,0,65,34,418258,0
418299,215,-2066,238,-46,58,237,6009,17,20,415,112,35168,-20,35,127,0,0,2133,32,0,2263,155,192,32403,-4,0,65,34,418258,0
418309,194,-2067,237,-52,45,234,6027,46,22,381,104,35170,-20,35,127,0,0,2137,65,0,2263,155,192,32413,-4,0,65,34,418289,0
418319,186,-2071,233,-59,46,234,6059,75,52,350,104,35170,-23,35,127,0,0,2140,0,0,2263,155,192,32423,-4,0,65,34,418289,0
418329,191,-2064,238,-56,44,223,6069,4,-14,349,104,35166,-28,35,127,0,0,2142,32,0,2263,155,192,32433,-4,0,65,34,418305,0
418339,190,-2072,231,-62,43,227,6070,3,-68,417,152,35158,-39,35,127,0,0,2146,54,0,2263,155,192,32443,-4,0,65,34,418305,0
418349,197,-2068,234,-62,46,220,6086,44,12,452,96,35167,-38,35,127,0,0,2151,21,0,2263,155,192,32453,-4,0,65,34,418320,0
418359,185,-2068,233,-65,46,223,6130,115,79,232,64,35175,-30,35,127,0,0,2153,32,0,2263,155,192,32463,-4,0,65,34,418320,0
418369,187,-2065,221,-67,36,218,6161,56,35,120,72,35171,-22,35,127,0,0,2157,43,0,2263,155,192,32473,-4,0,65,34,418336,0
418379,181,-2076,227,-63,41,219,6180,21,-46,72,16,35184,-29,35,127,0,0,2157,0,0,2263,155,192,32483,-4,0,65,34,418351,0
418389,168,-2070,226,-60,50,205,6180,11,-61,129,72,35177,-28,35,127,0,0,2162,32,0,2263,155,192,32493,-4,0,65,34,418367,0
418399,205,-2059,241,-59,46,212,6183,13,-22,232,72,35174,-11,35,127,0,0,2164,10,0,2263,155,192,32503,-4,0,65,34,418383,0
418409,190,-2065,240,-60,40,210,6187,11,5,315,72,35157,2,35,127,0,0,2166,-21,0,2263,155,192,32513,-4,0,65,34,418398,0
418419,184,-2066,238,-63,41,210,6191,6,1,351,128,35143,24,35,127,0,0,2173,43,0,2263,155,192,32523,-4,0,65,34,418398,0
418429,186,-2072,230,-64,35,205,6197,18,6,395,120,35145,20,35,127,0,0,2177,54,0,2263,155,192,32533,-4,0,65,34,418398,0
418440,171,-2072,236,-67,43,200,6205,26,11,457,168,35147,21,35,127,0,0,2179,82,0,2263,155,192,32544,-4,0,65,34,418398,0
418450,179,-2070,231,-65,37,196,6228,67,35,385,120,35155,23,35,127,0,0,2182,32,0,2263,155,192,32554,-4,0,65,34,418414,0
418460,182,-2070,232,-76,38,199,6263,60,51,203,72,35166,22,35,127,0,0,2185,65,0,2263,155,192,32564,-4,0,65,34,418414,0
418470,167,-2076,232,-77,36,189,6269,0,-49,267,56,35172,20,35,127,0,0,2188,60,0,2263,155,192,32574,-4,0,65,34,418445,0
418480,154,-2070,244,-73,47,174,6273,22,-55,338,112,35180,10,35,127,0,0,2181,-27,0,2263,155,192,32584,-4,0,65,34,418445,0
418490,181,-2071,244,-79,40,170,6293,58,36,184,72,35167,-6,35,127,0,0,2185,-5,0,2263,155,192,32594,-4,0,65,34,418461,0
418500,197,-2086,245,-83,27,180,6319,31,39,35,40,35162,-4,35,127,0,0,2190,54,0,2263,155,192,32604,-4,0,65,34,418476,0
418510,162,-2072,233,-83,41,160,6319,0,-51,140,40,35160,-8,35,127,0,0,2190,27,0,2263,155,192,32614,-4,0,65,34,418476,0
418520,168,-2073,232,-84,45,150,6320,-3,-40,154,40,35158,-20,35,127,0,0,2190,0,0,2263,155,192,32624,-4,0,65,34,418492,0
418530,182,-2070,243,-89,39,147,6321,5,2,170,32,35168,-25,35,127,0,0,2190,-5,0,2263,155,192,32634,-4,0,65,34,418492,0
418540,188,-2065,242,-87,34,149,6321,6,4,175,72,35157,-13,35,127,0,0,2191,27,0,2263,155,192,32644,-4,0,65,34,418508,0
418550,187,-2072,230,-88,34,144,6325,13,7,207,64,35161,-6,35,127,0,0,2191,5,0,2263,155,192,32654,-4,0,65,34,418523,0
418560,183,-2068,226,-90,36,146,6326,7,3,245,64,35166,-16,35,127,0,0,2195,-5,0,2263,155,192,32664,-4,0,65,34,418539,0
418570,187,-2069,231,-89,41,146,6330,14,2,268,56,35158,-20,35,127,0,0,2195,0,0,2263,155,192,32674,-4,0,65,34,418539,0
418580,181,-2064,231,-86,39,142,6332,6,0,275,72,35153,-22,35,127,0,0,2197,-21,0,2263,155,192,32684,-4,0,65,34,418554,0
418590,186,-2073,230,-88,40,148,6338,8,4,252,40,35151,-24,35,127,0,0,2198,21,0,2263,155,192,32694,-4,0,65,34,418554,0
418600,175,-2069,237,-86,40,150,6340,1,-2,219,56,35157,-18,35,127,0,0,2197,27,0,2263,155,192,32704,-4,0,65,34,418617,0
418610,175,-2068,230,-86,34,150,6345,11,-2,233,48,35161,-21,35,127,0,0,2197,-10,0,2263,155,192,32714,-4,0,65,34,418617,0
418620,201,-2075,233,-88,34,145,6356,20,15,114,64,35163,-19,35,127,0,0,2201,76,0,2263,155,192,32724,-4,0,65,34,418617,0
418630,176,-2075,231,-81,38,156,6374,39,24,46,8,35156,-8,35,127,0,0,2199,0,0,2263,155,192,32734,-4,0,65,34,418617,0
418640,185,-2071,231,-86,33,143,6375,12,-16,109,48,35151,-10,35,127,0,0,2203,27,0,2263,155,192,32744,-4,0,65,34,418617,0
418650,202,-2071,233,-86,38,150,6378,0,-23,111,16,35140,0,35,127,0,0,2201,32,0,2263,155,192,32754,-4,0,65,34,418633,0
418661,170,-2064,234,-86,39,161,6378,7,-4,138,104,35136,-6,35,127,0,0,2203,10,0,2263,155,192,32765,-4,0,65,34,418633,0
418671,188,-2072,230,-88,37,161,6380,0,2,151,32,35157,-9,35,127,0,0,2203,10,0,2263,155,192,32775,-4,0,65,34,418633,0
418681,169,-2065,226,-86,34,155,6382,2,2,207,48,35174,-6,35,127,0,0,2208,21,0,2263,155,192,32785,-4,0,65,34,418664,0
418691,172,-2061,236,-83,37,161,6385,16,3,245,72,35170,-3,35,127,0,0,2206,-21,0,2263,155,192,32795,-4,0,65,34,418664,0
418701,170,-2064,232,-84,38,154,6386,8,2,246,64,35159,-16,35,127,0,0,2210,43,0,2263,155,192,32805,-4,0,65,34,418664,0
418711,171,-2070,243,-88,41,159,6389,8,3,264,88,35150,-18,35,127,0,0,2210,21,0,2263,155,192,32815,-4,0,65,34,418695,0
418721,177,-2073,241,-86,36,151,6389,3,3,286,80,35156,-20,35,127,0,0,2210,32,0,2263,155,192,32825,-4,0,65,34,418695,0
418731,172,-2079,229,-92,41,159,6395,20,3,328,80,35149,-22,35,127,0,0,2212,0,0,2263,155,192,32835,-4,0,65,34,418695,0
418741,173,-2075,234,-87,34,150,6398,5,5,337,80,35150,-14,35,127,0,0,2212,10,0,2263,155,192,32845,-4,0,65,34,418711,0
418751,168,-2076,233,-90,39,154,6399,1,-6,340,104,35155,8,35,127,0,0,2212,0,0,2263,155,192,32855,-4,0,65,34,418726,0
418761,163,-2072,238,-84,31,146,6400,-5,-3,288,104,35153,19,35,127,0,0,2212,0,0,2263,155,192,32865,-4,0,65,34,418726,0
418771,182,-2067,238,-90,43,145,6401,4,-4,322,88,35154,3,35,127,0,0,2217,32,0,2263,155,192,32875,-4,0,65,34,418726,0
418781,175,-2075,239,-91,35,140,6412,20,11,300,112,35143,4,35,127,0,0,2214,10,0,2263,155,192,32885,-4,0,65,34,418758,0
418791,162,-2079,234,-92,38,136,6427,33,27,180,40,35151,11,35,127,0,0,2217,32,0,2263,155,192,32895,-4,0,65,34,418758,0
418801,188,-2067,234,-94,37,136,6443,21,16,102,24,35146,28,35,127,0,0,2217,21,0,2263,155,192,32905,-4,0,65,34,418758,0
418811,169,-2070,237,-92,43,128,6444,3,-36,116,24,35151,27,35,127,0,0,2217,0,0,2263,155,192,32915,-4,0,65,34,418804,0
418821,166,-2071,232,-94,36,126,6445,5,-29,112,24,35150,8,35,127,0,0,2217,0,0,2263,155,192,32925,-4,0,65,34,418804,0
418831,181,-2062,227,-91,36,131,6444,0,8,113,24,35158,24,35,127,0,0,2217,0,0,2263,155,192,32935,-4,0,65,34,418804,0
418841,168,-2067,234,-94,33,133,6443,-7,-3,113,24,35156,32,35,127,0,0,2217,0,0,2263,155,192,32945,-4,0,65,34,418804,0
418851,177,-2070,223,-92,32,134,6443,-4,1,133,16,35154,40,35,127,0,0,2217,-10,0,2263,155,192,32955,-4,0,65,34,418820,0
418861,170,-2067,223,-87,41,144,6445,3,3,119,24,35151,42,35,127,0,0,2217,-21,0,2263,155,192,32965,-4,0,65,34,418836,0
418871,170,-2071,233,-88,38,145,6445,9,0,124,24,35147,21,35,127,0,0,2219,0,0,2263,155,192,32975,-4,0,65,34,418851,0
418881,176,-2077,226,-91,39,143,6445,7,2,169,40,35141,23,35,127,0,0,2219,0,0,2263,155,192,32985,-4,0,65,34,418851,0
418891,169,-2073,230,-91,37,144,6446,-1,-1,188,56,35145,15,35,127,0,0,2219,10,0,2263,155,192,32995,-4,0,65,34,418851,0
418901,179,-2067,242,-92,43,134,6448,-9,-1,180,24,35156,23,35,127,0,0,2219,10,0,2263,155,192,33005,-4,0,65,34,418867,0
418911,190,-2072,243,-100,34,137,6449,-7,-5,191,96,35161,27,35,127,0,0,2223,43,0,2263,155,192,33015,-4,0,65,34,418883,0
418922,173,-2067,243,-96,36,134,6454,1,2,272,24,35169,34,35,127,0,0,2225,-16,0,2263,155,192,33026,-4,0,65,34,418883,0
418932,153,-2058,246,-101,40,132,6454,1,-3,255,40,35173,35,35,127,0,0,2221,-32,0,2263,155,192,33036,-4,0,65,34,418914,0
418942,155,-2081,222,-100,31,137,6455,8,-7,251,40,35167,34,35,127,0,0,2224,-16,0,2263,155,192,33046,-4,0,65,34,418914,0
418952,163,-2063,234,-98,37,144,6454,-3,3,243,64,35160,13,35,127,0,0,2223,27,0,2263,155,192,33056,-4,0,65,34,418914,0
418962,180,-2067,225,-103,34,141,6453,-9,-1,218,88,35149,5,35,127,0,0,2225,76,0,2263,155,192,33066,-4,0,65,34,418945,0
418972,187,-2080,222,-101,35,149,6461,12,12,285,72,35154,10,35,127,0,0,2225,5,0,2263,155,192,33076,-4,0,65,34,418945,0
418982,173,-2079,226,-93,34,154,6461,2,2,280,88,35158,19,35,127,0,0,2224,5,0,2263,155,192,33086,-4,0,65,34,418945,0
418992,184,-2078,222,-92,39,155,6461,0,-7,287,88,35155,16,35,127,0,0,2224,-10,0,2263,155,192,33096,-4,0,65,34,418961,0
419002,179,-2065,230,-92,43,156,6460,-3,3,275,72,35159,29,35,127,0,0,2229,32,0,2263,155,192,33106,-4,0,65,34,418976,0
419012,172,-2077,231,-84,43,165,6462,0,-4,315,64,35161,40,35,127,0,0,2229,21,0,2263,155,192,33116,-4,0,65,34,418976,0
419022,168,-2070,222,-80,38,172,6464,14,4,351,104,35177,39,35,127,0,0,2226,-43,0,2263,155,192,33126,-4,0,65,34,418976,0
419032,176,-2060,225,-81,38,171,6470,16,15,324,88,35169,30,35,127,0,0,2233,21,0,2263,155,192,33136,-4,0,65,34,419008,0
419042,161,-2068,223,-86,39,180,6481,30,16,337,104,35166,10,35,127,0,0,2231,5,0,2263,155,192,33146,-4,0,65,34,419008,0
419052,161,-2070,225,-75,42,181,6502,45,35,193,64,35162,13,35,127,0,0,2234,27,0,2263,155,192,33156,-4,0,65,34,419008,0
419062,178,-2071,245,-79,35,178,6516,7,8,187,56,35158,24,35,127,0,0,2240,21,0,2263,155,192,33166,-4,0,65,34,419039,0
419072,148,-2074,232,-76,37,182,6516,1,-52,283,80,35153,21,35,127,0,0,2239,21,0,2263,155,192,33176,-4,0,65,34,419039,0
419082,163,-2079,237,-75,36,175,6520,14,-13,289,88,35147,6,35,127,0,0,2237,-32,0,2263,155,192,33186,-4,0,65,34,419054,0
419092,157,-2068,240,-76,31,169,6521,9,0,303,104,35150,-11,35,127,0,0,2240,-5,0,2263,155,192,33196,-4,0,65,34,419054,0
419102,160,-2077,225,-84,28,170,6522,-1,0,325,104,35167,-1,35,127,0,0,2250,76,0,2263,155,192,33206,-4,0,65,34,419148,0
419112,143,-2075,226,-80,29,173,6531,24,14,372,80,35164,1,35,127,0,0,2250,65,0,2263,155,192,33216,-4,0,65,34,419148,0
419122,161,-2068,227,-81,41,168,6545,35,15,344,104,35152,-2,35,127,0,0,2247,27,0,2263,155,192,33226,-4,0,65,34,419164,0
419132,153,-2070,228,-83,39,166,6576,76,48,142,40,35137,1,35,127,0,0,2247,27,0,2263,155,192,33236,-4,0,65,34,419164,0
419142,176,-2061,231,-79,30,166,6585,-16,-3,100,40,35144,11,35,127,0,0,2250,16,0,2263,155,192,33246,-4,0,65,34,419164,0
419152,143,-2073,215,-78,35,161,6586,4,-71,167,56,35143,-2,35,127,0,0,2248,-21,0,2263,155,192,33256,-4,0,65,34,419164,0
419162,155,-2077,232,-82,33,162,6586,3,-11,202,72,35135,-8,35,127,0,0,2251,-5,0,2263,155,192,33266,-4,0,65,34,419164,0
419172,150,-2078,239,-78,32,161,6588,5,0,260,72,35133,-26,35,127,0,0,2254,-10,0,2263,155,192,33276,-4,0,65,34,419164,0
419182,138,-2081,239,-83,37,157,6593,11,2,288,88,35140,-21,35,127,0,0,2256,5,0,2263,155,192,33286,-4,0,65,34,419164,0
419192,148,-2087,234,-82,40,147,6596,4,6,272,72,35144,-16,35,127,0,0,2253,0,0,2263,155,192,33296,-4,0,65,34,419164,0
419203,151,-2069,237,-90,36,143,6599,18,0,332,88,35149,-11,35,127,0,0,2256,-32,0,2263,155,192,33307,-4,0,65,34,419164,0
419213,145,-2070,234,-89,29,139,6606,16,6,259,88,35159,-26,35,127,0,0,2260,32,0,2263,155,192,33317,-4,0,65,34,419179,0
419223,135,-2073,237,-91,37,130,6613,31,12,300,48,35173,-28,35,127,0,0,2260,10,0,2263,155,192,33327,-4,0,65,34,419242,0
419233,154,-2071,229,-91,40,131,6629,38,26,156,24,35183,-22,35,127,0,0,2263,32,0,2263,155,192,33337,-4,0,65,34,419242,0
419243,126,-2067,248,-94,39,123,6633,2,0,108,16,35167,-15,35,127,0,0,2260,32,0,2263,155,192,33347,-4,0,65,34,419242,0
419253,176,-2068,228,-99,34,115,6635,3,-26,156,-8,35150,-9,35,127,0,0,2258,0,0,2263,155,192,33357,-4,0,65,34,419242,0
419263,163,-2065,229,-99,36,118,6636,-3,-6,137,8,35137,-2,35,127,0,0,2260,-10,0,2263,155,192,33367,-4,0,65,34,419257,0
419273,149,-2084,230,-93,31,115,6637,17,-2,163,24,35140,9,35,127,0,0,2260,-10,0,2263,155,192,33377,-4,0,65,34,419257,0
419283,144,-2074,231,-95,31,106,6638,-2,7,133,32,35137,17,35,127,0,0,2258,-21,0,2263,155,192,33387,-4,0,65,34,419257,0
419293,150,-2072,239,-96,34,99,6637,-7,-8,99,64,35137,3,35,127,0,0,2258,-10,0,2263,155,192,33397,-4,0,65,34,419257,0
419303,176,-2061,239,-95,41,98,6636,-17,-3,38,16,35156,-14,35,127,0,0,2258,0,0,2263,155,192,33407,-4,0,65,34,419273,0
419313,149,-2072,227,-94,34,108,6639,18,3,117,16,35171,-22,35,127,0,0,2258,-43,0,2263,155,192,33417,-4,0,65,34,419289,0
419323,145,-2062,232,-85,37,105,6637,-7,-2,49,16,35169,-21,35,127,0,0,2260,32,0,2263,155,192,33427,-4,0,65,34,419289,0
419333,176,-2071,221,-89,28,113,6640,0,-2,99,8,35162,-19,35,127,0,0,2256,-43,0,2263,155,192,33437,-4,0,65,34,419289,0
419343,174,-2082,221,-92,35,102,6639,15,-2,87,0,35147,-14,35,127,0,0,2256,-54,0,2263,155,192,33447,-4,0,65,34,419320,0
419353,115,-2088,224,-89,28,113,6637,5,-6,80,8,35159,-17,35,127,0,0,2258,-43,0,2263,155,192,33457,-4,0,65,34,419320,0
419363,139,-2077,225,-88,28,118,6637,-1,3,32,8,35152,-14,35,127,0,0,2258,0,0,2263,155,192,33467,-4,0,65,34,419320,0
419373,147,-2082,225,-89,37,107,6637,-2,6,28,8,35155,-20,35,127,0,0,2258,0,0,2263,155,192,33477,-4,0,65,34,419367,0
419383,148,-2071,231,-85,41,109,6638,3,3,52,-16,35147,-11,35,127,0,0,2258,-10,0,2263,155,192,33487,-4,0,65,34,419367,0
419393,186,-2081,225,-90,34,96,6638,0,-3,88,0,35155,-11,35,127,0,0,2260,10,0,2263,155,192,33497,-4,0,65,34,419367,0
419403,141,-2075,229,-93,38,110,6638,-2,-1,63,8,35153,-6,35,127,0,0,2258,-10,0,2263,155,192,33507,-4,0,65,34,419367,0
419414,159,-2072,226,-94,35,107,6638,4,-1,32,8,35140,-7,35,127,0,0,2258,0,0,2263,155,192,33518,-4,0,65,34,419382,0
419424,159,-2077,230,-90,35,105,6638,1,2,31,8,35150,0,35,127,0,0,2258,-5,0,2263,155,192,33528,-4,0,65,34,419398,0
419434,169,-2081,223,-92,32,108,6639,14,5,28,-16,35158,-10,35,127,0,0,2256,-43,0,2263,155,192,33538,-4,0,65,34,419398,0
419444,149,-2086,221,-89,35,113,6638,16,1,23,8,35169,-1,35,127,0,0,2258,-10,0,2263,155,192,33548,-4,0,65,34,419414,0
419454,160,-2080,218,-88,35,111,6637,-3,1,24,8,35169,-4,35,127,0,0,2258,5,0,2263,155,192,33558,-4,0,65,34,419429,0
419464,156,-2073,222,-89,32,114,6636,-6,-4,20,16,35148,7,35,127,0,0,2258,27,0,2263,155,192,33568,-4,0,65,34,419429,0
419474,145,-2064,225,-87,31,113,6637,-3,0,21,8,35143,-1,35,127,0,0,2258,16,0,2263,155,192,33578,-4,0,65,34,419461,0
419484,161,-2068,229,-89,35,113,6637,0,1,28,-8,35144,-8,35,127,0,0,2256,-38,0,2263,155,192,33588,-4,0,65,34,419523,0
419494,147,-2075,237,-86,36,115,6636,-3,-6,3,16,35140,-9,35,127,0,0,2258,32,0,2263,155,192,33598,-4,0,65,34,419523,0
419504,155,-2068,240,-87,32,110,6637,0,-1,19,8,35141,20,35,127,0,0,2258,32,0,2263,155,192,33608,-4,0,65,34,419523,0
419514,169,-2073,232,-93,33,105,6636,-1,-1,48,16,35134,16,35,127,0,0,2255,-16,0,2263,155,192,33618,-4,0,65,34,419539,0
419524,151,-2069,234,-89,35,113,6637,-1,0,11,-32,35140,15,35,127,0,0,2257,-27,0,2263,155,192,33628,-4,0,65,34,419539,0
419534,130,-2082,220,-89,34,117,6638,15,3,5,-8,35144,-3,35,127,0,0,2256,-27,0,2263,155,192,33638,-4,0,65,34,419539,0
419544,144,-2077,232,-89,33,121,6639,14,11,41,8,35143,6,35,127,0,0,2258,-21,0,2263,155,192,33648,-4,0,65,34,419539,0
419554,177,-2076,221,-93,36,121,6636,-5,0,0,16,35137,4,35,127,0,0,2255,-10,0,2263,155,192,33658,-4,0,65,34,419539,0
419564,176,-2083,217,-87,34,126,6638,2,0,14,-8,35135,4,35,127,0,0,2256,-21,0,2263,155,192,33668,-4,0,65,34,419539,0
419574,142,-2065,224,-84,40,126,6637,-5,3,10,8,35140,3,35,127,0,0,2255,-16,0,2263,155,192,33678,-4,0,65,34,419539,0
419584,153,-2063,233,-85,43,121,6637,-1,-3,24,8,35149,10,35,127,0,0,2255,-43,0,2263,155,192,33688,-4,0,65,34,419539,0
419594,149,-2080,231,-87,37,121,6636,0,2,-6,16,35155,2,35,127,0,0,2258,32,0,2263,155,192,33698,-4,0,65,34,419570,0
419604,161,-2066,240,-80,38,123,6637,-12,4,26,-8,35151,-4,35,127,0,0,2256,-10,0,2263,155,192,33708,-4,0,65,34,419570,0
419614,138,-2071,239,-91,36,131,6637,4,-2,20,8,35151,-16,35,127,0,0,2258,-10,0,2263,155,192,33718,-4,0,65,34,419570,0
419624,147,-2070,232,-91,36,128,6637,5,1,26,8,35155,-14,35,127,0,0,2258,0,0,2263,155,192,33728,-4,0,65,34,419617,0
419634,155,-2072,228,-92,34,130,6637,3,2,26,8,35142,-7,35,127,0,0,2258,0,0,2263,155,192,33738,-4,0,65,34,419617,0
419644,155,-2068,231,-93,42,125,6636,-1,0,27,32,35138,-9,35,127,0,0,2260,38,0,2263,155,192,33748,-4,0,65,34,419617,0
419654,184,-2071,226,-86,31,126,6638,-9,5,64,8,35137,-9,35,127,0,0,2258,10,0,2263,155,192,33758,-4,0,65,34,419617,0
419665,148,-2067,229,-87,39,128,6638,1,-3,30,40,35143,-24,35,127,0,0,2258,10,0,2263,155,192,33769,-4,0,65,34,419632,0
419675,180,-2070,229,-92,36,121,6638,-2,-1,81,0,35147,-12,35,127,0,0,2258,-10,0,2263,155,192,33779,-4,0,65,34,419648,0
419685,140,-2073,225,-91,32,125,6639,4,-3,30,8,35145,-20,35,127,0,0,2258,10,0,2263,155,192,33789,-4,0,65,34,419648,0
419695,168,-2071,231,-88,30,120,6637,-9,-6,56,40,35148,-24,35,127,0,0,2258,10,0,2263,155,192,33799,-4,0,65,34,419664,0
419705,135,-2059,236,-84,41,119,6640,0,3,100,-8,35154,-27,35,127,0,0,2260,-10,0,2263,155,192,33809,-4,0,65,34,419679,0
419715,122,-2066,230,-88,36,120,6639,7,-1,93,24,35154,-4,35,127,0,0,2258,0,0,2263,155,192,33819,-4,0,65,34,419679,0
419725,155,-2064,229,-90,32,113,6637,-10,-3,89,32,35147,11,35,127,0,0,2258,-10,0,2263,155,192,33829,-4,0,65,34,419679,0
419735,166,-2054,242,-88,40,114,6637,-14,-2,37,8,35146,5,35,127,0,0,2258,10,0,2263,155,192,33839,-4,0,65,34,419726,0
419745,174,-2068,226,-91,36,109,6638,-3,2,75,32,35144,-4,35,127,0,0,2258,0,0,2263,155,192,33849,-4,0,65,34,419726,0
419755,180,-2062,226,-95,35,111,6638,-2,-3,104,0,35146,-8,35,127,0,0,2258,-21,0,2263,155,192,33859,-4,0,65,34,419726,0
419765,144,-2082,227,-93,34,120,6640,14,-1,120,24,35144,-9,35,127,0,0,2260,-32,0,2263,155,192,33869,-4,0,65,34,419726,0
419775,142,-2074,217,-93,39,125,6640,13,0,122,-8,35142,-5,35,127,0,0,2258,-54,0,2263,155,192,33879,-4,0,65,34,419742,0
419785,154,-2086,211,-94,33,123,6638,-1,-6,44,40,35149,-10,35,127,0,0,2258,0,0,2263,155,192,33889,-4,0,65,34,419757,0
419795,163,-2078,226,-90,40,114,6639,8,7,76,32,35150,-11,35,127,0,0,2258,-32,0,2263,155,192,33899,-4,0,65,34,419757,0
419805,155,-2072,220,-85,30,111,6638,1,5,85,0,35137,-3,35,127,0,0,2260,21,0,2263,155,192,33909,-4,0,65,34,419789,0
419815,146,-2070,226,-89,39,121,6639,-2,-4,125,56,35129,-7,35,127,0,0,2260,0,0,2263,155,192,33919,-4,0,65,34,419789,0
419825,129,-2073,227,-87,37,118,6639,0,4,99,32,35134,-10,35,127,0,0,2260,-21,0,2263,155,192,33929,-4,0,65,34,419789,0
419835,139,-2080,227,-88,38,106,6639,0,0,106,24,35147,-4,35,127,0,0,2260,0,0,2263,155,192,33939,-4,0,65,34,419898,0
419845,155,-2082,235,-90,31,106,6639,9,6,131,56,35156,11,35,127,0,0,2260,0,0,2263,155,192,33949,-4,0,65,34,419914,0
419855,163,-2072,230,-98,36,101,6639,-3,-1,107,0,35148,6,35,127,0,0,2263,21,0,2263,155,192,33959,-4,0,65,34,419914,0
419865,167,-2086,219,-95,23,102,6641,9,7,194,16,35148,-4,35,127,0,0,2263,0,0,2263,155,192,33969,-4,0,65,34,419914,0
419875,136,-2080,221,-88,28,112,6640,-5,5,103,32,35143,-3,35,127,0,0,2260,32,0,2263,155,192,33979,-4,0,65,34,419914,0
419885,160,-2067,226,-87,41,101,6640,0,-1,101,56,35142,9,35,127,0,0,2258,-21,0,2263,155,192,33989,-4,0,65,34,419914,0
419895,174,-2064,218,-88,31,102,6640,4,-3,60,32,35135,9,35,127,0,0,2258,-10,0,2263,155,192,33999,-4,0,65,34,419914,0
419905,162,-2066,220,-86,33,102,6639,-5,-3,96,-16,35132,-4,35,127,0,0,2263,43,0,2263,155,192,34009,-4,0,65,34,419914,0
419915,142,-2075,222,-81,31,117,6640,1,3,134,24,35138,-5,35,127,0,0,2258,-10,0,2263,155,192,34019,-4,0,65,34,419914,0
419925,139,-2064,232,-81,36,99,6641,0,0,143,-16,35135,-5,35,127,0,0,2258,-43,0,2263,155,192,34029,-4,0,65,34,419914,0
419935,145,-2076,233,-82,32,108,6641,5,-3,116,24,35128,5,35,127,0,0,2260,-32,0,2263,155,192,34039,-4,0,65,34,419929,0
419945,178,-2082,217,-88,35,112,6639,-5,-4,83,0,35124,-8,35,127,0,0,2258,-10,0,2263,155,192,34049,-4,0,65,34,419929,0
419956,147,-2071,224,-86,33,102,6640,1,-1,51,24,35138,-9,35,127,0,0,2260,21,0,2263,155,192,34060,-4,0,65,34,419929,0
419966,160,-2088,225,-85,32,105,6640,3,2,96,24,35151,-14,35,127,0,0,2260,5,0,2263,155,192,34070,-4,0,65,34,419929,0
419976,153,-2076,225,-88,32,110,6639,0,2,86,24,35170,1,35,127,0,0,2260,5,0,2263,155,192,34080,-4,0,65,34,419945,0
419986,186,-2074,228,-93,34,99,6638,-10,0,46,8,35169,-1,35,127,0,0,2258,10,0,2263,155,192,34090,-4,0,65,34,419976,0
419996,178,-2075,222,-89,35,103,6640,-3,0,43,8,35172,-3,35,127,0,0,2258,-27,0,2263,155,192,34100,-4,0,65,34,419976,0
420006,174,-2083,223,-87,33,106,6639,-1,-1,28,8,35156,-15,35,127,0,0,2258,0,0,2263,155,192,34110,-4,0,65,34,419976,0
420016,165,-2078,219,-81,28,111,6640,5,0,30,8,35145,-5,35,127,0,0,2258,0,0,2263,155,192,34120,-4,0,65,34,419976,0
420026,170,-2068,215,-79,36,111,6639,2,-5,8,8,35137,5,35,127,0,0,2262,60,0,2263,155,192,34130,-4,0,65,34,420007,0
420036,150,-2065,224,-81,32,114,6639,-6,-1,53,24,35142,-1,35,127,0,0,2257,16,0,2263,155,192,34140,-4,0,65,34,420007,0
420046,154,-2060,225,-73,37,109,6639,-6,0,29,8,35154,13,35,127,0,0,2258,0,0,2263,155,192,34150,-4,0,65,34,420023,0
420056,157,-2067,230,-74,43,111,6640,3,-2,49,8,35152,14,35,127,0,0,2258,-27,0,2263,155,192,34160,-4,0,65,34,420023,0
420066,168,-2077,227,-84,33,116,6639,0,1,25,24,35143,24,35,127,0,0,2260,38,0,2263,155,192,34170,-4,0,65,34,420039,0
420076,159,-2082,230,-85,32,118,6640,0,0,88,8,35139,8,35,127,0,0,2258,-10,0,2263,155,192,34180,-4,0,65,34,420039,0
420086,128,-2070,234,-84,43,123,6640,9,-4,53,-16,35139,8,35,127,0,0,2263,0,0,2263,155,192,34190,-4,0,65,34,420054,0
420096,133,-2074,229,-77,40,126,6640,11,1,102,24,35158,3,35,127,0,0,2257,-16,0,2263,155,192,34200,-4,0,65,34,420070,0
420106,157,-2085,217,-83,42,125,6640,6,-1,60,48,35159,11,35,127,0,0,2259,16,0,2263,155,192,34210,-4,0,65,34,420070,0
420116,182,-2076,218,-83,44,133,6639,-12,0,67,24,35155,11,35,127,0,0,2260,21,0,2263,155,192,34220,-4,0,65,34,420085,0
420126,181,-2065,231,-78,43,121,6641,-4,3,73,8,35157,-3,35,127,0,0,2262,27,0,2263,155,192,34230,-4,0,65,34,420101,0
420136,135,-2080,225,-76,45,128,6641,5,5,101,40,35159,-10,35,127,0,0,2259,5,0,2263,155,192,34240,-4,0,65,34,420117,0
420146,148,-2077,226,-79,39,131,6639,-6,-2,94,8,35152,-9,35,127,0,0,2262,-16,0,2263,155,192,34250,-4,0,65,34,420117,0
420156,158,-2082,218,-80,39,125,6640,3,1,94,0,35145,-3,35,127,0,0,2262,0,0,2263,155,192,34260,-4,0,65,34,420117,0
420167,162,-2077,227,-83,42,124,6640,3,5,86,32,35151,-6,35,127,0,0,2260,21,0,2263,155,192,34271,-4,0,65,34,420148,0
420177,177,-2065,234,-83,38,115,6640,0,-1,109,24,35161,-18,35,127,0,0,2260,-10,0,2263,155,192,34281,-4,0,65,34,420148,0
420187,153,-2065,233,-83,45,120,6642,11,1,120,8,35165,-28,35,127,0,0,2260,-21,0,2263,155,192,34291,-4,0,65,34,420148,0
420197,137,-2081,221,-85,35,124,6640,0,3,70,32,35169,-23,35,127,0,0,2258,-10,0,2263,155,192,34301,-4,0,65,34,420242,0
420207,168,-2073,217,-86,29,118,6640,0,0,69,0,35167,-21,35,127,0,0,2260,21,0,2263,155,192,34311,-4,0,65,34,420242,0
420217,156,-2067,225,-82,45,118,6639,-4,7,118,-16,35169,-21,35,127,0,0,2260,0,0,2263,155,192,34321,-4,0,65,34,420242,0
420227,121,-2069,233,-81,38,122,6639,-6,4,50,8,35161,-21,35,127,0,0,2263,43,0,2263,155,192,34331,-4,0,65,34,420257,0
420237,200,-2077,220,-84,34,121,6641,0,6,74,64,35144,-6,35,127,0,0,2260,32,0,2263,155,192,34341,-4,0,65,34,420257,0
420247,189,-2072,216,-82,33,114,6640,0,2,97,56,35145,-4,35,127,0,0,2263,21,0,2263,155,192,34351,-4,0,65,34,420257,0
420257,143,-2071,229,-78,34,123,6641,-2,-6,89,32,35159,-1,35,127,0,0,2258,-21,0,2263,155,192,34361,-4,0,65,34,420257,0
420267,173,-2064,227,-76,33,115,6642,8,-2,103,16,35152,-6,35,127,0,0,2260,-21,0,2263,155,192,34371,-4,0,65,34,420257,0
420277,143,-2086,218,-80,34,124,6641,11,2,103,24,35143,-2,35,127,0,0,2260,10,0,2263,155,192,34381,-4,0,65,34,420257,0
420287,147,-2078,223,-77,33,119,6643,5,0,134,-8,35146,-7,35,127,0,0,2260,-21,0,2263,155,192,34391,-4,0,65,34,420257,0
420297,153,-2078,220,-80,39,118,6642,11,10,124,24,35164,-12,35,127,0,0,2263,10,0,2263,155,192,34401,-4,0,65,34,420257,0
420307,148,-2081,213,-75,35,120,6642,5,4,186,8,35182,-12,35,127,0,0,2263,-10,0,2263,155,192,34411,-4,0,65,34,420273,0
420317,162,-2076,211,-72,38,117,6642,9,-2,118,24,35192,-12,35,127,0,0,2263,21,0,2263,155,192,34421,-4,0,65,34,420304,0
420327,160,-2078,209,-71,33,112,6642,4,0,133,48,35186,-8,35,127,0,0,2263,0,0,2263,155,192,34431,-4,0,65,34,420304,0
420337,154,-2084,214,-65,34,112,6642,1,3,132,24,35182,-28,35,127,0,0,2258,-32,0,2263,155,192,34441,-4,0,65,34,420320,0
420347,189,-2090,206,-64,39,111,6640,-3,-7,128,40,35181,-49,35,127,0,0,2260,-10,0,2263,155,192,34451,-4,0,65,34,420320,0
420357,122,-2088,221,-59,39,116,6641,-1,-1,120,48,35176,-36,35,127,0,0,2260,-10,0,2263,155,192,34461,-4,0,65,34,420320,0
420367,173,-2076,222,-60,39,107,6641,-1,-4,121,48,35165,-19,35,127,0,0,2260,-10,0,2263,155,192,34471,-4,0,65,34,420335,0
420377,148,-2074,236,-56,44,111,6640,-8,-2,109,56,35165,-13,35,127,0,0,2260,-10,0,2263,155,192,34481,-4,0,65,34,420351,0
420387,153,-2077,249,-56,52,109,6641,3,-4,79,48,35178,-25,35,127,0,0,2260,32,0,2263,155,192,34491,-4,0,65,34,420351,0
420397,162,-2075,244,-62,43,118,6640,-15,-1,86,32,35183,-15,35,127,0,0,2260,21,0,2263,155,192,34501,-4,0,65,34,420351,0
420407,188,-2063,249,-79,45,123,6641,-8,1,129,16,35178,-15,35,127,0,0,2260,0,0,2263,155,192,34511,-4,0,65,34,420398,0
420418,174,-2042,250,-78,38,125,6641,0,-3,129,40,35175,-17,35,127,0,0,2259,-16,0,2263,155,192,34522,-4,0,65,34,420398,0
420428,178,-2032,244,-83,39,136,6641,-6,-6,128,40,35175,-38,35,127,0,0,2266,38,0,2263,155,192,34532,-4,0,65,34,420398,0
420438,161,-2047,235,-89,36,149,6641,-10,-2,143,24,35172,-39,35,127,0,0,2264,27,0,2263,155,192,34542,-4,0,65,34,420398,0
420448,136,-2059,232,-93,47,148,6644,15,4,159,32,35172,-42,35,127,0,0,2263,-21,0,2263,155,192,34552,-4,0,65,34,420413,0
420458,153,-2072,231,-106,37,153,6643,5,2,163,40,35175,-47,35,127,0,0,2263,0,0,2263,155,192,34562,-4,0,65,34,420413,0
420468,145,-2086,236,-106,34,153,6642,-7,-10,140,40,35180,-43,35,127,0,0,2263,27,0,2263,155,192,34572,-4,0,65,34,420460,0
420478,156,-2087,233,-107,40,149,6644,1,0,168,32,35195,-52,35,127,0,0,2263,0,0,2263,155,192,34582,-4,0,65,34,420460,0
420488,154,-2092,232,-111,39,139,6645,7,5,233,32,35178,-41,35,127,0,0,2263,-65,0,2263,155,192,34592,-4,0,65,34,420460,0
420498,141,-2104,223,-108,40,135,6645,-4,1,185,72,35165,-38,35,127,0,0,2264,38,0,2263,155,192,34602,-4,0,65,34,420460,0
420508,153,-2100,225,-105,41,142,6644,-13,0,196,72,35158,-33,35,127,0,0,2260,16,0,2263,155,192,34612,-4,0,65,34,420476,0
420518,162,-2081,224,-104,40,125,6647,7,3,212,72,35172,-22,35,127,0,0,2264,-21,0,2263,155,192,34622,-4,0,65,34,420523,0
420528,152,-2078,222,-102,47,128,6647,-1,1,250,72,35171,-21,35,127,0,0,2270,49,0,2263,155,192,34632,-4,0,65,34,420523,0
420538,156,-2067,229,-102,35,117,6650,4,1,259,40,35166,-12,35,127,0,0,2268,38,0,2263,155,192,34642,-4,0,65,34,420538,0
420548,146,-2072,229,-102,37,117,6652,7,3,284,80,35160,-23,35,127,0,0,2263,-54,0,2263,155,192,34652,-4,0,65,34,420538,0
420558,149,-2064,230,-107,35,113,6650,-1,-2,222,64,35169,-40,35,127,0,0,2264,-16,0,2263,155,192,34662,-4,0,65,34,420538,0
420568,165,-2059,232,-103,37,112,6651,1,0,255,80,35164,-28,35,127,0,0,2266,-32,0,2263,155,192,34672,-4,0,65,34,420538,0
420578,164,-2057,217,-99,30,111,6651,-4,1,224,64,35161,-32,35,127,0,0,2264,0,0,2263,155,192,34682,-4,0,65,34,420538,0
420588,158,-2061,209,-98,30,112,6651,-3,-4,232,80,35169,-39,35,127,0,0,2269,49,0,2263,155,192,34692,-4,0,65,34,420554,0
420598,139,-2061,227,-91,30,114,6653,-9,0,249,40,35190,-48,35,127,0,0,2265,-38,0,2263,155,192,34702,-4,0,65,34,420585,0
420608,144,-2069,217,-98,36,111,6653,7,-6,194,80,35199,-46,35,127,0,0,2263,-10,0,2263,155,192,34712,-4,0,65,34,420601,0
420618,151,-2060,222,-95,28,106,6653,-3,-4,199,56,35182,-21,35,127,0,0,2264,-54,0,2263,155,192,34722,-4,0,65,34,420601,0
420628,155,-2069,223,-94,32,102,6653,-1,-2,189,40,35168,-29,35,127,0,0,2268,0,0,2263,155,192,34732,-4,0,65,34,420601,0
420638,148,-2073,218,-91,32,99,6653,-6,0,217,56,35161,-35,35,127,0,0,2264,-5,0,2263,155,192,34742,-4,0,65,34,420601,0
420648,159,-2070,219,-91,29,96,6654,5,0,194,32,35170,-46,35,127,0,0,2268,-21,0,2263,155,192,34752,-4,0,65,34,420616,0
420658,172,-2088,209,-89,30,100,6654,3,3,206,56,35173,-28,35,127,0,0,2267,32,0,2263,155,192,34762,-4,0,65,34,420648,0
420669,164,-2075,221,-78,38,101,6654,4,4,199,64,35172,-38,35,127,0,0,2265,-21,0,2263,155,192,34773,-4,0,65,34,420648,0
420679,181,-2082,216,-75,33,94,6653,-4,-2,228,16,35164,-47,35,127,0,0,2265,-43,0,2263,155,192,34783,-4,0,65,34,420663,0
420689,154,-2093,204,-72,28,110,6652,-6,-5,176,40,35171,-57,35,127,0,0,2263,-21,0,2263,155,192,34793,-4,0,65,34,420663,0
420699,169,-2071,212,-75,29,103,6653,0,0,175,64,35162,-45,35,127,0,0,2267,0,0,2263,155,192,34803,-4,0,65,34,420663,0
420709,145,-2076,213,-67,27,110,6653,0,7,201,24,35157,-29,35,127,0,0,2263,-32,0,2263,155,192,34813,-4,0,65,34,420679,0
420719,141,-2070,222,-59,34,100,6653,3,4,149,40,35152,-31,35,127,0,0,2265,0,0,2263,155,192,34823,-4,0,65,34,420679,0
420729,154,-2070,219,-64,34,99,6652,-2,0,141,40,35169,-30,35,127,0,0,2267,43,0,2263,155,192,34833,-4,0,65,34,420726,0
420739,150,-2070,226,-64,29,101,6654,10,4,193,32,35175,-27,35,127,0,0,2263,-21,0,2263,155,192,34843,-4,0,65,34,420726,0
420749,164,-2062,235,-61,32,103,6651,-5,0,125,48,35172,-20,35,127,0,0,2265,10,0,2263,155,192,34853,-4,0,65,34,420726,0
420759,170,-2065,237,-68,30,105,6651,-7,-4,167,40,35163,-34,35,127,0,0,2265,0,0,2263,155,192,34863,-4,0,65,34,420726,0
420769,152,-2070,238,-70,31,103,6651,-8,0,171,40,35159,-40,35,127,0,0,2263,-21,0,2263,155,192,34873,-4,0,65,34,420726,0
420779,175,-2068,232,-73,26,103,6651,-5,3,129,40,35167,-49,35,127,0,0,2265,21,0,2263,155,192,34883,-4,0,65,34,420757,0
420789,157,-2069,229,-69,30,112,6652,1,0,166,40,35171,-52,35,127,0,0,2263,-21,0,2263,155,192,34893,-4,0,65,34,420788,0
420799,178,-2053,216,-70,30,110,6651,-4,-3,122,48,35165,-47,35,127,0,0,2263,-10,0,2263,155,192,34903,-4,0,65,34,420804,0
420809,143,-2068,226,-64,35,119,6651,-5,0,150,40,35160,-66,35,127,0,0,2263,-32,0,2263,155,192,34913,-4,0,65,34,420804,0
420819,153,-2061,220,-60,38,118,6652,0,-3,125,40,35176,-71,35,127,0,0,2265,21,0,2263,155,192,34923,-4,0,65,34,420804,0
420829,170,-2067,223,-58,33,122,6651,-7,-4,151,40,35181,-54,35,127,0,0,2263,-10,0,2263,155,192,34933,-4,0,65,34,420804,0
420839,184,-2059,231,-55,41,118,6651,0,-4,141,40,35187,-27,35,127,0,0,2265,0,0,2263,155,192,34943,-4,0,65,34,420804,0
420849,144,-2077,215,-59,34,126,6652,6,-2,200,32,35183,-22,35,127,0,0,2265,-21,0,2263,155,192,34953,-4,0,65,34,420804,0
420859,136,-2075,231,-57,37,125,6654,15,0,190,56,35185,-17,35,127,0,0,2267,10,0,2263,155,192,34963,-4,0,65,34,420820,0
420869,129,-2090,236,-58,30,126,6653,0,-2,212,24,35185,-22,35,127,0,0,2267,10,0,2263,155,192,34973,-4,0,65,34,420851,0
420879,155,-2087,230,-63,36,130,6653,-3,1,239,24,35180,-32,35,127,0,0,2265,-32,0,2263,155,192,34983,-4,0,65,34,420851,0
420889,146,-2072,244,-66,37,123,6654,6,-6,200,24,35173,-35,35,127,0,0,2267,-10,0,2263,155,192,34993,-4,0,65,34,420851,0
420899,133,-2076,234,-71,33,119,6654,11,5,248,56,35169,-43,35,127,0,0,2265,-43,0,2263,155,192,35003,-4,0,65,34,420866,0
420910,165,-2074,222,-66,30,116,6654,13,2,224,32,35172,-41,35,127,0,0,2268,-5,0,2263,155,192,35014,-4,0,65,34,420898,0
420920,147,-2056,224,-63,45,116,6653,2,2,277,56,35176,-44,35,127,0,0,2267,-32,0,2263,155,192,35024,-4,0,65,34,420898,0
420930,164,-2082,215,-64,31,129,6654,-1,-2,226,56,35168,-41,35,127,0,0,2270,32,0,2263,155,192,35034,-4,0,65,34,420898,0
420940,165,-2080,227,-58,38,140,6653,-8,0,270,56,35163,-61,35,127,0,0,2267,5,0,2263,155,192,35044,-4,0,65,34,420898,0
420950,166,-2075,216,-52,44,154,6656,8,2,288,72,35174,-58,35,127,0,0,2266,-65,0,2263,155,192,35054,-4,0,65,34,420976,0
420960,164,-2068,224,-50,35,165,6655,4,2,262,96,35183,-44,35,127,0,0,2268,21,0,2263,155,192,35064,-4,0,65,34,420976,0
420970,188,-2071,219,-42,36,170,6655,-10,-2,285,96,35180,-27,35,127,0,0,2275,71,0,2263,155,192,35074,-4,0,65,34,420991,0
420980,158,-2073,220,-38,31,183,6660,10,5,354,80,35172,-49,35,127,0,0,2275,16,0,2263,155,192,35084,-4,0,65,34,420991,0
420990,145,-2077,229,-42,38,187,6664,12,7,378,112,35167,-54,35,127,0,0,2276,38,0,2263,155,192,35094,-4,0,65,34,420991,0
421000,148,-2061,231,-39,35,188,6679,44,16,356,104,35164,-45,35,127,0,0,2278,16,0,2263,155,192,35104,-4,0,65,34,420991,0
421010,138,-2070,244,-50,41,181,6711,81,59,205,40,35158,-20,35,127,0,0,2281,10,0,2263,155,192,35114,-4,0,65,34,420991,0
421020,153,-2055,240,-48,32,178,6726,4,11,144,48,35152,-17,35,127,0,0,2282,38,0,2263,155,192,35124,-4,0,65,34,420991,0
421030,115,-2083,240,-54,45,163,6726,4,-68,239,48,35157,-28,35,127,0,0,2286,16,0,2263,155,192,35134,-4,0,65,34,420991,0
421040,125,-2065,254,-63,49,153,6731,14,-11,245,80,35176,-23,35,127,0,0,2287,43,0,2263,155,192,35144,-4,0,65,34,421007,0
421050,156,-2075,254,-73,34,151,6741,23,14,185,40,35193,-12,35,127,0,0,2285,16,0,2263,155,192,35154,-4,0,65,34,421038,0
421060,119,-2070,253,-78,30,146,6751,24,12,84,16,35195,-4,35,127,0,0,2285,0,0,2263,155,192,35164,-4,0,65,34,421038,0
421070,122,-2072,231,-85,38,133,6764,29,6,30,8,35189,-20,35,127,0,0,2290,32,0,2263,155,192,35174,-4,0,65,34,421038,0
421080,146,-2077,237,-81,36,132,6770,-1,0,41,0,35173,-16,35,127,0,0,2290,38,0,2263,155,192,35184,-4,0,65,34,421054,0
421090,145,-2081,243,-94,35,128,6772,6,-21,110,32,35168,-11,35,127,0,0,2288,-10,0,2263,155,192,35194,-4,0,65,34,421054,0
421100,150,-2079,231,-91,27,128,6773,1,-6,100,32,35167,-5,35,127,0,0,2288,-38,0,2263,155,192,35204,-4,0,65,34,421070,0
421110,145,-2085,237,-91,36,129,6772,-4,-4,67,-8,35187,-20,35,127,0,0,2293,16,0,2263,155,192,35214,-4,0,65,34,421070,0
421120,128,-2079,241,-99,30,135,6773,-1,4,91,8,35193,-39,35,127,0,0,2289,0,0,2263,155,192,35224,-4,0,65,34,421101,0
421130,145,-2080,236,-99,34,128,6773,7,4,71,8,35200,-30,35,127,0,0,2286,-38,0,2263,155,192,35234,-4,0,65,34,421116,0
421140,153,-2069,234,-96,26,120,6776,13,2,113,32,35174,-11,35,127,0,0,2291,-21,0,2263,155,192,35244,-4,0,65,34,421116,0
421150,141,-2071,231,-109,32,122,6776,11,3,120,8,35164,-10,35,127,0,0,2292,0,0,2263,155,192,35254,-4,0,65,34,421116,0
421161,157,-2064,238,-108,28,126,6776,1,1,141,24,35170,-30,35,127,0,0,2287,-43,0,2263,155,192,35265,-4,0,65,34,421148,0
421171,143,-2073,229,-107,30,115,6776,9,3,94,0,35177,-7,35,127,0,0,2291,-10,0,2263,155,192,35275,-4,0,65,34,421148,0
421181,131,-2078,233,-106,25,126,6776,1,-2,123,0,35170,-1,35,127,0,0,2293,21,0,2263,155,192,35285,-4,0,65,34,421148,0
421191,126,-2074,237,-113,27,132,6776,0,8,121,-8,35166,-5,35,127,0,0,2291,10,0,2263,155,192,35295,-4,0,65,34,421163,0
421201,151,-2075,224,-111,26,126,6777,5,7,143,-16,35173,-14,35,127,0,0,2291,-10,0,2263,155,192,35305,-4,0,65,34,421163,0
421211,128,-2075,227,-104,37,126,6777,5,2,104,32,35188,-14,35,127,0,0,2291,21,0,2263,155,192,35315,-4,0,65,34,421194,0
421221,138,-2081,233,-107,29,125,6777,-5,-3,93,40,35180,-16,35,127,0,0,2291,10,0,2263,155,192,35325,-4,0,65,34,421194,0
421231,156,-2084,232,-102,29,128,6776,1,3,136,16,35168,-33,35,127,0,0,2291,-21,0,2263,155,192,35335,-4,0,65,34,421194,0
421241,137,-2076,227,-107,32,128,6777,4,-1,110,80,35166,-50,35,127,0,0,2291,0,0,2263,155,192,35345,-4,0,65,34,421194,0
421251,150,-2071,226,-107,33,122,6779,5,-2,137,72,35182,-17,35,127,0,0,2293,32,0,2263,155,192,35355,-4,0,65,34,421226,0
421261,142,-2063,231,-105,29,118,6779,-10,5,149,80,35178,5,35,127,0,0,2291,0,0,2263,155,192,35365,-4,0,65,34,421226,0
421271,166,-2069,226,-109,30,119,6780,1,-2,139,80,35167,-4,35,127,0,0,2291,-32,0,2263,155,192,35375,-4,0,65,34,421226,0
421281,153,-2068,238,-102,33,112,6780,2,-7,168,32,35156,-19,35,127,0,0,2293,0,0,2263,155,192,35385,-4,0,65,34,421257,0
421291,142,-2065,242,-107,33,111,6779,-7,-5,179,96,35156,-20,35,127,0,0,2296,32,0,2263,155,192,35395,-4,0,65,34,421257,0
421301,149,-2072,242,-106,32,111,6781,0,0,189,64,35152,-6,35,127,0,0,2296,10,0,2263,155,192,35405,-4,0,65,34,421257,0
421311,153,-2070,230,-110,35,109,6782,3,-3,244,72,35150,-9,35,127,0,0,2293,-32,0,2263,155,192,35415,-4,0,65,34,421351,0
421321,128,-2058,237,-111,32,105,6780,-11,-5,147,104,35155,-15,35,127,0,0,2296,32,0,2263,155,192,35425,-4,0,65,34,421351,0
421331,152,-2062,237,-117,30,100,6782,-8,-3,221,16,35155,-20,35,127,0,0,2296,-32,0,2263,155,192,35435,-4,0,65,34,421351,0
421341,126,-2071,223,-119,30,104,6782,12,1,215,-16,35155,-3,35,127,0,0,2296,-21,0,2263,155,192,35445,-4,0,65,34,421351,0
421351,95,-2071,225,-115,30,103,6781,1,3,168,40,35152,7,35,127,0,0,2293,-21,0,2263,155,192,35455,-4,0,65,34,421366,0
421361,131,-2079,223,-126,31,99,6783,9,1,133,48,35155,3,35,127,0,0,2296,0,0,2263,155,192,35465,-4,0,65,34,421366,0
421371,126,-2076,222,-123,31,92,6780,-3,7,109,16,35147,-8,35,127,0,0,2293,21,0,2263,155,192,35475,-4,0,65,34,421366,0
421381,163,-2063,230,-131,29,82,6780,-2,0,98,16,35142,-14,35,127,0,0,2291,10,0,2263,155,192,35485,-4,0,65,34,421366,0
421391,169,-2077,223,-131,29,90,6780,-4,2,81,16,35134,-1,35,127,0,0,2291,10,0,2263,155,192,35495,-4,0,65,34,421366,0
421401,162,-2067,229,-132,25,80,6780,-13,-1,115,8,35149,-7,35,127,0,0,2291,-10,0,2263,155,192,35505,-4,0,65,34,421366,0
421412,148,-2072,234,-134,33,84,6781,4,-2,76,40,35169,-31,35,127,0,0,2290,5,0,2263,155,192,35516,-4,0,65,34,421366,0
421422,153,-2072,231,-136,31,83,6782,1,0,118,16,35179,-32,35,127,0,0,2291,-38,0,2263,155,192,35526,-4,0,65,34,421398,0
421432,139,-2078,224,-138,29,84,6779,-2,-3,64,24,35177,-12,35,127,0,0,2291,27,0,2263,155,192,35536,-4,0,65,34,421398,0
421442,144,-2089,218,-138,25,82,6780,-6,2,55,0,35161,8,35,127,0,0,2289,-16,0,2263,155,192,35546,-4,0,65,34,421398,0
421452,146,-2086,218,-134,27,72,6779,0,-3,19,-16,35157,-6,35,127,0,0,2290,-10,0,2263,155,192,35556,-4,0,65,34,421429,0
421462,149,-2079,212,-132,30,74,6778,-7,0,-6,-40,35152,-20,35,127,0,0,2291,32,0,2263,155,192,35566,-4,0,65,34,421429,0
421472,129,-2076,225,-124,33,72,6778,-2,-3,-8,-40,35145,-8,35,127,0,0,2285,-43,0,2263,155,192,35576,-4,0,65,34,421429,0
421482,122,-2074,215,-119,33,73,6776,3,-2,-79,-16,35148,-3,35,127,0,0,2287,5,0,2263,155,192,35586,-4,0,65,34,421444,0
421492,159,-2064,215,-124,29,75,6776,-1,1,-51,-32,35156,8,35,127,0,0,2285,-21,0,2263,155,192,35596,-4,0,65,34,421476,0
421502,156,-2068,216,-123,35,70,6776,7,3,-120,-32,35163,-7,35,127,0,0,2285,5,0,2263,155,192,35606,-4,0,65,34,421476,0
421512,149,-2075,207,-117,30,81,6775,-11,2,-180,-48,35152,0,35,127,0,0,2286,38,0,2263,155,192,35616,-4,0,65,34,421476,0
421522,151,-2093,207,-122,31,91,6772,0,-6,-175,-80,35145,3,35,127,0,0,2285,16,0,2263,155,192,35626,-4,0,65,34,421511,0
421532,146,-2069,214,-109,30,89,6772,0,4,-186,-48,35144,-12,35,127,0,0,2279,-10,0,2263,155,192,35636,-4,0,65,34,421511,0
421542,166,-2079,205,-109,26,94,6771,-1,-1,-221,-64,35147,-19,35,127,0,0,2280,-5,0,2263,155,192,35646,-4,0,65,34,421511,0
421552,163,-2073,209,-112,29,97,6772,0,2,-234,-80,35141,-16,35,127,0,0,2281,-27,0,2263,155,192,35656,-4,0,65,34,421511,0
421562,148,-2077,205,-100,35,106,6770,7,-2,-229,-56,35133,2,35,127,0,0,2277,-32,0,2263,155,192,35666,-4,0,65,34,421527,0
421572,158,-2073,213,-95,36,100,6769,3,2,-250,-80,35138,1,35,127,0,0,2278,-49,0,2263,155,192,35676,-4,0,65,34,421558,0
421582,134,-2080,216,-93,37,97,6768,-2,0,-263,-72,35150,-5,35,127,0,0,2278,-21,0,2263,155,192,35686,-4,0,65,34,421558,0
421592,157,-2068,223,-102,37,93,6770,5,-2,-261,-56,35145,-13,35,127,0,0,2277,-27,0,2263,155,192,35696,-4,0,65,34,421558,0
421602,142,-2078,217,-98,34,98,6770,2,7,-270,-96,35142,-18,35,127,0,0,2282,-5,0,2263,155,192,35706,-4,0,65,34,421574,0
421612,145,-2074,223,-102,31,96,6771,4,7,-245,-80,35138,-9,35,127,0,0,2278,-21,0,2263,155,192,35716,-4,0,65,34,421574,0
421622,154,-2075,217,-101,34,89,6770,1,0,-281,-80,35145,-21,35,127,0,0,2278,10,0,2263,155,192,35726,-4,0,65,34,421589,0
421632,150,-2066,224,-100,28,95,6769,1,0,-296,-96,35146,-24,35,127,0,0,2276,-10,0,2263,155,192,35736,-4,0,65,34,421589,0
421642,149,-2073,218,-105,32,99,6767,-3,-1,-338,-96,35143,-14,35,127,0,0,2276,0,0,2263,155,192,35746,-4,0,65,34,421605,0
421653,157,-2081,212,-97,33,104,6766,-2,-5,-360,-80,35140,6,35,127,0,0,2276,0,0,2263,155,192,35757,-4,0,65,34,421621,0
421663,156,-2079,216,-99,39,98,6766,-1,2,-353,-88,35146,-2,35,127,0,0,2276,0,0,2263,155,192,35767,-4,0,65,34,421636,0
421673,161,-2074,212,-103,27,105,6766,-2,0,-346,-120,35143,-4,35,127,0,0,2274,-43,0,2263,155,192,35777,-4,0,65,34,421652,0
421683,150,-2070,209,-97,39,100,6765,7,1,-362,-88,35138,-6,35,127,0,0,2274,-32,0,2263,155,192,35787,-4,0,65,34,421683,0
421693,135,-2066,208,-96,29,112,6766,7,5,-376,-80,35137,7,35,127,0,0,2271,-43,0,2263,155,192,35797,-4,0,65,34,421699,0
421703,162,-2063,211,-91,35,105,6762,-7,0,-428,-120,35134,4,35,127,0,0,2276,32,0,2263,155,192,35807,-4,0,65,34,421699,0
421713,183,-2079,208,-87,36,113,6763,6,4,-351,-112,35140,4,35,127,0,0,2274,0,0,2263,155,192,35817,-4,0,65,34,421699,0
421723,165,-2071,207,-89,43,111,6763,-7,7,-347,-144,35133,-15,35,127,0,0,2276,-10,0,2263,155,192,35827,-4,0,65,34,421699,0
421733,170,-2085,204,-87,35,119,6763,4,-3,-350,-144,35130,7,35,127,0,0,2271,-32,0,2263,155,192,35837,-4,0,65,34,421699,0
421743,151,-2082,216,-86,34,118,6763,4,3,-375,-136,35143,-1,35,127,0,0,2274,-10,0,2263,155,192,35847,-4,0,65,34,421699,0
421753,183,-2077,209,-88,36,111,6762,1,3,-353,-80,35155,-7,35,127,0,0,2271,-21,0,2263,155,192,35857,-4,0,65,34,421746,0
421763,163,-2070,221,-82,39,108,6762,5,3,-396,-104,35166,-16,35,127,0,0,2274,-32,0,2263,155,192,35867,-4,0,65,34,421746,0
421773,153,-2080,210,-92,39,120,6763,3,-1,-378,-144,35157,-13,35,127,0,0,2274,0,0,2263,155,192,35877,-4,0,65,34,421746,0
421783,158,-2079,207,-90,39,119,6762,-7,0,-352,-104,35148,4,35,127,0,0,2276,-10,0,2263,155,192,35887,-4,0,65,34,421746,0
421793,163,-2086,209,-84,36,126,6764,12,4,-366,-104,35142,4,35,127,0,0,2274,-21,0,2263,155,192,35897,-4,0,65,34,421792,0
421803,156,-2084,212,-86,41,123,6763,8,-5,-395,-136,35145,13,35,127,0,0,2274,0,0,2263,155,192,35907,-4,0,65,34,421808,0
421813,161,-2076,212,-84,37,118,6762,-1,3,-390,-104,35145,15,35,127,0,0,2276,21,0,2263,155,192,35917,-4,0,65,34,421808,0
421823,157,-2076,211,-80,35,115,6762,-5,4,-373,-72,35138,17,35,127,0,0,2274,0,0,2263,155,192,35927,-4,0,65,34,421808,0
421833,133,-2072,216,-86,41,117,6763,0,3,-375,-104,35138,7,35,127,0,0,2274,-10,0,2263,155,192,35937,-4,0,65,34,421808,0
421843,156,-2072,218,-83,36,116,6763,5,-1,-360,-104,35138,5,35,127,0,0,2274,-21,0,2263,155,192,35947,-4,0,65,34,421808,0
421853,161,-2072,210,-85,38,121,6761,-8,-4,-391,-40,35150,10,35,127,0,0,2276,21,0,2263,155,192,35957,-4,0,65,34,421808,0
421863,172,-2067,215,-79,35,114,6762,-3,-1,-377,-72,35161,7,35,127,0,0,2274,0,0,2263,155,192,35967,-4,0,65,34,421839,0
421873,144,-2075,225,-88,34,114,6764,7,-3,-373,-120,35171,-2,35,127,0,0,2274,-10,0,2263,155,192,35977,-4,0,65,34,421839,0
421883,139,-2070,233,-89,36,113,6763,3,-1,-374,-112,35169,-14,35,127,0,0,2271,-32,0,2263,155,192,35987,-4,0,65,34,421839,0
421893,149,-2070,217,-92,34,119,6760,-5,-5,-431,-56,35163,9,35,127,0,0,2274,32,0,2263,155,192,35997,-4,0,65,34,421855,0
421904,166,-2070,217,-90,36,110,6762,-3,0,-381,-104,35158,14,35,127,0,0,2274,-5,0,2263,155,192,36008,-4,0,65,34,421870,0
421914,144,-2059,213,-87,43,121,6762,2,6,-352,-80,35165,6,35,127,0,0,2276,-10,0,2263,155,192,36018,-4,0,65,34,421902,0
421924,160,-2072,216,-91,38,128,6762,3,-1,-339,-104,35169,-27,35,127,0,0,2277,-5,0,2263,155,192,36028,-4,0,65,34,421902,0
421934,180,-2075,199,-84,28,134,6762,3,-1,-354,-80,35156,-25,35,127,0,0,2276,32,0,2263,155,192,36038,-4,0,65,34,421902,0
421944,161,-2077,205,-83,29,133,6764,-3,-3,-321,-88,35152,-18,35,127,0,0,2276,-16,0,2263,155,192,36048,-4,0,65,34,421917,0
421954,149,-2079,211,-82,38,132,6764,7,-1,-286,-64,35150,11,35,127,0,0,2278,0,0,2263,155,192,36058,-4,0,65,34,421917,0
421964,153,-2071,225,-82,39,126,6762,-4,-1,-302,-80,35167,16,35,127,0,0,2276,-16,0,2263,155,192,36068,-4,0,65,34,421949,0
421974,150,-2069,208,-74,34,129,6765,10,-1,-262,-48,35176,6,35,127,0,0,2277,-21,0,2263,155,192,36078,-4,0,65,34,421949,0
421984,146,-2065,211,-73,39,132,6764,4,3,-261,-64,35170,4,35,127,0,0,2278,0,0,2263,155,192,36088,-4,0,65,34,421949,0
421994,145,-2073,218,-70,46,141,6763,-5,-6,-266,-64,35161,8,35,127,0,0,2281,27,0,2263,155,192,36098,-4,0,65,34,421980,0
422004,172,-2073,223,-75,31,151,6763,-8,2,-237,-48,35161,7,35,127,0,0,2277,10,0,2263,155,192,36108,-4,0,65,34,421980,0
422014,151,-2071,214,-71,37,152,6766,2,-1,-177,-32,35161,2,35,127,0,0,2282,-5,0,2263,155,192,36118,-4,0,65,34,421980,0
422024,163,-2076,211,-72,34,154,6765,-14,2,-153,-8,35157,8,35,127,0,0,2285,38,0,2263,155,192,36128,-4,0,65,34,421980,0
422034,178,-2092,216,-71,30,154,6768,-3,-4,-105,0,35153,6,35,127,0,0,2287,76,0,2263,155,192,36138,-4,0,65,34,422042,0
422044,160,-2087,212,-68,23,152,6773,4,2,4,16,35165,5,35,127,0,0,2289,43,0,2263,155,192,36148,-4,0,65,34,422058,0
422054,170,-2067,218,-64,30,145,6772,-12,-4,14,16,35166,-4,35,127,0,0,2289,54,0,2263,155,192,36158,-4,0,65,34,422074,0
422064,155,-2079,212,-68,26,142,6775,-1,-4,55,32,35152,8,35,127,0,0,2291,38,0,2263,155,192,36168,-4,0,65,34,422074,0
422074,155,-2071,209,-63,31,138,6776,3,6,104,24,35136,8,35,127,0,0,2288,-5,0,2263,155,192,36178,-4,0,65,34,422074,0
422084,148,-2071,209,-65,33,132,6776,3,-5,87,24,35137,5,35,127,0,0,2291,5,0,2263,155,192,36188,-4,0,65,34,422074,0
422094,144,-2069,216,-60,30,130,6775,-3,0,108,32,35148,5,35,127,0,0,2298,65,0,2263,155,192,36198,-4,0,65,34,422074,0
422104,145,-2073,208,-58,42,129,6780,14,12,205,56,35149,17,35,127,0,0,2292,10,0,2263,155,192,36208,-4,0,65,34,422074,0
422114,157,-2077,211,-56,38,130,6779,0,0,159,56,35155,9,35,127,0,0,2296,38,0,2263,155,192,36218,-4,0,65,34,422074,0
422124,160,-2076,208,-57,35,133,6781,-5,-6,185,56,35157,14,35,127,0,0,2296,21,0,2263,155,192,36228,-4,0,65,34,422089,0
422134,169,-2069,218,-51,33,133,6781,0,0,217,32,35173,9,35,127,0,0,2293,-16,0,2263,155,192,36238,-4,0,65,34,422120,0
422144,155,-2066,217,-53,29,126,6783,8,-3,203,80,35174,6,35,127,0,0,2295,-5,0,2263,155,192,36248,-4,0,65,34,422120,0
422154,139,-2060,222,-56,31,125,6781,-8,-1,228,96,35168,20,35,127,0,0,2297,38,0,2263,155,192,36258,-4,0,65,34,422120,0
422164,142,-2074,220,-54,38,118,6785,0,3,285,48,35153,24,35,127,0,0,2299,-21,0,2263,155,192,36268,-4,0,65,34,422136,0
422175,119,-2082,226,-57,37,111,6785,1,-2,273,32,35158,25,35,127,0,0,2300,32,0,2263,155,192,36279,-4,0,65,34,422152,0
422185,155,-2092,227,-69,34,100,6785,-1,-5,269,72,35164,16,35,127,0,0,2298,21,0,2263,155,192,36289,-4,0,65,34,422167,0
422195,164,-2094,216,-70,29,91,6784,-8,4,258,104,35160,8,35,127,0,0,2300,32,0,2263,155,192,36299,-4,0,65,34,422167,0
422205,142,-2078,224,-68,34,92,6786,1,4,287,96,35152,10,35,127,0,0,2296,-43,0,2263,155,192,36309,-4,0,65,34,422167,0
422215,155,-2078,217,-68,39,83,6786,3,-5,251,64,35149,13,35,127,0,0,2298,0,0,2263,155,192,36319,-4,0,65,34,422183,0
422225,148,-2075,212,-66,32,94,6786,7,-3,250,40,35152,13,35,127,0,0,2298,10,0,2263,155,192,36329,-4,0,65,34,422199,0
422235,151,-2074,215,-64,29,96,6785,-6,2,242,72,35147,13,35,127,0,0,2296,10,0,2263,155,192,36339,-4,0,65,34,422199,0
422245,156,-2067,212,-63,39,89,6786,1,3,220,72,35142,16,35,127,0,0,2293,-10,0,2263,155,192,36349,-4,0,65,34,422199,0
422255,186,-2064,213,-60,41,87,6785,-1,-4,213,40,35146,16,35,127,0,0,2296,10,0,2263,155,192,36359,-4,0,65,34,422230,0
422265,155,-2065,224,-61,42,85,6785,-8,-5,226,48,35153,5,35,127,0,0,2293,-32,0,2263,155,192,36369,-4,0,65,34,422230,0
422275,155,-2063,222,-59,44,94,6785,6,-3,173,16,35151,6,35,127,0,0,2293,-32,0,2263,155,192,36379,-4,0,65,34,422230,0
422285,154,-2062,226,-61,46,98,6783,-1,-2,119,32,35161,1,35,127,0,0,2293,21,0,2263,155,192,36389,-4,0,65,34,422261,0
422295,161,-2067,227,-63,41,102,6781,-18,2,92,8,35149,31,35,127,0,0,2293,21,0,2263,155,192,36399,-4,0,65,34,422277,0
422305,160,-2073,229,-66,42,103,6782,-6,2,76,16,35150,19,35,127,0,0,2291,0,0,2263,155,192,36409,-4,0,65,34,422277,0
422315,155,-2072,224,-65,43,109,6782,0,4,56,16,35140,24,35,127,0,0,2291,0,0,2263,155,192,36419,-4,0,65,34,422277,0
422325,157,-2076,222,-71,47,98,6784,8,-1,92,8,35154,16,35,127,0,0,2291,-10,0,2263,155,192,36429,-4,0,65,34,422292,0
422335,154,-2077,219,-73,43,102,6782,1,1,60,16,35165,4,35,127,0,0,2289,-10,0,2263,155,192,36439,-4,0,65,34,422324,0
422345,159,-2071,223,-69,48,104,6782,-5,4,51,-16,35168,-4,35,127,0,0,2289,-32,0,2263,155,192,36449,-4,0,65,34,422324,0
422355,170,-2071,233,-73,50,110,6782,1,-2,5,0,35157,0,35,127,0,0,2289,0,0,2263,155,192,36459,-4,0,65,34,422324,0
422365,154,-2065,236,-79,40,119,6782,0,2,3,-32,35142,15,35,127,0,0,2289,0,0,2263,155,192,36469,-4,0,65,34,422324,0
422375,152,-2059,232,-81,41,114,6781,-1,5,31,-16,35139,29,35,127,0,0,2287,-32,0,2263,155,192,36479,-4,0,65,34,422355,0
422385,135,-2056,225,-84,44,103,6781,-2,2,5,-40,35142,24,35,127,0,0,2289,0,0,2263,155,192,36489,-4,0,65,34,422355,0
422395,123,-2063,229,-88,48,99,6780,-7,-2,-42,-8,35151,6,35,127,0,0,2282,-54,0,2263,155,192,36499,-4,0,65,34,422370,0
422406,126,-2089,232,-87,54,95,6777,0,-3,-134,-16,35146,15,35,127,0,0,2284,-32,0,2263,155,192,36510,-4,0,65,34,422370,0
422416,146,-2100,227,-90,55,95,6779,4,4,-117,-32,35158,11,35,127,0,0,2288,16,0,2263,155,192,36520,-4,0,65,34,422464,0
422426,150,-2106,225,-94,54,94,6777,-1,2,-97,-32,35157,15,35,127,0,0,2285,5,0,2263,155,192,36530,-4,0,65,34,422480,0
422436,157,-2095,234,-99,58,84,6778,6,3,-115,-40,35156,-1,35,127,0,0,2288,5,0,2263,155,192,36540,-4,0,65,34,422482,0
422446,164,-2111,243,-118,58,87,6777,-5,1,-120,-32,35147,-4,35,127,0,0,2285,10,0,2263,155,192,36550,-4,0,65,34,422484,0
422456,159,-2100,260,-130,60,77,6775,-11,-4,-142,-48,35140,10,35,127,0,0,2286,-5,0,2263,155,192,36560,-4,0,65,34,422487,0
422466,163,-2057,278,-164,61,68,6775,-8,1,-183,-72,35132,24,35,127,0,0,2284,5,0,2263,155,192,36570,-4,0,65,34,422492,0
422476,161,-2045,282,-175,67,75,6773,-2,-7,-225,-64,35136,15,35,127,0,0,2280,-5,0,2263,155,192,36580,-4,0,65,34,422492,0
422486,204,-2020,275,-211,43,103,6772,-8,-1,-257,-80,35135,28,35,127,0,0,2281,-16,0,2263,155,192,36590,-4,0,65,34,422492,0
422496,209,-2032,273,-235,41,118,6771,7,-3,-251,-64,35130,24,35,127,0,0,2280,5,0,2263,155,192,36600,-4,0,65,34,422492,0
422506,220,-2051,246,-252,32,157,6773,10,7,-229,-64,35131,24,35,127,0,0,2280,0,0,2263,155,192,36610,-4,0,65,34,422492,0
422516,232,-2042,230,-257,26,186,6771,-1,3,-271,-64,35133,10,35,127,0,0,2280,32,0,2263,155,192,36620,-4,0,65,34,422493,0
422526,260,-2067,212,-270,23,235,6771,-15,0,-223,-64,35148,5,35,127,0,0,2280,-16,0,2263,155,192,36630,-4,0,65,34,422493,0
422536,256,-2104,179,-249,23,289,6771,-1,-5,-188,-24,35164,1,35,127,0,0,2285,49,0,2263,155,192,36640,-4,0,65,34,422493,0
422546,329,-2069,159,-219,0,388,6773,-4,-1,-70,16,35172,4,35,127,0,0,2292,98,0,2263,155,192,36650,-4,0,65,34,422524,0
422556,249,-2081,119,-202,-38,444,6781,8,7,123,72,35174,6,35,127,0,0,2298,93,0,2263,155,192,36660,-4,0,65,34,422524,0
422566,156,-2090,97,-149,-21,482,6789,22,4,350,160,35158,-2,35,127,0,0,2309,98,0,2263,155,192,36670,-4,0,65,34,422540,0
422576,131,-2093,87,-110,3,478,6809,56,30,477,192,35145,2,35,127,0,0,2321,82,0,2263,155,192,36680,-4,0,65,34,422540,0
422586,118,-2099,98,-63,23,482,6862,144,89,403,168,35143,14,35,127,0,0,2330,27,0,2263,155,192,36690,-4,0,65,34,422571,0
422596,118,-2089,117,-35,34,471,6933,173,101,256,120,35151,2,35,127,0,0,2344,98,0,2263,155,192,36700,-4,0,65,34,422571,0
422606,133,-2095,139,1,28,484,6998,133,20,195,112,35156,-11,35,127,0,0,2354,109,0,2263,155,192,36710,-4,0,65,34,422571,0
422616,129,-2077,167,14,38,470,7040,100,-62,234,104,35145,3,35,127,0,0,2363,87,0,2263,155,192,36720,-4,0,65,34,422571,0
422626,151,-2067,211,26,32,481,7081,77,-42,243,120,35148,36,35,127,0,0,2374,104,0,2263,155,192,36730,-4,0,65,34,422618,0
422636,106,-2094,199,28,13,498,7132,113,17,239,136,35153,35,35,127,0,0,2384,115,0,2263,155,192,36740,-4,0,65,34,422618,0
422646,73,-2094,181,46,19,500,7186,125,24,205,128,35157,5,35,127,0,0,2398,148,0,2263,155,192,36750,-4,0,65,34,422618,0
422656,86,-2056,191,74,45,466,7226,89,-17,337,128,35149,7,35,127,0,0,2410,104,0,2263,155,192,36760,-4,0,65,34,422618,0
422667,103,-2058,170,92,54,458,7268,56,-30,377,160,35141,21,35,127,0,0,2419,98,0,2263,155,192,36771,-4,0,65,34,422634,0
422677,62,-2083,177,105,66,434,7304,101,-13,396,192,35151,41,35,127,0,0,2427,76,0,2263,155,192,36781,-4,0,65,34,422649,0
422687,106,-2068,204,115,61,417,7349,89,25,340,160,35151,34,35,127,0,0,2443,164,0,2263,155,192,36791,-4,0,65,34,422649,0
422697,82,-2075,218,109,52,412,7405,110,33,350,176,35151,11,35,127,0,0,2447,87,0,2263,155,192,36801,-4,0,65,34,422680,0
422707,30,-2100,228,116,55,394,7450,87,-10,323,144,35149,-12,35,127,0,0,2456,120,0,2263,155,192,36811,-4,0,65,34,422680,0
422717,9,-2087,247,111,61,353,7477,61,-63,433,184,35144,-10,35,127,0,0,2465,87,0,2263,155,192,36821,-4,0,65,34,422680,0
422727,10,-2075,249,96,63,335,7528,122,12,314,120,35152,-14,35,127,0,0,2471,65,0,2263,155,192,36831,-4,0,65,34,422696,0
422737,7,-2088,265,81,51,292,7580,103,60,221,80,35162,-15,35,127,0,0,2478,76,0,2263,155,192,36841,-4,0,65,34,422727,0
422747,25,-2052,278,69,62,240,7581,-23,-86,380,128,35155,-5,35,127,0,0,2482,65,0,2263,155,192,36851,-4,0,65,34,422727,0
422757,9,-2084,245,45,65,199,7587,17,-91,501,144,35149,0,35,127,0,0,2485,21,0,2263,155,192,36861,-4,0,65,34,422727,0
422767,37,-2060,257,34,70,165,7590,17,4,548,144,35140,3,35,127,0,0,2485,10,0,2263,155,192,36871,-4,0,65,34,422727,0
422777,35,-2077,269,17,57,139,7594,14,-8,593,144,35153,3,35,127,0,0,2482,-54,0,2263,155,192,36881,-4,0,65,34,422821,0
422787,64,-2060,273,2,53,120,7601,12,7,526,160,35159,0,35,127,0,0,2487,-10,0,2263,155,192,36891,-4,0,65,34,422821,0
422797,61,-2068,274,-13,55,111,7610,16,6,437,152,35152,3,35,127,0,0,2487,21,0,2263,155,192,36901,-4,0,65,34,422821,0
422807,72,-2080,267,-26,47,105,7620,20,12,371,104,35143,2,35,127,0,0,2487,32,0,2263,155,192,36911,-4,0,65,34,422837,0
422817,110,-2069,268,-41,48,107,7629,10,-6,353,72,35141,5,35,127,0,0,2485,0,0,2263,155,192,36921,-4,0,65,34,422837,0
422827,91,-2076,256,-47,40,114,7629,-3,-22,346,72,35141,9,35,127,0,0,2487,21,0,2263,155,192,36931,-4,0,65,34,422837,0
422837,88,-2075,247,-53,40,112,7629,-4,-16,349,112,35134,10,35,127,0,0,2487,21,0,2263,155,192,36941,-4,0,65,34,422837,0
422847,92,-2082,236,-62,38,111,7630,0,3,339,112,35133,15,35,127,0,0,2485,-10,0,2263,155,192,36951,-4,0,65,34,422837,0
422857,87,-2074,236,-67,37,112,7631,0,2,331,112,35133,0,35,127,0,0,2487,21,0,2263,155,192,36961,-4,0,65,34,422837,0
422867,84,-2075,235,-66,36,113,7631,4,1,374,96,35140,-18,35,127,0,0,2485,-32,0,2263,155,192,36971,-4,0,65,34,422837,0
422877,74,-2077,239,-71,41,114,7631,2,-3,323,112,35139,-17,35,127,0,0,2487,32,0,2263,155,192,36981,-4,0,65,34,422837,0
422887,79,-2075,241,-63,42,115,7631,-4,3,356,40,35143,-2,35,127,0,0,2485,-10,0,2263,155,192,36991,-4,0,65,34,422868,0
422897,84,-2079,250,-73,42,113,7631,2,-2,304,80,35152,1,35,127,0,0,2485,10,0,2263,155,192,37001,-4,0,65,34,422868,0
422907,64,-2083,259,-77,46,109,7631,2,5,295,88,35154,-26,35,127,0,0,2485,0,0,2263,155,192,37011,-4,0,65,34,422884,0
422917,90,-2069,251,-83,38,111,7630,-1,0,249,64,35155,-20,35,127,0,0,2482,21,0,2263,155,192,37021,-4,0,65,34,422884,0
422928,86,-2073,247,-88,37,107,7630,0,1,264,80,35161,-22,35,127,0,0,2481,0,0,2263,155,192,37032,-4,0,65,34,422915,0
422938,62,-2073,243,-97,35,96,7631,0,2,275,56,35166,-13,35,127,0,0,2482,-38,0,2263,155,192,37042,-4,0,65,34,422915,0
422948,62,-2069,238,-93,47,89,7629,-5,-2,234,64,35166,-28,35,127,0,0,2479,-16,0,2263,155,192,37052,-4,0,65,34,422915,0
422958,93,-2066,240,-90,44,84,7629,0,-1,201,40,35155,-30,35,127,0,0,2480,5,0,2263,155,192,37062,-4,0,65,34,422915,0
422968,80,-2078,247,-95,36,88,7630,0,5,175,0,35153,-13,35,127,0,0,2479,-21,0,2263,155,192,37072,-4,0,65,34,422946,0
422978,66,-2091,235,-92,44,102,7627,0,-4,153,24,35159,-18,35,127,0,0,2478,-27,0,2263,155,192,37082,-4,0,65,34,422946,0
422988,97,-2079,233,-93,48,102,7624,-9,4,105,8,35161,-17,35,127,0,0,2479,10,0,2263,155,192,37092,-4,0,65,34,422946,0
422998,102,-2091,223,-86,43,120,7627,2,3,138,8,35156,-22,35,127,0,0,2476,-38,0,2263,155,192,37102,-4,0,65,34,422962,0
423008,98,-2065,222,-81,38,123,7627,0,-7,77,8,35152,-15,35,127,0,0,2476,-10,0,2263,155,192,37112,-4,0,65,34,422977,0
423018,91,-2086,213,-73,42,135,7624,-2,4,55,8,35146,-15,35,127,0,0,2476,0,0,2263,155,192,37122,-4,0,65,34,422977,0
423028,77,-2081,223,-74,43,136,7626,2,7,83,8,35156,-17,35,127,0,0,2476,-27,0,2263,155,192,37132,-4,0,65,34,423008,0
423038,70,-2080,235,-67,46,138,7624,12,1,50,32,35173,-31,35,127,0,0,2475,5,0,2263,155,192,37142,-4,0,65,34,423008,0
423048,87,-2084,242,-66,43,138,7623,-10,-7,42,16,35173,-17,35,127,0,0,2479,71,0,2263,155,192,37152,-4,0,65,34,423008,0
423058,70,-2070,264,-68,48,124,7624,-4,1,102,32,35169,-16,35,127,0,0,2475,10,0,2263,155,192,37162,-4,0,65,34,423024,0
423068,98,-2073,262,-77,40,115,7625,5,3,118,8,35163,-1,35,127,0,0,2479,-10,0,2263,155,192,37172,-4,0,65,34,423087,0
423078,69,-2089,254,-85,38,120,7625,-5,-6,137,32,35173,-16,35,127,0,0,2475,-5,0,2263,155,192,37182,-4,0,65,34,423087,0
423088,101,-2077,253,-92,32,110,7624,-1,3,102,32,35178,-32,35,127,0,0,2475,10,0,2263,155,192,37192,-4,0,65,34,423087,0
423098,57,-2061,250,-93,34,107,7625,-3,3,129,32,35178,-34,35,127,0,0,2475,-43,0,2263,155,192,37202,-4,0,65,34,423087,0
423108,84,-2062,237,-93,33,111,7623,-6,-1,83,-8,35181,-38,35,127,0,0,2477,-10,0,2263,155,192,37212,-4,0,65,34,423087,0
423118,53,-2067,232,-88,32,111,7625,9,-4,85,8,35178,-36,35,127,0,0,2476,-27,0,2263,155,192,37222,-4,0,65,34,423087,0
423128,63,-2066,226,-83,36,110,7624,-2,4,70,8,35179,-34,35,127,0,0,2476,-5,0,2263,155,192,37232,-4,0,65,34,423102,0
423138,45,-2078,233,-82,36,110,7625,12,6,73,8,35184,-29,35,127,0,0,2476,-27,0,2263,155,192,37242,-4,0,65,34,423102,0
423148,61,-2081,234,-76,41,100,7625,4,-2,50,16,35198,-33,35,127,0,0,2476,0,0,2263,155,192,37252,-4,0,65,34,423180,0
423158,76,-2081,243,-83,34,88,7623,-3,-1,35,-8,35206,-48,35,127,0,0,2474,-5,0,2263,155,192,37262,-4,0,65,34,423180,0
423168,77,-2081,242,-82,37,82,7624,4,-3,4,-24,35200,-59,35,127,0,0,2475,-16,0,2263,155,192,37272,-4,0,65,34,423196,0
423178,69,-2075,243,-81,45,80,7620,-2,-8,-9,-16,35182,-58,35,127,0,0,2471,-5,0,2263,155,192,37282,-4,0,65,34,423196,0
423188,71,-2079,245,-83,43,74,7619,1,3,-34,-16,35174,-46,35,127,0,0,2471,0,0,2263,155,192,37292,-4,0,65,34,423196,0
423198,83,-2078,228,-78,42,79,7618,1,8,-86,-16,35171,-33,35,127,0,0,2468,-10,0,2263,155,192,37302,-4,0,65,34,423196,0
423208,89,-2075,231,-78,47,74,7613,-1,-12,-82,-32,35175,-47,35,127,0,0,2469,-38,0,2263,155,192,37312,-4,0,65,34,423196,0
423218,77,-2078,238,-78,39,81,7606,-20,-15,-123,-56,35173,-37,35,127,0,0,2465,-49,0,2263,155,192,37322,-4,0,65,34,423196,0
423229,62,-2071,230,-77,38,69,7579,-52,-36,15,-8,35171,-20,35,127,0,0,2465,0,0,2263,155,192,37333,-4,0,65,34,423196,0
423239,66,-2074,231,-81,36,72,7577,3,15,-7,-32,35178,-16,35,127,0,0,2465,10,0,2263,155,192,37343,-4,0,65,34,423196,0
423249,73,-2071,239,-82,39,64,7577,-1,48,-10,-16,35180,-13,35,127,0,0,2460,-54,0,2263,155,192,37353,-4,0,65,34,423227,0
423259,77,-2062,247,-86,43,55,7573,-14,-13,-129,-56,35196,-16,35,127,0,0,2458,-32,0,2263,155,192,37363,-4,0,65,34,423227,0
423269,77,-2071,246,-86,48,50,7569,6,3,-165,-48,35185,-5,35,127,0,0,2458,0,0,2263,155,192,37373,-4,0,65,34,423227,0
423279,92,-2073,251,-86,51,57,7569,-1,6,-185,-40,35190,-17,35,127,0,0,2456,-10,0,2263,155,192,37383,-4,0,65,34,423243,0
423289,88,-2074,255,-90,35,55,7568,-4,-4,-204,-72,35183,-29,35,127,0,0,2456,-10,0,2263,155,192,37393,-4,0,65,34,423274,0
423299,83,-2072,262,-95,37,56,7567,-8,1,-227,-96,35186,-34,35,127,0,0,2452,-43,0,2263,155,192,37403,-4,0,65,34,423274,0
423309,87,-2078,237,-99,38,53,7561,-18,-10,-312,-88,35180,-23,35,127,0,0,2452,0,0,2263,155,192,37413,-4,0,65,34,423274,0
423319,94,-2073,234,-98,39,59,7558,0,-1,-334,-88,35175,-26,35,127,0,0,2449,-32,0,2263,155,192,37423,-4,0,65,34,423290,0
423329,98,-2067,235,-94,39,68,7556,-11,5,-399,-88,35186,-24,35,127,0,0,2449,10,0,2263,155,192,37433,-4,0,65,34,423290,0
423339,99,-2074,228,-91,31,66,7555,-2,-5,-367,-96,35189,-22,35,127,0,0,2445,-54,0,2263,155,192,37443,-4,0,65,34,423305,0
423349,92,-2074,235,-85,40,77,7552,-3,1,-410,-144,35189,-29,35,127,0,0,2445,-43,0,2263,155,192,37453,-4,0,65,34,423321,0
423359,115,-2076,229,-83,39,83,7549,-7,-2,-396,-104,35177,-33,35,127,0,0,2447,-10,0,2263,155,192,37463,-4,0,65,34,423368,0
423369,100,-2077,226,-81,34,92,7548,-3,12,-444,-112,35173,-23,35,127,0,0,2443,-21,0,2263,155,192,37473,-4,0,65,34,423368,0
423379,107,-2076,227,-79,34,90,7538,-21,-8,-441,-96,35180,-25,35,127,0,0,2445,10,0,2263,155,192,37483,-4,0,65,34,423368,0
423389,99,-2074,230,-75,36,97,7530,-14,-11,-347,-80,35184,-14,35,127,0,0,2441,-43,0,2263,155,192,37493,-4,0,65,34,423368,0
423399,107,-2077,235,-76,39,105,7515,-38,-11,-330,-112,35184,-15,35,127,0,0,2441,-32,0,2263,155,192,37503,-4,0,65,34,423368,0
423409,91,-2078,232,-68,47,111,7508,8,-3,-230,-96,35178,-3,35,127,0,0,2441,-54,0,2263,155,192,37513,-4,0,65,34,423383,0
423420,95,-2070,245,-68,35,113,7508,5,39,-318,-64,35183,-6,35,127,0,0,2443,54,0,2263,155,192,37524,-4,0,65,34,423383,0
423430,109,-2081,238,-70,41,120,7507,-6,11,-261,-80,35186,-15,35,127,0,0,2441,-16,0,2263,155,192,37534,-4,0,65,34,423399,0
423440,86,-2082,225,-64,38,119,7508,12,1,-267,-88,35182,-19,35,127,0,0,2441,-43,0,2263,155,192,37544,-4,0,65,34,423399,0
423450,90,-2077,226,-56,35,122,7506,-1,1,-303,-80,35183,-9,35,127,0,0,2444,32,0,2263,155,192,37554,-4,0,65,34,423430,0
423460,93,-2076,227,-64,40,117,7508,3,6,-244,-88,35169,-1,35,127,0,0,2441,-32,0,2263,155,192,37564,-4,0,65,34,423430,0
423470,99,-2080,223,-56,43,126,7507,1,6,-301,-64,35172,-1,35,127,0,0,2440,5,0,2263,155,192,37574,-4,0,65,34,423430,0
423480,113,-2072,227,-54,44,124,7507,5,-1,-268,-64,35164,-12,35,127,0,0,2440,-27,0,2263,155,192,37584,-4,0,65,34,423446,0
423490,82,-2070,232,-47,44,129,7506,-6,3,-303,-64,35165,-21,35,127,0,0,2443,38,0,2263,155,192,37594,-4,0,65,34,423462,0
423500,109,-2078,232,-39,46,133,7506,-6,-4,-250,-64,35166,-33,35,127,0,0,2443,27,0,2263,155,192,37604,-4,0,65,34,423477,0
423510,82,-2067,246,-30,53,131,7506,-3,-2,-240,-64,35177,-39,35,127,0,0,2443,16,0,2263,155,192,37614,-4,0,65,34,423477,0
423520,100,-2074,247,-39,50,133,7506,-4,-7,-242,-64,35172,-23,35,127,0,0,2443,16,0,2263,155,192,37624,-4,0,65,34,423555,0
423530,98,-2068,243,-36,48,130,7507,-3,0,-261,-40,35181,-19,35,127,0,0,2445,60,0,2263,155,192,37634,-4,0,65,34,423571,0
423540,75,-2086,240,-43,46,132,7508,1,2,-206,-48,35163,-15,35,127,0,0,2445,16,0,2263,155,192,37644,-4,0,65,34,423571,0
423550,86,-2064,241,-45,52,124,7507,-4,-4,-190,-64,35167,-36,35,127,0,0,2446,0,0,2263,155,192,37654,-4,0,65,34,423571,0
423560,68,-2067,255,-48,47,124,7508,-1,-6,-205,-48,35164,-25,35,127,0,0,2445,49,0,2263,155,192,37664,-4,0,65,34,423571,0
423570,87,-2082,257,-49,41,119,7509,3,2,-167,-48,35160,-14,35,127,0,0,2445,-21,0,2263,155,192,37674,-4,0,65,34,423571,0
423580,72,-2086,252,-51,40,119,7508,0,2,-201,-88,35155,-7,35,127,0,0,2444,-21,0,2263,155,192,37684,-4,0,65,34,423571,0
423590,82,-2082,250,-54,48,115,7508,0,-1,-212,-64,35152,-11,35,127,0,0,2446,5,0,2263,155,192,37694,-4,0,65,34,423571,0
423600,80,-2080,242,-57,39,115,7507,-2,-2,-206,-40,35155,-12,35,127,0,0,2445,32,0,2263,155,192,37704,-4,0,65,34,423571,0
423610,102,-2071,253,-61,37,107,7509,-1,5,-191,-64,35151,-2,35,127,0,0,2443,-32,0,2263,155,192,37714,-4,0,65,34,423571,0
423620,83,-2080,244,-64,45,113,7508,11,-1,-207,-64,35151,11,35,127,0,0,2443,-16,0,2263,155,192,37724,-4,0,65,34,423586,0
423630,82,-2087,252,-62,40,111,7508,4,0,-196,-64,35154,15,35,127,0,0,2443,-21,0,2263,155,192,37734,-4,0,65,34,423602,0
423640,92,-2071,250,-59,39,109,7509,12,1,-194,-48,35163,15,35,127,0,0,2438,-76,0,2263,155,192,37744,-4,0,65,34,423602,0
423650,83,-2080,240,-64,35,106,7505,-13,-3,-266,-56,35164,15,35,127,0,0,2440,-16,0,2263,155,192,37754,-4,0,65,34,423618,0
423661,68,-2082,248,-65,37,119,7508,8,5,-213,-104,35163,-5,35,127,0,0,2443,-32,0,2263,155,192,37765,-4,0,65,34,423649,0
423671,70,-2074,250,-65,36,113,7507,3,6,-221,-64,35173,-32,35,127,0,0,2443,-10,0,2263,155,192,37775,-4,0,65,34,423649,0
423681,92,-2075,243,-64,42,115,7507,6,1,-236,-96,35172,-37,35,127,0,0,2445,21,0,2263,155,192,37785,-4,0,65,34,423649,0
423691,81,-2072,240,-66,39,119,7508,5,8,-188,-48,35172,-42,35,127,0,0,2443,-10,0,2263,155,192,37795,-4,0,65,34,423649,0
423701,82,-2079,252,-63,37,117,7507,4,-1,-225,-64,35173,-30,35,127,0,0,2445,32,0,2263,155,192,37805,-4,0,65,34,423680,0
423711,92,-2082,251,-66,33,117,7508,-2,3,-192,-64,35188,-36,35,127,0,0,2443,-10,0,2263,155,192,37815,-4,0,65,34,423711,0
423721,107,-2074,258,-71,40,122,7508,-3,0,-214,-32,35187,-33,35,127,0,0,2445,21,0,2263,155,192,37825,-4,0,65,34,423711,0
423731,113,-2080,250,-65,49,126,7507,0,-2,-196,-32,35174,-29,35,127,0,0,2443,-10,0,2263,155,192,37835,-4,0,65,34,423711,0
423741,100,-2069,242,-61,51,130,7508,2,2,-194,-72,35154,-12,35,127,0,0,2445,0,0,2263,155,192,37845,-4,0,65,34,423711,0
423751,83,-2081,242,-56,47,148,7508,4,-2,-176,-48,35157,-17,35,127,0,0,2445,21,0,2263,155,192,37855,-4,0,65,34,423727,0
423761,82,-2067,240,-52,50,145,7509,12,5,-150,-48,35162,-19,35,127,0,0,2447,10,0,2263,155,192,37865,-4,0,65,34,423727,0
423771,79,-2070,250,-60,40,155,7508,-5,0,-144,-48,35170,-14,35,127,0,0,2447,21,0,2263,155,192,37875,-4,0,65,34,423758,0
423781,80,-2075,258,-64,40,157,7511,14,1,-93,0,35174,-10,35,127,0,0,2445,-21,0,2263,155,192,37885,-4,0,65,34,423758,0
423791,85,-2072,256,-66,33,147,7509,-12,1,-118,-24,35164,-13,35,127,0,0,2447,0,0,2263,155,192,37895,-4,0,65,34,423758,0
423801,81,-2076,256,-70,38,144,7510,-7,-4,-110,-24,35164,-19,35,127,0,0,2447,10,0,2263,155,192,37905,-4,0,65,34,423758,0
423811,94,-2074,262,-69,34,141,7510,-6,10,-73,0,35174,-20,35,127,0,0,2452,32,0,2263,155,192,37915,-4,0,65,34,423790,0
423821,93,-2083,259,-71,37,138,7513,0,10,-9,-16,35170,-25,35,127,0,0,2449,0,0,2263,155,192,37925,-4,0,65,34,423790,0
423831,82,-2088,253,-74,35,130,7514,7,-1,16,8,35163,-22,35,127,0,0,2449,-21,0,2263,155,192,37935,-4,0,65,34,423790,0
423841,90,-2072,242,-61,37,133,7515,6,-2,18,32,35162,-30,35,127,0,0,2452,0,0,2263,155,192,37945,-4,0,65,34,423805,0
423851,106,-2074,241,-65,34,134,7518,7,3,69,-24,35176,-20,35,127,0,0,2452,-10,0,2263,155,192,37955,-4,0,65,34,423836,0
423861,86,-2065,241,-65,40,141,7517,-5,1,74,16,35183,-8,35,127,0,0,2454,0,0,2263,155,192,37965,-4,0,65,34,423836,0
423871,95,-2066,243,-65,38,137,7519,6,-6,86,16,35175,-14,35,127,0,0,2456,10,0,2263,155,192,37975,-4,0,65,34,423836,0
423881,77,-2074,241,-62,33,138,7522,21,5,155,32,35174,-27,35,127,0,0,2456,0,0,2263,155,192,37985,-4,0,65,34,423915,0
423891,89,-2097,243,-62,31,134,7524,-3,5,145,24,35186,-33,35,127,0,0,2456,0,0,2263,155,192,37995,-4,0,65,34,423930,0
423901,403,-2089,198,-75,31,-3,7524,3,-2,144,24,35179,-19,35,127,0,0,2456,10,0,2263,155,192,38005,-4,0,65,34,423930,0
423911,718,-2006,55,-128,37,-287,7527,5,4,174,8,35165,0,35,127,0,0,2456,-32,0,2263,155,192,38015,-4,0,65,34,423930,0
423921,76,-2093,314,-174,-37,-231,7523,-23,-5,-53,-88,35150,-5,35,127,0,0,2436,-197,0,2263,155,192,38025,-4,0,65,34,423930,0
423931,54,-2033,439,-121,-41,26,7491,-71,-71,-338,-112,35155,-16,35,127,0,0,2432,-32,0,2263,155,192,38035,-4,0,65,34,423946,0
423941,467,-1969,78,-145,26,-142,7483,-1,-6,-375,-120,35161,-6,35,127,0,0,2430,-43,0,2263,155,192,38045,-4,0,65,34,423946,0
423951,657,-1925,-46,-159,78,-408,7482,-5,64,-440,-200,35157,-9,35,127,0,0,2421,-120,0,2263,155,192,38055,-4,0,65,34,423946,0
423961,374,-1898,204,-185,9,-444,7451,-105,-43,-527,-272,35152,-13,35,127,0,0,2401,-186,0,2263,155,192,38065,-4,0,65,34,423946,0
423972,217,-1959,248,-172,-32,-318,7359,-204,-169,-371,-256,35167,-34,35,127,0,0,2387,-98,0,2263,155,192,38076,-4,0,65,34,423946,0
423982,470,-1991,55,-124,42,-424,7285,-156,-80,-343,-208,35179,-50,35,127,0,0,2376,-131,0,2263,155,192,38086,-4,0,65,34,423946,0
423992,567,-2012,84,-140,83,-562,7222,-140,41,-380,-240,35187,-20,35,127,0,0,2355,-203,0,2263,155,192,38096,-4,0,65,34,423977,0
424002,582,-1946,260,-187,35,-648,7168,-139,31,-522,-304,35175,-9,35,127,0,0,2329,-296,0,2263,155,192,38106,-4,0,65,34,423977,0
424012,444,-2053,247,-213,-34,-545,7103,-160,-5,-665,-392,35163,-16,35,127,0,0,2314,-197,0,2263,155,192,38116,-4,0,65,34,423977,0
424022,439,-2006,89,-136,-18,-451,7026,-180,-49,-589,-376,35159,-9,35,127,0,0,2299,-181,0,2263,155,192,38126,-4,0,65,34,423977,0
424032,568,-2000,45,-92,21,-398,6945,-181,-36,-489,-328,35168,-2,35,127,0,0,2289,-137,0,2263,155,192,38136,-4,0,65,34,424008,0
424042,682,-1956,66,-34,8,-303,6881,-121,18,-474,-264,35164,3,35,127,0,0,2279,-93,0,2263,155,192,38146,-4,0,65,34,424008,0
424052,649,-2036,83,2,-24,-165,6829,-115,61,-432,-176,35162,-14,35,127,0,0,2280,-27,0,2263,155,192,38156,-4,0,65,34,424008,0
424062,513,-2063,71,78,24,-95,6791,-78,46,-360,-104,35159,-31,35,127,0,0,2280,43,0,2263,155,192,38166,-4,0,65,34,424039,0
424072,387,-2059,57,102,73,-100,6778,13,75,-278,-72,35160,-32,35,127,0,0,2277,-32,0,2263,155,192,38176,-4,0,65,34,424039,0
424082,244,-2077,193,80,106,-180,6777,-10,79,-327,-96,35160,-18,35,127,0,0,2278,-32,0,2263,155,192,38186,-4,0,65,34,424039,0
424092,147,-2102,307,-10,102,-248,6779,-3,17,-303,-80,35164,-14,35,127,0,0,2277,-43,0,2263,155,192,38196,-4,0,65,34,424071,0
424102,-144,-2219,285,-194,162,-397,6779,5,-3,-332,-96,35173,-11,35,127,0,0,2285,32,0,2263,155,192,38206,-4,0,65,34,424071,0
424112,-169,-2356,368,-238,156,-551,6779,-2,-2,-286,-80,35177,-19,35,127,0,0,2284,71,0,2263,155,192,38216,-4,0,65,34,424071,0
424122,-166,-2734,756,-270,121,-633,6780,9,2,-219,-24,35180,7,35,127,0,0,2290,104,0,2263,155,192,38226,-4,0,65,34,424102,0
424132,-325,-2395,810,-426,104,-697,6791,32,21,46,96,35161,6,35,127,0,0,2306,175,0,2263,155,192,38236,-4,0,65,34,424118,0
424142,136,-2292,519,-550,-44,-942,6827,112,58,350,168,35159,-9,35,127,0,0,2324,131,0,2263,155,192,38246,-4,0,65,34,424118,0
424152,286,-2404,354,-588,-120,-989,6908,192,137,253,176,35154,-28,35,127,0,0,2335,131,0,2263,155,192,38256,-4,0,-36,0,424118,0
424163,221,-2425,351,-623,-127,-1061,7010,188,101,92,120,35159,0,35,127,0,0,2357,186,0,2263,155,192,38267,-4,0,-36,0,424133,0
424173,148,-2344,303,-671,-110,-1067,7081,147,-31,118,144,35165,5,35,127,0,0,2375,197,0,2263,155,192,38277,-4,0,-36,0,424149,0
424183,282,-2397,178,-681,-81,-1086,7156,172,-33,220,216,35166,5,35,127,0,0,2399,252,0,2263,155,192,38287,-4,0,-36,0,424149,0
424193,221,-2475,77,-723,-26,-1041,7246,201,30,272,264,35162,-22,35,127,0,0,2432,329,0,2263,155,192,38297,-4,0,-37,0,424149,0
424203,87,-2481,107,-736,8,-945,7339,212,25,428,456,35157,-19,35,127,0,0,2474,439,0,2263,155,192,38307,-4,0,-37,0,424180,0
424213,201,-2622,137,-724,58,-910,7470,318,74,493,664,35150,-17,35,127,0,0,2524,516,0,2263,155,192,38317,-4,0,-36,0,424180,0
424223,192,-2529,258,-677,11,-820,7638,384,146,461,848,35151,-14,35,127,0,0,2586,626,0,2263,155,192,38327,-4,0,-36,0,424196,0
424233,359,-2379,285,-582,-109,-699,7829,447,109,618,1120,35158,-24,35,127,0,0,2660,758,0,2263,155,192,38337,-4,0,-36,0,424211,0
424243,499,-2205,166,-454,-166,-587,8063,553,120,696,1432,35163,10,35,127,0,0,2742,845,0,2263,155,192,38347,-4,0,-36,0,424258,0
424253,587,-1872,-128,-282,-255,-459,8342,645,176,678,1648,35162,31,35,127,0,0,2825,867,0,2263,155,192,38357,-4,0,-35,0,424274,0
424263,598,-1625,-159,-168,-255,-398,8662,720,157,663,1872,35146,53,35,127,0,0,2913,878,0,2263,155,192,38367,-4,0,-35,0,424274,0
424273,599,-1288,-250,-153,-212,-302,9021,814,154,603,1968,35141,21,35,127,0,0,2997,845,0,2263,155,192,38377,-4,0,-34,0,424274,0
424283,476,-1233,-330,-167,-105,-199,9401,838,115,528,2032,35145,8,35,127,0,0,3082,878,0,2263,155,192,38387,-4,0,-34,0,424274,0
424293,544,-1387,-346,-138,17,-191,9794,869,59,546,2096,35139,18,35,127,0,0,3164,769,0,2263,155,192,38397,-4,0,-34,0,424274,0
424303,527,-1522,-168,-151,82,-133,10197,878,50,458,2016,35133,34,35,127,0,0,3240,758,0,2263,155,192,38407,-4,0,-33,0,424274,0
424313,528,-1804,288,-146,134,-120,10596,868,8,443,1992,35139,30,35,127,0,0,3309,681,0,2263,155,192,38417,-4,0,-33,0,424274,0
424323,550,-1834,486,-150,52,-67,10983,830,-30,391,1864,35149,11,35,127,0,0,3370,648,0,2263,155,192,38427,-4,0,-33,0,424305,0
424333,661,-1899,637,-196,-31,-115,11350,802,-65,406,1736,35155,18,35,127,0,0,3429,593,0,2263,155,192,38437,-4,0,-33,0,424321,0
424343,643,-1849,661,-216,-178,-135,11694,736,-82,391,1664,35145,32,35,127,0,0,3482,527,0,2263,155,192,38447,-4,0,-33,0,424321,0
424353,464,-1903,609,-268,-401,-71,12012,694,-94,370,1520,35137,32,35,127,0,0,3533,461,0,2263,155,192,38457,-4,0,-33,0,424321,0
424363,388,-2088,566,-332,-447,-54,12305,635,-91,394,1368,35138,8,35,127,0,0,3583,494,0,2263,155,192,38467,-4,0,-33,0,424352,0
424373,287,-2152,465,-373,-396,-163,12576,592,-87,465,1344,35145,6,35,127,0,0,3632,472,0,2263,155,192,38477,-4,0,-33,0,424352,0
424383,263,-2050,338,-406,-386,-188,12844,591,-45,450,1312,35145,20,35,127,0,0,3671,417,0,2263,155,192,38487,-4,0,-33,0,424352,0
424393,331,-1961,92,-472,-392,-268,13098,553,-28,450,1272,35146,15,35,127,0,0,3713,395,0,2263,155,192,38497,-4,0,-33,0,424352,0
424403,315,-1943,12,-483,-376,-334,13338,521,-46,453,1192,35149,12,35,127,0,0,3748,362,0,2263,155,192,38507,-4,0,-33,0,424383,0
424413,386,-1966,-18,-471,-304,-434,13573,490,-37,399,1072,35150,10,35,127,0,0,3779,318,0,2263,155,192,38517,-4,0,-33,0,424383,0
424423,410,-1951,9,-467,-279,-463,13761,452,-62,437,896,35146,7,35,127,0,0,3807,263,0,2263,155,192,38527,-4,0,-33,0,424383,0
424434,373,-1927,-20,-466,-245,-436,13971,402,-80,461,808,35135,-1,35,127,0,0,3839,307,0,2263,155,192,38538,-4,0,-32,0,424399,0
424444,371,-1900,-1,-448,-224,-412,14145,387,-66,440,760,35135,12,35,127,0,0,3864,318,0,2263,155,192,38548,-4,0,-32,0,424414,0
424454,492,-1895,54,-419,-187,-403,14315,363,-29,456,704,35143,26,35,127,0,0,3891,291,0,2263,155,192,38558,-4,0,-32,0,424414,0
424464,542,-1901,82,-417,-201,-373,14481,360,-18,473,648,35137,25,35,127,0,0,3917,291,0,2263,155,192,38568,-4,0,-32,0,424430,0
424474,619,-1922,88,-389,-231,-344,14644,343,-12,419,560,35149,9,35,127,0,0,3942,252,0,2263,155,192,38578,-4,0,-32,0,424461,0
424484,662,-1913,83,-364,-230,-338,14794,328,-32,408,488,35147,-14,35,127,0,0,3961,186,0,2263,155,192,38588,-4,0,-31,0,424461,0
424494,665,-1934,96,-350,-260,-311,14934,302,-44,406,424,35155,-19,35,127,0,0,3981,164,0,2263,155,192,38598,-4,0,-31,0,424461,0
424504,600,-1917,116,-341,-279,-262,15064,257,-43,401,392,35151,-33,35,127,0,0,4000,153,0,2263,155,192,38608,-4,0,-31,0,424461,0
424514,544,-1920,63,-330,-284,-234,15178,239,-60,378,336,35144,0,35,127,0,0,4020,159,0,2263,155,192,38618,-4,0,-31,0,424477,0
424524,494,-1912,48,-315,-272,-239,15274,222,-57,442,344,35145,7,35,127,0,0,4037,170,0,2263,155,192,38628,-4,0,-31,0,424508,0
424534,427,-1945,20,-322,-276,-211,15371,203,-21,379,312,35147,16,35,127,0,0,4056,214,0,2263,155,192,38638,-4,0,-30,0,424508,0
424544,437,-2012,26,-329,-250,-247,15456,186,-30,495,336,35146,12,35,127,0,0,4069,120,0,2263,155,192,38648,-4,0,-30,0,424508,0
424554,375,-2044,43,-298,-237,-261,15538,188,-26,491,328,35145,1,35,127,0,0,4091,164,0,2263,155,192,38658,-4,0,-30,0,424508,0
424564,400,-2063,27,-297,-246,-278,15634,199,26,380,360,35135,18,35,127,0,0,4106,225,0,2263,155,192,38668,-4,0,-30,0,424539,0
424574,370,-2062,60,-330,-225,-366,15727,229,13,425,288,35135,10,35,127,0,0,4127,159,0,2263,155,192,38678,-4,0,-29,0,424539,0
424584,269,-2070,132,-366,-233,-384,15828,203,19,361,264,35137,14,35,127,0,0,4141,175,0,2263,155,192,38688,-4,0,-29,0,424539,0
424594,224,-2165,207,-429,-218,-519,15907,173,-41,445,304,35141,15,35,127,0,0,4158,159,0,2263,155,192,38698,-4,0,-29,0,424555,0
424604,156,-1885,194,-513,-277,-644,15982,174,-46,478,336,35149,19,35,127,0,0,4175,170,0,2263,155,192,38708,-4,0,-28,0,424586,0
424614,55,-2123,195,-653,-272,-923,16063,192,16,457,264,35147,15,35,127,0,0,4184,76,0,2263,155,192,38718,-4,0,-28,0,424586,0
424624,205,-2548,232,-657,-213,-879,16137,153,0,416,272,35143,-15,35,127,0,0,4200,142,0,2263,155,192,38728,-4,0,-28,0,424586,0
424634,53,-2553,355,-567,-411,-732,16209,163,-16,432,312,35135,-22,35,127,0,0,4224,263,0,2263,155,192,38738,-4,0,-27,0,424602,0
424644,256,-2567,311,-660,-373,-1193,16295,210,29,648,488,35140,-19,35,127,0,0,4253,214,0,2263,155,192,38748,-4,0,-27,0,424633,0
424654,166,-2347,303,-808,-487,-1468,16413,271,95,483,544,35149,-6,35,127,0,0,4282,313,0,2263,155,192,38758,-4,0,-26,0,424633,0
424664,-87,-2153,368,-864,-651,-1574,16546,314,88,487,552,35146,5,35,127,0,0,4308,274,0,2263,155,192,38768,-4,0,-25,0,424633,0
424674,-120,-2653,245,-977,-759,-1512,16688,313,40,482,640,35145,22,35,127,0,0,4350,417,0,2263,155,192,38778,-4,0,-25,0,424649,0
424685,163,-3037,407,-1129,-705,-2018,16852,341,28,539,760,35140,13,35,127,0,0,4390,362,0,2263,155,192,38789,-4,0,-24,0,424649,0
424695,-13,-3038,534,-1215,-792,-2152,17016,375,52,524,784,35146,4,35,127,0,0,4429,373,0,2263,155,192,38799,-4,0,-24,0,424696,0
424705,-350,-2621,423,-1155,-1056,-2263,17193,416,53,519,920,35161,2,35,127,0,0,4473,450,0,2263,155,192,38809,-4,0,-23,0,424696,0
424715,-289,-2611,189,-1083,-1241,-2434,17390,461,66,522,1064,35161,10,35,127,0,0,4526,527,0,2263,155,192,38819,-4,0,-22,0,424696,0
424725,-303,-2623,-34,-1124,-1457,-2928,17606,489,32,563,1184,35148,30,35,127,0,0,4579,538,0,2263,155,192,38829,-4,0,-21,0,424696,0
424735,-164,-2654,-18,-1208,-1597,-3323,17848,537,100,539,1264,35134,45,35,127,0,0,4631,516,0,2263,155,192,38839,-4,0,-20,0,424696,0
424745,-351,-2784,75,-1162,-1830,-3599,18103,567,126,490,1264,35136,38,35,127,0,0,4686,549,0,2263,155,192,38849,-4,0,-19,0,424711,0
424755,-136,-2972,-166,-1158,-1837,-3867,18367,579,44,594,1376,35134,35,35,127,0,0,4743,560,0,2263,155,192,38859,-4,0,-18,0,424727,0
424765,-35,-3012,-249,-1095,-1695,-4354,18647,619,44,520,1360,35138,28,35,127,0,0,4785,406,0,2263,155,192,38869,-4,0,-16,0,424727,0
424775,29,-3054,-217,-1076,-1707,-4548,18923,602,27,420,1248,35135,26,35,127,0,0,4825,384,0,2263,155,192,38879,-4,0,-15,0,424742,0
424785,59,-3173,-20,-1020,-1860,-4605,19179,544,-47,412,1080,35140,32,35,127,0,0,4860,340,0,2263,155,192,38889,-4,0,-14,0,424758,0
424795,-43,-3284,97,-947,-2012,-4417,19407,493,-89,423,992,35133,33,35,127,0,0,4897,395,0,2263,155,192,38899,-4,0,-13,0,424758,0
424805,-101,-2952,163,-805,-2411,-3973,19618,454,-80,545,1216,35134,24,35,127,0,0,4965,703,0,2263,155,192,38909,-4,0,-10,0,424774,0
424815,-226,-2541,244,-716,-2674,-3587,19856,553,11,760,1584,35141,19,35,127,0,0,5060,966,0,2263,155,192,38919,-4,0,-9,0,424789,0
424825,-108,-2268,268,-580,-3132,-2743,20168,756,186,971,2280,35146,32,35,127,0,0,5200,1406,0,2263,155,192,38929,-4,0,-6,0,424789,0
424835,28,-2117,260,-418,-3202,-2166,20605,1054,378,1120,3192,35143,56,35,127,0,0,5376,1823,0,2263,155,192,38939,-4,0,-5,0,424821,0
424845,871,-2034,-72,-202,-2133,-2409,21197,1423,535,1131,3496,35122,88,35,127,0,0,5545,1593,0,2263,155,192,38949,-4,0,-2,0,424821,0
424855,778,-1769,-226,-104,-913,-2752,21824,1264,408,-362,352,35120,106,35,127,0,0,5574,120,0,2263,155,192,38959,-4,0,0,0,424821,0
424865,1192,-1834,-264,-5,177,-2853,21884,-517,-1004,-3324,-2744,35122,101,35,127,0,0,5493,-922,0,2263,155,192,38969,-4,0,2,0,424821,0
424875,662,-1567,-139,136,943,-2914,21318,-1477,-2441,-1290,-1992,35121,109,35,127,0,0,5288,-2186,0,2263,155,192,38979,-4,0,5,0,424867,0
424885,736,-1521,-49,232,1180,-2745,20939,-223,-926,3438,528,35127,84,35,127,0,0,5053,-2395,0,2263,155,192,38989,-4,0,8,0,424867,0
424895,923,-1723,-84,176,799,-1562,20955,-330,1317,-2050,-1976,35120,105,35,127,0,0,4838,-2098,0,2263,155,192,38999,-4,0,10,0,424867,0
424905,225,-1670,136,320,396,-1079,20568,-1024,-122,-1297,-3272,35123,76,35,127,0,0,4647,-1933,0,2263,155,192,39009,-4,0,13,0,424867,0
424916,312,-1595,81,344,-70,-467,19890,-1482,-1152,-917,-3856,35122,103,35,127,0,0,4476,-1439,0,2263,155,192,39020,-4,0,17,0,424883,0
424926,625,-1691,26,273,-379,326,19162,-1614,-610,-381,-3760,35124,100,35,127,0,0,4357,-1274,0,2263,155,192,39030,-4,0,19,0,424899,0
424936,590,-1745,-28,358,-412,786,18436,-1574,-190,-244,-3336,35136,81,35,127,0,0,4261,-928,0,2263,155,192,39040,-4,0,23,0,424899,0
424946,541,-1689,-112,477,-341,1305,17767,-1413,109,-147,-2984,35139,57,35,127,0,0,4173,-873,0,2263,155,192,39050,-4,0,25,0,424914,0
424956,610,-1634,-156,474,-290,1651,17169,-1266,258,-161,-2704,35152,25,35,127,0,0,4086,-884,0,2263,155,192,39060,-4,0,29,0,424914,0
424966,698,-1525,-181,522,-146,2188,16631,-1157,253,-214,-2504,35154,25,35,127,0,0,4001,-802,0,2263,155,192,39070,-4,0,31,0,424946,0
424976,688,-1447,-198,567,-35,2549,16132,-1082,178,-256,-2304,35158,25,35,127,0,0,3914,-829,0,2263,155,192,39080,-4,0,35,0,424946,0
424986,690,-1391,-255,619,58,3115,15654,-1038,114,-308,-2208,35153,37,35,127,0,0,3843,-752,0,2263,155,192,39090,-4,0,38,0,424946,0
424996,700,-1394,-250,682,98,3497,15198,-987,78,-287,-2072,35153,37,35,127,0,0,3773,-670,0,2263,155,192,39100,-4,0,42,106,424992,0
425006,707,-1431,-235,810,135,4025,14770,-916,85,-291,-1872,35155,45,35,127,0,0,3708,-604,0,2263,155,192,39110,-4,0,44,98,425008,0
425016,725,-1459,-210,902,158,4351,14372,-843,111,-276,-1688,35154,44,35,127,0,0,3651,-593,0,2263,155,192,39120,-4,0,49,89,425008,0
425026,750,-1496,-198,1056,199,4796,14007,-779,129,-266,-1520,35156,33,35,127,0,0,3605,-488,0,2263,155,192,39130,-4,0,51,83,425024,0
425036,722,-1483,-208,1178,226,5055,13673,-718,125,-262,-1384,35155,35,35,127,0,0,3551,-499,0,2263,155,192,39140,-4,0,55,76,425039,0
425046,698,-1487,-232,1343,302,5410,13373,-649,122,-276,-1232,35158,24,35,127,0,0,3507,-433,0,2263,155,192,39150,-4,0,58,71,425039,0
425056,678,-1521,-248,1459,411,5617,13098,-592,118,-282,-1152,35156,45,35,127,0,0,3465,-417,0,2263,155,192,39160,-4,0,62,65,425055,0
425066,654,-1589,-284,1620,722,5859,12850,-524,93,-305,-1032,35153,44,35,127,0,0,3427,-351,0,2263,155,192,39170,-4,0,65,61,425055,0
425076,623,-1659,-313,1700,979,5986,12620,-498,89,-333,-968,35151,57,35,127,0,0,3394,-335,0,2263,155,192,39180,-4,0,69,56,425055,0
425086,592,-1768,-348,1823,1438,6078,12410,-442,71,-340,-864,35151,43,35,127,0,0,3360,-313,0,2263,155,192,39190,-4,0,72,53,425055,0
425096,598,-1840,-351,1864,1750,6107,12215,-425,70,-393,-848,35154,41,35,127,0,0,3332,-296,0,2263,155,192,39200,-4,0,76,49,425086,0
425106,624,-1951,-309,1897,2187,6120,12035,-395,48,-392,-752,35158,30,35,127,0,0,3310,-175,0,2263,155,192,39210,-4,0,78,46,425086,0
425116,642,-2014,-258,1905,2447,6119,11859,-381,31,-372,-632,35152,23,35,127,0,0,3288,-214,0,2263,155,192,39220,-4,0,83,43,425102,0
425126,701,-2075,-169,1905,2733,6096,11702,-322,41,-323,-448,35152,21,35,127,0,0,3275,-153,0,2263,155,192,39230,-4,0,85,41,425102,0
425136,785,-2098,-137,1869,2845,6077,11576,-236,98,-278,-280,35148,34,35,127,0,0,3266,-104,0,2263,155,192,39240,-4,0,89,38,425102,0
425146,887,-2121,-139,1790,2882,6058,11480,-194,130,-254,-176,35159,38,35,127,0,0,3260,-65,0,2263,155,192,39250,-4,0,92,37,425133,0
425156,832,-2168,-151,1691,2894,5973,11440,-38,165,-323,-136,35161,65,35,127,0,0,3253,-98,0,2263,155,192,39260,-4,0,96,34,425133,0
425166,848,-2221,-131,1582,2935,5804,11418,-50,151,-350,-112,35158,53,35,127,0,0,3250,-38,0,2263,155,192,39270,-4,0,98,33,425133,0
425176,861,-2249,-102,1493,2956,5620,11408,-9,46,-366,-64,35149,50,34,127,0,0,3249,-16,0,2263,155,192,39280,-4,0,102,31,425149,0
425187,940,-2295,-43,1342,2912,5329,11410,-11,45,-369,-80,35154,24,35,127,0,0,3251,10,0,2263,155,192,39291,-4,0,104,31,425149,0
425197,1029,-2300,18,1180,2711,5012,11412,14,16,-297,-104,35161,39,35,127,0,0,3254,-32,0,2263,155,192,39301,-4,0,108,29,425164,0
425207,1071,-2258,51,1104,2470,4774,11411,3,-3,-253,-48,35161,43,35,127,0,0,3256,-21,0,2263,155,192,39311,-4,0,110,29,425164,0
425217,1132,-2166,103,1012,1939,4438,11411,-5,-3,-266,-48,35155,35,35,127,0,0,3260,76,0,2263,155,192,39321,-4,0,113,28,425211,0
425227,1148,-2130,130,975,1484,4228,11417,0,11,-156,-32,35154,26,35,127,0,0,3258,-10,0,2263,155,192,39331,-4,0,115,27,425211,0
425237,1191,-2105,118,909,789,3888,11414,6,1,-167,-72,35155,18,35,127,0,0,3260,10,0,2263,155,192,39341,-4,0,117,26,425211,0
425247,1128,-2107,92,870,380,3623,11415,2,-5,-101,-88,35153,19,35,127,0,0,3258,-21,0,2263,155,192,39351,-4,0,118,26,425211,0
425257,1061,-2065,60,804,-110,3173,11416,5,8,-75,-16,35146,18,35,127,0,0,3260,-43,0,2263,155,192,39361,-4,0,120,26,425211,0
425267,1065,-2051,32,749,-330,2846,11415,-3,-10,-163,-32,35143,22,35,127,0,0,3258,-32,0,2263,155,192,39371,-4,0,122,25,425242,0
425277,1059,-2084,2,638,-528,2331,11416,-2,-3,-164,-72,35152,19,35,127,0,0,3258,-21,0,2263,155,192,39381,-4,0,123,25,425242,0
425287,1150,-2217,-20,554,-602,1903,11415,4,2,-185,-56,35156,26,35,127,0,0,3260,21,0,2263,155,192,39391,-4,0,124,25,425242,0
425297,1929,-5404,-636,53,-1276,1147,11417,6,1,-62,112,35164,10,35,127,0,0,3311,637,0,2263,155,192,39401,-4,0,125,24,425274,0
425307,1735,-2533,625,271,-730,318,11514,331,177,759,968,35159,16,35,127,0,0,3396,845,0,2263,155,192,39411,-4,0,126,24,425274,0
425317,1935,-1616,-307,-102,-218,-1422,11735,532,441,500,1016,35156,21,35,127,0,0,3412,43,0,2263,155,192,39421,-4,0,126,24,425274,0
425327,2305,-2058,-307,-511,-425,-2128,11963,475,262,154,440,35149,19,35,127,0,0,3403,-109,0,2263,155,192,39431,-4,0,126,24,425305,0
425337,2231,-2045,-278,-448,-454,-3224,12125,292,-110,-133,-56,35141,35,35,127,0,0,3379,-263,0,2263,155,192,39441,-4,0,125,24,425320,0
425347,2224,-2373,-269,-558,-401,-3717,12097,-187,-485,-495,-368,35140,22,35,127,0,0,3344,-417,0,2263,155,192,39451,-4,0,125,24,425320,0
425357,952,-1775,37,-357,-18,-3906,11971,-328,-576,-519,-832,35137,17,35,127,0,0,3262,-823,0,2263,155,192,39461,-4,0,124,24,425320,0
425367,500,-1757,188,-374,-7,-3862,11762,-521,-334,-759,-1672,35144,32,35,127,0,0,3142,-1219,0,1379,149,193,3,1,0,123,25,425336,0
425377,117,-1922,580,-357,-170,-3222,11429,-812,-399,-794,-2248,35141,71,35,127,0,0,3019,-1197,0,1379,149,193,13,1,0,122,25,425336,0
425387,462,-2140,553,-477,-145,-2926,10999,-986,-429,-594,-2288,35130,89,35,127,0,0,2933,-834,0,1379,149,193,23,1,0,122,25,425352,0
425397,825,-1709,451,-607,148,-2895,10556,-964,-210,-456,-2216,35122,77,35,127,0,0,2841,-900,0,1379,149,193,33,1,0,122,25,425367,0
425407,879,-1734,126,-917,6,-2687,10118,-972,-9,-470,-2296,35118,45,35,127,0,0,2748,-944,0,1379,149,193,43,1,0,122,25,425383,0
425418,999,-1773,-66,-1532,-286,-1916,9675,-970,-8,-397,-2064,35125,44,35,127,0,0,2674,-598,0,1379,149,193,54,1,0,122,25,425383,0
425428,546,-2292,-58,-1501,-370,-1578,9262,-871,55,-305,-1808,35127,38,35,127,0,0,2619,-483,0,1379,149,193,64,1,0,122,25,425383,0
425438,228,-2055,-23,-1347,-163,-1373,8896,-772,159,-249,-1504,35132,35,35,127,0,0,2572,-472,0,1379,149,193,74,1,0,122,25,425399,0
425448,209,-2157,-5,-1251,-14,-1279,8575,-671,178,-283,-1320,35134,31,35,127,0,0,2534,-362,0,1379,149,193,84,1,0,122,25,425430,0
425458,472,-2158,-41,-1141,-18,-1079,8293,-596,162,-272,-1104,35137,50,35,127,0,0,2487,-362,0,1379,149,193,94,1,0,122,25,425445,0
425468,439,-2192,-144,-1057,-168,-838,8036,-551,117,-259,-912,35134,38,35,127,0,0,2455,-318,0,1379,149,193,104,1,0,122,25,425445,0
425478,212,-2241,-466,-840,-136,-656,7811,-460,110,-270,-688,35130,35,35,127,0,0,2431,-280,0,1379,149,193,114,1,0,122,25,425445,0
425488,159,-2151,-537,-579,24,-695,7624,-394,139,-299,-544,35134,9,35,127,0,0,2410,-219,0,1379,149,193,124,1,0,122,25,425445,0
425498,221,-2011,-557,-225,174,-621,7465,-311,119,-313,-432,35139,28,35,127,0,0,2385,-219,0,1379,149,193,134,1,0,122,25,425477,0
425508,317,-1933,-470,-27,158,-504,7336,-262,114,-360,-368,35137,35,35,127,0,0,2369,-164,0,1379,149,193,144,1,0,122,25,425477,0
425518,360,-1978,-305,222,121,-330,7231,-229,102,-419,-320,35133,31,35,127,0,0,2355,-60,0,1379,149,193,154,1,0,122,25,425508,0
425528,225,-2017,-249,312,136,-253,7154,-145,90,-427,-264,35126,32,35,127,0,0,2341,-126,0,1379,149,193,164,1,0,122,25,425508,0
425538,215,-2152,-18,436,192,-103,7106,-112,113,-593,-264,35134,16,35,127,0,0,2330,-71,0,1379,149,193,174,1,0,122,25,425524,0
425548,234,-2133,123,459,237,-56,7071,-56,72,-611,-248,35132,38,35,127,0,0,2323,-98,0,1379,149,193,184,1,0,122,25,425524,0
425558,335,-2191,293,414,219,34,7033,-85,15,-541,-232,35131,34,35,127,0,0,2326,21,0,1379,149,193,194,1,0,122,25,425524,0
425568,347,-2192,359,400,218,56,7015,-25,31,-573,-200,35130,37,35,127,0,0,2317,-38,0,1379,149,193,204,1,0,122,25,425555,0
425578,277,-2135,415,403,167,187,6992,-73,30,-572,-208,35140,35,35,127,0,0,2313,-21,0,1379,149,193,214,1,0,122,25,425555,0
425588,331,-2179,392,429,228,248,6959,-47,-39,-395,-128,35136,28,35,127,0,0,2315,16,0,1379,149,193,224,1,0,122,25,425555,0
425598,334,-1783,212,401,132,335,6964,8,69,-458,-136,35136,28,35,127,0,0,2322,71,0,1379,149,193,234,1,0,122,25,425586,0
425608,143,-1994,200,378,83,419,6965,10,56,-318,-80,35130,34,35,127,0,0,2325,82,0,1379,149,193,244,1,0,122,25,425586,0
425618,82,-2000,45,398,115,423,6969,5,1,-198,-8,35128,44,35,127,0,0,2331,104,0,1379,149,193,254,1,0,122,25,425586,0
425628,83,-2078,11,397,129,385,6980,27,12,-33,32,35129,30,35,127,0,0,2337,60,0,1379,149,193,264,1,0,122,25,425586,0
425638,156,-2149,21,448,145,348,6988,13,8,139,88,35136,19,35,127,0,0,2346,93,0,1379,149,193,274,1,0,122,25,425633,0
425648,169,-2144,39,477,145,320,7014,77,26,239,96,35137,14,35,127,0,0,2353,49,0,1379,149,193,284,1,0,122,25,425648,0
425658,187,-2166,112,489,150,314,7068,117,93,0,32,35145,37,35,127,0,0,2357,38,0,1379,149,193,294,1,0,122,25,425648,0
425668,175,-2092,192,500,148,293,7105,80,10,-90,-8,35138,40,35,127,0,0,2362,-5,0,1379,149,193,304,1,0,122,25,425648,0
425678,206,-2021,223,496,146,285,7111,-6,-103,3,40,35140,40,35,127,0,0,2371,115,0,1379,149,193,314,1,0,122,25,425648,0
425689,220,-1994,257,490,137,284,7125,35,-34,185,56,35132,23,35,127,0,0,2377,87,0,1379,149,193,325,1,0,122,25,425664,0
425699,181,-1964,244,483,116,281,7153,81,53,217,56,35137,20,35,127,0,0,2384,65,0,1379,149,193,335,1,0,122,25,425664,0
425709,208,-1979,280,434,63,268,7196,62,57,86,56,35149,9,35,127,0,0,2390,76,0,1379,149,193,345,1,0,122,25,425695,0
425719,93,-2066,274,412,60,229,7205,9,-58,201,112,35145,14,35,127,0,0,2397,98,0,1379,149,193,355,1,0,122,25,425711,0
425729,119,-2058,274,379,95,118,7233,81,-26,246,72,35145,3,35,127,0,0,2399,21,0,1379,149,193,365,1,0,122,25,425711,0
425739,162,-2016,287,327,73,57,7254,-6,33,129,32,35142,16,35,127,0,0,2399,0,0,1379,149,193,375,1,0,122,25,425742,0
425749,46,-2072,386,254,34,-12,7250,12,-75,190,40,35145,16,35,127,0,0,2399,0,0,1379,149,193,385,1,0,122,25,425742,0
425759,42,-2033,393,215,4,-65,7249,-1,-34,186,40,35148,19,35,127,0,0,2399,-10,0,1379,149,193,395,1,0,122,25,425742,0
425769,62,-1999,350,137,7,-186,7250,7,1,171,8,35150,16,35,127,0,0,2397,-32,0,1379,149,193,405,1,0,122,25,425742,0
425779,92,-2003,356,106,20,-249,7247,-8,-4,10,-32,35150,11,35,127,0,0,2388,-76,0,1379,149,193,415,1,0,122,25,425758,0
425789,132,-2008,346,36,55,-383,7236,-10,-24,-163,-112,35146,26,35,127,0,0,2375,-164,0,1379,149,193,425,1,0,122,25,425758,0
425799,211,-2014,357,-21,16,-434,7222,-49,-11,-449,-168,35148,45,35,127,0,0,2364,-131,0,1379,149,193,435,1,0,122,25,425758,0
425809,151,-2096,382,-82,-29,-469,7191,-90,-38,-513,-224,35148,42,35,127,0,0,2351,-109,0,1379,149,193,445,1,0,122,25,425805,0
425819,130,-2080,351,-104,-26,-508,7140,-95,-88,-476,-272,35149,50,35,127,0,0,2335,-175,0,1379,149,193,455,1,0,122,25,425805,0
425829,198,-2039,259,-128,-34,-611,7087,-126,-34,-589,-320,35161,28,35,127,0,0,2320,-164,0,1379,149,193,465,1,0,122,25,425805,0
425839,200,-2039,226,-157,-46,-675,7030,-141,-15,-582,-392,35160,24,35,127,0,0,2298,-219,0,1379,149,193,475,1,0,122,25,425805,0
425849,61,-2034,306,-187,-87,-742,6953,-190,-47,-578,-408,35166,19,35,127,0,0,2278,-230,0,1379,149,193,485,1,0,122,25,425820,0
425859,-17,-2043,367,-214,-108,-807,6872,-166,-53,-585,-424,35165,21,35,127,0,0,2256,-219,0,1379,149,193,495,1,0,122,25,425820,0
425869,-48,-1984,360,-300,-95,-1007,6774,-233,-31,-560,-440,35168,22,35,127,0,0,2230,-263,0,1379,149,193,505,1,0,122,25,425836,0
425879,-33,-2026,340,-369,-75,-1131,6677,-221,-33,-685,-480,35179,7,35,127,0,0,2206,-241,0,1379,149,193,515,1,0,122,25,425852,0
425889,76,-2015,365,-447,-94,-1294,6566,-253,-29,-585,-544,35175,-13,35,127,0,0,2168,-351,0,1379,149,193,525,1,0,122,25,425867,0
425899,166,-2037,378,-496,-136,-1347,6438,-306,-58,-681,-672,35170,-9,35,127,0,0,2124,-373,0,1379,149,193,535,1,0,122,25,425867,0
425909,254,-2062,326,-564,-194,-1429,6299,-292,-60,-651,-720,35161,-2,35,127,0,0,2089,-395,0,1379,149,193,545,1,0,122,25,425867,0
425920,252,-2112,285,-614,-225,-1434,6139,-337,-23,-628,-792,35158,-3,35,127,0,0,2047,-406,0,1379,149,193,556,1,0,122,25,425914,0
425930,264,-2060,179,-678,-280,-1428,5978,-366,-43,-586,-792,35169,15,35,127,0,0,2015,-379,0,1379,149,193,566,1,0,122,25,425914,0
425940,225,-2064,66,-704,-345,-1431,5817,-350,-31,-509,-712,35177,3,35,127,0,0,1992,-269,0,1379,149,193,576,1,0,122,25,425930,0
425950,280,-2233,10,-681,-487,-1447,5666,-319,21,-518,-616,35184,0,35,127,0,0,1974,-159,0,1379,149,193,586,1,0,122,25,425930,0
425960,54,-2529,37,-686,-694,-1371,5538,-257,60,-534,-456,35183,-24,35,127,0,0,1963,-38,0,1379,149,193,596,1,0,122,25,425930,0
425970,420,-2816,331,-464,-851,-1443,5442,-204,111,-469,-312,35183,-17,35,127,0,0,1962,-71,0,1379,149,193,606,1,0,-3,0,425930,0
425980,-98,-3103,544,-505,-575,-1414,5372,-122,106,-333,-104,35189,-23,35,127,0,0,1978,164,0,1379,149,193,616,1,0,-3,0,425945,0
425990,-151,-2541,322,-783,-305,-1548,5374,58,180,38,120,35180,-20,35,127,0,0,2002,307,0,1379,149,193,626,1,0,-3,0,425961,0
426000,-21,-2341,129,-804,-241,-1698,5448,171,289,205,208,35172,-22,35,127,0,0,2035,384,0,1379,149,193,636,1,0,-2,0,425977,0
426010,111,-2426,18,-792,-381,-1817,5547,235,179,267,312,35170,-18,35,127,0,0,2055,335,0,1379,149,193,646,1,0,-2,0,425977,0
426020,79,-2551,101,-832,-428,-1864,5678,299,107,243,376,35170,4,35,127,0,0,2097,373,0,1379,149,193,656,1,0,-1,0,425992,0
426030,-147,-2467,241,-947,-473,-1946,5813,309,75,331,528,35170,14,35,127,0,0,2146,466,0,1379,149,193,666,1,0,0,0,426008,0
426040,250,-2749,386,-972,-342,-2353,5972,378,56,401,696,35165,6,35,127,0,0,2199,516,0,1379,149,193,676,1,0,0,0,426008,0
426050,126,-2726,290,-1080,-223,-2377,6159,417,97,350,728,35168,-10,35,127,0,0,2248,527,0,1379,149,193,686,1,0,0,0,426023,0
426060,-72,-2620,379,-1178,-250,-2254,6358,442,78,325,880,35169,-17,35,127,0,0,2320,741,0,1379,149,193,696,1,0,1,0,426039,0
426070,40,-2623,297,-1196,-370,-2369,6584,518,67,399,1136,35175,-20,35,127,0,0,2399,867,0,1379,149,193,706,1,0,2,0,426039,0
426080,216,-2602,196,-1209,-296,-2702,6849,614,126,406,1400,35175,-17,35,127,0,0,2485,911,0,1379,149,193,716,1,0,4,0,426039,0
426090,-267,-2481,188,-1323,-295,-2857,7159,708,162,410,1640,35175,-24,35,127,0,0,2574,917,0,1379,149,193,726,1,0,4,0,426055,0
426100,-310,-2532,295,-1393,-402,-2735,7503,771,144,501,1872,35180,17,35,127,0,0,2686,1104,0,1379,149,193,736,1,0,6,0,426102,0
426110,-421,-2807,403,-1095,-452,-2939,7888,886,135,673,2312,35179,19,35,127,0,0,2807,1279,0,1379,149,193,746,1,0,7,0,426102,0
426120,-553,-2761,321,-1048,-406,-3267,8334,1017,201,724,2584,35168,34,35,127,0,0,2924,1131,0,1379,149,193,756,1,0,9,0,426102,0
426130,-349,-2857,141,-1242,-393,-3719,8831,1124,211,673,2856,35153,19,35,127,0,0,3067,1373,0,1379,149,193,766,1,0,11,0,426117,0
426140,-791,-2799,160,-1223,-228,-4160,9381,1254,197,676,3152,35146,15,35,127,0,0,3206,1417,0,1379,149,193,776,1,0,13,0,426117,0
426150,-635,-2853,-33,-1206,-266,-4715,9989,1381,218,636,3408,35146,26,35,127,0,0,3344,1367,0,1379,149,193,786,1,0,15,0,426117,0
426160,-610,-3149,-35,-1154,-253,-5082,10642,1462,206,582,3536,35152,42,35,127,0,0,3479,1356,0,1379,149,193,796,1,0,17,0,426133,0
426171,-130,-3542,195,-1066,-323,-5514,11382,1473,119,481,3592,35164,54,35,127,0,0,3636,1417,0,1379,149,193,807,1,0,19,0,426133,0
426181,443,-3772,303,-1069,-512,-6268,12054,1485,18,568,3704,35172,45,35,127,0,0,3766,1252,0,1379,149,193,817,1,0,22,0,426164,0
426191,425,-3945,413,-1061,-871,-6306,12725,1463,-1,497,3648,35163,65,35,127,0,0,3882,1164,0,1379,149,193,827,1,0,24,0,426164,0
426201,-177,-4160,635,-1055,-1373,-5904,13384,1443,-26,492,3608,35154,51,35,127,0,0,4012,1329,0,1379,149,193,837,1,0,28,0,426180,0
426211,-311,-3929,656,-992,-1671,-5916,14064,1528,4,694,3800,35138,45,35,127,0,0,4172,1571,0,1379,149,193,847,1,0,30,0,426180,0
426221,-511,-3579,598,-967,-2333,-5665,14804,1667,158,744,4080,35141,45,35,127,0,0,4354,1911,0,1379,149,193,857,1,0,35,0,426180,0
426231,-306,-3638,793,-980,-2849,-5092,15615,1827,247,875,4608,35146,72,35,127,0,0,4554,2065,0,1379,149,193,867,1,0,38,0,426195,0
426241,-697,-3564,1291,-913,-3718,-3733,16498,1992,276,991,5200,35150,98,35,127,0,0,4794,2449,0,1379,149,193,877,1,0,43,0,426211,0
426251,123,-3069,1600,-735,-3948,-3007,17506,2340,364,1284,6248,35124,137,35,127,0,0,5088,2955,0,1379,149,193,887,1,0,47,0,426226,0
426261,1826,-2532,539,-753,-1596,-4208,18696,2709,607,830,5984,35117,149,35,127,0,0,5198,791,0,1379,149,193,897,1,0,53,0,426226,0
426271,1315,-1958,45,-683,-619,-4084,19812,2287,250,-256,3104,35124,113,35,127,0,0,5091,-1241,0,1379,149,193,907,1,0,58,0,426289,0
426281,846,-1683,126,-523,-150,-3634,20493,1061,-976,-1868,-496,35158,12,35,127,0,0,4866,-2307,0,1379,149,193,917,0,0,64,0,426289,0
426291,934,-1852,300,-588,-383,-3061,20328,-766,-2500,-2130,-2960,35164,-20,35,127,0,0,4625,-2460,0,1379,149,193,927,0,0,68,99,426305,0
426301,552,-1890,632,-609,-1032,-1685,19737,-1514,-2458,-1323,-4216,35146,14,35,127,0,0,4407,-2087,0,1379,149,193,937,0,0,75,95,426305,0
426311,510,-1830,493,-645,-1265,-902,18921,-1883,-1204,-721,-4560,35125,89,35,127,0,0,4236,-1669,0,1379,149,193,947,0,0,79,92,426305,0
426321,424,-1819,264,-532,-1299,141,18043,-1921,-546,-305,-4272,35131,70,35,127,0,0,4108,-1252,0,1379,149,193,957,0,0,86,87,426305,0
426331,375,-1781,138,-331,-1138,697,17218,-1756,-10,-132,-3760,35140,39,35,127,0,0,3999,-1087,0,1379,149,193,967,0,0,91,84,426305,0
426341,382,-1597,3,-153,-839,1523,16471,-1586,251,-87,-3304,35151,13,35,127,0,0,3900,-955,0,1379,149,193,977,0,0,98,80,426305,0
426351,407,-1482,-24,5,-478,2057,15795,-1439,286,-86,-2856,35172,-17,35,127,0,0,3814,-878,0,1379,149,193,987,0,0,103,77,426305,0
426361,411,-1222,-145,184,22,2841,15188,-1289,266,-106,-2528,35188,-31,35,127,0,0,3730,-812,0,1379,149,193,997,0,0,110,73,426336,0
426371,404,-1044,-262,280,317,3366,14649,-1147,260,-159,-2288,35184,-31,35,127,0,0,3647,-834,0,1379,149,193,1007,0,0,115,70,426351,0
426381,419,-824,-400,451,718,4152,14162,-1039,236,-241,-2176,35172,-19,35,127,0,0,3572,-758,0,1379,149,193,1017,0,0,122,66,426351,0
426391,472,-760,-436,561,955,4666,13715,-960,174,-223,-1976,35155,-10,35,127,0,0,3504,-703,0,1379,149,193,1027,0,0,127,63,426351,0
426401,518,-769,-419,724,1257,5400,13310,-867,150,-254,-1824,35168,-19,35,127,0,0,3445,-604,0,1379,149,193,1037,0,0,135,60,426367,0
426411,521,-831,-348,849,1418,5868,12940,-789,149,-232,-1656,35170,0,35,127,0,0,3390,-549,0,1379,149,193,1047,0,0,140,57,426383,0
426422,547,-885,-268,1012,1578,6480,12607,-715,139,-272,-1496,35163,-9,35,127,0,0,3335,-466,0,1379,149,193,1058,0,0,147,54,426383,0
426432,537,-912,-274,1134,1675,6812,12303,-646,119,-311,-1328,35151,-27,35,127,0,0,3290,-390,0,1379,149,193,1068,0,0,154,50,426398,0
426442,518,-932,-308,1324,1779,7284,12025,-596,102,-353,-1232,35161,-21,35,127,0,0,3246,-406,0,1379,149,193,1078,0,0,159,48,426414,0
426452,560,-941,-331,1443,1815,7575,11763,-561,80,-339,-1120,35163,-8,35,127,0,0,3210,-362,0,1379,149,193,1088,0,0,167,45,426414,0
426462,572,-968,-349,1634,1887,7927,11519,-513,62,-352,-1008,35156,2,35,127,0,0,3178,-307,0,1379,149,193,1098,0,0,172,43,426445,0
426472,631,-1008,-361,1739,1916,8117,11296,-473,82,-347,-880,35146,2,35,127,0,0,3148,-291,0,1379,149,193,1108,0,0,179,41,426445,0
426482,744,-1138,-339,1866,1945,8313,11088,-446,66,-308,-744,35151,-13,35,127,0,0,3116,-313,0,1379,149,193,1118,0,0,184,39,426476,0
426492,776,-1247,-283,1955,1936,8432,10910,-383,83,-392,-704,35157,-19,35,127,0,0,3080,-346,0,1379,149,193,1128,0,0,191,37,426476,0
426502,813,-1327,-210,2128,1899,8595,10737,-383,62,-411,-680,35160,-22,35,127,0,0,3047,-351,0,1379,149,193,1138,0,0,195,35,426476,0
426512,915,-1514,-148,2059,1857,8632,10568,-365,15,-436,-640,35153,-12,35,127,0,0,3020,-307,0,1379,149,193,1148,0,0,202,33,426476,0
426522,1067,-1700,-154,2078,1937,8615,10404,-369,14,-366,-544,35154,-9,35,127,0,0,2999,-236,0,1379,149,193,1158,0,0,206,32,426476,0
426532,1107,-1780,-135,2109,2061,8526,10252,-314,23,-335,-416,35152,7,35,127,0,0,2984,-159,0,1379,149,193,1168,0,0,212,30,426523,0
426542,1280,-1855,-159,2108,2259,8302,10133,-260,95,-376,-344,35156,14,35,127,0,0,2964,-153,0,1379,149,193,1178,0,0,217,30,426523,0
426552,1386,-1939,-150,2108,2349,8085,10031,-200,93,-325,-264,35144,14,35,127,0,0,2954,-159,0,1379,149,193,1188,0,0,222,28,426523,0
426562,1742,-2051,-140,2032,2331,7710,9950,-179,68,-331,-192,35140,-14,35,127,0,0,2948,-38,0,1379,149,193,1198,0,0,226,27,426523,0
426572,1945,-2149,-106,1953,2243,7419,9890,-108,71,-300,-152,35146,-23,35,127,0,0,2939,-60,0,1379,149,193,1208,0,0,231,26,426555,0
426582,2306,-2279,-108,1742,1944,6905,9859,-61,108,-342,-136,35141,-30,35,127,0,0,2938,5,0,1379,149,193,1218,0,0,234,26,426555,0
426592,2486,-2363,-90,1537,1699,6465,9840,-21,77,-379,-160,35142,-27,35,127,0,0,2925,-87,0,1379,149,193,1228,0,0,238,25,426570,0
426602,2709,-2499,-48,1136,1278,5701,9829,-43,40,-623,-240,35138,-24,35,127,0,0,2911,-120,0,1379,149,193,1238,0,0,240,25,426570,0
426612,2792,-2609,-7,836,997,5088,9785,-127,-67,-577,-328,35152,-24,35,127,0,0,2893,-181,0,1379,149,193,1248,0,0,243,24,426601,0
426622,2906,-2721,30,349,626,4052,9702,-214,-144,-490,-392,35147,-28,35,127,0,0,2869,-225,0,1379,149,193,1258,0,0,245,24,426601,0
426632,2947,-2611,-28,31,469,3290,9598,-238,-117,-484,-440,35141,-24,35,127,0,0,2839,-269,0,1379,149,193,1268,0,0,246,24,426601,0
426642,2941,-2295,-67,-421,371,2095,9479,-258,-69,-480,-512,35129,-16,35,127,0,0,2810,-335,0,1379,149,193,1278,0,0,247,23,426601,0
426652,2824,-2117,-107,-656,407,1293,9356,-286,-35,-546,-608,35145,-12,35,127,0,0,2765,-384,0,1379,149,193,1288,0,0,247,23,426633,0
426662,2676,-1749,-165,-846,728,139,9210,-335,-59,-542,-704,35146,-8,35,127,0,0,2723,-444,0,1379,149,193,1298,0,0,246,23,426633,0
426672,2604,-1352,-230,-922,1123,-523,9049,-359,-72,-489,-768,35148,-5,35,127,0,0,2688,-379,0,1379,149,193,1308,0,0,246,23,426633,0
426683,1069,-6228,-2081,-1571,540,-955,8858,-396,-49,-395,-568,35139,1,35,127,0,0,2744,802,0,1379,149,193,1319,0,0,246,23,426648,0
426693,2269,-715,1917,-214,2161,-2462,8812,231,261,1702,1672,35146,6,35,127,0,0,2950,1944,0,1697,387,194,5,1,1,246,23,426664,0
426703,2355,-510,-375,-461,1018,-3044,9146,855,1097,853,2152,35141,17,35,127,0,0,3045,823,0,1697,387,194,15,1,1,246,23,426664,0
426713,839,-4002,1523,-754,1649,-1394,9594,1065,886,995,3344,35134,44,35,127,0,0,3146,1076,0,1697,387,194,25,1,1,246,23,426679,0
426723,-741,-2402,80,-448,956,-1148,10241,1569,435,1213,4216,35118,85,35,127,0,0,3238,955,0,1697,387,194,35,1,1,246,23,426711,0
426733,-463,-2546,-482,-1085,-1216,-2006,11058,1887,615,931,5024,35116,105,35,127,0,0,3348,1098,0,1697,387,194,45,1,1,246,23,426711,0
426743,-621,-2488,-1411,-1145,167,-3741,11989,2086,676,575,4864,35115,115,35,127,0,0,3346,-175,0,1697,387,194,55,1,1,246,23,426711,0
426753,916,-2882,-1318,-1284,2260,-5562,12886,1902,161,-22,3064,35121,77,35,127,0,0,3166,-2065,0,1697,387,194,65,1,1,246,23,426726,0
426763,1447,-1818,526,-591,573,-4118,13576,1285,-463,-754,904,35137,26,35,127,0,0,3016,-1329,0,1697,387,194,75,1,1,246,23,426726,0
426773,1243,-1846,-52,-714,-315,-3073,13950,662,-1023,-298,1136,35151,-20,35,127,0,0,2909,-1076,580,1697,387,194,85,1,1,246,23,426742,0
426783,841,-1588,-431,-492,-338,-2321,14164,423,-916,307,632,35152,-14,35,127,0,0,2841,-637,780,1697,387,194,95,1,1,246,23,426742,0
426793,1379,-1649,-733,-102,-1323,-1275,14217,-56,-585,639,40,35152,-6,35,127,0,0,2852,131,980,1697,387,194,105,1,1,246,23,426773,0
426803,558,-2178,-803,56,-191,-1116,14018,-589,-803,516,-368,35148,1,35,127,0,0,2827,-296,1180,1697,387,194,115,1,1,246,23,426773,0
426813,-556,-2399,-323,370,661,-1684,13634,-909,-856,476,-568,35143,-8,35,127,0,0,2761,-670,1380,1697,387,194,125,1,1,246,23,426773,0
426823,198,-3094,148,345,1290,-1594,13270,-712,-327,906,-56,35148,-28,35,127,0,0,2680,-780,1500,1697,387,194,135,1,1,246,23,426867,0
426833,1049,-2642,922,331,243,-769,13097,-253,418,1271,104,35151,-32,35,127,0,0,2636,-373,1500,1697,387,194,145,1,1,246,23,426867,0
426843,1040,-2442,1001,233,-421,-360,13019,-166,569,936,96,35153,-43,35,127,0,0,2625,-54,1500,1697,387,194,155,1,1,246,23,426867,0
426853,199,-1979,-60,313,-409,-249,12948,-123,174,888,152,35148,-27,35,127,0,0,2627,32,1500,1697,387,194,165,1,1,246,23,426867,0
426863,-142,-1793,-570,213,28,-275,12920,-36,104,895,216,35137,-10,35,127,0,0,2623,-43,1500,1697,387,194,175,1,1,246,23,426867,0
426873,337,-1709,-105,361,155,-148,12896,-83,97,942,128,35140,-23,35,127,0,0,2619,-54,1500,1697,387,194,185,1,1,246,23,426883,0
426883,279,-1941,300,457,200,-140,12802,-242,-129,901,64,35146,-45,35,127,0,0,2601,-164,1500,1697,387,194,195,1,1,246,23,426883,0
426893,116,-1958,16,562,196,-130,12711,-174,-139,917,120,35143,-45,35,127,0,0,2581,-175,1500,1697,387,194,205,1,1,246,23,426883,0
426903,43,-1973,-65,597,88,-48,12665,-68,93,903,216,35136,-14,35,127,0,0,2575,-76,1500,1697,387,194,215,1,1,246,23,426883,0
426914,136,-2186,140,518,-5,96,12670,17,187,913,240,35144,7,35,127,0,0,2575,-16,1500,1697,387,194,226,1,1,246,23,426898,0
426924,38,-2194,264,521,35,8,12665,-22,69,915,248,35143,24,35,127,0,0,2576,-5,1500,1697,387,194,236,1,1,246,23,426914,0
426934,181,-2079,243,463,-10,-108,12661,-9,-29,921,224,35158,20,35,127,0,0,2574,32,1500,1697,387,194,246,1,1,246,23,426914,0
426944,205,-1915,169,473,-99,-154,12631,-101,-39,955,136,35146,26,35,127,0,0,2567,-21,1500,1697,387,194,256,1,1,246,23,426914,0
426954,-163,-1899,40,471,-68,-250,12563,-156,-126,914,104,35151,9,35,127,0,0,2556,-142,1500,1697,387,194,266,1,1,246,23,426914,0
426964,-320,-1950,84,451,18,-354,12494,-145,-67,911,136,35149,-8,35,127,0,0,2548,-76,1500,1697,387,194,276,1,1,246,23,426945,0
426974,15,-1877,297,370,39,-528,12430,-156,15,935,96,35150,-6,35,127,0,0,2532,-120,1500,1697,387,194,286,1,1,246,23,426945,0
426984,47,-1949,364,321,-42,-656,12339,-212,-50,915,80,35152,6,35,127,0,0,2516,-164,1500,1697,387,194,296,1,1,246,23,426961,0
426994,29,-2029,384,218,-30,-902,12212,-314,-120,890,24,35140,13,35,127,0,0,2491,-225,1500,1697,387,194,306,1,1,246,23,426961,0
427004,12,-2128,455,132,2,-1036,12056,-354,-127,906,8,35148,-24,35,127,0,0,2462,-324,1500,1697,387,194,316,1,1,246,23,426961,0
427014,146,-2065,512,-9,-43,-1211,11872,-431,-109,923,-56,35155,-40,35,127,0,0,2427,-324,1500,1697,387,194,326,1,1,246,23,426976,0
427024,84,-2016,453,-77,-102,-1324,11653,-492,-122,866,-64,35164,-38,35,127,0,0,2385,-428,1500,1697,387,194,336,1,1,246,23,426992,0
427034,58,-1934,202,-144,-166,-1441,11435,-472,-70,932,-24,35158,-30,35,127,0,0,2346,-395,1500,1697,387,194,346,1,1,246,23,426992,0
427044,14,-1961,165,-161,-216,-1435,11238,-410,50,976,-16,35162,-23,35,127,0,0,2313,-335,1500,1697,387,194,356,1,1,246,23,427039,0
427054,49,-1983,194,-144,-266,-1470,11052,-416,64,943,-32,35155,-30,35,127,0,0,2275,-324,1500,1697,387,194,366,1,1,246,23,427039,0
427064,116,-2075,133,-135,-201,-1552,10859,-436,8,932,-56,35152,-31,35,127,0,0,2236,-395,1500,1697,387,194,376,1,1,246,23,427039,0
427074,186,-2105,170,-101,-124,-1717,10648,-475,-47,896,-48,35149,-22,35,127,0,0,2196,-384,1500,1697,387,194,386,1,1,246,23,427039,0
427084,211,-2179,226,-93,-148,-1740,10431,-481,-48,943,-32,35152,-26,35,127,0,0,2152,-461,1500,1697,387,194,396,1,1,246,23,427039,0
427094,294,-2249,240,-47,-236,-1804,10223,-448,4,952,-8,35155,-50,35,127,0,0,2111,-444,1500,1697,387,194,406,1,1,246,23,427070,0
427104,260,-2237,331,-70,-396,-1806,10057,-330,91,982,64,35156,-43,35,127,0,0,2076,-324,1500,1697,387,194,416,1,1,246,23,427086,0
427114,488,-2514,577,-40,-912,-1791,9938,-234,183,981,104,35152,-31,35,127,0,0,2054,-225,1500,1697,387,194,426,1,1,246,23,427086,0
427124,41,-3010,618,-85,-1114,-1700,9867,-110,182,936,192,35150,9,35,127,0,0,2037,-115,1500,1697,387,194,436,1,1,246,23,427086,0
427134,-640,-2740,549,-358,-845,-1901,9869,44,232,909,336,35161,6,35,127,0,0,2037,-5,1620,1697,387,194,446,1,1,246,23,427117,0
427144,-434,-2720,309,-556,-622,-2135,9920,150,240,984,608,35161,9,35,127,0,0,2045,109,1860,1697,387,194,456,1,1,246,23,427117,0
427154,-159,-2661,178,-615,-718,-2352,10016,247,182,1160,912,35161,10,35,127,0,0,2066,192,2160,1697,387,194,466,1,1,246,23,427133,0
427165,-281,-2843,90,-800,-876,-2462,10196,431,213,1340,1560,35140,16,35,127,0,0,2096,296,2580,1697,387,194,477,1,1,246,23,427133,0
427175,-96,-3155,211,-1053,-898,-2505,10468,682,326,1674,2336,35130,12,35,127,0,0,2155,593,3040,1697,387,194,487,1,1,246,23,427133,0
427185,-225,-3306,541,-1278,-853,-2545,10861,948,439,2030,3056,35124,51,35,127,0,0,2230,769,3600,1697,387,194,497,1,1,246,23,427242,0
427195,-295,-3151,683,-1349,-943,-2637,11361,1167,438,2396,3720,35122,120,35,127,0,0,2326,955,4110,1697,387,194,507,1,1,246,23,427242,0
427205,-250,-2996,631,-1456,-1075,-2804,11939,1311,355,2669,4152,35097,206,35,127,0,0,2432,1098,4630,1697,387,194,517,1,1,246,23,427242,0
427215,-485,-2883,661,-1512,-1146,-2880,12574,1432,256,2924,4648,35077,265,35,127,0,0,2548,1186,5270,1697,387,194,527,1,1,246,23,427242,0
427225,-643,-2984,546,-1673,-1126,-2948,13281,1629,249,3337,5264,35049,319,35,127,0,0,2685,1340,6050,1697,387,194,537,1,1,246,23,427242,0
427235,-714,-3163,463,-1749,-989,-3098,14128,1980,399,3834,6336,35024,404,35,127,0,0,2838,1560,6990,1697,387,194,547,1,1,246,23,427257,0
427245,-790,-2887,397,-1844,-1043,-3157,15186,2482,673,4470,7520,34986,547,35,127,0,0,3021,1889,8130,1697,387,194,557,1,1,246,23,427257,0
427255,-636,-2729,430,-1846,-1247,-3032,16460,2929,825,5136,8840,34920,756,35,127,0,0,3254,2351,9440,1697,387,194,567,1,1,246,23,427257,0
427265,-531,-2616,431,-1716,-1656,-3079,17919,3333,765,5798,9952,34835,1038,35,127,0,0,3522,2702,10530,1697,387,194,577,1,1,246,23,427257,0
427275,-995,-2612,490,-1638,-1936,-2932,19554,3668,702,6570,10720,34739,1368,35,127,0,0,3810,2911,11780,1697,387,194,587,1,1,246,23,427257,0
427285,-1530,-3036,507,-1725,-1788,-3029,21227,3691,411,7001,11240,34635,1721,35,127,0,0,4111,3054,13160,1697,387,194,597,1,1,246,23,427257,0
427295,-1132,-3147,459,-1749,-1784,-3571,23014,4067,264,8031,12288,34538,2078,35,127,0,0,4438,3240,14510,1697,387,194,607,1,1,246,23,427257,0
427305,-459,-4145,307,-1884,-2155,-3952,24923,4176,491,8471,12080,34443,2432,35,127,0,0,4757,3175,14330,1697,387,194,617,1,1,246,23,427273,0
427315,-386,-4375,329,-1902,-2243,-4413,26676,3693,-60,8221,10584,34371,2649,35,127,0,0,5058,2999,13910,1697,387,194,627,1,1,246,23,427289,0
427325,-491,-4158,330,-1701,-2109,-5420,28116,2913,-910,7754,8296,34366,2621,35,127,0,0,5310,2460,10280,1697,387,194,637,1,1,246,23,427289,0
427335,247,-3938,604,-1597,-1979,-6204,29081,1691,-1497,4866,3760,34469,2181,35,127,0,0,5506,1878,4520,1697,387,194,647,1,1,246,23,427304,0
427345,560,-4042,552,-1654,-2148,-7692,29271,-137,-2395,1809,-64,34687,1416,35,127,0,0,5554,329,2610,1697,387,194,657,1,1,246,23,427304,0
427355,-113,-3814,655,-1598,-2430,-7877,28861,-1105,-2705,882,-1248,34902,661,35,127,0,0,5486,-769,2000,1697,387,194,667,1,1,246,23,427351,0
427365,-2297,-2905,1589,-528,-3363,-6543,28361,-1021,-1318,604,-936,35059,146,35,127,0,0,5407,-758,0,1697,387,194,677,0,1,246,23,427351,0
427375,-3684,-1098,1375,-209,-4789,-3190,27879,-1310,-59,-1599,-3984,35105,8,35,127,0,0,5554,1867,0,1697,387,194,687,0,1,246,23,427351,0
427385,1866,-3406,-658,-1304,-2096,-3910,27120,-1788,-547,-1332,-5672,35104,42,35,127,0,0,5743,1604,0,1697,387,194,697,0,1,246,23,427351,0
427395,670,-2989,-196,-589,-1498,-4197,26164,-2026,-927,-32,-3512,35082,93,35,127,0,0,5710,-450,0,1697,387,194,707,0,1,246,23,427351,0
427405,716,-2019,-103,87,-766,-3985,25374,-1614,-34,61,-3432,35093,79,35,127,0,0,5550,-1702,0,1697,387,194,717,0,1,246,23,427367,0
427416,543,-1761,109,187,-200,-3346,24679,-1554,513,-823,-4424,35112,54,35,127,0,0,5294,-2422,0,1697,387,194,728,0,1,246,23,427398,0
427426,113,-1742,242,392,-54,-2438,23843,-1958,-171,-1064,-5056,35123,59,35,127,0,0,5087,-2147,0,1697,387,194,738,0,1,246,23,427398,0
427436,107,-1811,140,533,-132,-1796,22879,-2168,-538,-718,-5288,35104,108,35,127,0,0,4893,-1884,0,1697,387,194,748,0,1,246,23,427398,0
427446,291,-1906,43,730,-342,-569,21893,-2142,-250,-430,-5016,35093,127,35,127,0,0,4742,-1422,0,1697,387,194,758,0,1,246,23,427414,0
427456,353,-1834,24,894,-310,258,20974,-1955,128,-234,-4480,35099,109,35,127,0,0,4635,-1043,0,1697,387,194,768,0,1,246,23,427414,0
427466,394,-1625,-49,1110,-88,1285,20142,-1769,309,-93,-3632,35108,77,35,127,0,0,4556,-774,0,1697,387,194,778,0,1,246,23,427461,0
427476,392,-1453,-74,1213,137,1826,19399,-1565,337,14,-2752,35113,45,35,127,0,0,4491,-631,0,1697,387,194,788,0,1,246,23,427461,0
427486,420,-1263,-186,1323,542,2526,18772,-1293,398,32,-2112,35114,17,35,127,0,0,4416,-714,0,1697,387,194,798,0,1,246,23,427461,0
427496,411,-1206,-230,1427,832,2990,18261,-1050,444,-25,-1840,35119,16,35,127,0,0,4341,-763,0,1697,387,194,808,0,1,246,23,427461,0
427506,385,-1120,-288,1552,1197,3740,17845,-865,397,-150,-1704,35119,13,35,127,0,0,4261,-791,0,1697,387,194,818,0,1,246,23,427461,0
427516,393,-1112,-307,1602,1412,4271,17477,-786,258,-280,-1616,35124,37,35,127,0,0,4192,-681,0,1697,387,194,828,0,1,246,23,427493,0
427526,382,-1105,-293,1692,1652,5061,17138,-731,138,-303,-1456,35119,34,35,127,0,0,4129,-626,0,1697,387,194,838,0,1,246,23,427493,0
427536,403,-1099,-283,1758,1761,5566,16819,-685,84,-284,-1288,35120,28,35,127,0,0,4084,-450,0,1697,387,194,848,0,1,246,23,427493,0
427546,415,-1120,-285,1865,1874,6235,16531,-608,97,-247,-1056,35122,8,35,127,0,0,4040,-411,0,1697,387,194,858,0,1,246,23,427525,0
427556,448,-1176,-278,1923,1941,6626,16275,-542,127,-203,-816,35129,-7,35,127,0,0,4003,-401,0,1697,387,194,868,0,1,246,23,427571,0
427566,421,-1252,-256,1988,2075,7141,16054,-457,127,-244,-680,35127,2,35,127,0,0,3963,-433,0,1697,387,194,878,0,1,246,23,427587,0
427576,396,-1275,-251,1992,2156,7479,15859,-419,114,-299,-656,35123,-7,35,127,0,0,3917,-450,0,1697,387,194,888,0,1,246,23,427587,0
427586,320,-1367,-261,1981,2220,7957,15673,-390,62,-326,-624,35119,10,35,127,0,0,3873,-444,0,1697,387,194,898,0,1,246,23,427587,0
427596,329,-1443,-272,1968,2194,8291,15493,-399,26,-322,-632,35117,18,35,127,0,0,3830,-417,0,1697,387,194,908,0,1,246,23,427603,0
427606,300,-1564,-245,1978,2105,8732,15313,-396,4,-319,-536,35115,19,35,127,0,0,3799,-302,0,1697,387,194,918,0,1,246,23,427603,0
427616,310,-1606,-264,2001,2059,9002,15151,-341,40,-286,-392,35116,11,35,127,0,0,3772,-230,0,1697,387,194,928,0,1,246,23,427603,0
427626,339,-1679,-306,2046,2077,9355,15016,-275,95,-237,-224,35115,5,35,127,0,0,3752,-214,0,1697,387,194,938,0,1,246,23,427603,0
427636,384,-1711,-335,2105,2136,9527,14916,-159,123,-132,-80,35127,5,35,127,0,0,3740,-142,0,1697,387,194,948,0,1,246,23,427603,0
427646,430,-1779,-314,2208,2233,9778,14890,-2,226,-155,-88,35133,13,35,127,0,0,3722,-197,0,1697,387,194,958,0,1,246,23,427618,0
427657,473,-1900,-220,2357,2319,9974,14888,-13,164,-347,-96,35143,19,35,127,0,0,3713,-120,0,1697,387,194,969,0,1,246,23,427618,0
427667,522,-1960,-159,2466,2344,10074,14890,1,25,-306,-96,35149,23,35,127,0,0,3706,-98,0,1697,387,194,979,0,1,246,23,427665,0
427677,619,-2076,-96,2602,2386,10119,14893,8,13,-197,-32,35154,41,35,127,0,0,3702,-54,0,1697,387,194,989,0,1,246,23,427665,0
427687,682,-2186,-77,2684,2409,10095,14898,1,8,-60,32,35150,48,35,127,0,0,3700,10,0,1697,387,194,999,0,1,246,23,427665,0
427697,840,-2423,-24,2782,2441,9906,14915,49,24,215,104,35134,30,35,127,0,0,3695,-43,0,1697,387,194,1009,0,1,246,23,427665,0
427707,1003,-2615,-13,2764,2448,9709,14954,99,68,181,72,35123,12,35,127,0,0,3695,-10,0,1697,387,194,1019,0,1,246,23,427665,0
427717,1261,-2908,-9,2635,2315,9264,14992,46,32,210,128,35125,7,35,127,0,0,3691,-43,0,1697,387,194,1029,0,1,246,23,427696,0
427727,1423,-3078,11,2464,2146,8838,15002,34,-75,415,80,35138,9,35,127,0,0,3687,-87,0,1697,387,194,1039,0,1,246,23,427696,0
427737,1777,-3379,10,2032,1646,8080,15027,78,-11,372,128,35138,7,35,127,0,0,3684,-43,0,1697,387,194,1049,0,1,246,23,427696,0
427747,2031,-3577,66,1604,1197,7459,15060,61,57,372,192,35142,18,35,127,0,0,3682,-10,0,1697,387,194,1059,0,1,246,23,427712,0
427757,2307,-3778,198,928,489,6291,15112,143,48,302,128,35141,38,35,127,0,0,3676,-98,0,1697,387,194,1069,0,1,246,23,427728,0
427767,2532,-3822,189,487,30,5379,15166,103,58,109,32,35134,41,35,127,0,0,3662,-153,0,1697,387,194,1079,0,1,246,23,427759,0
427777,2766,-3472,65,-150,-622,3962,15163,-43,-107,-55,-48,35130,22,35,127,0,0,3645,-197,0,1697,387,194,1089,0,1,246,23,427759,0
427787,2850,-3205,10,-405,-948,2951,15146,-36,-151,-290,-184,35128,16,35,127,0,0,3618,-274,0,1697,387,194,1099,0,1,246,23,427759,0
427797,2803,-2777,-168,-690,-1301,1389,15102,-143,-63,-512,-376,35129,19,35,127,0,0,3581,-362,0,1697,387,194,1109,0,1,246,23,427775,0
427807,2672,-2516,-195,-799,-1386,312,14999,-257,-175,-492,-520,35128,21,35,127,0,0,3537,-439,0,1697,387,194,1119,0,1,246,23,427775,0
427817,2528,-2174,-303,-945,-1274,-1279,14864,-302,-175,-504,-600,35123,32,35,127,0,0,3489,-450,0,1697,387,194,1129,0,1,246,23,427790,0
427827,2399,-2176,-411,-1063,-1050,-2250,14705,-363,-104,-478,-704,35117,56,35,127,0,0,3447,-417,0,1697,387,194,1139,0,1,246,23,427790,0
427837,1235,-5228,-1097,-1475,-1094,-3250,14534,-378,-75,-392,-488,35120,52,35,127,0,0,3449,65,0,1697,387,194,1149,0,1,246,23,427806,0
427847,1570,-5836,388,-1687,93,-3375,14432,-49,81,753,992,35124,33,35,127,0,0,3583,1362,0,16617,6477,195,7,1,1,440,16,427821,0
427857,41,-1336,1095,-230,-144,-4716,14675,704,805,1022,1792,35131,15,35,127,0,0,3612,109,0,16617,6477,195,17,1,1,440,16,427821,0
427867,-298,-1410,534,-1512,-730,-4335,15033,772,918,266,1288,35128,29,35,127,0,0,3574,-351,0,16617,6477,195,27,1,1,440,16,427821,0
427877,-624,-2297,454,-1602,-468,-3133,15328,606,77,277,1152,35134,33,35,127,0,0,3581,109,0,16617,6477,195,37,1,1,440,16,427868,0
427887,-566,-1713,-276,-1887,-541,-2836,15594,591,-191,567,1576,35141,51,35,127,0,0,3627,505,0,16617,6477,195,47,1,1,440,16,427868,0
427897,-879,-2010,-551,-1655,372,-3075,15924,789,67,765,2128,35137,57,35,127,0,0,3684,571,0,16617,6477,195,57,1,1,440,16,427868,0
427907,-780,-1509,-207,-1528,1224,-2867,16333,945,294,721,2416,35125,66,35,127,0,0,3737,505,0,16617,6477,195,67,1,1,440,16,427884,0
427917,-865,-1700,834,-1226,1606,-2479,16798,1039,260,632,2648,35113,58,35,127,0,0,3801,703,0,16617,6477,195,77,1,1,440,16,427884,0
427928,-236,-1472,444,-1182,2017,-2355,17360,1166,183,675,2776,35121,56,35,127,0,0,3893,862,0,16617,6477,195,88,1,1,440,16,427962,0
427938,1265,-2299,-457,-1040,2278,-2488,17894,1170,132,447,2656,35133,58,35,127,0,0,3968,653,0,16617,6477,195,98,1,1,440,16,427978,0
427948,1122,-2020,-765,-910,1787,-2953,18400,1058,-16,200,1808,35135,66,35,127,0,0,3960,-170,0,16617,6477,195,108,1,1,440,16,427978,0
427958,2785,-2400,-858,-1092,-144,-3213,18793,771,-266,-3,600,35132,61,35,127,0,0,3901,-659,0,16617,6477,195,118,1,1,440,16,427978,0
427968,354,-2609,-562,-1022,-505,-2400,18958,34,-630,-1491,-728,35124,44,35,127,0,0,3815,-823,0,16617,6477,195,128,1,1,440,16,427978,0
