state_time,accelx,accely,accelz,gyrox,gyroy,gyroz,mot_ang,mot_vel,mot_acc,mot_cur,mot_volt,batt_volt,batt_curr,temperature,status_mn,status_ex,status_re,ank_ang,ank_vel,ank_torque,peak_ank_torque,step_energy,step_count,step_time,gait_state,movement,speed,incline,sys_time,eventFlags
252615,160,-2080,114,117,67,484,11294,116,-18,337,208,35185,63,35,127,0,0,3260,87,0,1291,229,113,7199,-4,0,33,0,252669,0
252625,176,-2067,135,123,68,483,11345,118,-1,384,200,35186,25,35,127,0,0,3273,109,0,1291,229,113,7209,-4,0,33,0,252669,0
252635,190,-2079,142,108,53,500,11411,144,32,346,160,35185,24,35,127,0,0,3287,131,0,1291,229,113,7219,-4,0,33,0,252669,0
252646,120,-2085,156,118,56,498,11491,179,45,279,112,35182,19,34,127,0,0,3295,71,0,1291,229,113,7230,-4,0,33,0,252669,0
252656,189,-2073,167,120,52,490,11546,106,-15,335,192,35192,23,35,127,0,0,3310,131,0,1291,229,113,7240,-4,0,33,0,252669,0
252666,126,-2069,157,113,61,470,11585,81,-69,461,208,35196,31,35,127,0,0,3318,98,0,1291,229,113,7250,-4,0,33,0,252669,0
252676,74,-2081,156,108,59,462,11645,133,19,327,176,35192,31,35,127,0,0,3327,93,0,1291,229,113,7260,-4,0,33,0,252669,0
252686,114,-2081,177,98,41,435,11703,97,27,315,176,35178,54,35,127,0,0,3338,98,0,1291,229,113,7270,-4,0,33,0,252669,0
252696,53,-2072,184,85,51,400,11743,93,-56,359,168,35180,51,35,127,0,0,3348,115,0,1291,229,113,7280,-4,0,33,0,252669,0
252706,70,-2066,189,65,63,348,11791,122,-10,364,160,35196,53,35,127,0,0,3350,21,0,1291,229,113,7290,-4,0,33,0,252700,0
252716,86,-2076,185,47,43,348,11851,122,39,257,112,35198,51,34,127,0,0,3360,43,0,1291,229,113,7300,-4,0,33,0,252700,0
252726,84,-2073,195,32,41,299,11894,69,-16,257,96,35198,55,35,127,0,0,3364,27,0,1291,229,113,7310,-4,0,33,0,252700,0
252736,42,-2083,198,25,46,254,11918,71,-72,297,120,35193,45,35,127,0,0,3370,27,0,1291,229,113,7320,-4,0,33,0,252700,0
252746,90,-2076,205,3,46,217,11945,37,-15,317,88,35207,57,35,127,0,0,3376,5,0,1291,229,113,7330,-4,0,33,0,252716,0
252756,64,-2083,203,-9,38,185,11946,1,-53,372,104,35216,62,35,127,0,0,3375,-5,0,1291,229,113,7340,-4,0,33,0,252731,0
252766,56,-2085,201,-35,40,146,11946,2,-41,366,128,35215,87,35,127,0,0,3377,38,0,1291,229,113,7350,-4,0,33,0,252747,0
252776,57,-2085,203,-45,35,125,11950,18,12,415,120,35191,84,35,127,0,0,3373,-38,0,1291,229,113,7360,-4,0,33,0,252747,0
252786,77,-2092,186,-55,37,99,11950,0,-4,366,120,35181,80,34,127,0,0,3373,5,0,1291,229,113,7370,-4,0,33,0,252747,0
252796,83,-2091,179,-56,32,82,11951,5,-5,394,96,35194,67,34,127,0,0,3375,-43,0,1291,229,113,7380,-4,0,33,0,252778,0
252806,100,-2076,169,-61,31,69,11950,-2,4,375,96,35206,69,35,127,0,0,3375,0,0,1291,229,113,7390,-4,0,33,0,252778,0
252816,113,-2084,158,-64,33,60,11950,-3,-6,351,96,35201,62,35,127,0,0,3375,16,0,1291,229,113,7400,-4,0,33,0,252794,0
252826,123,-2087,148,-49,50,47,11952,3,0,329,48,35203,60,35,127,0,0,3370,-54,0,1291,229,113,7410,-4,0,33,0,252825,0
252836,129,-2076,143,-48,51,34,11945,-12,-8,203,64,35202,58,35,127,0,0,3370,21,0,1291,229,113,7420,-4,0,33,0,252840,0
252846,147,-2079,157,-40,44,53,11945,-5,-1,180,64,35197,46,35,127,0,0,3367,16,0,1291,229,113,7430,-4,0,33,0,252840,0
252856,130,-2076,162,-35,49,60,11942,-16,6,115,0,35190,59,35,127,0,0,3364,-43,0,1291,229,113,7440,-4,0,33,0,252840,0
252866,146,-2080,165,-35,44,69,11935,-10,-15,74,16,35187,62,35,127,0,0,3364,-5,0,1291,229,113,7450,-4,0,33,0,252840,0
252876,168,-2079,172,-30,41,88,11936,-2,2,41,8,35194,66,35,127,0,0,3360,-32,0,1291,229,113,7460,-4,0,33,0,252840,0
252886,169,-2067,161,-30,42,109,11936,5,12,6,-8,35208,68,34,127,0,0,3361,-16,0,1291,229,113,7470,-4,0,33,0,252856,0
252897,149,-2070,130,-17,43,128,11934,5,3,26,-16,35211,67,35,127,0,0,3364,10,0,1291,229,113,7481,-4,0,33,0,252872,0
252907,128,-2073,128,-2,42,141,11935,0,-1,46,-8,35215,71,35,127,0,0,3361,-10,0,1291,229,113,7491,-4,0,33,0,252872,0
252917,156,-2095,151,12,64,144,11935,1,2,19,24,35209,68,35,127,0,0,3361,-21,0,1291,229,113,7501,-4,0,33,0,252903,0
252927,161,-2091,156,18,65,150,11934,1,2,23,16,35208,75,35,127,0,0,3364,0,0,1291,229,113,7511,-4,0,33,0,252903,0
252937,155,-2081,165,27,63,170,11934,2,3,35,16,35209,70,35,127,0,0,3364,21,0,1291,229,113,7521,-4,0,33,0,252903,0
252947,148,-2079,178,29,56,191,11935,-1,5,39,16,35204,73,35,127,0,0,3364,0,0,1291,229,113,7531,-4,0,33,0,252919,0
252957,158,-2077,183,29,43,220,11935,2,4,99,56,35213,52,35,127,0,0,3368,43,0,1291,229,113,7541,-4,0,33,0,252934,0
252967,154,-2077,185,31,38,230,11940,5,8,211,88,35212,58,35,127,0,0,3370,32,0,1291,229,113,7551,-4,0,33,0,252934,0
252977,111,-2080,190,29,33,234,11941,0,-6,304,128,35219,44,35,127,0,0,3375,54,0,1291,229,113,7561,-4,0,33,0,252950,0
252987,103,-2091,191,25,38,225,11948,7,2,336,112,35206,47,35,127,0,0,3379,65,0,1291,229,113,7571,-4,0,33,0,252981,0
252997,93,-2094,195,18,41,207,11954,25,3,476,160,35209,29,35,127,0,0,3381,21,0,1291,229,113,7581,-4,0,33,0,252981,0
253007,114,-2080,200,13,47,200,11981,75,41,362,128,35210,31,35,127,0,0,3383,32,0,1291,229,113,7591,-4,0,33,0,252981,0
253017,140,-2084,187,8,23,206,12006,29,40,293,136,35202,54,35,127,0,0,3385,10,0,1291,229,113,7601,-4,0,33,0,252981,0
253027,93,-2079,179,12,29,193,12011,10,-49,399,136,35193,59,35,127,0,0,3390,21,0,1291,229,113,7611,-4,0,33,0,252997,0
253037,124,-2078,185,10,48,187,12026,36,-23,389,88,35201,33,35,127,0,0,3396,54,0,1291,229,113,7621,-4,0,33,0,253012,0
253047,113,-2086,195,10,44,192,12065,94,65,268,96,35211,22,35,127,0,0,3396,21,0,1291,229,113,7631,-4,0,33,0,253028,0
253057,115,-2082,207,5,32,198,12086,34,16,256,120,35211,28,34,127,0,0,3396,-21,0,1291,229,113,7641,-4,0,33,0,253028,0
253067,117,-2082,201,2,36,204,12093,11,-71,219,80,35215,19,35,127,0,0,3401,32,0,1291,229,113,7651,-4,0,33,0,253044,0
253077,114,-2084,194,2,46,202,12107,42,-12,241,56,35216,4,35,127,0,0,3405,21,0,1291,229,113,7661,-4,0,33,0,253044,0
253087,119,-2078,201,2,45,195,12116,16,-1,308,80,35216,1,35,127,0,0,3405,0,0,1291,229,113,7671,-4,0,33,0,253075,0
253097,104,-2071,200,-4,34,194,12121,7,-24,348,96,35225,-3,35,127,0,0,3407,32,0,1291,229,113,7681,-4,0,33,0,253075,0
253107,80,-2078,205,-15,33,193,12124,11,-11,410,144,35209,13,35,127,0,0,3412,21,0,1291,229,113,7691,-4,0,33,0,253075,0
253117,89,-2076,206,-14,39,175,12130,8,5,423,120,35216,7,35,127,0,0,3412,0,0,1291,229,113,7701,-4,0,33,0,253106,0
253127,92,-2077,208,-16,45,166,12132,3,-7,436,120,35218,8,35,127,0,0,3412,0,0,1291,229,113,7711,-4,0,33,0,253106,0
253137,87,-2077,202,-17,38,156,12138,16,-1,461,128,35222,11,35,127,0,0,3416,0,0,1291,229,113,7721,-4,0,33,0,253106,0
253148,93,-2078,210,-25,41,147,12154,44,22,436,120,35220,9,35,127,0,0,3416,0,0,1291,229,113,7732,-4,0,33,0,253122,0
253158,88,-2081,205,-32,45,149,12183,68,54,225,80,35220,13,35,127,0,0,3418,10,0,1291,229,113,7742,-4,0,33,0,253153,0
253168,109,-2084,210,-28,41,150,12192,-1,-8,228,40,35237,15,35,127,0,0,3420,27,0,1291,229,113,7752,-4,0,33,0,253169,0
253178,85,-2080,185,-38,43,139,12194,26,-67,301,64,35234,19,35,127,0,0,3422,10,0,1291,229,113,7762,-4,0,33,0,253169,0
253188,103,-2077,206,-33,43,139,12194,-5,0,291,104,35214,32,35,127,0,0,3423,71,0,1291,229,113,7772,-4,0,33,0,253169,0
253198,101,-2086,214,-42,38,146,12195,0,1,256,80,35195,47,35,127,0,0,3417,32,0,1291,229,113,7782,-4,0,33,0,253169,0
253208,81,-2083,214,-40,44,137,12197,21,2,308,96,35190,42,34,127,0,0,3423,0,0,1291,229,113,7792,-4,0,33,0,253184,0
253218,86,-2077,210,-53,45,118,12205,20,20,318,80,35210,34,34,127,0,0,3423,0,0,1291,229,113,7802,-4,0,33,0,253215,0
253228,88,-2080,204,-53,40,109,12224,51,25,216,48,35215,32,35,127,0,0,3423,-27,0,1291,229,113,7812,-4,0,33,0,253215,0
253238,116,-2069,216,-62,43,100,12233,-12,8,38,16,35218,39,35,127,0,0,3426,93,0,1291,229,113,7822,-4,0,33,0,253231,0
253248,73,-2079,217,-68,37,98,12234,-4,-42,77,24,35209,40,35,127,0,0,3423,54,0,1291,229,113,7832,-4,0,33,0,253231,0
253258,110,-2073,224,-75,44,89,12236,1,-14,117,16,35206,38,35,127,0,0,3420,-60,0,1291,229,113,7842,-4,0,33,0,253231,0
253268,109,-2079,226,-77,39,87,12234,1,-2,102,24,35204,18,35,127,0,0,3423,-16,0,1291,229,113,7852,-4,0,33,0,253231,0
253278,95,-2082,217,-88,31,90,12231,-24,-10,37,8,35219,28,35,127,0,0,3417,-27,0,1291,229,113,7862,-4,0,33,0,253262,0
253288,91,-2077,205,-88,33,91,12233,1,0,-18,8,35224,19,35,127,0,0,3421,10,0,1291,229,113,7872,-4,0,33,0,253262,0
253298,115,-2079,212,-94,37,88,12233,1,14,19,-24,35219,25,35,127,0,0,3422,0,0,1291,229,113,7882,-4,0,33,0,253262,0
253308,90,-2080,201,-94,33,87,12233,2,2,9,0,35204,13,35,127,0,0,3424,54,0,1291,229,113,7892,-4,0,33,0,253278,0
253318,108,-2085,190,-96,33,92,12232,-6,1,24,-16,35195,19,35,127,0,0,3422,27,0,1291,229,113,7902,-4,0,33,0,253278,0
253328,89,-2086,194,-94,39,86,12234,2,2,21,0,35201,21,35,127,0,0,3417,-38,0,1291,229,113,7912,-4,0,33,0,253309,0
253338,93,-2078,206,-95,41,90,12232,3,-2,-21,-16,35219,26,35,127,0,0,3418,-27,0,1291,229,113,7922,-4,0,33,0,253309,0
253348,117,-2077,219,-102,36,89,12232,-6,-5,-59,-16,35219,29,35,127,0,0,3415,-16,0,1291,229,113,7932,-4,0,33,0,253309,0
253358,118,-2076,210,-109,38,95,12230,-6,-3,-109,-8,35218,38,34,127,0,0,3415,-5,0,1291,229,113,7942,-4,0,33,0,253340,0
253368,120,-2079,214,-110,29,93,12228,-18,-2,-148,-32,35200,46,35,127,0,0,3416,0,0,1291,229,113,7952,-4,0,33,0,253340,0
253378,109,-2081,216,-120,39,80,12229,-8,-1,-128,-80,35192,37,35,127,0,0,3412,-76,0,1291,229,113,7962,-4,0,33,0,253356,0
253388,109,-2080,223,-115,42,71,12220,-13,-6,-219,-64,35193,42,35,127,0,0,3412,-5,0,1291,229,113,7972,-4,0,33,0,253356,0
253399,133,-2080,212,-124,36,77,12221,-1,-1,-283,-48,35203,36,35,127,0,0,3410,-10,0,1291,229,113,7983,-4,0,33,0,253372,0
253409,118,-2079,203,-128,39,80,12218,-14,8,-320,-32,35217,35,35,127,0,0,3410,10,0,1291,229,113,7993,-4,0,33,0,253403,0
253419,114,-2076,193,-127,41,78,12216,3,0,-278,-112,35221,37,35,127,0,0,3407,-54,0,1291,229,113,8003,-4,0,33,0,253403,0
253429,123,-2073,195,-125,34,89,12209,-19,-6,-301,-56,35212,34,35,127,0,0,3407,0,0,1291,229,113,8013,-4,0,33,0,253403,0
253439,128,-2077,196,-125,30,96,12200,-28,-20,-262,-64,35202,38,35,127,0,0,3407,0,0,1291,229,113,8023,-4,0,33,0,253403,0
253449,126,-2074,191,-126,35,99,12188,-22,-11,-154,-40,35207,47,35,127,0,0,3407,0,0,1291,229,113,8033,-4,0,33,0,253418,0
253459,116,-2087,190,-123,39,103,12184,2,10,-154,-32,35202,47,34,127,0,0,3407,10,0,1291,229,113,8043,-4,0,33,0,253465,0
253469,129,-2080,205,-124,32,107,12182,-15,15,-210,0,35204,33,34,127,0,0,3405,21,0,1291,229,113,8053,-4,0,33,0,253465,0
253479,128,-2075,204,-126,39,109,12181,0,-1,-198,-96,35198,16,35,127,0,0,3403,-32,0,1291,229,113,8063,-4,0,33,0,253465,0
253489,100,-2075,205,-124,48,108,12179,-7,2,-257,-56,35187,14,34,127,0,0,3403,10,0,1291,229,113,8073,-4,0,33,0,253481,0
253499,102,-2080,202,-127,42,107,12178,4,3,-219,-64,35184,31,34,127,0,0,3403,0,0,1291,229,113,8083,-4,0,33,0,253481,0
253509,100,-2075,192,-131,34,106,12178,3,13,-204,-64,35187,24,34,127,0,0,3401,-43,0,1291,229,113,8093,-4,0,33,0,253481,0
253519,107,-2075,192,-127,39,101,12176,-9,-5,-261,-128,35197,10,35,127,0,0,3401,-21,0,1291,229,113,8103,-4,0,33,0,253559,0
253529,99,-2070,184,-125,42,93,12172,-6,-4,-270,-104,35202,4,35,127,0,0,3401,0,0,1291,229,113,8113,-4,0,33,0,253559,0
253539,115,-2078,187,-125,40,90,12173,7,11,-257,-112,35199,31,35,127,0,0,3399,-43,0,1291,229,113,8123,-4,0,33,0,253559,0
253549,113,-2081,185,-117,32,101,12171,-2,7,-290,-96,35191,35,35,127,0,0,3396,-43,0,1291,229,113,8133,-4,0,33,0,253559,0
253559,126,-2077,184,-114,42,99,12168,-12,-5,-346,-112,35188,34,35,127,0,0,3396,-21,0,1291,229,113,8143,-4,0,33,0,253575,0
253569,122,-2076,175,-108,37,103,12164,-7,-5,-333,-72,35181,40,35,127,0,0,3399,10,0,1291,229,113,8153,-4,0,33,0,253575,0
253579,124,-2081,179,-108,37,110,12162,-11,2,-332,-136,35180,44,35,127,0,0,3399,21,0,1291,229,113,8163,-4,0,33,0,253575,0
253589,121,-2079,181,-97,43,114,12159,-9,-3,-303,-56,35181,37,35,127,0,0,3396,0,0,1291,229,113,8173,-4,0,33,0,253575,0
253599,126,-2081,186,-94,38,114,12158,-6,-1,-329,-88,35186,16,34,127,0,0,3396,0,0,1291,229,113,8183,-4,0,33,0,253575,0
253609,120,-2076,187,-98,36,113,12156,-8,-2,-308,-88,35196,3,34,127,0,0,3394,-21,0,1291,229,113,8193,-4,0,33,0,253575,0
253619,123,-2083,187,-89,38,115,12152,-6,-4,-285,-80,35214,12,35,127,0,0,3396,-10,0,1291,229,113,8203,-4,0,33,0,253606,0
253629,105,-2084,185,-90,41,121,12152,0,3,-237,-80,35214,17,34,127,0,0,3399,0,0,1291,229,113,8213,-4,0,33,0,253606,0
253639,105,-2083,192,-91,39,120,12149,-4,1,-226,-40,35209,10,35,127,0,0,3399,32,0,1291,229,113,8223,-4,0,33,0,253606,0
253650,120,-2078,185,-96,36,117,12145,-6,-5,-173,-40,35201,-1,35,127,0,0,3395,-16,0,1291,229,113,8234,-4,0,33,0,253622,0
253660,129,-2080,186,-88,42,124,12142,-13,-1,-188,-40,35205,7,35,127,0,0,3395,0,0,1291,229,113,8244,-4,0,33,0,253622,0
253670,132,-2075,175,-81,35,122,12132,-29,-20,-129,-40,35211,11,35,127,0,0,3400,27,0,1291,229,113,8254,-4,0,33,0,253653,0
253680,133,-2083,176,-76,40,128,12126,-6,-3,-43,-24,35213,6,35,127,0,0,3400,38,0,1291,229,113,8264,-4,0,33,0,253653,0
253690,117,-2082,188,-81,37,140,12126,-6,23,-52,-24,35205,-6,35,127,0,0,3400,27,0,1291,229,113,8274,-4,0,33,0,253653,0
253700,116,-2079,183,-75,41,139,12127,9,8,-49,-8,35198,-2,35,127,0,0,3402,54,0,1291,229,113,8284,-4,0,33,0,253684,0
253710,149,-2071,186,-76,34,141,12127,-1,4,5,-8,35194,13,35,127,0,0,3399,32,0,1291,229,113,8294,-4,0,33,0,253684,0
253720,139,-2085,183,-69,39,148,12126,-2,-3,-35,-8,35196,19,35,127,0,0,3399,38,0,1291,229,113,8304,-4,0,33,0,253700,0
253730,129,-2078,199,-68,40,145,12127,3,-3,-2,-8,35194,1,35,127,0,0,3399,0,0,1291,229,113,8314,-4,0,33,0,253700,0
253740,117,-2085,201,-64,35,155,12126,-7,2,0,16,35189,-5,35,127,0,0,3401,38,0,1291,229,113,8324,-4,0,33,0,253715,0
253750,116,-2072,199,-69,30,159,12128,0,-2,30,16,35190,10,35,127,0,0,3401,0,0,1291,229,113,8334,-4,0,33,0,253731,0
253760,110,-2085,194,-69,34,166,12127,0,0,32,16,35196,23,35,127,0,0,3401,0,0,1291,229,113,8344,-4,0,33,0,253731,0
253770,116,-2078,184,-69,34,159,12128,6,0,33,16,35201,15,35,127,0,0,3401,0,0,1291,229,113,8354,-4,0,33,0,253747,0
253780,113,-2079,182,-63,35,163,12129,5,1,91,32,35201,8,35,127,0,0,3403,16,0,1291,229,113,8364,-4,0,33,0,253747,0
253790,115,-2090,177,-67,38,168,12134,6,15,174,72,35194,-1,35,127,0,0,3407,16,0,1291,229,113,8374,-4,0,33,0,253762,0
253800,105,-2081,183,-66,39,169,12138,-1,5,219,64,35199,8,34,127,0,0,3407,32,0,1291,229,113,8384,-4,0,33,0,253793,0
253810,103,-2082,189,-58,36,177,12141,9,-10,246,80,35200,11,35,127,0,0,3406,5,0,1291,229,113,8394,-4,0,33,0,253793,0
253820,115,-2076,192,-62,37,177,12146,17,4,266,64,35199,0,35,127,0,0,3413,5,0,1291,229,113,8404,-4,0,33,0,253793,0
253830,109,-2081,192,-64,41,188,12162,47,31,219,56,35189,16,35,127,0,0,3415,49,0,1291,229,113,8414,-4,0,33,0,253793,0
253840,102,-2077,190,-55,24,192,12187,47,34,144,32,35198,15,35,127,0,0,3414,0,0,1291,229,113,8424,-4,0,33,0,253825,0
253850,111,-2084,188,-50,39,184,12186,-23,-34,150,56,35218,17,35,127,0,0,3416,38,0,1291,229,113,8434,-4,0,33,0,253825,0
253860,98,-2085,191,-47,42,196,12189,2,-40,211,88,35222,21,35,127,0,0,3421,76,0,1291,229,113,8444,-4,0,33,0,253825,0
253870,106,-2075,210,-59,35,188,12195,15,14,313,104,35224,26,35,127,0,0,3423,27,0,1291,229,113,8454,-4,0,33,0,253840,0
253880,101,-2081,213,-63,37,186,12213,49,23,314,88,35211,51,35,127,0,0,3422,-32,0,1291,229,113,8464,-4,0,33,0,253918,0
253890,98,-2083,196,-70,36,189,12243,64,50,97,72,35211,36,35,127,0,0,3429,65,0,1291,229,113,8474,-4,0,33,0,253934,0
253900,78,-2078,193,-68,35,176,12241,-22,-34,207,80,35208,24,35,127,0,0,3426,43,0,1291,229,113,8484,-4,0,33,0,253934,0
253910,83,-2089,185,-65,45,167,12245,1,-56,231,88,35206,23,35,127,0,0,3428,10,0,1291,229,113,8494,-4,0,33,0,253950,0
253920,85,-2087,206,-69,43,155,12243,-1,-1,265,96,35199,36,35,127,0,0,3432,38,0,1291,229,113,8504,-4,0,33,0,253950,0
253930,93,-2088,223,-74,48,150,12245,-6,-5,312,88,35190,43,35,127,0,0,3435,43,0,1291,229,113,8514,-4,0,33,0,253950,0
253940,74,-2090,227,-85,36,144,12247,7,4,355,112,35192,23,35,127,0,0,3431,0,0,1291,229,113,8524,-4,0,33,0,253950,0
253950,90,-2081,208,-88,41,132,12247,0,-1,359,112,35195,32,35,127,0,0,3431,-16,0,1291,229,113,8534,-4,0,33,0,253950,0
253960,105,-2083,208,-96,40,133,12247,-4,-6,325,112,35193,24,35,127,0,0,3431,-5,0,1291,229,113,8544,-4,0,33,0,253950,0
253971,90,-2073,209,-104,43,126,12249,1,2,379,104,35201,38,35,127,0,0,3432,0,0,1291,229,113,8555,-4,0,33,0,253950,0
253981,92,-2073,200,-104,39,131,12249,-1,2,370,136,35201,46,35,127,0,0,3434,0,0,1291,229,113,8565,-4,0,33,0,253965,0
253991,115,-2066,191,-104,37,130,12251,3,-5,403,88,35213,41,35,127,0,0,3434,-21,0,1291,229,113,8575,-4,0,33,0,253965,0
254001,87,-2081,191,-104,43,139,12250,3,-1,386,104,35213,39,35,127,0,0,3436,10,0,1291,229,113,8585,-4,0,33,0,253965,0
254011,93,-2074,199,-101,42,142,12251,-3,1,428,88,35217,41,35,127,0,0,3434,-10,0,1291,229,113,8595,-4,0,33,0,253996,0
254021,92,-2080,193,-105,37,139,12252,7,-2,397,136,35220,32,35,127,0,0,3436,0,0,1291,229,113,8605,-4,0,33,0,253996,0
254031,95,-2081,200,-103,38,138,12252,4,1,428,120,35217,26,35,127,0,0,3436,0,0,1291,229,113,8615,-4,0,33,0,254012,0
254041,85,-2078,206,-115,36,137,12252,4,1,443,88,35208,28,35,127,0,0,3436,-21,0,1291,229,113,8625,-4,0,33,0,254012,0
254051,86,-2086,203,-110,44,137,12254,9,3,456,120,35208,28,35,127,0,0,3438,0,0,1291,229,113,8635,-4,0,33,0,254028,0
254061,89,-2079,200,-115,33,134,12255,7,-4,457,80,35201,50,35,127,0,0,3436,-21,0,1291,229,113,8645,-4,0,33,0,254028,0
254071,80,-2078,207,-114,37,128,12256,2,-3,438,144,35216,48,35,127,0,0,3436,10,0,1291,229,113,8655,-4,0,33,0,254059,0
254081,107,-2083,192,-116,34,116,12254,-8,4,439,104,35214,30,35,127,0,0,3436,0,0,1291,229,113,8665,-4,0,33,0,254059,0
254091,108,-2080,194,-118,32,118,12256,0,3,485,88,35211,28,35,127,0,0,3438,-10,0,1291,229,113,8675,-4,0,33,0,254059,0
254101,91,-2086,198,-117,36,125,12256,-5,2,446,144,35204,7,35,127,0,0,3438,43,0,1291,229,113,8685,-4,0,33,0,254075,0
254111,103,-2087,200,-123,36,124,12258,0,0,453,128,35210,7,35,127,0,0,3438,32,0,1291,229,113,8695,-4,0,33,0,254137,0
254121,107,-2080,194,-130,37,117,12259,0,3,454,144,35221,-3,35,127,0,0,3438,10,0,1291,229,113,8705,-4,0,33,0,254137,0
254131,94,-2081,197,-128,35,125,12259,0,-2,468,128,35218,-1,34,127,0,0,3438,0,0,1291,229,113,8715,-4,0,33,0,254137,0
254141,96,-2083,189,-128,39,116,12257,-5,-3,471,136,35210,11,35,127,0,0,3438,-10,0,1291,229,113,8725,-4,0,33,0,254137,0
254151,95,-2085,184,-125,36,117,12259,7,-1,468,128,35201,21,35,127,0,0,3438,0,0,1291,229,113,8735,-4,0,33,0,254153,0
254161,91,-2076,182,-124,33,125,12259,3,1,465,128,35197,24,35,127,0,0,3436,-32,0,1291,229,113,8745,-4,0,33,0,254153,0
254172,98,-2080,176,-127,34,112,12258,0,-1,407,112,35207,27,34,127,0,0,3436,-27,0,1291,229,113,8756,-4,0,33,0,254153,0
254182,96,-2081,180,-116,40,122,12257,-3,3,379,112,35212,31,35,127,0,0,3436,0,0,1291,229,113,8766,-4,0,33,0,254153,0
254192,99,-2074,183,-120,36,116,12258,-3,4,403,136,35216,39,35,127,0,0,3438,10,0,1291,229,113,8776,-4,0,33,0,254153,0
254202,110,-2076,187,-117,31,124,12258,-1,-2,431,104,35221,33,35,127,0,0,3439,16,0,1291,229,113,8786,-4,0,33,0,254184,0
254212,82,-2082,180,-119,38,121,12258,7,-2,425,112,35215,25,35,127,0,0,3436,5,0,1291,229,113,8796,-4,0,33,0,254184,0
254222,97,-2082,180,-118,39,113,12257,-5,-11,406,136,35216,18,35,127,0,0,3435,0,0,1291,229,113,8806,-4,0,33,0,254184,0
254232,116,-2078,189,-113,36,114,12258,-4,-2,388,112,35193,24,35,127,0,0,3436,0,0,1291,229,113,8816,-4,0,33,0,254215,0
254242,93,-2083,184,-113,40,116,12259,7,5,403,104,35196,15,35,127,0,0,3439,16,0,1291,229,113,8826,-4,0,33,0,254215,0
254252,85,-2084,183,-112,36,114,12258,-2,5,433,104,35195,5,35,127,0,0,3436,-16,0,1291,229,113,8836,-4,0,33,0,254231,0
254262,87,-2080,182,-112,40,114,12259,13,2,427,128,35195,10,35,127,0,0,3435,-27,0,1291,229,113,8846,-4,0,33,0,254246,0
254272,101,-2079,181,-120,37,111,12258,0,3,413,128,35201,21,35,127,0,0,3438,10,0,1291,229,113,8856,-4,0,33,0,254262,0
254282,102,-2080,189,-116,39,114,12259,1,1,440,104,35196,29,35,127,0,0,3436,-32,0,1291,229,113,8866,-4,0,33,0,254278,0
254292,81,-2076,186,-110,29,111,12257,0,-2,383,112,35196,36,35,127,0,0,3439,32,0,1291,229,113,8876,-4,0,33,0,254278,0
254302,91,-2082,188,-112,37,112,12259,-5,-1,429,104,35198,16,35,127,0,0,3439,16,0,1291,229,113,8886,-4,0,33,0,254278,0
254312,70,-2076,181,-113,40,104,12258,5,10,438,128,35195,15,35,127,0,0,3438,16,0,1291,229,113,8896,-4,0,33,0,254278,0
254322,108,-2079,182,-118,35,99,12259,0,-2,427,112,35203,-1,35,127,0,0,3436,5,0,1291,229,113,8906,-4,0,33,0,254325,0
254332,107,-2085,185,-117,26,99,12258,-3,1,393,112,35224,10,35,127,0,0,3436,-5,0,1291,229,113,8916,-4,0,33,0,254325,0
254342,101,-2080,181,-120,32,97,12258,-2,3,381,112,35218,11,35,127,0,0,3436,0,0,1291,229,113,8926,-4,0,33,0,254325,0
254352,95,-2078,176,-120,33,94,12259,11,0,401,104,35214,36,35,127,0,0,3436,10,0,1291,229,113,8936,-4,0,33,0,254325,0
254362,103,-2076,179,-114,36,97,12258,0,-4,384,112,35194,40,35,127,0,0,3433,-5,0,1291,229,113,8946,-4,0,33,0,254340,0
254372,111,-2080,176,-119,37,97,12257,-3,-1,365,112,35195,40,35,127,0,0,3433,-27,0,1291,229,113,8956,-4,0,33,0,254340,0
254382,101,-2081,182,-112,33,100,12257,-1,3,332,88,35197,29,35,127,0,0,3434,0,0,1291,229,113,8966,-4,0,33,0,254356,0
254392,102,-2087,181,-116,30,100,12257,0,0,342,88,35204,23,35,127,0,0,3434,-5,0,1291,229,113,8976,-4,0,33,0,254356,0
254403,108,-2077,182,-113,32,95,12255,-5,0,302,104,35205,31,35,127,0,0,3432,10,0,1291,229,113,8987,-4,0,33,0,254387,0
254413,113,-2077,186,-113,34,99,12255,-15,-5,281,72,35203,16,35,127,0,0,3432,0,0,1291,229,113,8997,-4,0,33,0,254387,0
254423,95,-2073,180,-116,34,100,12255,2,4,267,32,35207,14,35,127,0,0,3432,0,0,1291,229,113,9007,-4,0,33,0,254403,0
254433,96,-2085,179,-117,36,100,12255,4,2,254,48,35213,13,35,127,0,0,3432,0,0,1291,229,113,9017,-4,0,33,0,254403,0
254443,89,-2084,182,-114,38,98,12256,6,1,269,72,35215,20,35,127,0,0,3429,-21,0,1291,229,113,9027,-4,0,33,0,254418,0
254453,105,-2079,185,-116,34,97,12255,1,-1,229,56,35209,35,35,127,0,0,3429,0,0,1291,229,113,9037,-4,0,33,0,254418,0
254463,109,-2082,180,-122,29,93,12253,-8,-6,231,40,35204,21,34,127,0,0,3429,-10,0,1291,229,113,9047,-4,0,33,0,254449,0
254473,89,-2079,172,-116,35,104,12254,4,4,235,48,35201,9,35,127,0,0,3429,-21,0,1291,229,113,9057,-4,0,33,0,254449,0
254483,99,-2076,171,-119,35,101,12254,-1,-1,215,16,35196,6,35,127,0,0,3427,-21,0,1291,229,113,9067,-4,0,33,0,254449,0
254493,101,-2084,177,-113,38,92,12253,0,-3,192,16,35211,2,35,127,0,0,3429,21,0,1291,229,113,9077,-4,0,33,0,254481,0
254503,100,-2083,178,-116,36,98,12253,0,4,183,64,35207,9,35,127,0,0,3427,10,0,1291,229,113,9087,-4,0,33,0,254481,0
254513,108,-2084,179,-117,33,90,12254,5,3,182,16,35205,11,34,127,0,0,3427,-10,0,1291,229,113,9097,-4,0,33,0,254481,0
254523,97,-2083,181,-118,37,86,12250,-3,-5,130,48,35202,25,35,127,0,0,3423,-43,0,1291,229,113,9107,-4,0,33,0,254512,0
254533,93,-2088,177,-117,33,77,12249,-16,-5,85,-32,35203,17,35,127,0,0,3423,-43,0,1291,229,113,9117,-4,0,33,0,254512,0
254543,101,-2080,193,-120,37,77,12246,-8,-6,24,0,35200,15,35,127,0,0,3423,-10,0,1291,229,113,9127,-4,0,33,0,254512,0
254553,90,-2079,183,-122,33,76,12246,0,6,-19,8,35198,-4,35,127,0,0,3421,-10,0,1291,229,113,9137,-4,0,33,0,254512,0
254563,99,-2082,171,-126,39,72,12245,-3,1,-25,-24,35196,-1,35,127,0,0,3418,-32,0,1291,229,113,9147,-4,0,33,0,254543,0
254573,108,-2076,175,-124,40,62,12240,-18,-8,-139,-32,35199,18,35,127,0,0,3418,0,0,1291,229,113,9157,-4,0,33,0,254559,0
254583,95,-2081,172,-125,39,70,12240,-1,1,-172,-88,35197,15,35,127,0,0,3416,-10,0,1291,229,113,9167,-4,0,33,0,254559,0
254593,99,-2077,174,-128,37,65,12235,1,5,-198,-80,35202,41,35,127,0,0,3414,-10,0,1291,229,113,9177,-4,0,33,0,254559,0
254603,114,-2081,168,-132,35,56,12237,10,5,-234,-72,35206,34,34,127,0,0,3410,-76,0,1291,229,113,9187,-4,0,33,0,254606,0
254613,102,-2082,164,-120,41,57,12230,-15,-2,-346,-104,35206,34,34,127,0,0,3410,-21,0,1291,229,113,9197,-4,0,33,0,254621,0
254623,92,-2076,165,-115,37,55,12226,-5,-6,-358,-128,35197,25,35,127,0,0,3407,0,0,1291,229,113,9207,-4,0,33,0,254621,0
254633,112,-2078,171,-119,37,56,12224,-10,8,-417,-144,35189,7,34,127,0,0,3407,10,0,1291,229,113,9217,-4,0,33,0,254637,0
254643,100,-2086,177,-122,37,58,12215,-15,-14,-394,-112,35187,5,35,127,0,0,3405,0,0,1291,229,113,9227,-4,0,33,0,254637,0
254654,131,-2087,176,-121,33,63,12204,-35,-15,-388,-96,35188,35,35,127,0,0,3399,5,0,1291,229,113,9238,-4,0,33,0,254637,0
254664,117,-2081,170,-118,38,63,12181,-57,-34,-258,-72,35201,37,35,127,0,0,3396,-76,0,1291,229,113,9248,-4,0,33,0,254653,0
254674,133,-2082,167,-114,38,67,12171,-8,10,-294,-72,35201,52,35,127,0,0,3398,-10,0,1291,229,113,9258,-4,0,33,0,254653,0
254684,129,-2084,172,-112,32,82,12170,-5,51,-319,-96,35201,40,35,127,0,0,3395,-32,0,1291,229,113,9268,-4,0,33,0,254653,0
254694,121,-2088,167,-111,30,86,12168,-4,10,-364,-112,35201,62,35,127,0,0,3396,0,0,1291,229,113,9278,-4,0,33,0,254668,0
254704,114,-2089,164,-108,37,85,12163,-15,-6,-366,-120,35204,50,35,127,0,0,3394,-10,0,1291,229,113,9288,-4,0,33,0,254699,0
254714,109,-2077,167,-101,41,83,12159,-8,-4,-339,-136,35208,40,35,127,0,0,3392,-82,0,1291,229,113,9298,-4,0,33,0,254699,0
254724,123,-2077,170,-102,37,86,12143,-49,-22,-344,-104,35204,30,35,127,0,0,3392,0,0,1291,229,113,9308,-4,0,33,0,254699,0
254734,104,-2073,155,-100,36,81,12113,-74,-55,-129,-24,35203,8,35,127,0,0,3391,5,0,1291,229,113,9318,-4,0,33,0,254715,0
254744,93,-2082,164,-98,47,82,12115,15,44,-133,-48,35193,0,35,127,0,0,3392,-16,0,1291,229,113,9328,-4,0,33,0,254715,0
254754,110,-2080,173,-96,36,88,12112,0,59,-160,-64,35197,-1,35,127,0,0,3390,-16,0,1291,229,113,9338,-4,0,33,0,254762,0
254764,116,-2082,170,-103,29,83,12111,0,-7,-186,-64,35198,20,35,127,0,0,3390,-27,0,1291,229,113,9348,-4,0,33,0,254762,0
254774,110,-2075,171,-104,31,80,12110,-1,2,-221,-80,35191,26,34,127,0,0,3391,21,0,1291,229,113,9358,-4,0,33,0,254778,0
254784,114,-2084,167,-103,35,82,12107,-16,-7,-283,-56,35188,19,34,127,0,0,3387,60,0,1291,229,113,9368,-4,0,33,0,254778,0
254794,117,-2087,163,-101,29,80,12108,-1,-1,-300,-104,35189,-11,35,127,0,0,3382,-49,0,1291,229,113,9378,-4,0,33,0,254778,0
254804,106,-2077,175,-101,35,76,12103,-3,-7,-323,-88,35196,0,34,127,0,0,3382,-38,0,1291,229,113,9388,-4,0,33,0,254778,0
254814,113,-2086,164,-97,39,71,12101,0,-2,-343,-112,35209,-7,35,127,0,0,3383,-27,0,1291,229,113,9398,-4,0,33,0,254793,0
254824,113,-2086,160,-99,36,77,12101,5,7,-353,-112,35219,-10,35,127,0,0,3383,5,0,1291,229,113,9408,-4,0,33,0,254793,0
254834,126,-2076,156,-97,36,76,12095,-16,-7,-388,-120,35226,-22,35,127,0,0,3381,16,0,1291,229,113,9418,-4,0,33,0,254824,0
254844,120,-2085,164,-93,34,82,12086,-21,-21,-322,-104,35220,-9,35,127,0,0,3378,-32,0,1291,229,113,9428,-4,0,33,0,254824,0
254854,126,-2081,161,-90,34,89,12068,-36,-15,-275,-88,35205,12,35,127,0,0,3382,-10,0,1291,229,113,9438,-4,0,33,0,254824,0
254864,111,-2086,168,-93,38,87,12055,-13,-4,-202,-64,35196,23,35,127,0,0,3376,-21,0,1291,229,113,9448,-4,0,33,0,254840,0
254874,126,-2077,173,-91,31,94,12055,0,40,-281,-88,35197,22,35,127,0,0,3377,-32,0,1291,229,113,9458,-4,0,33,0,254840,0
254884,121,-2077,166,-89,31,96,12052,-8,16,-313,-104,35205,21,35,127,0,0,3378,21,0,1291,229,113,9468,-4,0,33,0,254871,0
254894,119,-2075,169,-94,36,99,12052,0,-3,-316,-104,35199,27,35,127,0,0,3378,27,0,1291,229,113,9478,-4,0,33,0,254871,0
254904,112,-2077,165,-90,39,91,12052,-2,1,-316,-104,35197,20,35,127,0,0,3375,5,0,1291,229,113,9488,-4,0,33,0,254887,0
254915,130,-2076,171,-89,36,89,12050,-6,-8,-311,-80,35192,18,35,127,0,0,3375,-32,0,1291,229,113,9499,-4,0,33,0,254887,0
254925,124,-2075,165,-89,40,90,12048,-8,-3,-364,-88,35204,13,35,127,0,0,3372,-21,0,1291,229,113,9509,-4,0,33,0,254887,0
254935,122,-2078,158,-84,39,94,12047,-3,-4,-383,-48,35210,17,35,127,0,0,3372,10,0,1291,229,113,9519,-4,0,33,0,254918,0
254945,126,-2080,155,-71,35,90,12047,-11,2,-358,-128,35214,17,35,127,0,0,3372,-32,0,1291,229,113,9529,-4,0,33,0,254918,0
254955,142,-2084,148,-76,36,96,12046,-3,-1,-411,-104,35203,19,35,127,0,0,3372,-10,0,1291,229,113,9539,-4,0,33,0,254934,0
254965,133,-2079,158,-65,45,105,12045,0,-1,-375,-112,35204,8,35,127,0,0,3372,-10,0,1291,229,113,9549,-4,0,33,0,254934,0
254975,128,-2083,154,-64,45,111,12044,1,-1,-385,-144,35204,3,35,127,0,0,3372,0,0,1291,229,113,9559,-4,0,33,0,255027,0
254985,143,-2076,157,-48,46,125,12045,2,-1,-375,-112,35208,7,35,127,0,0,3375,21,0,1291,229,113,9569,-4,0,33,0,255027,0
254995,135,-2075,151,-47,47,132,12045,0,5,-356,-80,35208,-5,35,127,0,0,3372,-10,0,1291,229,113,9579,-4,0,33,0,255027,0
255005,139,-2080,141,-37,40,149,12045,2,-1,-387,-112,35198,1,35,127,0,0,3372,10,0,1291,229,113,9589,-4,0,33,0,255027,0
255015,145,-2080,147,-29,49,152,12046,3,1,-331,-128,35200,12,35,127,0,0,3372,-32,0,1291,229,113,9599,-4,0,33,0,255027,0
255025,117,-2090,159,-13,45,165,12044,0,-1,-368,-80,35196,27,35,127,0,0,3377,65,0,1291,229,113,9609,-4,0,33,0,255027,0
255035,121,-2091,153,-11,42,171,12046,2,7,-284,-96,35200,33,35,127,0,0,3377,10,0,1291,229,113,9619,-4,0,33,0,255027,0
255045,122,-2088,161,-8,43,179,12046,-2,-3,-269,-104,35202,17,35,127,0,0,3379,10,0,1291,229,113,9629,-4,0,33,0,255027,0
255055,116,-2091,167,-1,46,173,12048,10,4,-200,-48,35196,13,35,127,0,0,3381,21,0,1291,229,113,9639,-4,0,33,0,255027,0
255065,107,-2085,171,2,46,180,12050,12,6,-127,-32,35199,8,35,127,0,0,3383,10,0,1291,229,113,9649,-4,0,33,0,255043,0
255075,119,-2087,174,-1,49,182,12052,15,0,-91,0,35214,3,35,127,0,0,3385,32,0,1291,229,113,9659,-4,0,33,0,255043,0
255085,113,-2080,188,-1,44,187,12056,21,10,54,24,35221,12,35,127,0,0,3385,0,0,1291,229,113,9669,-4,0,33,0,255074,0
255095,143,-2085,201,-10,34,200,12056,-20,1,24,32,35225,18,35,127,0,0,3388,43,0,1291,229,113,9679,-4,0,33,0,255074,0
255105,123,-2086,199,-12,34,202,12063,7,-7,131,32,35215,34,35,127,0,0,3394,43,0,1291,229,113,9689,-4,0,33,0,255090,0
255115,107,-2088,193,-21,45,188,12067,16,7,264,72,35202,38,35,127,0,0,3394,-10,0,1291,229,113,9699,-4,0,33,0,255090,0
255125,105,-2085,189,-29,37,185,12073,12,1,245,56,35209,33,35,127,0,0,3396,32,0,1291,229,113,9709,-4,0,33,0,255090,0
255135,84,-2083,193,-28,32,185,12079,22,3,311,64,35221,15,35,127,0,0,3399,32,0,1291,229,113,9719,-4,0,33,0,255121,0
255145,87,-2073,179,-38,44,172,12095,43,21,256,24,35215,18,35,127,0,0,3401,0,0,1291,229,113,9729,-4,0,33,0,255121,0
255155,87,-2079,188,-38,46,171,12112,27,26,127,24,35207,20,35,127,0,0,3399,0,0,1291,229,113,9739,-4,0,33,0,255121,0
255166,67,-2076,194,-45,48,152,12111,4,-36,200,48,35187,44,35,127,0,0,3404,16,0,1291,229,113,9750,-4,0,33,0,255152,0
255176,104,-2080,199,-53,46,150,12118,0,-14,237,56,35204,29,35,127,0,0,3403,-10,0,1291,229,113,9760,-4,0,33,0,255152,0
255186,89,-2076,191,-61,46,139,12118,7,1,233,56,35203,12,35,127,0,0,3400,-43,0,1291,229,113,9770,-4,0,33,0,255152,0
255196,102,-2079,197,-61,43,133,12118,9,-5,219,56,35206,-5,35,127,0,0,3406,0,0,1291,229,113,9780,-4,0,33,0,255199,0
255206,115,-2085,189,-68,39,135,12119,4,5,257,80,35196,-8,35,127,0,0,3405,60,0,1291,229,113,9790,-4,0,33,0,255199,0
255216,102,-2075,190,-76,38,138,12121,7,11,304,72,35191,-8,34,127,0,0,3405,0,0,1291,229,113,9800,-4,0,33,0,255199,0
255226,107,-2087,182,-75,46,133,12122,0,-1,286,72,35195,2,35,127,0,0,3405,0,0,1291,229,113,9810,-4,0,33,0,255215,0
255236,123,-2087,190,-78,46,133,12122,1,-8,283,72,35193,10,35,127,0,0,3405,0,0,1291,229,113,9820,-4,0,33,0,255215,0
255246,111,-2085,186,-80,42,134,12123,-3,1,320,72,35199,35,34,127,0,0,3409,0,0,1291,229,113,9830,-4,0,33,0,255215,0
255256,108,-2077,187,-81,45,145,12122,0,6,324,88,35206,15,34,127,0,0,3404,-16,0,1291,229,113,9840,-4,0,33,0,255246,0
255266,116,-2079,187,-81,31,147,12124,6,-4,319,88,35213,2,35,127,0,0,3407,-10,0,1291,229,113,9850,-4,0,33,0,255246,0
255276,115,-2081,184,-87,41,145,12125,-3,-2,349,112,35206,-11,35,127,0,0,3406,-21,0,1291,229,113,9860,-4,0,33,0,255246,0
255286,90,-2088,192,-86,32,151,12128,8,3,364,104,35193,12,35,127,0,0,3413,10,0,1291,229,113,9870,-4,0,33,0,255262,0
255296,98,-2080,195,-95,36,154,12130,-1,1,359,120,35186,5,35,127,0,0,3409,38,0,1291,229,113,9880,-4,0,33,0,255277,0
255306,107,-2079,189,-98,31,148,12132,3,-2,384,72,35199,5,35,127,0,0,3414,21,0,1291,229,113,9890,-4,0,33,0,255293,0
255316,94,-2082,184,-97,33,146,12133,2,1,394,136,35204,1,35,127,0,0,3411,54,0,1291,229,113,9900,-4,0,33,0,255293,0
255326,98,-2078,180,-99,31,144,12138,13,3,391,104,35201,8,35,127,0,0,3412,0,0,1291,229,113,9910,-4,0,33,0,255293,0
255336,98,-2081,186,-97,32,135,12138,0,0,376,128,35189,24,35,127,0,0,3411,5,0,1291,229,113,9920,-4,0,33,0,255309,0
255346,96,-2081,184,-107,34,135,12143,14,-5,382,96,35194,22,35,127,0,0,3412,-27,0,1291,229,113,9930,-4,0,33,0,255434,0
255356,101,-2080,185,-95,35,133,12156,41,25,354,72,35203,3,35,127,0,0,3412,-65,0,1291,229,113,9940,-4,0,33,0,255434,0
255366,112,-2082,190,-108,29,126,12179,40,38,132,24,35197,21,35,127,0,0,3418,65,0,1291,229,113,9950,-4,0,33,0,255434,0
255376,99,-2083,188,-106,26,128,12182,-6,-20,175,16,35196,22,35,127,0,0,3418,65,0,1291,229,113,9960,-4,0,33,0,255434,0
255386,87,-2080,178,-104,31,133,12184,12,-45,214,16,35181,44,35,127,0,0,3415,-21,0,1291,229,113,9970,-4,0,33,0,255449,0
255396,91,-2075,177,-109,33,123,12185,18,-4,232,40,35178,42,35,127,0,0,3417,-16,0,1291,229,113,9980,-4,0,33,0,255449,0
255406,95,-2081,181,-107,31,135,12184,-5,1,228,32,35180,54,35,127,0,0,3417,-5,0,1291,229,113,9990,-4,0,33,0,255449,0
255416,96,-2091,176,-102,27,136,12186,2,-2,225,32,35176,55,34,127,0,0,3417,-5,0,1291,229,113,10000,-4,0,33,0,255449,0
255426,98,-2088,174,-99,28,134,12186,6,-3,227,56,35178,63,34,127,0,0,3416,0,0,1291,229,113,10010,-4,0,33,0,255449,0
255436,103,-2091,175,-94,26,136,12185,-1,-2,225,56,35184,40,35,127,0,0,3416,0,0,1291,229,113,10020,-4,0,33,0,255449,0
255446,108,-2080,174,-97,25,132,12187,10,5,282,48,35185,40,35,127,0,0,3423,16,0,1291,229,113,10030,-4,0,33,0,255449,0
255456,108,-2081,161,-95,23,135,12193,8,10,302,88,35185,46,35,127,0,0,3417,0,0,1291,229,113,10040,-4,0,33,0,255449,0
255466,108,-2083,165,-86,24,135,12195,6,3,279,80,35182,58,35,127,0,0,3421,16,0,1291,229,113,10050,-4,0,33,0,255449,0
255477,99,-2073,169,-79,29,140,12199,15,1,262,120,35178,62,35,127,0,0,3418,10,0,1291,229,113,10061,-4,0,33,0,255449,0
255487,115,-2081,166,-80,25,134,12201,5,3,278,88,35188,57,35,127,0,0,3421,0,0,1291,229,113,10071,-4,0,33,0,255465,0
255497,105,-2074,156,-65,34,131,12211,23,13,231,112,35206,59,35,127,0,0,3423,21,0,1291,229,113,10081,-4,0,33,0,255465,0
255507,108,-2078,160,-64,31,140,12237,61,44,130,40,35206,64,35,127,0,0,3425,-10,0,1291,229,113,10091,-4,0,33,0,255480,0
255517,91,-2076,173,-58,37,134,12240,-10,-24,143,32,35196,63,35,127,0,0,3425,0,0,1291,229,113,10101,-4,0,33,0,255480,0
255527,115,-2079,179,-55,36,144,12242,9,-45,190,56,35187,36,35,127,0,0,3427,0,0,1291,229,113,10111,-4,0,33,0,255527,0
255537,106,-2082,182,-56,27,148,12240,-6,0,219,56,35187,23,35,127,0,0,3427,0,0,1291,229,113,10121,-4,0,33,0,255527,0
255547,109,-2081,184,-55,25,155,12242,-2,-4,220,56,35191,30,35,127,0,0,3429,21,0,1291,229,113,10131,-4,0,33,0,255527,0
255557,87,-2080,174,-56,28,152,12244,13,5,282,72,35183,44,35,127,0,0,3429,10,0,1291,229,113,10141,-4,0,33,0,255527,0
255567,89,-2077,187,-52,32,153,12245,1,3,326,56,35184,34,35,127,0,0,3432,0,0,1291,229,113,10151,-4,0,33,0,255543,0
255577,82,-2088,187,-56,32,145,12246,7,-5,334,88,35185,14,35,127,0,0,3432,-10,0,1291,229,113,10161,-4,0,33,0,255543,0
255587,92,-2085,188,-54,28,139,12247,15,2,343,120,35193,9,35,127,0,0,3434,0,0,1291,229,113,10171,-4,0,33,0,255574,0
255597,79,-2080,195,-57,30,135,12247,-5,0,365,72,35192,26,35,127,0,0,3434,0,0,1291,229,113,10181,-4,0,33,0,255574,0
255607,68,-2081,189,-67,33,133,12249,2,-4,381,104,35188,18,35,127,0,0,3434,10,0,1291,229,113,10191,-4,0,33,0,255574,0
255617,73,-2083,189,-72,32,113,12250,2,4,417,88,35190,48,34,127,0,0,3434,-32,0,1291,229,113,10201,-4,0,33,0,255605,0
255627,73,-2087,187,-69,32,106,12252,9,0,420,120,35202,38,35,127,0,0,3436,-10,0,1291,229,113,10211,-4,0,33,0,255605,0
255637,81,-2087,190,-77,29,99,12252,-2,0,397,168,35205,50,35,127,0,0,3436,21,0,1291,229,113,10221,-4,0,33,0,255621,0
255647,88,-2085,195,-79,31,84,12254,9,3,402,96,35203,51,35,127,0,0,3434,-21,0,1291,229,113,10231,-4,0,33,0,255621,0
255658,82,-2086,196,-88,34,83,12254,11,3,420,120,35194,47,35,127,0,0,3436,-10,0,1291,229,113,10242,-4,0,33,0,255621,0
255668,86,-2089,200,-91,26,83,12254,-9,1,412,120,35194,46,35,127,0,0,3433,-10,0,1291,229,113,10252,-4,0,33,0,255684,0
255678,100,-2075,192,-95,23,77,12254,3,-5,386,96,35197,44,35,127,0,0,3434,-5,0,1291,229,113,10262,-4,0,33,0,255684,0
255688,97,-2079,188,-108,24,65,12254,5,6,414,96,35197,33,35,127,0,0,3434,-43,0,1291,229,113,10272,-4,0,33,0,255684,0
255698,84,-2067,190,-108,32,59,12251,-8,-4,316,104,35202,31,35,127,0,0,3431,43,0,1291,229,113,10282,-4,0,33,0,255699,0
255708,89,-2068,182,-110,36,49,12252,-5,4,289,56,35199,30,35,127,0,0,3429,-32,0,1291,229,113,10292,-4,0,33,0,255715,0
255718,78,-2076,179,-114,40,32,12251,3,2,214,56,35197,33,35,127,0,0,3426,-27,0,1291,229,113,10302,-4,0,33,0,255746,0
255728,116,-2081,189,-111,44,32,12246,-16,-5,130,24,35199,22,35,127,0,0,3425,-5,0,1291,229,113,10312,-4,0,33,0,255746,0
255738,123,-2092,191,-117,40,34,12246,-3,-1,41,0,35210,21,35,127,0,0,3423,10,0,1291,229,113,10322,-4,0,33,0,255746,0
255748,107,-2083,186,-115,48,43,12244,2,3,-1,-40,35210,12,35,127,0,0,3418,-71,0,1291,229,113,10332,-4,0,33,0,255746,0
255758,112,-2086,178,-120,46,41,12237,-8,-11,-144,-24,35210,18,35,127,0,0,3418,21,0,1291,229,113,10342,-4,0,33,0,255746,0
255768,107,-2088,183,-122,44,66,12235,-12,3,-232,-64,35204,27,35,127,0,0,3414,21,0,1291,229,113,10352,-4,0,33,0,255746,0
255778,109,-2079,179,-122,42,69,12234,5,13,-224,-64,35202,30,35,127,0,0,3411,-32,0,1291,229,113,10362,-4,0,33,0,255746,0
255788,131,-2085,178,-121,38,74,12230,-9,-1,-294,-80,35202,39,35,127,0,0,3412,-5,0,1291,229,113,10372,-4,0,33,0,255762,0
255798,121,-2089,169,-116,40,80,12230,-1,-4,-320,-56,35202,53,35,127,0,0,3411,10,0,1291,229,113,10382,-4,0,33,0,255793,0
255808,108,-2072,170,-116,42,90,12229,-6,7,-342,-96,35207,56,35,127,0,0,3410,-16,0,1291,229,113,10392,-4,0,33,0,255793,0
255818,114,-2085,175,-115,43,97,12224,-4,-5,-335,-88,35205,51,35,127,0,0,3410,0,0,1291,229,113,10402,-4,0,33,0,255793,0
255828,119,-2082,179,-116,40,94,12226,3,0,-345,-112,35196,29,35,127,0,0,3411,-5,0,1291,229,113,10412,-4,0,33,0,255793,0
255838,111,-2085,185,-120,39,96,12225,2,1,-338,-88,35196,26,35,127,0,0,3410,0,0,1291,229,113,10422,-4,0,33,0,255824,0
255848,106,-2085,181,-121,38,100,12223,-12,1,-391,-112,35204,50,35,127,0,0,3411,49,0,1291,229,113,10432,-4,0,33,0,255824,0
255858,115,-2081,178,-117,37,103,12219,-3,-5,-364,-104,35211,56,34,127,0,0,3407,10,0,1291,229,113,10442,-4,0,33,0,255824,0
255868,106,-2080,178,-120,32,102,12217,0,-1,-352,-96,35211,53,35,127,0,0,3407,0,0,1291,229,113,10452,-4,0,33,0,255840,0
255878,104,-2080,171,-124,35,107,12216,-3,7,-340,-96,35212,35,35,127,0,0,3404,-60,0,1291,229,113,10462,-4,0,33,0,255855,0
255888,114,-2077,177,-124,32,103,12213,-11,0,-365,-88,35206,43,35,127,0,0,3404,-27,0,1291,229,113,10472,-4,0,33,0,255855,0
255899,117,-2084,167,-123,39,92,12208,-9,-7,-328,-80,35217,43,35,127,0,0,3405,-21,0,1291,229,113,10483,-4,0,33,0,255871,0
255909,125,-2083,174,-113,32,101,12200,-27,-8,-334,-120,35222,39,35,127,0,0,3403,0,0,1291,229,113,10493,-4,0,33,0,255902,0
255919,105,-2075,167,-115,32,95,12182,-30,-34,-164,-80,35222,21,35,127,0,0,3407,0,0,1291,229,113,10503,-4,0,33,0,255902,0
255929,106,-2079,174,-116,35,102,12181,4,16,-185,0,35214,25,35,127,0,0,3403,10,0,1291,229,113,10513,-4,0,33,0,255902,0
255939,112,-2073,183,-116,32,93,12179,-11,33,-238,-64,35206,22,35,127,0,0,3403,10,0,1291,229,113,10523,-4,0,33,0,255902,0
255949,113,-2079,174,-120,33,92,12178,-4,-5,-225,-64,35217,22,35,127,0,0,3403,-10,0,1291,229,113,10533,-4,0,33,0,255934,0
255959,103,-2077,169,-116,36,87,12178,5,4,-250,-56,35219,26,35,127,0,0,3401,-21,0,1291,229,113,10543,-4,0,33,0,255934,0
255969,102,-2075,173,-121,39,90,12175,-3,-3,-255,-88,35220,24,35,127,0,0,3401,-21,0,1291,229,113,10553,-4,0,33,0,255934,0
255979,117,-2080,175,-117,32,88,12175,-7,-2,-303,-104,35212,28,35,127,0,0,3399,-21,0,1291,229,113,10563,-4,0,33,0,255980,0
255989,111,-2076,169,-113,38,88,12169,-7,-10,-308,-88,35210,29,35,127,0,0,3399,10,0,1291,229,113,10573,-4,0,33,0,255980,0
255999,118,-2084,169,-114,37,91,12170,-2,4,-305,-96,35207,30,35,127,0,0,3399,0,0,1291,229,113,10583,-4,0,33,0,255980,0
256009,128,-2081,160,-108,32,98,12169,-2,6,-308,-88,35201,30,35,127,0,0,3399,-10,0,1291,229,113,10593,-4,0,33,0,255980,0
256019,119,-2082,160,-104,34,92,12169,0,-1,-320,-88,35211,21,35,127,0,0,3399,0,0,1291,229,113,10603,-4,0,33,0,255980,0
256029,119,-2078,160,-97,34,100,12169,5,-2,-308,-88,35220,3,35,127,0,0,3399,0,0,1291,229,113,10613,-4,0,33,0,256058,0
256039,125,-2079,160,-95,33,101,12169,1,6,-310,-88,35231,-5,35,127,0,0,3399,0,0,1291,229,113,10623,-4,0,33,0,256058,0
256049,122,-2081,164,-89,28,107,12168,0,1,-312,-88,35225,-6,35,127,0,0,3396,-32,0,1291,229,113,10633,-4,0,33,0,256058,0
256059,117,-2083,162,-87,37,108,12166,-10,-2,-352,-144,35211,17,35,127,0,0,3396,-21,0,1291,229,113,10643,-4,0,33,0,256090,0
256069,124,-2081,160,-84,32,112,12164,-4,-6,-323,-112,35200,29,35,127,0,0,3396,0,0,1291,229,113,10653,-4,0,33,0,256090,0
256079,120,-2082,163,-79,35,115,12162,-4,5,-326,-112,35207,22,35,127,0,0,3396,0,0,1291,229,113,10663,-4,0,33,0,256105,0
256089,114,-2075,172,-82,30,117,12163,1,11,-321,-104,35207,12,35,127,0,0,3399,10,0,1291,229,113,10673,-4,0,33,0,256105,0
256099,112,-2080,172,-81,35,119,12163,-1,2,-310,-104,35209,13,35,127,0,0,3396,-10,0,1291,229,113,10683,-4,0,33,0,256105,0
256109,119,-2084,162,-80,32,110,12163,8,-1,-310,-64,35207,24,35,127,0,0,3399,21,0,1291,229,113,10693,-4,0,33,0,256121,0
256119,114,-2084,167,-80,34,119,12161,-17,1,-312,-64,35213,22,35,127,0,0,3399,43,0,1291,229,113,10703,-4,0,33,0,256121,0
256129,145,-2080,165,-77,38,106,12162,6,4,-293,-80,35213,20,35,127,0,0,3399,21,0,1291,229,113,10713,-4,0,33,0,256121,0
256139,122,-2081,157,-75,38,108,12162,3,0,-306,-64,35212,11,35,127,0,0,3396,-21,0,1291,229,113,10723,-4,0,33,0,256121,0
256150,95,-2080,167,-80,39,105,12163,7,-5,-305,-104,35221,15,35,127,0,0,3400,-10,0,1291,229,113,10734,-4,0,33,0,256121,0
256160,84,-2085,170,-74,40,104,12161,-1,5,-310,-104,35211,23,35,127,0,0,3396,-16,0,1291,229,113,10744,-4,0,33,0,256121,0
256170,115,-2078,167,-77,43,102,12160,3,2,-305,-96,35215,13,35,127,0,0,3400,0,0,1291,229,113,10754,-4,0,33,0,256168,0
256180,115,-2081,178,-78,32,101,12160,-1,-3,-300,-72,35215,27,35,127,0,0,3399,43,0,1291,229,113,10764,-4,0,33,0,256168,0
256190,131,-2081,190,-80,38,96,12160,-4,1,-307,-96,35208,19,35,127,0,0,3400,38,0,1291,229,113,10774,-4,0,33,0,256168,0
256200,119,-2092,189,-88,38,97,12160,-1,-1,-313,-96,35200,13,35,127,0,0,3396,10,0,1291,229,113,10784,-4,0,33,0,256183,0
256210,123,-2084,190,-92,35,97,12158,-3,-1,-349,-88,35193,8,35,127,0,0,3393,16,0,1291,229,113,10794,-4,0,33,0,256183,0
256220,115,-2089,180,-97,35,97,12152,-13,-10,-349,-104,35196,6,35,127,0,0,3394,0,0,1291,229,113,10804,-4,0,33,0,256183,0
256230,114,-2083,171,-96,29,94,12131,-62,-31,-227,-88,35205,0,35,127,0,0,3395,21,0,1291,229,113,10814,-4,0,33,0,256215,0
256240,112,-2078,155,-97,42,79,12111,-16,-34,-37,0,35207,-2,35,127,0,0,3393,5,0,1291,229,113,10824,-4,0,33,0,256215,0
256250,157,-2081,178,-95,37,91,12114,-17,51,-136,-48,35204,-12,35,127,0,0,3395,38,0,1291,229,113,10834,-4,0,33,0,256215,0
256260,100,-2084,168,-99,36,92,12114,-1,23,-138,-24,35196,5,35,127,0,0,3391,16,0,1291,229,113,10844,-4,0,33,0,256246,0
256270,111,-2079,166,-105,42,85,12115,7,1,-123,-48,35197,-26,35,127,0,0,3392,-16,0,1291,229,113,10854,-4,0,33,0,256246,0
256280,120,-2071,172,-103,50,83,12114,7,-1,-126,-48,35199,-11,35,127,0,0,3392,-16,0,1291,229,113,10864,-4,0,33,0,256262,0
256290,120,-2074,178,-104,43,84,12110,-14,-12,-219,-56,35199,-9,35,127,0,0,3390,27,0,1291,229,113,10874,-4,0,33,0,256262,0
256300,113,-2071,181,-116,43,84,12111,0,1,-201,-80,35205,9,35,127,0,0,3391,-16,0,1291,229,113,10884,-4,0,33,0,256262,0
256310,106,-2077,184,-122,46,79,12107,-8,0,-275,-96,35209,26,35,127,0,0,3385,-5,0,1291,229,113,10894,-4,0,33,0,256293,0
256320,104,-2072,184,-123,44,72,12104,2,-7,-286,-112,35210,23,35,127,0,0,3383,-49,0,1291,229,113,10904,-4,0,33,0,256293,0
256330,107,-2069,182,-136,48,66,12101,0,7,-325,-112,35203,8,35,127,0,0,3383,-27,0,1291,229,113,10914,-4,0,33,0,256293,0
256340,109,-2070,179,-134,46,66,12098,-8,3,-354,-128,35195,-9,35,127,0,0,3381,-21,0,1291,229,113,10924,-4,0,33,0,256324,0
256350,109,-2076,177,-144,41,52,12088,-34,-11,-369,-160,35200,-11,35,127,0,0,3380,-32,0,1291,229,113,10934,-4,0,33,0,256324,0
256360,118,-2091,175,-145,38,54,12069,-55,-39,-313,-96,35197,-5,35,127,0,0,3379,0,0,1291,229,113,10944,-4,0,33,0,256324,0
256370,106,-2081,173,-149,51,42,12048,-24,-23,-237,-80,35207,-8,35,127,0,0,3370,-54,0,1291,229,113,10954,-4,0,33,0,256340,0
256380,140,-2085,170,-155,45,51,12048,-2,49,-416,-120,35217,-19,35,127,0,0,3376,10,0,1291,229,113,10964,-4,0,33,0,256355,0
256390,118,-2085,161,-151,39,55,12046,2,31,-365,-136,35220,-17,34,127,0,0,3370,-27,0,1291,229,113,10974,-4,0,33,0,256355,0
256401,126,-2076,159,-151,37,56,12039,-19,-3,-474,-104,35221,-26,35,127,0,0,3368,0,0,1291,229,113,10985,-4,0,33,0,256387,0
256411,126,-2087,163,-150,47,57,12028,-34,-24,-479,-152,35218,-19,35,127,0,0,3366,0,0,1291,229,113,10995,-4,0,33,0,256387,0
256421,159,-2080,160,-140,34,66,12003,-76,-32,-400,-128,35204,-11,35,127,0,0,3364,0,0,1291,229,113,11005,-4,0,33,0,256387,0
256431,115,-2088,150,-141,45,62,11965,-57,-54,-209,-88,35194,9,35,127,0,0,3361,-10,0,1291,229,113,11015,-4,0,33,0,256402,0
256441,134,-2079,153,-139,45,70,11956,-14,36,-214,-88,35193,22,35,127,0,0,3357,-54,0,1291,229,113,11025,-4,0,33,0,256418,0
256451,164,-2077,160,-140,38,78,11943,-34,50,-230,-24,35196,40,35,127,0,0,3359,0,0,1291,229,113,11035,-4,0,33,0,256418,0
256461,147,-2081,150,-127,36,87,11937,-7,2,-172,-40,35197,47,34,127,0,0,3357,-32,0,1291,229,113,11045,-4,0,33,0,256433,0
256471,157,-2081,145,-120,41,93,11931,-12,15,-231,-48,35194,47,35,127,0,0,3355,-21,0,1291,229,113,11055,-4,0,33,0,256480,0
256481,154,-2076,140,-116,45,117,11929,0,8,-286,-24,35193,53,35,127,0,0,3355,0,0,1291,229,113,11065,-4,0,33,0,256480,0
256491,165,-2070,137,-108,38,125,11930,7,14,-258,-72,35192,62,35,127,0,0,3353,-10,0,1291,229,113,11075,-4,0,33,0,256480,0
256501,141,-2080,129,-95,34,143,11928,-3,2,-271,-16,35196,54,35,127,0,0,3353,-21,0,1291,229,113,11085,-4,0,33,0,256480,0
256511,164,-2084,129,-84,37,142,11929,8,2,-310,-40,35198,44,35,127,0,0,3353,-32,0,1291,229,113,11095,-4,0,33,0,256480,0
256521,148,-2092,141,-71,43,159,11927,0,1,-247,-72,35196,53,35,127,0,0,3357,0,0,1291,229,113,11105,-4,0,33,0,256480,0
256531,120,-2098,142,-67,37,160,11927,-1,-4,-212,-64,35200,56,35,127,0,0,3357,10,0,1291,229,113,11115,-4,0,33,0,256516,0
256541,119,-2099,147,-62,32,181,11929,3,4,-152,-80,35201,65,35,127,0,0,3357,-32,0,1291,229,113,11125,-4,0,33,0,256516,0
256551,139,-2091,144,-52,42,175,11928,10,0,-194,-40,35202,65,35,127,0,0,3357,0,0,1291,229,113,11135,-4,0,33,0,256531,0
256561,122,-2089,135,-42,37,195,11928,9,0,-119,-56,35193,65,35,127,0,0,3361,32,0,1291,229,113,11145,-4,0,33,0,256531,0
256571,139,-2087,140,-40,29,210,11932,9,11,12,16,35196,42,35,127,0,0,3364,32,0,1291,229,113,11155,-4,0,33,0,256547,0
256581,136,-2085,150,-26,27,207,11934,4,2,33,16,35200,45,35,127,0,0,3364,10,0,1291,229,113,11165,-4,0,33,0,256547,0
256591,125,-2076,151,-26,27,216,11936,7,-2,138,24,35200,43,35,127,0,0,3368,21,0,1291,229,113,11175,-4,0,33,0,256563,0
256601,114,-2069,159,-23,27,213,11943,21,7,218,80,35202,38,35,127,0,0,3372,32,0,1291,229,113,11185,-4,0,33,0,256563,0
256611,106,-2081,161,-19,33,213,11949,14,10,290,64,35199,57,35,127,0,0,3375,32,0,1291,229,113,11195,-4,0,33,0,256594,0
256621,110,-2072,161,-20,27,202,11959,25,8,277,80,35201,52,35,127,0,0,3375,32,0,1291,229,113,11205,-4,0,33,0,256594,0
256631,101,-2070,166,-27,35,191,11979,52,30,234,96,35195,53,35,127,0,0,3379,10,0,1291,229,113,11215,-4,0,33,0,256594,0
256641,113,-2084,181,-25,24,187,12001,34,20,201,64,35197,33,35,127,0,0,3381,0,0,1291,229,113,11225,-4,0,33,0,256610,0
256652,76,-2078,169,-30,31,166,12001,11,-54,294,88,35205,28,35,127,0,0,3383,16,0,1291,229,113,11236,-4,0,33,0,256641,0
256662,97,-2077,171,-28,40,149,12001,-4,-24,321,112,35206,30,35,127,0,0,3385,32,0,1291,229,113,11246,-4,0,33,0,256641,0
256672,95,-2088,172,-34,43,137,12004,-4,4,305,128,35200,33,35,127,0,0,3384,54,0,1291,229,113,11256,-4,0,33,0,256672,0
256682,110,-2078,181,-43,35,128,12009,20,4,353,72,35188,28,34,127,0,0,3383,-43,0,1291,229,113,11266,-4,0,33,0,256672,0
256692,116,-2092,187,-49,39,111,12007,-13,-4,284,120,35190,30,35,127,0,0,3388,71,0,1291,229,113,11276,-4,0,33,0,256672,0
256702,129,-2074,186,-56,41,106,12013,10,1,310,88,35197,29,35,127,0,0,3385,38,0,1291,229,113,11286,-4,0,33,0,256672,0
256712,126,-2086,181,-59,32,99,12019,20,14,317,56,35198,33,35,127,0,0,3383,-82,0,1291,229,113,11296,-4,0,33,0,256672,0
256722,91,-2085,180,-60,36,107,12025,17,2,206,64,35206,26,35,127,0,0,3385,5,0,1291,229,113,11306,-4,0,33,0,256703,0
256732,116,-2078,169,-62,35,100,12044,58,29,172,24,35210,16,35,127,0,0,3385,-43,0,1291,229,113,11316,-4,0,33,0,256703,0
256742,132,-2081,166,-62,35,107,12051,-6,3,38,16,35213,21,35,127,0,0,3385,0,0,1291,229,113,11326,-4,0,33,0,256719,0
256752,116,-2079,160,-67,41,104,12052,4,-40,40,8,35208,3,35,127,0,0,3382,-32,0,1291,229,113,11336,-4,0,33,0,256719,0
256762,114,-2086,165,-57,42,103,12051,3,-6,19,16,35191,25,35,127,0,0,3382,-27,0,1291,229,113,11346,-4,0,33,0,256750,0
256772,142,-2081,165,-59,39,105,12050,-3,-1,6,-8,35184,30,35,127,0,0,3383,-27,0,1291,229,113,11356,-4,0,33,0,256750,0
256782,123,-2080,171,-60,42,113,12051,7,1,17,-8,35189,45,35,127,0,0,3387,0,0,1291,229,113,11366,-4,0,33,0,256750,0
256792,116,-2080,169,-61,40,113,12052,8,1,46,32,35189,34,35,127,0,0,3388,38,0,1291,229,113,11376,-4,0,33,0,256766,0
256802,135,-2084,169,-59,42,125,12054,2,6,106,8,35200,35,35,127,0,0,3382,-49,0,1291,229,113,11386,-4,0,33,0,256781,0
256812,117,-2084,171,-65,46,122,12052,8,-4,20,-16,35207,17,35,127,0,0,3387,0,0,1291,229,113,11396,-4,0,33,0,256781,0
256822,105,-2087,158,-58,46,136,12053,11,3,80,32,35210,27,35,127,0,0,3384,-21,0,1291,229,113,11406,-4,0,33,0,256875,0
256832,110,-2084,162,-50,41,139,12051,-5,2,29,-8,35212,9,35,127,0,0,3383,-10,0,1291,229,113,11416,-4,0,33,0,256875,0
256842,103,-2085,160,-50,55,133,12053,8,-2,62,8,35202,4,35,127,0,0,3385,-27,0,1291,229,113,11426,-4,0,33,0,256875,0
256852,101,-2087,175,-48,56,130,12050,-10,-5,42,16,35198,2,35,127,0,0,3385,27,0,1291,229,113,11436,-4,0,33,0,256875,0
256862,110,-2081,168,-47,53,139,12050,-6,-3,24,-8,35197,3,35,127,0,0,3387,10,0,1291,229,113,11446,-4,0,33,0,256891,0
256872,121,-2086,169,-49,49,132,12054,11,7,73,32,35194,11,35,127,0,0,3384,-21,0,1291,229,113,11456,-4,0,33,0,256891,0
256882,122,-2080,185,-51,47,140,12053,0,-2,82,-16,35193,16,35,127,0,0,3387,-21,0,1291,229,113,11466,-4,0,33,0,256891,0
256892,129,-2076,184,-53,43,144,12051,7,-4,40,16,35195,6,35,127,0,0,3389,49,0,1291,229,113,11476,-4,0,33,0,256891,0
256902,117,-2086,188,-56,38,150,12052,-4,8,135,32,35198,-1,34,127,0,0,3388,27,0,1291,229,113,11486,-4,0,33,0,256891,0
256913,110,-2077,187,-64,40,139,12054,-3,-1,171,48,35212,-14,35,127,0,0,3390,43,0,1291,229,113,11497,-4,0,33,0,256891,0
256923,108,-2073,181,-61,43,150,12059,1,6,205,40,35204,5,35,127,0,0,3390,-10,0,1291,229,113,11507,-4,0,33,0,256891,0
256933,97,-2073,172,-72,36,142,12059,14,-5,212,32,35205,38,35,127,0,0,3390,-32,0,1291,229,113,11517,-4,0,33,0,256906,0
256943,118,-2072,163,-61,44,135,12059,-3,-13,186,40,35204,49,35,127,0,0,3390,0,0,1291,229,113,11527,-4,0,33,0,256953,0
256953,118,-2077,171,-67,44,142,12059,-6,1,181,72,35210,35,35,127,0,0,3390,0,0,1291,229,113,11537,-4,0,33,0,256969,0
256963,131,-2075,166,-61,40,143,12061,10,3,225,24,35207,30,35,127,0,0,3394,0,0,1291,229,113,11547,-4,0,33,0,256969,0
256973,113,-2075,174,-60,38,146,12061,6,1,295,80,35208,29,35,127,0,0,3394,0,0,1291,229,113,11557,-4,0,33,0,256969,0
256983,109,-2081,173,-64,35,143,12066,1,3,280,40,35212,23,35,127,0,0,3396,21,0,1291,229,113,11567,-4,0,33,0,256969,0
256993,100,-2086,187,-66,42,146,12067,2,-4,298,104,35213,26,35,127,0,0,3396,32,0,1291,229,113,11577,-4,0,33,0,256969,0
257003,95,-2097,184,-73,41,140,12069,3,2,308,56,35214,20,35,127,0,0,3396,21,0,1291,229,113,11587,-4,0,33,0,256969,0
257013,112,-2087,185,-76,36,126,12070,5,-2,322,48,35219,11,35,127,0,0,3396,0,0,1291,229,113,11597,-4,0,33,0,256984,0
257023,100,-2087,191,-81,34,124,12070,3,-2,321,88,35225,-2,35,127,0,0,3396,0,0,1291,229,113,11607,-4,0,33,0,256984,0
257033,106,-2081,176,-85,32,114,12071,2,4,312,80,35230,8,35,127,0,0,3399,43,0,1291,229,113,11617,-4,0,33,0,257016,0
257043,98,-2064,189,-86,40,110,12073,17,7,329,48,35214,20,35,127,0,0,3396,0,0,1291,229,113,11627,-4,0,33,0,257016,0
257053,109,-2073,188,-84,33,112,12074,5,3,340,80,35203,40,35,127,0,0,3394,-10,0,1291,229,113,11637,-4,0,33,0,257031,0
257063,128,-2076,177,-94,28,106,12077,4,-4,297,72,35202,37,35,127,0,0,3396,0,0,1291,229,113,11647,-4,0,33,0,257031,0
257073,88,-2085,169,-86,35,115,12076,3,0,312,72,35212,22,35,127,0,0,3396,0,0,1291,229,113,11657,-4,0,33,0,257047,0
257083,102,-2084,160,-90,32,105,12076,2,-2,286,72,35212,-4,34,127,0,0,3394,-21,0,1291,229,113,11667,-4,0,33,0,257047,0
257093,101,-2094,161,-78,38,106,12077,4,3,288,72,35206,-12,34,127,0,0,3396,-32,0,1291,229,113,11677,-4,0,33,0,257078,0
257103,113,-2076,175,-79,38,105,12076,-1,-1,272,72,35204,-3,35,127,0,0,3396,21,0,1291,229,113,11687,-4,0,33,0,257078,0
257113,115,-2078,182,-79,34,108,12078,0,3,286,72,35203,-2,35,127,0,0,3394,-21,0,1291,229,113,11697,-4,0,33,0,257094,0
257123,119,-2085,182,-81,36,99,12078,0,-5,272,72,35210,13,35,127,0,0,3394,-32,0,1291,229,113,11707,-4,0,33,0,257094,0
257133,100,-2073,175,-78,38,102,12076,0,-5,250,72,35216,7,35,127,0,0,3394,0,0,1291,229,113,11717,-4,0,33,0,257125,0
257143,125,-2081,169,-81,30,101,12078,0,3,260,32,35217,11,34,127,0,0,3394,-21,0,1291,229,113,11727,-4,0,33,0,257125,0
257153,115,-2090,177,-78,39,109,12079,5,2,270,32,35214,-3,35,127,0,0,3394,-21,0,1291,229,113,11737,-4,0,33,0,257125,0
257164,120,-2073,177,-79,35,112,12078,2,1,255,72,35205,7,35,127,0,0,3396,16,0,1291,229,113,11748,-4,0,33,0,257125,0
257174,132,-2086,181,-81,42,119,12079,-5,-1,263,64,35211,39,35,127,0,0,3396,16,0,1291,229,113,11758,-4,0,33,0,257156,0
257184,128,-2075,179,-82,35,118,12079,0,2,269,64,35211,42,35,127,0,0,3396,27,0,1291,229,113,11768,-4,0,33,0,257156,0
257194,138,-2078,177,-82,37,120,12078,-10,-5,250,64,35206,28,35,127,0,0,3393,0,0,1291,229,113,11778,-4,0,33,0,257172,0
257204,129,-2082,169,-83,36,130,12079,3,-1,251,72,35199,10,34,127,0,0,3393,-16,0,1291,229,113,11788,-4,0,33,0,257188,0
257214,120,-2079,175,-78,45,126,12079,-6,0,272,64,35205,11,34,127,0,0,3393,-43,0,1291,229,113,11798,-4,0,33,0,257219,0
257224,126,-2083,173,-73,38,134,12080,-1,-6,245,64,35206,11,35,127,0,0,3393,-10,0,1291,229,113,11808,-4,0,33,0,257219,0
257234,106,-2088,180,-84,40,131,12081,10,5,277,64,35205,17,35,127,0,0,3396,-27,0,1291,229,113,11818,-4,0,33,0,257219,0
257244,107,-2072,186,-75,40,133,12083,9,4,289,56,35204,24,35,127,0,0,3400,27,0,1291,229,113,11828,-4,0,33,0,257219,0
257254,104,-2085,190,-83,37,135,12087,10,1,261,56,35195,24,34,127,0,0,3396,-16,0,1291,229,113,11838,-4,0,33,0,257234,0
257264,98,-2072,196,-86,35,126,12089,2,1,238,48,35202,17,34,127,0,0,3396,-16,0,1291,229,113,11848,-4,0,33,0,257234,0
257274,98,-2083,191,-96,32,131,12090,3,-3,222,40,35213,-12,35,127,0,0,3396,0,0,1291,229,113,11858,-4,0,33,0,257281,0
257284,104,-2087,187,-100,35,128,12091,-1,-3,180,40,35215,-12,35,127,0,0,3393,-32,0,1291,229,113,11868,-4,0,33,0,257312,0
257294,88,-2083,185,-99,41,117,12093,12,-3,177,40,35209,-6,35,127,0,0,3396,-10,0,1291,229,113,11878,-4,0,33,0,257312,0
257304,109,-2070,180,-104,37,116,12094,0,8,165,32,35188,13,34,127,0,0,3396,0,0,1291,229,113,11888,-4,0,33,0,257312,0
257314,117,-2082,172,-110,27,119,12095,-3,-2,166,40,35186,6,34,127,0,0,3396,0,0,1291,229,113,11898,-4,0,33,0,257312,0
257324,110,-2084,169,-107,31,120,12094,1,-3,168,40,35201,9,35,127,0,0,3396,0,0,1291,229,113,11908,-4,0,33,0,257328,0
257334,126,-2083,171,-100,38,116,12093,0,-1,141,40,35202,4,34,127,0,0,3396,27,0,1291,229,113,11918,-4,0,33,0,257328,0
257344,135,-2077,163,-98,45,118,12096,5,4,179,32,35201,4,34,127,0,0,3396,-16,0,1291,229,113,11928,-4,0,33,0,257328,0
257354,106,-2079,175,-97,36,130,12095,2,2,166,32,35201,-5,35,127,0,0,3396,0,0,1291,229,113,11938,-4,0,33,0,257328,0
257364,109,-2078,169,-93,36,128,12096,5,-3,165,32,35207,-11,35,127,0,0,3396,0,0,1291,229,113,11948,-4,0,33,0,257344,0
257374,112,-2076,172,-92,44,129,12095,0,2,166,32,35220,-7,35,127,0,0,3396,0,0,1291,229,113,11958,-4,0,33,0,257344,0
257384,106,-2080,184,-92,44,136,12093,-3,-3,140,32,35226,-13,35,127,0,0,3400,60,0,1291,229,113,11968,-4,0,33,0,257375,0
257394,123,-2078,190,-93,43,128,12097,0,5,166,32,35214,0,35,127,0,0,3396,10,0,1291,229,113,11978,-4,0,33,0,257375,0
257404,104,-2078,190,-100,37,126,12098,4,3,167,32,35202,-5,35,127,0,0,3396,0,0,1291,229,113,11988,-4,0,33,0,257391,0
257414,104,-2083,177,-108,36,126,12098,0,-11,168,32,35200,7,35,127,0,0,3396,0,0,1291,229,113,11998,-4,0,33,0,257391,0
257425,112,-2078,173,-104,39,120,12097,-1,-5,181,24,35202,11,35,127,0,0,3396,-10,0,1291,229,113,12009,-4,0,33,0,257406,0
257435,113,-2086,174,-106,39,119,12097,-6,-1,149,32,35217,41,35,127,0,0,3399,21,0,1291,229,113,12019,-4,0,33,0,257406,0
257445,98,-2082,169,-105,37,111,12101,16,4,220,72,35225,32,35,127,0,0,3396,-43,0,1291,229,113,12029,-4,0,33,0,257437,0
257455,126,-2088,169,-109,32,113,12101,-16,1,73,24,35216,40,35,127,0,0,3396,0,0,1291,229,113,12039,-4,0,33,0,257437,0
257465,92,-2091,163,-102,43,118,12104,8,-4,110,48,35201,16,35,127,0,0,3396,-21,0,1291,229,113,12049,-4,0,33,0,257437,0
257475,101,-2084,174,-96,33,115,12102,-7,-2,91,56,35189,12,34,127,0,0,3401,43,0,1291,229,113,12059,-4,0,33,0,257453,0
257485,111,-2084,173,-98,41,118,12107,14,5,164,32,35186,21,34,127,0,0,3396,-32,0,1291,229,113,12069,-4,0,33,0,257453,0
257495,102,-2079,176,-96,38,114,12103,-14,0,124,0,35187,26,35,127,0,0,3396,-10,0,1291,229,113,12079,-4,0,33,0,257469,0
257505,104,-2073,165,-95,40,115,12104,-12,-12,115,40,35196,13,35,127,0,0,3396,0,0,1291,229,113,12089,-4,0,33,0,257484,0
257515,145,-2073,167,-97,41,117,12104,-10,-1,64,48,35198,13,35,127,0,0,3396,0,0,1291,229,113,12099,-4,0,33,0,257484,0
257525,110,-2071,171,-92,43,112,12105,5,-5,77,40,35196,13,35,127,0,0,3396,-10,0,1291,229,113,12109,-4,0,33,0,257500,0
257535,112,-2082,177,-96,41,111,12103,-11,0,50,56,35192,5,35,127,0,0,3396,0,0,1291,229,113,12119,-4,0,33,0,257516,0
257545,119,-2077,173,-100,44,111,12104,-4,-2,107,-8,35192,15,35,127,0,0,3399,0,0,1291,229,113,12129,-4,0,33,0,257531,0
257555,102,-2071,170,-95,43,118,12104,-1,-1,97,80,35192,8,34,127,0,0,3401,65,0,1291,229,113,12139,-4,0,33,0,257531,0
257565,150,-2071,170,-92,34,113,12110,4,7,151,16,35191,13,35,127,0,0,3399,0,0,1291,229,113,12149,-4,0,33,0,257547,0
257575,112,-2082,160,-94,39,116,12107,4,-2,122,32,35188,25,35,127,0,0,3396,0,0,1291,229,113,12159,-4,0,33,0,257578,0
257585,100,-2083,164,-93,36,118,12107,-12,-7,94,8,35187,18,35,127,0,0,3396,-21,0,1291,229,113,12169,-4,0,33,0,257578,0
257595,105,-2080,174,-92,39,113,12108,14,-1,76,8,35185,24,35,127,0,0,3396,-43,0,1291,229,113,12179,-4,0,33,0,257578,0
257605,94,-2088,169,-92,33,124,12105,1,2,119,40,35187,15,35,127,0,0,3399,0,0,1291,229,113,12189,-4,0,33,0,257578,0
257615,120,-2082,174,-93,33,120,12110,-1,3,138,-8,35181,16,35,127,0,0,3396,-32,0,1291,229,113,12199,-4,0,33,0,257594,0
257625,72,-2081,175,-93,35,128,12107,15,1,84,8,35179,14,35,127,0,0,3396,-43,0,1291,229,113,12209,-4,0,33,0,257594,0
257635,84,-2083,172,-94,34,114,12108,13,7,150,56,35190,8,35,127,0,0,3396,-43,0,1291,229,113,12219,-4,0,33,0,257641,0
257645,113,-2087,172,-92,36,118,12108,-21,2,60,8,35200,-9,35,127,0,0,3401,54,0,1291,229,113,12229,-4,0,33,0,257641,0
257655,114,-2085,173,-95,32,125,12112,16,-1,148,56,35198,-12,35,127,0,0,3399,-10,0,1291,229,113,12239,-4,0,33,0,257656,0
257665,80,-2089,170,-94,35,119,12110,-3,2,136,24,35188,-2,35,127,0,0,3399,-32,0,1291,229,113,12249,-4,0,33,0,257656,0
257675,92,-2080,168,-93,39,118,12109,-2,-11,109,32,35184,1,35,127,0,0,3399,0,0,1291,229,113,12259,-4,0,33,0,257656,0
257686,99,-2081,161,-95,36,117,12111,0,5,131,24,35194,-4,35,127,0,0,3399,-27,0,1291,229,113,12270,-4,0,33,0,257656,0
257696,95,-2068,171,-94,37,122,12111,10,3,133,24,35205,-1,35,127,0,0,3399,-10,0,1291,229,113,12280,-4,0,33,0,257656,0
257706,91,-2084,170,-96,36,118,12113,19,10,187,0,35199,29,34,127,0,0,3403,-21,0,1291,229,113,12290,-4,0,33,0,257703,0
257716,88,-2078,180,-99,35,120,12110,-6,-6,180,24,35190,29,35,127,0,0,3402,49,0,1291,229,113,12300,-4,0,33,0,257703,0
257726,97,-2079,170,-98,35,121,12111,-9,0,157,72,35180,25,34,127,0,0,3400,27,0,1291,229,113,12310,-4,0,33,0,257703,0
257736,114,-2078,170,-94,32,128,12113,3,6,200,24,35186,13,34,127,0,0,3402,-5,0,1291,229,113,12320,-4,0,33,0,257719,0
257746,87,-2085,172,-105,39,125,12111,5,-3,146,48,35190,10,35,127,0,0,3401,38,0,1291,229,113,12330,-4,0,33,0,257719,0
257756,106,-2084,168,-100,40,129,12111,-10,-1,151,0,35195,13,35,127,0,0,3403,32,0,1291,229,113,12340,-4,0,33,0,257734,0
257766,128,-2086,175,-100,40,117,12111,0,-3,166,0,35198,15,35,127,0,0,3403,43,0,1291,229,113,12350,-4,0,33,0,257750,0
257776,132,-2079,172,-98,40,118,12110,-3,1,156,8,35197,17,35,127,0,0,3400,0,0,1291,229,113,12360,-4,0,33,0,257750,0
257786,85,-2084,164,-100,38,125,12113,10,4,148,40,35196,0,35,127,0,0,3398,-32,0,1291,229,113,12370,-4,0,33,0,257750,0
257796,83,-2078,166,-99,38,126,12112,3,7,119,24,35189,15,35,127,0,0,3399,-27,0,1291,229,113,12380,-4,0,33,0,257781,0
257806,115,-2086,157,-97,38,130,12113,13,3,176,24,35192,3,35,127,0,0,3402,-16,0,1291,229,113,12390,-4,0,33,0,257781,0
257816,109,-2080,162,-95,44,128,12114,2,3,200,0,35190,6,35,127,0,0,3403,-5,0,1291,229,113,12400,-4,0,33,0,257781,0
257826,78,-2084,161,-95,38,137,12114,19,0,190,0,35193,2,35,127,0,0,3403,-5,0,1291,229,113,12410,-4,0,33,0,257812,0
257836,80,-2079,167,-91,39,129,12113,13,7,229,40,35184,-13,35,127,0,0,3401,-27,0,1291,229,113,12420,-4,0,33,0,257812,0
257846,99,-2081,163,-86,35,132,12114,-3,3,194,64,35184,-3,35,127,0,0,3400,5,0,1291,229,113,12430,-4,0,33,0,257812,0
257856,132,-2077,171,-87,33,136,12116,0,4,197,40,35195,-5,35,127,0,0,3404,5,0,1291,229,113,12440,-4,0,33,0,257844,0
257866,119,-2085,163,-91,35,139,12116,15,0,227,40,35202,-3,35,127,0,0,3401,-5,0,1291,229,113,12450,-4,0,33,0,257844,0
257876,98,-2085,168,-91,38,126,12114,-2,-1,218,64,35200,-2,35,127,0,0,3403,5,0,1291,229,113,12460,-4,0,33,0,257844,0
257886,111,-2084,165,-88,37,133,12116,-1,1,236,56,35201,-1,34,127,0,0,3403,0,0,1291,229,113,12470,-4,0,33,0,257875,0
257896,102,-2086,167,-86,32,133,12119,21,12,287,56,35201,17,34,127,0,0,3406,-10,0,1291,229,113,12480,-4,0,33,0,257875,0
257906,99,-2082,165,-88,41,137,12117,-3,2,259,56,35203,26,35,127,0,0,3406,43,0,1291,229,113,12490,-4,0,33,0,257875,0
257917,116,-2085,166,-83,39,133,12120,5,-10,299,72,35201,25,35,127,0,0,3405,10,0,1291,229,113,12501,-4,0,33,0,257890,0
257927,107,-2082,167,-86,36,123,12120,9,-1,273,88,35195,32,35,127,0,0,3403,-10,0,1291,229,113,12511,-4,0,33,0,258000,0
257937,117,-2080,164,-76,42,126,12119,-3,-2,278,80,35199,32,35,127,0,0,3403,0,0,1291,229,113,12521,-4,0,33,0,258015,0
257947,131,-2079,164,-80,36,128,12120,0,1,260,88,35203,35,34,127,0,0,3405,0,0,1291,229,113,12531,-4,0,33,0,258015,0
257957,117,-2082,164,-83,40,131,12120,-1,3,269,72,35204,16,34,127,0,0,3405,21,0,1291,229,113,12541,-4,0,33,0,258015,0
257967,108,-2071,163,-79,41,133,12121,-3,1,315,24,35199,22,35,127,0,0,3405,10,0,1291,229,113,12551,-4,0,33,0,258015,0
257977,114,-2076,169,-75,40,129,12120,-5,-5,311,72,35190,19,35,127,0,0,3407,21,0,1291,229,113,12561,-4,0,33,0,258015,0
257987,106,-2070,168,-73,36,138,12120,-6,-3,310,72,35188,24,35,127,0,0,3405,10,0,1291,229,113,12571,-4,0,33,0,258015,0
257997,120,-2083,165,-76,40,137,12121,-1,1,299,72,35189,19,35,127,0,0,3405,0,0,1291,229,113,12581,-4,0,33,0,258015,0
258007,107,-2078,168,-69,39,141,12121,2,0,298,104,35190,16,35,127,0,0,3407,32,0,1291,229,113,12591,-4,0,33,0,258015,0
258017,118,-2081,164,-70,42,140,12123,-2,2,327,88,35190,11,35,127,0,0,3407,21,0,1291,229,113,12601,-4,0,33,0,258015,0
258027,108,-2080,160,-68,35,144,12124,-2,-1,339,88,35190,7,35,127,0,0,3407,0,0,1291,229,113,12611,-4,0,33,0,258031,0
258037,106,-2082,162,-63,37,138,12123,0,-4,331,88,35191,-1,35,127,0,0,3410,21,0,1291,229,113,12621,-4,0,33,0,258031,0
258047,106,-2089,165,-62,41,143,12126,11,2,378,152,35198,14,35,127,0,0,3412,43,0,1291,229,113,12631,-4,0,33,0,258031,0
258057,111,-2086,168,-68,36,144,12133,14,17,392,128,35202,27,35,127,0,0,3410,-10,0,1291,229,113,12641,-4,0,33,0,258031,0
258067,109,-2079,168,-70,40,141,12135,-3,2,381,112,35218,21,35,127,0,0,3412,0,0,1291,229,113,12651,-4,0,33,0,258062,0
258077,100,-2083,168,-62,37,142,12136,0,-17,366,120,35220,32,35,127,0,0,3412,21,0,1291,229,113,12661,-4,0,33,0,258062,0
258087,114,-2077,168,-66,36,141,12140,16,5,378,104,35215,22,35,127,0,0,3414,21,0,1291,229,113,12671,-4,0,33,0,258062,0
258097,110,-2079,169,-62,34,145,12145,11,7,395,80,35203,23,35,127,0,0,3416,43,0,1291,229,113,12681,-4,0,33,0,258062,0
258107,101,-2078,160,-60,41,136,12166,58,25,329,72,35194,4,35,127,0,0,3416,0,0,1291,229,113,12691,-4,0,33,0,258094,0
258117,108,-2084,168,-65,34,148,12189,38,42,177,24,35196,7,35,127,0,0,3416,-32,0,1291,229,113,12701,-4,0,33,0,258094,0
258127,79,-2086,168,-57,40,136,12188,7,-43,236,48,35195,20,35,127,0,0,3416,0,0,1291,229,113,12711,-4,0,33,0,258094,0
258137,119,-2084,173,-61,35,137,12187,-9,-44,198,48,35195,27,35,127,0,0,3416,21,0,1291,229,113,12721,-4,0,33,0,258109,0
258147,114,-2085,176,-61,39,141,12190,11,13,244,32,35197,38,35,127,0,0,3416,-10,0,1291,229,113,12731,-4,0,33,0,258109,0
258158,105,-2083,179,-63,29,141,12189,7,0,256,88,35200,39,35,127,0,0,3421,49,0,1291,229,113,12742,-4,0,33,0,258125,0
258168,100,-2080,174,-60,28,142,12194,13,-1,307,64,35211,35,35,127,0,0,3425,27,0,1291,229,113,12752,-4,0,33,0,258156,0
258178,104,-2081,175,-63,36,138,12195,10,2,298,56,35211,25,35,127,0,0,3425,71,0,1291,229,113,12762,-4,0,33,0,258156,0
258188,83,-2086,172,-65,38,129,12195,0,-6,305,96,35211,35,35,127,0,0,3420,32,0,1291,229,113,12772,-4,0,33,0,258156,0
258198,95,-2082,177,-66,34,125,12201,21,14,326,112,35200,22,35,127,0,0,3418,-60,0,1291,229,113,12782,-4,0,33,0,258172,0
258208,104,-2084,171,-64,33,129,12211,15,21,215,48,35190,48,35,127,0,0,3417,-49,0,1291,229,113,12792,-4,0,33,0,258187,0
258218,101,-2081,168,-62,34,124,12225,35,11,142,48,35188,56,35,127,0,0,3420,-76,0,1291,229,113,12802,-4,0,33,0,258203,0
258228,118,-2080,175,-66,34,126,12235,13,-2,77,24,35190,55,35,127,0,0,3426,0,0,1291,229,113,12812,-4,0,33,0,258203,0
258238,78,-2087,175,-65,28,133,12235,7,-26,135,48,35194,61,35,127,0,0,3425,27,0,1291,229,113,12822,-4,0,33,0,258219,0
258248,67,-2082,174,-70,34,142,12236,7,-10,143,40,35203,48,35,127,0,0,3422,10,0,1291,229,113,12832,-4,0,33,0,258219,0
258258,116,-2088,178,-72,42,124,12235,-2,0,117,48,35208,40,35,127,0,0,3422,-21,0,1291,229,113,12842,-4,0,33,0,258219,0
258268,96,-2082,175,-77,35,130,12234,-17,-3,111,48,35211,42,35,127,0,0,3425,32,0,1291,229,113,12852,-4,0,33,0,258250,0
258278,110,-2085,171,-79,36,119,12236,-1,3,168,40,35207,40,35,127,0,0,3422,-32,0,1291,229,113,12862,-4,0,33,0,258250,0
258288,109,-2080,170,-76,39,125,12237,0,-1,134,40,35201,42,35,127,0,0,3425,16,0,1291,229,113,12872,-4,0,33,0,258250,0
258298,94,-2085,179,-70,41,112,12236,-11,-3,139,-8,35197,43,35,127,0,0,3427,5,0,1291,229,113,12882,-4,0,33,0,258343,0
258308,89,-2084,176,-79,44,114,12239,11,4,164,40,35189,43,35,127,0,0,3428,38,0,1291,229,113,12892,-4,0,33,0,258343,0
258318,124,-2075,178,-74,33,125,12238,0,4,182,40,35187,53,34,127,0,0,3425,10,0,1291,229,113,12902,-4,0,33,0,258343,0
258328,100,-2081,175,-74,33,122,12240,7,0,216,40,35185,60,34,127,0,0,3425,-49,0,1291,229,113,12912,-4,0,33,0,258359,0
258338,92,-2083,167,-70,46,128,12238,-3,0,162,40,35190,42,35,127,0,0,3428,32,0,1291,229,113,12922,-4,0,33,0,258359,0
258348,100,-2078,171,-71,40,130,12239,-2,0,180,8,35189,37,35,127,0,0,3426,0,0,1291,229,113,12932,-4,0,33,0,258359,0
258358,105,-2083,172,-74,38,132,12239,7,6,140,32,35186,36,35,127,0,0,3428,38,0,1291,229,113,12942,-4,0,33,0,258359,0
258368,88,-2078,171,-66,41,134,12241,5,4,196,56,35187,42,35,127,0,0,3427,21,0,1291,229,113,12952,-4,0,33,0,258359,0
258378,110,-2082,161,-70,28,143,12239,-3,1,180,56,35186,42,35,127,0,0,3431,76,0,1291,229,113,12962,-4,0,33,0,258359,0
258388,89,-2092,168,-70,31,146,12240,-16,3,222,56,35186,41,35,127,0,0,3427,27,0,1291,229,113,12972,-4,0,33,0,258375,0
258398,95,-2081,177,-68,34,147,12243,9,-3,236,56,35193,31,35,127,0,0,3431,5,0,1291,229,113,12982,-4,0,33,0,258375,0
258409,111,-2074,177,-67,30,141,12242,-1,-5,230,56,35207,43,35,127,0,0,3427,10,0,1291,229,113,12993,-4,0,33,0,258375,0
258419,115,-2081,179,-68,37,152,12241,-7,-2,224,56,35216,35,35,127,0,0,3432,54,0,1291,229,113,13003,-4,0,33,0,258406,0
258429,120,-2084,175,-73,30,147,12244,4,4,277,40,35210,24,35,127,0,0,3429,21,0,1291,229,113,13013,-4,0,33,0,258406,0
258439,83,-2079,175,-69,40,147,12246,20,4,309,104,35203,18,35,127,0,0,3432,0,0,1291,229,113,13023,-4,0,33,0,258406,0
258449,87,-2079,180,-75,37,140,12246,7,-5,294,104,35195,24,35,127,0,0,3432,10,0,1291,229,113,13033,-4,0,33,0,258437,0
258459,89,-2077,187,-74,37,144,12247,5,2,346,112,35196,30,35,127,0,0,3434,0,0,1291,229,113,13043,-4,0,33,0,258437,0
258469,86,-2082,183,-79,41,144,12246,0,5,344,120,35202,21,35,127,0,0,3434,10,0,1291,229,113,13053,-4,0,33,0,258437,0
258479,97,-2080,177,-77,35,135,12248,1,1,373,104,35201,15,35,127,0,0,3434,0,0,1291,229,113,13063,-4,0,33,0,258453,0
258489,100,-2079,180,-77,38,136,12248,3,0,377,104,35206,12,35,127,0,0,3436,21,0,1291,229,113,13073,-4,0,33,0,258468,0
258499,84,-2083,184,-84,36,138,12250,7,4,400,104,35208,46,34,127,0,0,3434,0,0,1291,229,113,13083,-4,0,33,0,258468,0
258509,94,-2088,178,-84,33,134,12250,2,2,382,104,35203,42,35,127,0,0,3434,10,0,1291,229,113,13093,-4,0,33,0,258468,0
258519,94,-2087,180,-86,32,134,12250,-3,2,392,104,35199,46,35,127,0,0,3436,21,0,1291,229,113,13103,-4,0,33,0,258500,0
258529,93,-2088,182,-87,40,130,12251,4,-1,403,104,35202,29,35,127,0,0,3436,10,0,1291,229,113,13113,-4,0,33,0,258500,0
258539,94,-2088,181,-89,39,128,12252,0,3,435,88,35201,18,35,127,0,0,3434,-32,0,1291,229,113,13123,-4,0,33,0,258500,0
258549,78,-2092,175,-92,38,126,12252,9,-1,447,80,35206,17,35,127,0,0,3438,-21,0,1291,229,113,13133,-4,0,33,0,258531,0
258559,83,-2081,173,-91,37,131,12253,0,2,428,96,35195,26,35,127,0,0,3438,43,0,1291,229,113,13143,-4,0,33,0,258531,0
258569,114,-2083,172,-93,31,129,12255,6,1,456,112,35203,22,35,127,0,0,3434,-21,0,1291,229,113,13153,-4,0,33,0,258547,0
258579,107,-2080,170,-92,37,121,12256,6,0,457,136,35198,21,35,127,0,0,3436,-21,0,1291,229,113,13163,-4,0,33,0,258547,0
258589,97,-2074,180,-94,36,126,12256,-10,-3,418,112,35204,16,35,127,0,0,3436,10,0,1291,229,113,13173,-4,0,33,0,258593,0
258599,106,-2075,176,-93,44,132,12256,0,-4,427,144,35204,26,35,127,0,0,3436,0,0,1291,229,113,13183,-4,0,33,0,258609,0
258609,107,-2070,173,-94,43,129,12256,-3,1,439,104,35202,30,35,127,0,0,3438,21,0,1291,229,113,13193,-4,0,33,0,258609,0
258619,100,-2087,179,-97,46,136,12256,-3,-2,469,136,35194,17,35,127,0,0,3436,0,0,1291,229,113,13203,-4,0,33,0,258609,0
258629,110,-2080,174,-95,36,137,12255,-11,0,420,112,35193,17,35,127,0,0,3438,32,0,1291,229,113,13213,-4,0,33,0,258609,0
258639,97,-2083,177,-100,36,146,12259,10,4,468,128,35192,20,35,127,0,0,3438,0,0,1291,229,113,13223,-4,0,33,0,258609,0
258649,97,-2078,176,-96,39,138,12259,1,5,497,120,35195,19,35,127,0,0,3438,0,0,1291,229,113,13233,-4,0,33,0,258625,0
258660,97,-2078,183,-90,30,142,12259,1,-7,482,176,35207,20,35,127,0,0,3439,10,0,1291,229,113,13244,-4,0,33,0,258703,0
258670,98,-2086,173,-94,40,147,12264,17,7,520,144,35216,26,35,127,0,0,3437,-65,0,1291,229,113,13254,-4,0,33,0,258703,0
258680,99,-2087,177,-97,27,146,12265,-7,2,453,136,35215,13,35,127,0,0,3440,32,0,1291,229,113,13264,-4,0,33,0,258703,0
258690,96,-2081,178,-98,34,145,12268,5,-7,482,176,35206,13,35,127,0,0,3442,54,0,1291,229,113,13274,-4,0,33,0,258703,0
258700,85,-2084,174,-96,40,152,12275,23,14,492,168,35199,7,35,127,0,0,3442,0,0,1291,229,113,13284,-4,0,33,0,258718,0
258710,91,-2086,174,-97,38,148,12294,44,34,395,128,35199,24,35,127,0,0,3445,5,0,1291,229,113,13294,-4,0,33,0,258718,0
258720,94,-2081,173,-96,29,150,12308,13,5,360,96,35194,23,35,127,0,0,3445,0,0,1291,229,113,13304,-4,0,33,0,258718,0
258730,78,-2080,171,-99,40,143,12306,-5,-46,393,104,35194,6,35,127,0,0,3445,0,0,1291,229,113,13314,-4,0,33,0,258718,0
258740,102,-2082,167,-90,40,136,12309,8,-17,425,120,35199,5,35,127,0,0,3447,-5,0,1291,229,113,13324,-4,0,33,0,258718,0
258750,88,-2084,178,-100,35,142,12311,7,14,463,112,35207,8,35,127,0,0,3447,-16,0,1291,229,113,13334,-4,0,33,0,258718,0
258760,87,-2084,180,-101,35,140,12309,-1,-4,454,120,35214,25,35,127,0,0,3447,0,0,1291,229,113,13344,-4,0,33,0,258750,0
258770,86,-2084,169,-95,32,135,12310,3,2,458,136,35209,18,35,127,0,0,3449,38,0,1291,229,113,13354,-4,0,33,0,258750,0
258780,83,-2084,172,-95,49,136,12314,13,4,502,152,35205,16,35,127,0,0,3451,21,0,1291,229,113,13364,-4,0,33,0,258750,0
258790,96,-2086,178,-98,38,134,12315,0,4,494,128,35202,-3,34,127,0,0,3453,21,0,1291,229,113,13374,-4,0,33,0,258750,0
258800,82,-2077,172,-99,43,135,12317,1,-12,484,128,35210,-22,34,127,0,0,3453,16,0,1291,229,113,13384,-4,0,33,0,258781,0
258810,85,-2084,165,-99,35,136,12316,0,1,462,152,35207,-4,35,127,0,0,3451,38,0,1291,229,113,13394,-4,0,33,0,258797,0
258820,77,-2084,167,-92,39,133,12318,6,5,478,144,35203,-4,35,127,0,0,3451,5,0,1291,229,113,13404,-4,0,33,0,258797,0
258830,103,-2077,164,-96,37,124,12317,0,3,480,144,35197,-8,35,127,0,0,3451,32,0,1291,229,113,13414,-4,0,33,0,258797,0
258840,87,-2085,169,-90,32,137,12319,2,-1,492,120,35202,-5,35,127,0,0,3449,-38,0,1291,229,113,13424,-4,0,33,0,258812,0
258850,69,-2088,168,-90,46,130,12318,4,2,499,168,35203,13,35,127,0,0,3450,-10,0,1291,229,113,13434,-4,0,33,0,258828,0
258860,95,-2080,167,-92,38,131,12324,3,7,472,136,35202,18,35,127,0,0,3451,0,0,1291,229,113,13444,-4,0,33,0,258828,0
258870,88,-2078,170,-87,41,125,12329,22,4,508,120,35204,15,35,127,0,0,3455,16,0,1291,229,113,13454,-4,0,33,0,258843,0
258880,84,-2079,167,-90,45,128,12339,38,17,473,104,35211,11,35,127,0,0,3451,-38,0,1291,229,113,13464,-4,0,33,0,258859,0
258890,83,-2080,167,-86,36,129,12364,60,45,238,56,35208,22,35,127,0,0,3451,-27,0,1291,229,113,13474,-4,0,33,0,258859,0
258901,72,-2088,165,-85,39,130,12369,-4,-20,240,80,35203,33,35,127,0,0,3451,-21,0,1291,229,113,13485,-4,0,33,0,258875,0
258911,90,-2101,165,-85,42,126,12370,6,-50,244,32,35203,20,35,127,0,0,3454,-10,0,1291,229,113,13495,-4,0,33,0,258890,0
258921,90,-2093,167,-84,36,124,12369,4,-7,253,80,35215,23,35,127,0,0,3451,-10,0,1291,229,113,13505,-4,0,33,0,258906,0
258931,124,-2088,172,-88,31,117,12367,-13,-2,210,48,35216,17,35,127,0,0,3454,32,0,1291,229,113,13515,-4,0,33,0,258906,0
258941,725,-1959,83,-107,72,-211,12373,0,5,289,80,35202,17,35,127,0,0,3454,-10,0,1291,229,113,13525,-4,0,33,0,258906,0
258951,871,-1911,51,-204,81,-465,12371,-14,3,207,8,35199,20,35,127,0,0,3438,-197,0,1291,229,113,13535,-4,0,33,0,258937,0
258961,-5,-2098,412,-216,-69,-12,12345,-79,-59,-286,-120,35206,22,34,127,0,0,3429,-43,0,1291,229,113,13545,-4,0,33,0,258937,0
258971,-4,-2147,291,-145,-39,53,12290,-127,-107,-105,-40,35209,32,35,127,0,0,3425,-21,0,1291,229,113,13555,-4,0,33,0,258937,0
258981,566,-2024,-121,-139,93,-207,12267,-20,2,14,-56,35209,13,35,127,0,0,3427,-10,0,1291,229,113,13565,-4,0,33,0,258953,0
258991,662,-1920,-47,-147,117,-448,12255,-22,96,-119,-160,35206,-13,35,127,0,0,3407,-164,0,1291,229,113,13575,-4,0,33,0,258968,0
259001,242,-2032,256,-169,-29,-306,12219,-77,-30,-384,-200,35207,-14,35,127,0,0,3392,-153,0,1291,229,113,13585,-4,0,33,0,258968,0
259011,247,-2141,227,-191,-40,-180,12166,-136,-70,-438,-192,35222,-1,35,127,0,0,3383,-54,0,1291,229,113,13595,-4,0,33,0,259000,0
259021,450,-2074,-38,-125,78,-296,12103,-151,-45,-295,-192,35221,23,35,127,0,0,3375,-65,0,1291,229,113,13605,-4,0,33,0,259000,0
259031,553,-2046,-16,-128,90,-389,12046,-130,-15,-310,-200,35216,24,35,127,0,0,3359,-153,0,1291,229,113,13615,-4,0,33,0,259000,0
259041,553,-2048,138,-153,-2,-401,11996,-125,30,-452,-256,35204,17,35,127,0,0,3342,-186,0,1291,229,113,13625,-4,0,33,0,259015,0
259051,353,-2081,162,-157,-24,-329,11913,-194,-53,-381,-264,35208,26,35,127,0,0,3328,-164,0,1291,229,113,13635,-4,0,33,0,259015,0
259061,365,-2096,100,-102,40,-260,11831,-174,-66,-345,-232,35204,40,35,127,0,0,3317,-109,0,1291,229,113,13645,-4,0,33,0,259031,0
259071,471,-2018,42,-99,54,-262,11770,-119,36,-386,-200,35207,24,35,127,0,0,3309,-76,0,1291,229,113,13655,-4,0,33,0,259046,0
259081,482,-2075,103,-84,43,-292,11720,-124,64,-369,-192,35201,25,35,127,0,0,3302,-65,0,1291,229,113,13665,-4,0,33,0,259062,0
259091,414,-2084,111,-91,29,-282,11667,-123,8,-299,-144,35207,27,35,127,0,0,3291,-120,0,1291,229,113,13675,-4,0,33,0,259062,0
259101,358,-2117,95,-70,22,-241,11633,-46,29,-417,-240,35207,34,35,127,0,0,3282,-131,0,1291,229,113,13685,-4,0,33,0,259093,0
259111,422,-2075,91,-53,21,-256,11597,-87,39,-449,-224,35202,46,35,127,0,0,3276,-54,0,1291,229,113,13695,-4,0,33,0,259109,0
259121,351,-2091,99,-39,23,-277,11561,-87,-8,-484,-208,35197,40,35,127,0,0,3269,-76,0,1291,229,113,13705,-4,0,33,0,259109,0
259131,304,-2070,147,-48,34,-335,11505,-121,-34,-401,-192,35195,20,35,127,0,0,3258,-76,0,1291,229,113,13715,-4,0,33,0,259109,0
259141,169,-2104,190,-76,35,-378,11455,-75,-30,-424,-184,35196,5,35,127,0,0,3247,-109,0,1291,229,113,13725,-4,0,33,0,259109,0
259152,183,-2135,201,-87,33,-395,11416,-106,53,-587,-264,35200,1,35,127,0,0,3235,-98,0,1291,229,113,13736,-4,0,33,0,259125,0
259162,150,-2109,147,-107,41,-481,11358,-140,-33,-493,-304,35203,32,34,127,0,0,3218,-137,0,1291,229,113,13746,-4,0,33,0,259156,0
259172,153,-2140,157,-120,63,-528,11281,-183,-86,-438,-264,35216,48,34,127,0,0,3214,-87,0,1291,229,113,13756,-4,0,33,0,259156,0
259182,68,-2294,161,-167,88,-506,11202,-175,-41,-355,-224,35212,44,35,127,0,0,3203,-38,0,1291,229,113,13766,-4,0,33,0,259156,0
259192,196,-2263,166,-144,92,-501,11140,-118,22,-289,-120,35208,41,35,127,0,0,3198,-65,0,1291,229,113,13776,-4,0,33,0,259156,0
259202,180,-2075,107,-147,149,-494,11119,-31,109,-256,-72,35201,50,35,127,0,0,3201,-38,0,1291,229,113,13786,-4,0,33,0,259187,0
259212,283,-2023,46,-102,104,-544,11115,-1,113,-161,-32,35197,70,35,127,0,0,3203,16,0,1291,229,113,13796,-4,0,33,0,259187,0
259222,357,-2095,82,-109,93,-527,11115,-7,40,-175,-32,35200,69,35,127,0,0,3203,16,0,1291,229,113,13806,-4,0,33,0,259187,0
259232,313,-2080,105,-100,82,-514,11116,0,6,-147,-40,35196,55,35,127,0,0,3203,0,0,1291,229,113,13816,-4,0,33,0,259203,0
259242,303,-2052,100,-108,117,-500,11118,16,2,-99,-40,35195,37,35,127,0,0,3206,-10,0,1291,229,113,13826,-4,0,33,0,259218,0
259252,335,-2072,89,-112,140,-481,11118,16,4,16,32,35197,44,35,127,0,0,3203,-16,0,1291,229,113,13836,-4,0,33,0,259234,0
259262,347,-2048,128,-99,142,-454,11126,-2,13,-61,-8,35194,42,35,127,0,0,3211,16,0,1291,229,113,13846,-4,0,33,0,259234,0
259272,328,-2028,124,-94,139,-451,11128,17,-4,87,56,35197,42,35,127,0,0,3214,54,0,1291,229,113,13856,-4,0,33,0,259265,0
259282,362,-2001,101,-78,140,-434,11149,41,30,1,40,35204,59,35,127,0,0,3220,115,0,1291,229,113,13866,-4,0,33,0,259265,0
259292,331,-1973,111,-68,150,-406,11162,0,23,32,32,35198,61,35,127,0,0,3215,32,0,1291,229,113,13876,-4,0,33,0,259265,0
259302,382,-1960,129,-51,174,-388,11161,3,-52,41,32,35197,64,34,127,0,0,3218,38,0,1291,229,113,13886,-4,0,33,0,259281,0
259312,432,-1967,131,-40,178,-366,11165,4,-13,142,24,35187,65,34,127,0,0,3218,-10,0,1291,229,113,13896,-4,0,33,0,259281,0
259322,462,-1976,176,-44,155,-332,11165,6,4,163,24,35196,53,35,127,0,0,3222,27,0,1291,229,113,13906,-4,0,33,0,259296,0
259332,490,-1987,193,-49,142,-294,11165,-5,-13,151,8,35196,54,35,127,0,0,3220,0,0,1291,229,113,13916,-4,0,33,0,259312,0
259342,459,-2007,230,-39,94,-229,11167,2,0,153,0,35201,55,35,127,0,0,3220,-21,0,1291,229,113,13926,-4,0,33,0,259312,0
259352,452,-2017,221,-30,69,-209,11166,12,3,124,-16,35197,51,35,127,0,0,3217,-38,0,1291,229,113,13936,-4,0,33,0,259343,0
259362,412,-2011,209,-18,26,-176,11161,-2,-4,11,8,35197,64,35,127,0,0,3213,-16,0,1291,229,113,13946,-4,0,33,0,259343,0
259372,441,-2023,214,-20,6,-153,11159,-12,-8,-91,-8,35189,67,35,127,0,0,3211,0,0,1291,229,113,13956,-4,0,33,0,259343,0
259382,396,-2003,189,-22,2,-131,11157,-18,1,-189,-72,35190,75,35,127,0,0,3208,-38,0,1291,229,113,13966,-4,0,33,0,259343,0
259392,380,-1991,175,-15,-6,-127,11151,0,-6,-235,-104,35191,64,35,127,0,0,3203,-76,0,1291,229,113,13976,-4,0,33,0,259359,0
259403,391,-2028,158,-13,-2,-88,11146,-11,-3,-358,-96,35197,60,35,127,0,0,3201,-32,0,1291,229,113,13987,-4,0,33,0,259390,0
259413,376,-2023,167,-17,-4,-79,11141,-3,-1,-420,-160,35191,69,35,127,0,0,3197,-32,0,1291,229,113,13997,-4,0,33,0,259406,0
259423,375,-2027,161,-20,8,-76,11126,-42,-13,-427,-168,35188,72,35,127,0,0,3192,-54,0,1291,229,113,14007,-4,0,33,0,259421,0
259433,400,-2041,147,-32,25,-69,11087,-105,-71,-345,-128,35192,44,35,127,0,0,3188,-21,0,1291,229,113,14017,-4,0,33,0,259421,0
259443,348,-2020,166,-22,35,-58,11069,-5,-5,-379,-128,35192,29,35,127,0,0,3183,-54,0,1291,229,113,14027,-4,0,33,0,259421,0
259453,404,-2061,192,-31,23,-29,11068,-3,84,-505,-152,35192,22,35,127,0,0,3181,-32,0,1291,229,113,14037,-4,0,33,0,259421,0
259463,376,-2064,194,-32,19,-8,11059,-36,5,-555,-176,35196,24,35,127,0,0,3177,-32,0,1291,229,113,14047,-4,0,33,0,259437,0
259473,342,-2088,181,-44,30,-13,11036,-64,-48,-451,-152,35207,20,35,127,0,0,3177,-21,0,1291,229,113,14057,-4,0,33,0,259468,0
259483,321,-2079,178,-40,40,-19,11019,-20,-10,-458,-160,35206,21,35,127,0,0,3172,-32,0,1291,229,113,14067,-4,0,33,0,259468,0
259493,345,-2075,178,-44,22,-4,11020,4,59,-548,-144,35195,21,35,127,0,0,3172,10,0,1291,229,113,14077,-4,0,33,0,259468,0
259503,340,-2070,178,-40,3,6,11016,-8,17,-541,-184,35187,22,35,127,0,0,3170,10,0,1291,229,113,14087,-4,0,33,0,259484,0
259513,369,-2068,166,-48,22,-8,11016,-3,0,-570,-200,35196,21,35,127,0,0,3172,21,0,1291,229,113,14097,-4,0,33,0,259484,0
259523,354,-2086,151,-57,28,-16,11013,-4,0,-533,-200,35208,32,35,127,0,0,3168,-32,0,1291,229,113,14107,-4,0,33,0,259527,0
259533,346,-2079,151,-46,42,-10,11009,-1,-6,-561,-176,35215,27,35,127,0,0,3166,-54,0,1291,229,113,14117,-4,0,33,0,259527,0
259543,369,-2071,136,-43,49,-15,11002,-27,-6,-528,-208,35211,33,34,127,0,0,3170,-10,0,1291,229,113,14127,-4,0,33,0,259543,0
259553,364,-2080,138,-42,59,-7,10991,-25,-12,-432,-112,35205,27,35,127,0,0,3170,10,0,1291,229,113,14137,-4,0,33,0,259543,0
259563,364,-2075,143,-43,73,-7,10974,-46,-17,-330,-80,35198,40,35,127,0,0,3168,-10,0,1291,229,113,14147,-4,0,33,0,259543,0
259573,357,-2070,152,-36,93,-18,10957,-11,-7,-227,-88,35193,42,35,127,0,0,3170,0,0,1291,229,113,14157,-4,0,33,0,259543,0
259583,382,-2081,168,-41,94,6,10959,4,49,-187,-40,35197,41,35,127,0,0,3175,21,0,1291,229,113,14167,-4,0,33,0,259543,0
259593,350,-2079,181,-38,79,40,10963,13,31,-14,16,35207,37,35,127,0,0,3179,21,0,1291,229,113,14177,-4,0,33,0,259574,0
259603,378,-2096,180,-49,79,56,10971,3,8,92,48,35206,53,35,127,0,0,3186,65,0,1291,229,113,14187,-4,0,33,0,259574,0
259613,380,-2066,178,-39,87,35,10987,45,15,257,120,35200,51,35,127,0,0,3197,76,0,1291,229,113,14197,-4,0,33,0,259606,0
259623,376,-2041,176,-44,92,8,11036,145,91,199,112,35184,49,35,127,0,0,3203,76,0,1291,229,113,14207,-4,0,33,0,259621,0
259633,373,-2050,192,-55,62,16,11097,119,92,17,32,35190,37,35,127,0,0,3210,65,0,1291,229,113,14217,-4,0,33,0,259621,0
259643,368,-2050,206,-42,56,-13,11105,-1,-101,295,112,35189,40,35,127,0,0,3216,65,0,1291,229,113,14227,-4,0,33,0,259621,0
259654,347,-2153,219,-26,48,-19,11114,25,-81,415,152,35202,27,35,127,0,0,3221,65,0,1291,229,113,14238,-4,0,33,0,259621,0
259664,334,-2148,265,-8,47,-30,11146,105,60,407,184,35207,43,35,127,0,0,3229,49,0,1291,229,113,14248,-4,0,33,0,259637,0
259674,418,-2101,256,-29,-10,-26,11206,126,99,264,128,35213,50,35,127,0,0,3243,76,0,1291,229,113,14258,-4,0,33,0,259652,0
259684,379,-2089,240,-23,-74,-17,11258,86,17,270,168,35208,49,35,127,0,0,3249,98,0,1291,229,113,14268,-4,0,33,0,259652,0
259694,306,-2065,194,-9,-143,-29,11306,102,-31,315,160,35207,35,35,127,0,0,3268,175,0,1291,229,113,14278,-4,0,33,0,259652,0
259704,333,-2091,165,-1,-146,-74,11362,150,16,367,184,35208,10,35,127,0,0,3275,104,0,1291,229,113,14288,-4,0,33,0,259684,0
259714,322,-2144,225,-3,-164,-114,11427,149,39,304,152,35204,13,35,127,0,0,3283,115,0,1291,229,113,14298,-4,0,33,0,259684,0
259724,318,-2122,278,3,-171,-169,11497,156,28,236,152,35204,12,35,127,0,0,3293,65,0,1291,229,113,14308,-4,0,33,0,259684,0
259734,312,-2072,234,-49,-174,-227,11549,100,-26,326,136,35202,3,35,127,0,0,3309,76,0,1291,229,113,14318,-4,0,33,0,259715,0
259744,287,-2028,184,-73,-169,-254,11580,58,-77,458,168,35204,16,35,127,0,0,3311,76,0,1291,229,113,14328,-4,0,33,0,259730,0
259754,278,-1986,89,-52,-138,-333,11632,133,12,297,160,35206,10,35,127,0,0,3320,82,0,1291,229,113,14338,-4,0,33,0,259730,0
259764,315,-1971,44,-73,-88,-390,11686,116,54,217,96,35198,16,35,127,0,0,3327,71,0,1291,229,113,14348,-4,0,33,0,259730,0
259774,311,-1998,45,-105,-29,-468,11694,0,-91,396,128,35207,21,35,127,0,0,3332,43,0,1291,229,113,14358,-4,0,33,0,259746,0
259784,286,-2046,67,-102,12,-499,11699,19,-92,482,160,35214,30,35,127,0,0,3329,0,0,1291,229,113,14368,-4,0,33,0,259746,0
259794,303,-2159,125,-103,60,-520,11711,30,20,420,136,35217,45,35,127,0,0,3339,76,0,1291,229,113,14378,-4,0,33,0,259762,0
259804,318,-2218,173,-120,83,-535,11744,77,54,322,96,35215,40,35,127,0,0,3335,5,0,1291,229,113,14388,-4,0,33,0,259777,0
259814,368,-2232,190,-124,112,-566,11763,34,11,341,152,35209,52,35,127,0,0,3347,54,0,1291,229,113,14398,-4,0,33,0,259793,0
259824,352,-2164,167,-126,140,-561,11800,114,4,309,144,35204,54,35,127,0,0,3350,82,0,1291,229,113,14408,-4,0,33,0,259793,0
259834,432,-2131,163,-152,173,-573,11851,117,71,295,160,35206,48,35,127,0,0,3368,104,0,1291,229,113,14418,-4,0,33,0,259824,0
259844,429,-2103,173,-153,157,-562,11907,122,29,359,160,35207,53,35,127,0,0,3379,109,0,1291,229,113,14428,-4,0,33,0,259824,0
259854,475,-2055,203,-145,137,-585,11962,115,3,370,216,35208,55,35,127,0,0,3394,153,0,1291,229,113,14438,-4,0,33,0,259824,0
259864,470,-2046,215,-170,133,-596,12018,129,-1,404,232,35203,52,35,127,0,0,3407,126,0,1291,229,113,14448,-4,0,33,0,259840,0
259874,450,-1992,250,-214,126,-608,12088,163,25,356,248,35209,19,35,127,0,0,3416,142,0,1291,229,113,14458,-4,0,33,0,259887,0
259884,495,-1979,220,-235,118,-642,12160,153,31,384,264,35201,13,35,127,0,0,3432,93,0,1291,229,113,14468,-4,0,33,0,259887,0
259894,521,-1890,178,-234,111,-682,12238,177,9,315,216,35198,7,35,127,0,0,3446,142,0,1291,229,113,14478,-4,0,33,0,259902,0
259904,625,-1896,180,-249,98,-695,12300,113,-25,381,200,35190,15,35,127,0,0,3454,60,0,1291,229,113,14488,-4,0,33,0,259902,0
259914,650,-1828,167,-259,89,-728,12336,70,-90,463,200,35192,11,35,127,0,0,3467,109,0,1291,229,113,14498,-4,0,33,0,259902,0
259924,684,-1833,148,-258,89,-762,12384,113,-26,373,144,35195,8,35,127,0,0,3468,76,0,1291,229,113,14508,-4,0,33,0,259902,0
259935,736,-1835,185,-236,50,-749,12426,78,3,325,120,35202,23,34,127,0,0,3467,-21,0,1291,229,113,14519,-4,0,33,0,259902,0
259945,778,-1826,178,-237,13,-679,12431,-14,-81,317,56,35214,55,34,127,0,0,3467,-32,0,1291,229,113,14529,-4,0,33,0,259918,0
259955,792,-1834,162,-230,12,-607,12432,5,-80,304,72,35224,45,35,127,0,0,3469,32,0,1291,229,113,14539,-4,0,33,0,259918,0
259965,880,-1873,113,-201,0,-559,12432,1,-3,364,128,35225,43,35,127,0,0,3469,-10,0,1291,229,113,14549,-4,0,33,0,259965,0
259975,879,-1838,124,-184,-24,-517,12431,-1,0,320,96,35214,34,35,127,0,0,3469,21,0,1291,229,113,14559,-4,0,33,0,259965,0
259985,795,-1831,144,-151,-84,-399,12432,-3,2,375,80,35205,40,35,127,0,0,3469,-10,0,1291,229,113,14569,-4,0,33,0,259965,0
259995,610,-1589,135,-221,-174,-390,12433,4,7,368,96,35195,49,35,127,0,0,3469,-21,0,1291,229,113,14579,-4,0,33,0,259965,0
260005,786,-2294,113,-223,-102,-387,12432,5,-3,348,64,35201,46,35,127,0,0,3469,0,0,1291,229,113,14589,-4,0,33,0,259996,0
260015,804,-2449,194,-121,-26,-345,12433,8,2,362,96,35205,48,35,127,0,0,3467,-21,0,1291,229,113,14599,-4,0,33,0,259996,0
260025,506,-2029,265,-131,-120,-253,12432,1,2,349,128,35204,43,35,127,0,0,3471,0,0,1291,229,113,14609,-4,0,33,0,259996,0
260035,642,-2167,222,-175,-162,-180,12436,12,2,456,184,35201,35,35,127,0,0,3484,142,0,1291,229,113,14619,-4,0,33,0,259996,0
260045,501,-2150,161,-163,-152,-215,12462,80,51,655,288,35208,30,35,127,0,0,3500,131,0,1291,229,113,14629,-4,0,33,0,260027,0
260055,559,-2160,160,-184,-136,-265,12530,166,126,430,352,35209,45,35,127,0,0,3517,197,0,1291,229,113,14639,-4,0,33,0,260027,0
260065,496,-2105,216,-215,-156,-297,12621,201,124,392,352,35216,41,35,127,0,0,3533,197,0,1291,229,113,14649,-4,0,33,0,260027,0
260075,444,-2089,248,-243,-164,-280,12712,191,42,408,304,35206,55,35,127,0,0,3555,219,0,1291,229,113,14659,-4,0,33,0,260043,0
260085,518,-1962,169,-278,-151,-407,12795,182,-15,466,400,35210,58,35,127,0,0,3574,208,0,1291,229,113,14669,-4,0,33,0,260074,0
260095,559,-1937,165,-308,-121,-496,12891,199,11,448,344,35198,49,35,127,0,0,3590,164,0,1291,229,113,14679,-4,0,33,0,260074,0
260105,629,-2026,179,-339,-99,-516,12989,221,22,401,328,35194,34,35,127,0,0,3605,142,0,1291,229,113,14689,-4,0,33,0,260074,0
260115,740,-1994,210,-338,-138,-483,13071,167,-22,469,352,35194,22,35,127,0,0,3623,208,0,1291,229,113,14699,-4,0,33,0,260074,0
260125,685,-1880,182,-322,-191,-525,13153,208,-36,520,376,35205,24,35,127,0,0,3640,153,0,1291,229,113,14709,-4,0,33,0,260105,0
260135,691,-1871,158,-328,-209,-548,13242,190,29,463,416,35202,38,35,127,0,0,3658,175,0,1291,229,113,14719,-4,0,33,0,260121,0
260145,669,-1880,128,-334,-195,-579,13338,205,23,410,288,35199,36,35,127,0,0,3671,142,0,1291,229,113,14729,-4,0,33,0,260152,0
260156,646,-1883,130,-351,-179,-606,13441,191,3,338,264,35196,52,35,127,0,0,3683,164,0,1291,229,113,14740,-4,0,33,0,260152,0
260166,712,-1896,97,-371,-143,-691,13507,141,-62,459,240,35202,57,35,127,0,0,3692,98,0,1291,229,113,14750,-4,0,33,0,260168,0
260176,669,-1831,66,-368,-138,-718,13565,132,-72,419,200,35204,39,35,127,0,0,3695,27,0,1291,229,113,14760,-4,0,33,0,260168,0
260186,726,-1890,46,-379,-140,-714,13600,45,-49,418,192,35204,24,35,127,0,0,3705,93,0,1291,229,113,14770,-4,0,33,0,260168,0
260196,673,-1873,72,-364,-125,-753,13617,46,-89,552,200,35203,7,35,127,0,0,3706,65,0,1291,229,113,14780,-4,0,33,0,260168,0
260206,772,-1925,74,-373,-135,-757,13650,58,5,456,160,35208,1,35,127,0,0,3708,-10,0,1291,229,113,14790,-4,0,33,0,260168,0
260216,760,-1927,94,-374,-142,-773,13668,41,-10,527,176,35200,-4,35,127,0,0,3713,-16,0,1291,229,113,14800,-4,0,33,0,260215,0
260226,749,-1922,96,-355,-140,-780,13706,94,12,346,144,35198,9,35,127,0,0,3717,65,0,1291,229,113,14810,-4,0,33,0,260215,0
260236,790,-1924,95,-342,-164,-778,13728,17,15,343,112,35200,7,35,127,0,0,3719,32,0,1291,229,113,14820,-4,0,33,0,260215,0
260246,758,-1916,88,-295,-209,-783,13737,14,-65,373,104,35197,22,35,127,0,0,3723,27,0,1291,229,113,14830,-4,0,33,0,260215,0
260256,781,-1930,72,-288,-234,-780,13750,44,-14,375,120,35198,38,35,127,0,0,3724,32,0,1291,229,113,14840,-4,0,33,0,260215,0
260266,721,-1982,64,-284,-249,-755,13768,39,24,413,160,35196,49,35,127,0,0,3734,71,0,1291,229,113,14850,-4,0,33,0,260246,0
260276,706,-1993,59,-259,-256,-756,13780,17,-4,587,232,35193,48,35,127,0,0,3746,153,0,1291,229,113,14860,-4,0,33,0,260246,0
260286,666,-1914,-35,-228,-276,-787,13803,77,4,705,256,35193,37,35,127,0,0,3749,98,0,1291,229,113,14870,-4,0,33,0,260246,0
260296,655,-1988,-83,-268,-254,-806,13854,128,82,551,296,35196,9,35,127,0,0,3759,82,0,1291,229,113,14880,-4,0,33,0,260277,0
260306,507,-2122,2,-277,-183,-871,13927,164,90,483,272,35197,28,34,127,0,0,3777,115,0,1291,229,113,14890,-4,0,33,0,260277,0
260316,480,-2141,65,-269,-165,-895,13995,145,28,438,304,35194,40,35,127,0,0,3792,241,0,1291,229,113,14900,-4,0,0,0,260277,0
260326,491,-2175,108,-304,-181,-963,14064,164,-2,511,400,35196,60,35,127,0,0,3811,241,0,1291,229,113,14910,-4,0,0,0,260309,0
260336,433,-2183,174,-351,-170,-1053,14164,257,59,518,424,35201,61,35,127,0,0,3837,230,0,1291,229,113,14920,-4,0,0,0,260309,0
260346,453,-2195,298,-410,-223,-1131,14281,251,87,503,488,35198,67,35,127,0,0,3866,307,0,1291,229,113,14930,-4,0,0,0,260309,0
260356,513,-2213,332,-417,-273,-1230,14410,289,52,509,584,35191,55,34,127,0,0,3899,329,0,1291,229,113,14940,-4,0,0,0,260324,0
260366,584,-2224,349,-447,-416,-1256,14556,333,52,541,672,35189,49,35,127,0,0,3937,395,0,1291,229,113,14950,-4,0,0,0,260340,0
260376,632,-2244,344,-482,-508,-1299,14718,366,54,542,800,35193,43,35,127,0,0,3979,422,0,1291,229,113,14960,-4,0,0,0,260371,0
260386,542,-2192,315,-488,-573,-1446,14899,417,76,511,936,35194,75,35,127,0,0,4024,461,0,1291,229,113,14970,-4,0,0,0,260371,0
260396,476,-2137,222,-540,-613,-1575,15106,458,85,488,944,35190,81,35,127,0,0,4069,411,0,1291,229,113,14980,-4,0,1,0,260371,0
260407,433,-2087,216,-609,-708,-1744,15340,479,46,510,984,35184,73,34,127,0,0,4124,483,0,1291,229,113,14991,-4,0,1,0,260371,0
260417,466,-2148,153,-662,-812,-2014,15557,483,19,581,1112,35189,47,34,127,0,0,4172,461,0,1291,229,113,15001,-4,0,1,0,260402,0
260427,464,-2178,143,-675,-871,-2184,15791,530,44,464,1120,35195,48,35,127,0,0,4220,494,0,1291,229,113,15011,-4,0,2,0,260402,0
260437,512,-2221,129,-684,-1010,-2442,16025,513,30,511,1128,35193,49,35,127,0,0,4271,516,0,1291,229,113,15021,-4,0,2,0,260402,0
260447,540,-2275,161,-648,-1049,-2642,16263,539,9,558,1224,35191,58,35,127,0,0,4326,549,0,1291,229,113,15031,-4,0,2,0,260433,0
260457,-167,-1942,358,-480,-1318,-2696,16510,541,30,596,1288,35195,47,35,127,0,0,4376,516,0,1291,229,113,15041,-4,0,3,0,260433,0
260467,57,-2474,198,-560,-1898,-2522,16772,568,41,519,1376,35195,52,35,127,0,0,4442,703,0,1291,229,113,15051,-4,0,3,0,260433,0
260477,592,-3610,86,-876,-1707,-3061,17019,631,46,682,1680,35185,61,35,127,0,0,4521,802,0,1291,229,113,15061,-4,0,4,0,260449,0
260487,400,-3440,40,-726,-1468,-3678,17341,735,132,576,1728,35187,59,35,127,0,0,4579,560,0,1291,229,113,15071,-4,0,5,0,260449,0
260497,-461,-2352,-139,-504,-1815,-3644,17670,707,97,472,1576,35195,59,35,127,0,0,4629,516,0,1291,229,113,15081,-4,0,6,0,260558,0
260507,-32,-2294,-186,-531,-2218,-3496,17980,681,-39,571,1792,35201,54,34,127,0,0,4717,955,0,1291,229,113,15091,-4,0,7,0,260558,0
260517,-84,-2985,-126,-591,-1935,-4314,18327,801,46,722,1984,35189,48,35,127,0,0,4794,758,0,1291,229,113,15101,-4,0,8,0,260574,0
260527,-36,-3176,121,-546,-2004,-4462,18701,835,138,575,1984,35176,55,35,127,0,0,4871,823,0,1291,229,113,15111,-4,0,9,0,260574,0
260537,199,-3094,172,-448,-2441,-4482,19091,865,69,675,2136,35172,67,35,127,0,0,4959,878,0,1291,229,113,15121,-4,0,10,0,260574,0
260547,31,-2924,208,-443,-2944,-4247,19500,912,64,665,2304,35172,63,35,127,0,0,5064,1054,0,1291,229,113,15131,-4,0,12,0,260574,0
260557,-78,-3011,139,-453,-3603,-3827,19941,1008,103,868,2712,35166,78,35,127,0,0,5187,1263,0,1291,229,113,15141,-4,0,14,0,260574,0
260567,-260,-2965,235,-468,-3809,-3392,20441,1149,188,897,3248,35167,83,35,127,0,0,5345,1636,0,1291,229,113,15151,-4,0,15,0,260574,0
260577,-250,-2595,468,-382,-4289,-2649,21037,1404,308,1169,3872,35164,101,34,127,0,0,5556,2120,0,1291,229,113,15161,-4,0,18,0,260574,0
260587,83,-1929,810,-347,-4704,-1957,21700,1400,309,73,2352,35168,103,34,127,0,0,5789,2340,0,1291,229,113,15171,-4,0,20,0,260574,0
260597,1586,-1906,90,-333,-3285,-2866,22226,1051,-199,-186,392,35173,83,35,127,0,0,5888,714,0,1291,229,113,15181,-4,0,23,0,260574,0
260607,993,-1562,-165,-256,-2961,-2781,22310,-443,-1209,-3139,-2824,35180,79,34,127,0,0,5802,-977,0,1291,229,113,15191,-4,0,25,0,260574,0
260617,835,-1644,-211,32,-1984,-2936,21714,-1687,-2333,-2595,-6336,35171,118,35,127,0,0,5572,-2438,0,1291,229,113,15201,-4,0,28,0,260590,0
260627,736,-1499,54,147,-2198,-2493,20528,-2996,-2385,-2121,-5472,35136,282,35,127,0,0,5273,-3010,0,1291,229,113,15211,-4,0,30,0,260605,0
260637,481,-1438,178,392,-2116,-2061,19515,-1445,-626,5020,1584,35152,203,35,127,0,0,4979,-2955,0,1291,229,113,15221,-4,0,33,0,260605,0
260648,489,-1689,38,470,-2509,-770,19761,635,3260,-654,-800,35154,197,35,127,0,0,4721,-2136,0,1291,229,113,15232,-4,0,36,0,260637,0
260658,637,-1759,-87,450,-2720,113,19579,-655,921,-1354,-2256,35170,78,35,127,0,0,4562,-1593,0,1291,229,113,15242,-4,0,38,0,260652,0
260668,133,-1504,42,604,-2866,652,19133,-1092,-1467,-820,-2760,35164,120,35,127,0,0,4443,-1126,0,1291,229,113,15252,-4,0,42,62,260652,0
260678,793,-1539,-138,580,-2465,1250,18592,-1221,-592,-492,-2872,35164,102,35,127,0,0,4342,-1005,0,1291,229,113,15262,-4,0,44,59,260652,0
260688,874,-1616,-148,682,-1879,1593,18029,-1232,-183,-387,-2800,35172,81,35,127,0,0,4228,-1043,0,1291,229,113,15272,-4,0,48,54,260652,0
260698,856,-1470,-293,837,-1050,2126,17469,-1228,-18,-371,-2864,35178,83,35,127,0,0,4117,-1104,0,1291,229,113,15282,-4,0,50,50,260668,0
260708,869,-1367,-384,919,-538,2491,16912,-1223,12,-404,-2904,35193,88,35,127,0,0,4003,-1175,0,1291,229,113,15292,-4,0,54,46,260699,0
260718,940,-1124,-467,1033,87,3110,16348,-1243,-7,-396,-2824,35198,88,35,127,0,0,3905,-972,0,1291,229,113,15302,-4,0,57,43,260699,0
260728,965,-1000,-499,1095,434,3535,15786,-1226,-9,-322,-2688,35191,78,35,127,0,0,3819,-818,0,1291,229,113,15312,-4,0,60,38,260699,0
260738,956,-898,-539,1175,856,4092,15243,-1176,47,-240,-2376,35178,62,35,127,0,0,3754,-615,0,1291,229,113,15322,-4,0,63,36,260699,0
260748,956,-903,-550,1224,1086,4406,14749,-1037,141,-178,-1976,35176,59,35,127,0,0,3708,-455,0,1291,229,113,15332,-4,0,67,32,260730,0
260758,974,-1040,-542,1312,1445,4820,14321,-889,233,-152,-1584,35185,56,35,127,0,0,3661,-368,0,1291,229,113,15342,-4,0,70,29,260730,0
260768,976,-1110,-530,1350,1672,5090,13963,-743,257,-165,-1296,35189,46,35,127,0,0,3628,-307,0,1291,229,113,15352,-4,0,74,26,260730,0
260778,910,-1188,-480,1413,2053,5475,13660,-628,295,-178,-1040,35185,49,35,127,0,0,3592,-291,0,1291,229,113,15362,-4,0,76,24,260746,0
260788,886,-1209,-474,1457,2300,5745,13408,-530,162,-236,-856,35186,43,35,127,0,0,3558,-307,0,1291,229,113,15372,-4,0,80,21,260777,0
260798,926,-1298,-407,1506,2607,6162,13193,-450,96,-275,-736,35196,55,35,127,0,0,3527,-274,0,1291,229,113,15382,-4,0,83,19,260777,0
260808,987,-1415,-402,1523,2843,6408,12997,-425,112,-288,-704,35198,48,35,127,0,0,3492,-351,0,1291,229,113,15392,-4,0,87,16,260777,0
260818,980,-1553,-361,1506,3126,6760,12821,-386,74,-363,-704,35199,50,35,127,0,0,3454,-379,0,1291,229,113,15402,-4,0,90,14,260793,0
260828,989,-1654,-316,1458,3298,6976,12645,-399,32,-371,-712,35196,38,35,127,0,0,3418,-384,0,1291,229,113,15412,-4,0,94,12,260808,0
260838,960,-1831,-226,1387,3524,7228,12475,-366,9,-402,-728,35208,35,35,127,0,0,3390,-296,0,1291,229,113,15422,-4,0,97,11,260808,0
260848,950,-1965,-205,1343,3726,7349,12308,-355,18,-404,-640,35206,49,35,127,0,0,3366,-236,0,1291,229,113,15432,-4,0,101,9,260808,0
260858,892,-2136,-175,1310,4137,7433,12151,-323,24,-393,-536,35199,57,35,127,0,0,3346,-208,0,1291,229,113,15442,-4,0,103,8,260902,0
260868,880,-2205,-166,1274,4498,7457,12015,-281,62,-363,-400,35187,73,35,127,0,0,3339,-93,0,1291,229,113,15452,-4,0,108,6,260902,0
260878,825,-2249,-115,1208,5058,7448,11898,-245,78,-291,-216,35183,58,35,127,0,0,3335,-21,0,1291,229,113,15462,-4,0,110,5,260918,0
260888,844,-2287,-70,1169,5413,7362,11827,-106,120,-181,-72,35183,51,35,127,0,0,3338,32,0,1291,229,113,15472,-4,0,115,4,260918,0
260898,812,-2427,7,1105,5744,7318,11818,6,213,-162,-8,35188,48,35,127,0,0,3343,115,0,1291,229,113,15482,-4,0,117,3,260918,0
260908,822,-2492,52,1061,5846,7287,11837,60,167,86,72,35190,30,35,127,0,0,3357,142,0,1291,229,113,15492,-4,0,121,3,260933,0
260918,790,-2535,164,996,5810,7254,11886,121,111,260,200,35188,17,35,127,0,0,3385,307,0,1291,229,113,15502,-4,0,124,2,260933,0
260928,770,-2567,228,947,5663,7185,11966,202,118,398,360,35189,18,35,127,0,0,3410,302,0,1291,229,113,15512,-4,0,128,2,260933,0
260938,775,-2669,317,882,5292,7089,12076,269,118,375,472,35187,36,35,127,0,0,3443,351,0,1291,229,113,15522,-4,0,131,1,260933,0
260949,731,-2719,380,865,4760,7029,12227,317,106,361,512,35186,40,35,127,0,0,3480,329,0,1291,229,113,15533,-4,0,134,1,260933,0
260959,695,-2705,389,853,4321,7008,12376,328,63,410,592,35191,50,35,127,0,0,3522,406,0,1291,229,113,15543,-4,0,137,1,260933,0
260969,634,-2673,395,843,3614,6934,12532,350,28,440,776,35202,46,35,127,0,0,3570,483,0,1291,229,113,15553,-4,0,140,1,260965,0
260979,597,-2655,390,849,3107,6856,12709,402,60,454,912,35216,84,35,127,0,0,3623,527,0,1291,229,113,15563,-4,0,143,1,260965,0
260989,560,-2682,388,864,2344,6677,12912,472,87,562,1128,35208,83,35,127,0,0,3680,571,0,1291,229,113,15573,-4,0,146,1,260965,0
260999,520,-2696,398,886,1845,6500,13145,526,111,495,1248,35198,80,35,127,0,0,3730,527,0,1291,229,113,15583,-4,0,148,1,260965,0
261009,498,-2642,417,953,1206,6215,13395,565,95,447,1232,35191,65,35,127,0,0,3770,406,0,1291,229,113,15593,-4,0,150,1,260980,0
261019,437,-2548,377,1012,768,6053,13648,547,34,383,1160,35198,53,34,127,0,0,3810,395,0,1291,229,113,15603,-4,0,152,1,260996,0
261029,339,-2354,271,1098,97,5760,13885,508,-32,391,1048,35204,52,34,127,0,0,3847,373,0,1291,229,113,15613,-4,0,154,1,260996,0
261039,286,-2230,250,1138,-339,5525,14105,477,-56,428,1008,35199,47,35,127,0,0,3880,329,0,1291,229,113,15623,-4,0,156,1,261011,0
261049,237,-2122,215,1195,-927,5133,14327,476,-32,370,912,35199,48,34,127,0,0,3915,340,0,1291,229,113,15633,-4,0,158,2,261043,0
261059,211,-2075,178,1222,-1252,4841,14535,453,-25,393,848,35199,47,35,127,0,0,3948,340,0,1291,229,113,15643,-4,0,159,2,261043,0
261069,145,-2037,190,1184,-1631,4412,14731,423,-48,399,784,35201,33,35,127,0,0,3974,274,0,1291,229,113,15653,-4,0,160,2,261043,0
261079,91,-2028,189,1111,-1813,4118,14918,405,-41,359,680,35199,22,35,127,0,0,4007,318,0,1291,229,113,15663,-4,0,161,2,261043,0
261089,55,-2102,171,960,-1971,3630,15102,394,-25,359,576,35199,39,35,127,0,0,4029,219,0,1291,229,113,15673,-4,0,163,2,261074,0
261099,0,-2145,162,851,-1999,3260,15267,347,-48,337,448,35212,46,35,127,0,0,4045,164,0,1291,229,113,15683,-4,0,163,2,261074,0
261109,-43,-2169,126,672,-1928,2683,15406,285,-86,277,224,35213,51,35,127,0,0,4053,65,0,1291,229,113,15693,-4,0,164,2,261074,0
261119,-111,-2179,108,556,-1867,2339,15492,149,-147,235,136,35210,40,35,127,0,0,4053,0,0,1291,229,113,15703,-4,0,165,2,261105,0
261129,-120,-2126,75,403,-1767,1804,15510,-6,-237,138,64,35205,29,35,127,0,0,4051,32,0,1291,229,113,15713,-4,0,165,3,261105,0
261139,-175,-2044,29,321,-1700,1416,15508,9,-175,217,32,35203,30,35,127,0,0,4049,-21,0,1291,229,113,15723,-4,0,166,3,261121,0
261150,-127,-2004,-20,155,-1561,951,15507,3,-24,163,40,35194,27,35,127,0,0,4049,-10,0,1291,229,113,15734,-4,0,166,3,261121,0
261160,-118,-2023,7,62,-1421,697,15506,-1,3,140,-8,35196,38,35,127,0,0,4051,16,0,1291,229,113,15744,-4,0,166,3,261152,0
261170,-162,-2071,29,-66,-1152,414,15504,-3,-3,142,16,35202,48,35,127,0,0,4047,5,0,1291,229,113,15754,-4,0,166,3,261152,0
261180,-179,-2046,40,-124,-930,281,15505,0,-3,121,0,35201,41,35,127,0,0,4048,-21,0,1291,229,113,15764,-4,0,166,3,261152,0
261190,-197,-1958,56,-131,-550,154,15506,14,0,131,0,35194,16,34,127,0,0,4045,-54,0,1291,229,113,15774,-4,0,166,3,261152,0
261200,-166,-1867,28,-89,-322,129,15500,-4,-3,42,-16,35199,5,34,127,0,0,4046,-5,0,1291,229,113,15784,-4,0,166,3,261183,0
261210,-137,-1715,-41,-1,-11,96,15498,-5,1,-34,-16,35201,13,35,127,0,0,4039,-16,0,1291,229,113,15794,-4,0,166,3,261183,0
261220,-103,-1643,-76,33,161,74,15492,-12,0,-118,-48,35208,1,34,127,0,0,4035,-49,0,1291,229,113,15804,-4,0,166,3,261199,0
261230,-68,-1644,-60,92,348,16,15477,-36,-24,-167,-64,35193,0,34,127,0,0,4034,-27,0,1291,229,113,15814,-4,0,166,3,261199,0
261240,-59,-1746,-21,122,451,-47,15445,-83,-58,-64,-48,35198,-6,35,127,0,0,4029,-49,0,1291,229,113,15824,-4,0,166,3,261199,0
261250,-75,-1975,57,156,599,-213,15424,-19,-24,-77,-64,35206,8,34,127,0,0,4023,-60,0,1291,229,113,15834,-4,0,166,3,261215,0
261260,12,-2105,83,116,693,-329,15427,11,67,-212,-64,35210,11,35,127,0,0,4023,-21,0,1291,229,113,15844,-4,0,166,3,261246,0
261270,70,-2217,71,20,873,-655,15422,-6,32,-246,-40,35210,7,35,127,0,0,4022,10,0,1291,229,113,15854,-4,0,166,3,261246,0
261280,175,-2247,13,-82,979,-929,15425,6,3,-229,-64,35201,-3,35,127,0,0,4023,-21,0,1291,229,113,15864,-4,0,166,3,261261,0
261290,-1939,-7021,-1100,-773,-887,-582,15419,-9,1,-138,168,35195,-3,35,127,0,0,4097,867,0,1582,161,114,2,1,0,166,3,261261,0
261300,265,-5078,539,-1181,474,-557,15556,537,230,1642,2552,35191,4,35,127,0,0,4383,2867,0,1582,161,114,12,1,0,166,3,261293,0
261310,192,-1802,1504,317,559,-1779,16108,1448,1091,1653,3896,35189,67,35,127,0,0,4573,1708,0,1582,161,114,22,1,0,166,3,261293,0
261320,1020,-704,1280,-111,-843,-2055,16847,1659,1192,687,3872,35175,121,35,127,0,0,4690,1043,0,1582,161,114,32,1,0,166,3,261293,0
261330,15,-3623,1866,285,-2441,-356,17564,1542,295,473,3784,35163,129,35,127,0,0,4835,1543,0,1582,161,114,42,1,0,166,3,261293,0
261340,-529,-3333,1478,668,-2915,-131,18291,1647,-40,779,4112,35162,123,35,127,0,0,5002,1708,0,1582,161,114,52,1,0,166,3,261324,0
261350,-1073,-1535,-225,458,-2833,-1114,19075,1758,148,679,4168,35182,110,35,127,0,0,5145,1389,0,1582,161,114,62,1,0,166,3,261324,0
261360,-1490,-598,-1325,-205,-1975,-1806,19855,1685,111,461,3904,35185,104,35,127,0,0,5259,1104,0,1582,161,114,72,1,0,166,3,261339,0
261370,-2837,-1982,-840,-344,311,-2642,20564,1512,-150,265,3336,35180,101,35,127,0,0,5336,703,0,1582,161,114,82,1,0,166,3,261339,0
261380,-2231,-2599,-260,172,1431,-3276,21180,1296,-313,171,2760,35174,74,35,127,0,0,5389,488,0,1582,161,114,92,1,0,166,3,261355,0
261390,-922,-1883,139,253,2170,-3826,21705,1092,-356,90,1872,35188,72,35,127,0,0,5397,54,0,1582,161,114,102,1,0,166,3,261355,0
261401,669,-2346,792,-227,1221,-3984,22143,771,-405,26,1024,35191,60,35,127,0,0,5394,-87,0,1582,161,114,113,1,0,166,3,261371,0
261411,978,-2515,590,-642,367,-4115,22408,507,-474,12,136,35197,41,35,127,0,0,5352,-483,0,1582,161,114,123,1,0,166,3,261402,0
261421,1584,-2984,-117,-941,-261,-4036,22445,-170,-662,-1039,-696,35189,52,35,127,0,0,5284,-637,0,1582,161,114,133,1,0,166,3,261402,0
261431,-607,-1632,-127,-725,249,-4494,22260,-460,-905,-688,-1560,35197,36,35,127,0,0,5143,-1450,0,1582,161,114,143,1,0,166,3,261402,0
261441,324,-2335,112,-360,604,-4153,21932,-814,-672,-863,-2240,35191,34,34,127,0,0,5025,-1186,0,1582,161,114,153,1,0,166,3,261433,0
261451,615,-2056,744,-236,340,-3753,21494,-1007,-492,-689,-2704,35195,49,34,127,0,0,4908,-1164,0,1582,161,114,163,1,0,166,3,261433,0
261461,696,-1908,845,-364,-96,-2679,20998,-1109,-320,-553,-2744,35185,83,35,127,0,0,4812,-933,0,1582,161,114,173,1,0,166,3,261433,0
261471,443,-2305,446,-401,-167,-2221,20539,-1114,-135,-361,-2544,35180,91,34,127,0,0,4741,-714,0,1582,161,114,183,1,0,166,3,261433,0
261481,-134,-1933,-55,-218,-16,-2033,20051,-1049,29,-290,-2288,35179,82,35,127,0,0,4673,-670,0,1582,161,114,193,1,0,166,3,261464,0
261491,-182,-2024,-116,-90,37,-1857,19590,-997,106,-276,-2040,35191,63,35,127,0,0,4612,-582,0,1582,161,114,203,1,0,166,3,261464,0
261501,-218,-1946,-48,93,-45,-1512,19158,-919,98,-216,-1848,35192,51,35,127,0,0,4557,-538,0,1582,161,114,213,1,0,166,3,261480,0
261511,-125,-1977,-97,205,-54,-1402,18766,-828,140,-230,-1608,35191,45,35,127,0,0,4510,-472,0,1582,161,114,223,1,0,166,3,261480,0
261521,-66,-1997,-69,303,42,-1372,18418,-743,160,-200,-1288,35184,34,35,127,0,0,4467,-461,0,1582,161,114,233,1,0,166,3,261480,0
261531,-44,-2039,175,323,38,-1250,18112,-661,156,-245,-1176,35193,30,35,127,0,0,4425,-417,0,1582,161,114,243,1,0,166,3,261511,0
261541,-196,-2081,503,359,-47,-1072,17840,-586,138,-261,-1072,35198,45,35,127,0,0,4381,-406,0,1582,161,114,253,1,0,166,3,261511,0
261551,-176,-2111,495,355,-44,-1065,17587,-536,99,-283,-968,35196,41,35,127,0,0,4348,-318,0,1582,161,114,263,1,0,166,3,261511,0
261561,-167,-2006,624,273,7,-1233,17361,-483,94,-311,-912,35194,41,35,127,0,0,4304,-439,0,1582,161,114,273,1,0,166,3,261543,0
261571,-172,-1943,763,116,-35,-1284,17151,-466,80,-403,-952,35198,31,35,127,0,0,4260,-461,0,1582,161,114,283,1,0,166,3,261543,0
261581,-338,-1881,866,-121,-110,-1317,16927,-502,-6,-369,-984,35199,40,35,127,0,0,4216,-406,0,1582,161,114,293,1,0,166,3,261543,0
261591,-423,-1945,830,-242,-104,-1397,16704,-484,-29,-350,-1000,35195,32,35,127,0,0,4172,-406,0,1582,161,114,303,1,0,166,3,261574,0
261601,-334,-1980,707,-375,-3,-1723,16482,-491,4,-423,-1032,35194,35,35,127,0,0,4119,-505,0,1582,161,114,313,1,0,166,3,261574,0
261611,-266,-2016,643,-472,36,-1908,16251,-521,-29,-404,-1128,35195,41,34,127,0,0,4060,-604,0,1582,161,114,323,1,0,166,3,261605,0
261621,-239,-2079,575,-621,-9,-1998,15999,-563,-62,-427,-1296,35203,51,34,127,0,0,3999,-637,0,1582,161,114,333,1,0,166,3,261605,0
261631,-174,-2047,413,-660,6,-2083,15727,-619,-72,-464,-1376,35200,47,35,127,0,0,3939,-560,0,1582,161,114,343,1,0,166,3,261621,0
261641,-28,-2047,212,-670,29,-2226,15439,-639,-68,-423,-1488,35197,45,34,127,0,0,3873,-670,0,1582,161,114,353,1,0,166,3,261636,0
261651,-22,-2063,215,-644,28,-2292,15127,-689,-68,-448,-1528,35189,42,35,127,0,0,3803,-736,0,1582,161,114,363,1,0,166,3,261636,0
261662,89,-2036,274,-629,1,-2302,14768,-735,-66,-492,-1656,35191,46,35,127,0,0,3725,-708,0,1582,161,114,374,1,0,166,3,261636,0
261672,106,-1989,259,-636,13,-2307,14419,-779,-76,-466,-1736,35190,41,35,127,0,0,3656,-714,0,1582,161,114,384,1,0,166,3,261636,0
261682,118,-2029,257,-630,18,-2276,14063,-788,-51,-419,-1728,35199,52,35,127,0,0,3590,-670,0,1582,161,114,394,1,0,166,3,261668,0
261692,194,-2049,246,-589,39,-2284,13705,-788,-11,-377,-1720,35204,55,35,127,0,0,3518,-708,0,1582,161,114,404,1,0,166,3,261668,0
261702,267,-2050,247,-549,39,-2299,13358,-763,13,-396,-1712,35200,47,35,127,0,0,3454,-659,0,1582,161,114,414,1,0,166,3,261668,0
261712,277,-2045,303,-554,23,-2278,13017,-752,30,-386,-1744,35194,55,35,127,0,0,3387,-675,0,1582,161,114,424,1,0,166,3,261683,0
261722,311,-2030,308,-564,2,-2228,12679,-747,17,-431,-1776,35190,46,35,127,0,0,3315,-659,0,1582,161,114,434,1,0,166,3,261699,0
261732,347,-1983,265,-561,-19,-2206,12341,-744,0,-464,-1816,35198,56,35,127,0,0,3254,-659,0,1582,161,114,444,1,0,166,3,261699,0
261742,352,-2005,225,-526,-56,-2164,12002,-747,-5,-495,-1784,35200,58,35,127,0,0,3182,-670,0,1582,161,114,454,1,0,166,3,261714,0
261752,343,-1995,233,-509,-84,-2134,11659,-759,-10,-480,-1776,35203,66,35,127,0,0,3121,-653,0,1582,161,114,464,1,0,166,3,261730,0
261762,325,-1868,224,-515,-130,-2129,11321,-736,1,-473,-1720,35200,98,34,127,0,0,3057,-675,0,1582,161,114,474,1,0,166,3,261730,0
261772,295,-1899,237,-595,-208,-2199,10989,-728,24,-460,-1672,35202,82,35,127,0,0,2993,-626,0,1582,161,114,484,1,0,166,3,261746,0
261782,321,-2328,230,-531,-413,-2039,10667,-699,65,-474,-1584,35193,85,35,127,0,0,2939,-554,0,1582,161,114,494,1,0,166,3,261761,0
261792,535,-2669,442,-419,-502,-1905,10358,-667,13,-383,-1344,35197,50,35,127,0,0,2910,-307,0,1582,161,114,504,1,0,166,3,261761,0
261802,171,-2363,312,-328,-475,-1817,10086,-576,93,-367,-1056,35199,59,35,127,0,0,2880,-241,0,1582,161,114,514,1,0,166,3,261793,0
261812,207,-2115,250,-371,-391,-1890,9859,-482,153,-349,-792,35204,57,34,127,0,0,2860,-203,0,1582,161,114,524,1,0,166,3,261793,0
261822,320,-2108,163,-394,-427,-1971,9677,-388,166,-369,-640,35190,34,35,127,0,0,2845,-153,0,1582,161,114,534,1,0,166,3,261793,0
261832,356,-2138,184,-392,-518,-2022,9514,-349,124,-335,-456,35191,19,34,127,0,0,2820,-192,0,1582,161,114,544,1,0,166,3,261824,0
261842,214,-2140,170,-433,-589,-2139,9389,-258,110,-419,-376,35195,16,34,127,0,0,2805,-175,0,1582,161,114,554,1,0,166,3,261824,0
261852,164,-2272,203,-449,-553,-2224,9284,-207,111,-409,-360,35200,35,35,127,0,0,2789,-170,0,1582,161,114,564,1,0,166,3,261824,0
261862,128,-2352,312,-441,-479,-2316,9197,-187,71,-391,-288,35201,42,35,127,0,0,2785,-76,0,1582,161,114,574,1,0,166,3,261824,0
261872,112,-2233,311,-455,-462,-2383,9118,-165,54,-343,-192,35201,23,35,127,0,0,2775,-16,0,1582,161,114,584,1,0,166,3,261855,0
261882,246,-2161,349,-542,-483,-2504,9066,-104,71,-315,-112,35208,25,35,127,0,0,2772,10,0,1582,161,114,594,1,0,166,3,261855,0
261893,397,-2190,361,-599,-531,-2624,9060,24,135,-358,-144,35209,35,35,127,0,0,2772,0,0,1582,161,114,605,1,0,166,3,261855,0
261903,438,-2218,360,-597,-568,-2721,9058,1,96,-334,-120,35207,46,35,127,0,0,2772,10,0,1582,161,114,615,1,0,166,3,261886,0
261913,299,-2349,291,-645,-560,-2713,9059,1,-1,-339,-96,35205,43,35,127,0,0,2777,76,0,1582,161,114,625,1,0,166,3,261886,0
261923,344,-2486,318,-682,-561,-2712,9066,33,15,-111,56,35204,19,35,127,0,0,2797,197,0,1582,161,114,635,1,0,166,3,261886,0
261933,281,-2434,460,-685,-562,-2788,9100,97,65,323,232,35201,27,35,127,0,0,2821,230,0,1582,161,114,645,1,0,166,3,261917,0
261943,304,-2334,438,-725,-600,-2828,9179,181,137,361,352,35209,42,35,127,0,0,2858,406,0,1582,161,114,655,1,0,166,3,261917,0
261953,286,-2367,377,-839,-676,-2860,9294,276,152,434,480,35206,45,35,127,0,0,2900,439,0,1582,161,114,665,1,0,166,3,261917,0
261963,292,-2432,324,-901,-706,-2887,9443,340,131,430,744,35203,47,35,127,0,0,2955,571,0,1582,161,114,675,1,0,166,3,261933,0
261973,179,-2400,269,-952,-707,-2919,9626,418,128,464,968,35209,30,35,127,0,0,3023,670,0,1582,161,114,685,1,0,166,3,261949,0
261983,175,-2356,224,-1004,-753,-2989,9846,517,127,550,1304,35216,26,35,127,0,0,3111,867,0,1582,161,114,695,1,0,166,3,261949,0
261993,126,-2283,271,-1011,-912,-3055,10127,655,192,609,1672,35214,30,34,127,0,0,3210,1021,0,1582,161,114,705,1,0,166,3,261980,0
262003,78,-2307,256,-1010,-985,-3100,10474,816,242,644,2136,35202,26,34,127,0,0,3317,1087,0,1582,161,114,715,1,0,31,0,261996,0
262013,141,-2205,260,-1021,-1070,-3335,10893,962,269,604,2504,35197,53,35,127,0,0,3438,1230,0,1582,161,114,725,1,0,34,0,261996,0
262023,116,-2012,274,-1019,-1238,-3502,11375,1098,256,610,2728,35193,66,35,127,0,0,3555,1197,0,1582,161,114,735,1,0,37,0,261996,0
262033,-227,-2042,320,-1015,-1649,-3512,11894,1153,196,557,2952,35197,79,35,127,0,0,3687,1307,0,1582,161,114,745,1,0,40,0,261996,0
262043,312,-1998,165,-1049,-1814,-3647,12457,1288,144,768,3520,35203,83,35,127,0,0,3845,1582,0,1582,161,114,755,1,0,43,0,262011,0
262053,-741,-2609,-36,-1183,-1272,-4778,13100,1458,248,604,3448,35210,94,35,127,0,0,3941,856,0,1582,161,114,765,1,0,47,0,262058,0
262063,-450,-2972,203,-1145,-1515,-4571,13747,1398,173,373,3304,35205,120,35,127,0,0,4073,1362,0,1582,161,114,775,1,0,49,0,262058,0
262073,663,-4201,332,-1096,-1471,-5819,14398,1470,0,592,3448,35195,120,35,127,0,0,4192,1120,0,1582,161,114,785,1,0,53,0,262058,0
262083,-290,-4230,496,-798,-1799,-5850,15062,1421,42,295,2976,35189,107,35,127,0,0,4278,889,0,1582,161,114,795,1,0,56,0,262058,0
262093,-250,-3506,328,-625,-2749,-5330,15655,1274,-121,456,3072,35189,82,35,127,0,0,4420,1439,0,1582,161,114,805,1,0,61,0,262089,0
262103,-395,-3371,136,-452,-2852,-5591,16262,1374,-111,807,3496,35193,86,35,127,0,0,4572,1483,0,1582,161,114,815,1,0,65,0,262105,0
262113,-259,-3192,160,-456,-3143,-5701,16926,1485,143,713,3704,35196,102,35,127,0,0,4721,1516,0,1582,161,114,825,1,0,72,0,262105,0
262123,-287,-3063,426,-410,-3674,-5252,17630,1585,177,792,4056,35196,110,35,127,0,0,4895,1757,0,1582,161,114,835,1,0,76,0,262105,0
262133,-612,-3090,569,-288,-4971,-4165,18406,1773,216,993,4552,35190,126,35,127,0,0,5099,2032,0,1582,161,114,845,1,0,83,0,262105,0
262143,-852,-2702,725,-183,-5740,-3192,19286,2007,340,1140,5416,35186,132,35,127,0,0,5365,2757,0,1582,161,114,855,1,0,89,0,262105,0
262154,1361,-2770,437,-84,-5723,-2642,20417,2389,488,1122,5424,35185,191,35,127,0,0,5693,2867,0,1582,161,114,866,1,0,97,0,262136,0
262164,1687,-2409,120,-176,-4346,-3432,21410,2065,235,-242,2464,35190,142,35,127,0,0,5757,362,0,1582,161,114,876,1,0,106,0,262136,0
262174,642,-1868,-17,-70,-3515,-3171,21910,416,-969,-3822,-2144,35195,92,35,127,0,0,5646,-1230,0,1582,161,114,886,0,0,112,61,262152,0
262184,721,-1983,42,-2,-3060,-3158,21400,-1549,-2954,-2705,-5872,35174,113,35,127,0,0,5434,-2235,0,1582,161,114,896,0,0,120,58,262152,0
262194,168,-1968,258,88,-3118,-2598,20453,-2012,-2837,587,-920,35170,128,35,127,0,0,5177,-2504,0,1582,161,114,906,0,0,126,56,262167,0
262204,258,-2090,222,224,-3275,-1964,20317,547,725,3885,784,35167,170,35,127,0,0,4976,-2010,0,1582,161,114,916,0,0,135,53,262167,0
262214,718,-2312,-54,264,-3408,-13,20447,-70,2355,-1719,-1072,35187,76,35,127,0,0,4857,-1087,0,1582,161,114,926,0,0,141,51,262183,0
262224,217,-2043,86,490,-3207,248,20220,-602,-344,-860,-1752,35202,45,35,127,0,0,4757,-994,0,1582,161,114,936,0,0,150,48,262214,0
262234,425,-1647,-7,673,-2663,881,19874,-817,-909,-622,-2072,35188,57,35,127,0,0,4668,-840,0,1582,161,114,946,0,0,156,45,262214,0
262244,675,-1557,-52,655,-2120,1231,19467,-917,-336,-491,-2232,35188,68,35,127,0,0,4568,-1016,0,1582,161,114,956,0,0,165,42,262214,0
262254,613,-1495,-145,819,-1150,1824,19016,-1023,-199,-493,-2408,35183,72,35,127,0,0,4463,-1049,0,1582,161,114,966,0,0,171,40,262214,0
262264,525,-1311,-276,896,-575,2181,18526,-1113,-155,-562,-2728,35193,74,35,127,0,0,4340,-1213,0,1582,161,114,976,0,0,180,37,262230,0
262274,549,-1123,-372,876,128,2817,17985,-1221,-174,-507,-2936,35195,75,35,127,0,0,4224,-1120,0,1582,161,114,986,0,0,186,35,262261,0
262284,539,-1080,-359,882,588,3252,17415,-1255,-153,-415,-2896,35195,85,35,127,0,0,4115,-1010,0,1582,161,114,996,0,0,195,32,262277,0
262294,469,-1129,-276,906,1198,3892,16850,-1235,-41,-325,-2760,35187,75,34,127,0,0,4023,-884,0,1582,161,114,1006,0,0,201,30,262277,0
262304,454,-1218,-234,927,1562,4300,16307,-1175,56,-271,-2504,35181,73,34,127,0,0,3945,-741,0,1582,161,114,1016,0,0,210,27,262277,0
262314,498,-1350,-170,986,2016,4856,15798,-1087,102,-206,-2128,35184,65,35,127,0,0,3883,-609,0,1582,161,114,1026,0,0,216,25,262277,0
262324,502,-1418,-130,1003,2252,5171,15337,-977,168,-160,-1808,35191,46,35,127,0,0,3836,-499,0,1582,161,114,1036,0,0,225,23,262308,0
262334,552,-1457,-127,1034,2572,5593,14940,-834,218,-179,-1496,35192,34,35,127,0,0,3790,-472,0,1582,161,114,1046,0,0,231,21,262308,0
262344,589,-1480,-93,1048,2752,5839,14602,-709,232,-188,-1248,35195,32,35,127,0,0,3748,-422,0,1582,161,114,1056,0,0,241,19,262308,0
262354,569,-1559,-20,1078,2909,6197,14309,-621,196,-263,-1128,35196,30,34,127,0,0,3704,-433,0,1582,161,114,1066,0,0,247,17,262355,0
262364,612,-1653,51,1091,2936,6433,14045,-559,140,-287,-1016,35196,30,35,127,0,0,3661,-417,0,1582,161,114,1076,0,0,256,15,262355,0
262374,619,-1784,134,1152,2942,6790,13797,-535,86,-278,-968,35191,35,35,127,0,0,3626,-368,0,1582,161,114,1086,0,0,262,14,262355,0
262384,612,-1815,159,1201,2941,7001,13571,-476,74,-284,-840,35190,30,35,127,0,0,3592,-329,0,1582,161,114,1096,0,0,271,12,262355,0
262394,622,-1808,139,1283,2951,7299,13364,-446,81,-309,-744,35195,40,35,127,0,0,3568,-236,0,1582,161,114,1106,0,0,277,11,262376,0
262405,589,-1821,181,1388,3012,7556,13157,-405,72,-322,-608,35202,35,35,127,0,0,3537,-263,0,1582,161,114,1117,0,0,286,10,262376,0
262415,548,-1820,197,1460,3072,7711,12982,-379,57,-288,-568,35203,36,35,127,0,0,3513,-252,0,1582,161,114,1127,0,0,292,9,262438,0
262425,542,-1834,213,1571,3172,7969,12835,-316,72,-322,-464,35201,40,35,127,0,0,3487,-241,0,1582,161,114,1137,0,0,300,7,262438,0
