state_time,accelx,accely,accelz,gyrox,gyroy,gyroz,mot_ang,mot_vel,mot_acc,mot_cur,mot_volt,batt_volt,batt_curr,temperature,status_mn,status_ex,status_re,ank_ang,ank_vel,ank_torque,peak_ank_torque,step_energy,step_count,step_time,gait_state,movement,speed,incline,sys_time,eventFlags
295623,136,-2051,139,-59,-12,-53,13356,-17,-11,-369,-88,35574,-42,34,127,0,0,3627,-21,0,2687,107,139,1511,1,0,119,1,295619,0
295633,145,-2047,140,-49,-8,-56,13358,-6,8,-394,-104,35570,-51,34,127,0,0,3627,10,0,2687,107,139,1521,1,0,119,1,295619,0
295643,155,-2051,143,-51,-9,-48,13357,-1,7,-356,-32,35565,-46,33,127,0,0,3632,21,0,2687,107,139,1531,1,0,119,1,295619,0
295653,112,-2041,151,-48,-9,-38,13359,10,1,-283,-80,35568,-45,34,127,0,0,3627,-76,0,2687,107,139,1541,1,0,119,1,295635,0
295663,133,-2049,147,-46,-12,-41,13353,-14,-13,-357,-136,35581,-27,34,127,0,0,3629,0,0,2687,107,139,1551,1,0,119,1,295651,0
295673,118,-2044,147,-48,-14,-29,13356,9,5,-338,-88,35579,-24,34,127,0,0,3634,0,0,2687,107,139,1561,1,0,119,1,295666,0
295683,104,-2043,154,-51,-8,-19,13356,4,11,-291,-144,35583,-53,34,127,0,0,3632,10,0,2687,107,139,1571,1,0,119,1,295682,0
295693,131,-2039,149,-52,-11,-39,13354,0,-4,-311,-104,35576,-62,34,127,0,0,3629,21,0,2687,107,139,1581,1,0,119,1,295682,0
295703,127,-2038,143,-50,-8,-38,13354,-3,-1,-360,-128,35580,-65,34,127,0,0,3627,-32,0,2687,107,139,1591,1,0,119,1,295682,0
295713,116,-2043,147,-46,2,-33,13354,15,6,-326,-144,35579,-54,34,127,0,0,3632,10,0,2687,107,139,1601,1,0,119,1,295713,0
295723,142,-2039,148,-50,-6,-25,13355,-5,2,-324,-128,35584,-50,34,127,0,0,3627,-32,0,2687,107,139,1611,1,0,119,1,295713,0
295733,139,-2039,144,-45,-6,-35,13351,-3,-13,-339,-8,35586,-62,34,127,0,0,3632,65,0,2687,107,139,1621,1,0,119,1,295713,0
295743,156,-2048,144,-50,-10,-30,13354,-15,6,-333,-48,35587,-55,34,127,0,0,3629,21,0,2687,107,139,1631,1,0,119,1,295713,0
295753,126,-2039,152,-43,7,-22,13355,7,-1,-297,-72,35583,-43,34,127,0,0,3627,-54,0,2687,107,139,1641,1,0,119,1,295744,0
295763,122,-2047,160,-44,-6,-25,13350,-26,-13,-348,-40,35587,-44,34,127,0,0,3629,32,0,2687,107,139,1651,1,0,119,1,295744,0
295773,119,-2045,154,-45,6,-22,13357,13,2,-324,-144,35582,-47,34,127,0,0,3632,-21,0,2687,107,139,1661,1,0,119,1,295776,0
295783,98,-2050,141,-46,-8,-18,13354,11,2,-266,-72,35590,-65,34,127,0,0,3632,0,0,2687,107,139,1671,1,0,119,1,295776,0
295793,130,-2049,143,-40,-12,-25,13355,-4,-4,-283,-104,35587,-40,34,127,0,0,3627,-54,0,2687,107,139,1681,1,0,119,1,295776,0
295803,119,-2050,143,-50,-1,-29,13354,9,1,-274,-72,35585,-43,34,127,0,0,3634,0,0,2687,107,139,1691,1,0,119,1,295791,0
295813,111,-2045,156,-50,-12,-13,13356,-1,7,-256,-64,35587,-43,34,127,0,0,3629,-43,0,2687,107,139,1701,1,0,119,1,295791,0
295823,112,-2051,157,-45,-9,-29,13353,7,-5,-249,-40,35588,-48,34,127,0,0,3634,43,0,2687,107,139,1711,1,0,119,1,295807,0
295833,100,-2059,154,-48,-19,-34,13358,-4,14,-238,-88,35599,-41,34,127,0,0,3634,0,0,2687,107,139,1721,1,0,119,1,295838,0
295843,96,-2061,151,-49,-11,-40,13357,9,-6,-233,-88,35593,-49,34,127,0,0,3632,-21,0,2687,107,139,1731,1,0,119,1,295838,0
295853,110,-2052,152,-51,-5,-39,13357,-1,2,-237,-88,35588,-65,34,127,0,0,3632,-32,0,2687,107,139,1741,1,0,119,1,295838,0
295863,120,-2051,154,-49,-17,-42,13356,8,-5,-228,-48,35586,-70,34,127,0,0,3634,0,0,2687,107,139,1751,1,0,119,1,295838,0
295873,133,-2042,158,-52,-2,-36,13358,4,11,-179,-64,35590,-45,34,127,0,0,3634,-32,0,2687,107,139,1761,1,0,119,1,295854,0
295883,111,-2042,152,-51,-10,-39,13357,4,-3,-206,-88,35595,-32,34,127,0,0,3634,-43,0,2687,107,139,1771,1,0,119,1,295932,0
295893,121,-2028,137,-56,-4,-37,13357,8,-1,-226,-40,35601,-26,34,127,0,0,3632,-10,0,2687,107,139,1781,1,0,119,1,295932,0
295903,149,-2030,145,-55,-1,-44,13356,-9,5,-234,-56,35599,-34,34,127,0,0,3634,0,0,2687,107,139,1791,1,0,119,1,295932,0
295913,105,-2011,152,-48,-14,-48,13357,4,2,-232,-40,35595,-52,34,127,0,0,3634,0,0,2687,107,139,1801,1,0,119,1,295947,0
295923,106,-2018,154,-50,-9,-49,13358,11,6,-189,-64,35586,-40,34,127,0,0,3634,-10,0,2687,107,139,1811,1,0,119,1,295947,0
295933,100,-2025,155,-53,-14,-49,13357,-3,-2,-209,-48,35587,-43,34,127,0,0,3634,10,0,2687,107,139,1821,1,0,119,1,295947,0
295943,132,-2035,157,-63,-5,-55,13357,1,2,-222,-56,35586,-34,34,127,0,0,3634,0,0,2687,107,139,1831,1,0,119,1,295947,0
295953,104,-2051,151,-55,-20,-57,13358,11,8,-213,-88,35591,-50,34,127,0,0,3634,-21,0,2687,107,139,1841,1,0,119,1,295947,0
295963,130,-2054,148,-61,-20,-58,13357,4,0,-227,-40,35594,-28,34,127,0,0,3634,10,0,2687,107,139,1851,1,0,119,1,295947,0
295973,130,-2067,154,-69,-12,-52,13356,-5,1,-238,-40,35592,-30,33,127,0,0,3632,-10,0,2687,107,139,1861,1,0,119,1,295947,0
295983,152,-2065,157,-65,-15,-49,13357,9,2,-211,-56,35600,-32,34,127,0,0,3634,-32,0,2687,107,139,1871,1,0,119,1,295979,0
295993,146,-2061,141,-60,-2,-36,13354,-7,-4,-219,-40,35606,-31,34,127,0,0,3634,0,0,2687,107,139,1881,1,0,119,1,295979,0
296003,161,-2065,129,-64,2,-32,13357,-1,-4,-242,-120,35608,-25,34,127,0,0,3634,0,0,2687,107,139,1891,1,0,119,1,295979,0
296013,175,-2059,135,-57,-3,-19,13357,4,2,-273,-144,35594,-23,34,127,0,0,3634,10,0,2687,107,139,1901,1,0,119,1,295994,0
296023,155,-2067,140,-55,-2,-11,13355,2,-3,-247,-40,35591,-44,34,127,0,0,3634,32,0,2687,107,139,1911,1,0,119,1,296010,0
296033,119,-2055,150,-58,-12,-15,13357,5,2,-232,-80,35601,-52,34,127,0,0,3634,0,0,2687,107,139,1921,1,0,119,1,296026,0
296043,110,-2054,146,-55,-10,-9,13359,13,5,-199,-56,35600,-43,34,127,0,0,3634,-21,0,2687,107,139,1931,1,0,119,1,296026,0
296053,126,-2035,149,-58,4,-9,13358,4,3,-181,-64,35592,-40,34,127,0,0,3636,0,0,2687,107,139,1941,1,0,119,1,296041,0
296063,112,-2033,154,-61,-7,-3,13357,-8,-5,-171,-64,35583,-36,34,127,0,0,3636,0,0,2687,107,139,1951,1,0,119,1,296057,0
296073,119,-2029,148,-62,-5,7,13358,5,2,-170,-16,35587,-59,34,127,0,0,3636,43,0,2687,107,139,1961,1,0,119,1,296057,0
296083,121,-2028,149,-60,-3,17,13360,-1,6,-151,-32,35595,-55,34,127,0,0,3636,0,0,2687,107,139,1971,1,0,119,1,296072,0
296093,107,-2033,146,-65,-14,6,13361,15,3,-85,-8,35597,-19,34,127,0,0,3638,0,0,2687,107,139,1981,1,0,119,1,296088,0
296103,131,-2032,145,-62,-9,7,13362,-8,-1,-43,16,35592,-16,34,127,0,0,3640,43,0,2687,107,139,1991,1,0,119,1,296088,0
296113,105,-2032,136,-65,-4,1,13367,17,3,11,0,35594,-21,34,127,0,0,3643,0,0,2687,107,139,2001,1,0,119,1,296088,0
296123,98,-2029,137,-57,-8,-7,13367,2,-1,61,24,35600,-64,34,127,0,0,3645,21,0,2687,107,139,2011,1,0,119,1,296151,0
296133,101,-2032,154,-62,-12,-10,13368,-4,-5,96,56,35612,-47,34,127,0,0,3645,32,0,2687,107,139,2021,1,0,119,1,296151,0
296143,84,-2034,158,-62,-6,-24,13373,7,8,124,32,35600,-35,34,127,0,0,3643,-21,0,2687,107,139,2031,1,0,119,1,296151,0
296153,77,-2051,152,-68,-14,-46,13371,-5,-7,70,8,35593,-45,34,127,0,0,3645,10,0,2687,107,139,2041,1,0,119,1,296151,0
296163,93,-2041,148,-67,-8,-56,13373,0,-7,111,32,35586,-38,34,127,0,0,3645,-10,0,2687,107,139,2051,1,0,119,1,296151,0
296173,85,-2053,146,-75,-13,-58,13371,-10,1,105,48,35586,-50,34,127,0,0,3645,0,0,2687,107,139,2061,1,0,119,1,296166,0
296183,105,-2047,143,-75,-17,-71,13374,2,-1,118,32,35585,-48,34,127,0,0,3645,0,0,2687,107,139,2071,1,0,119,1,296166,0
296193,118,-2049,139,-77,-17,-74,13372,-9,1,62,8,35594,-47,34,127,0,0,3645,32,0,2687,107,139,2081,1,0,119,1,296166,0
296203,122,-2066,144,-79,-16,-84,13374,6,4,98,-8,35610,-53,34,127,0,0,3645,-10,0,2687,107,139,2091,1,0,119,1,296197,0
296213,117,-2064,147,-73,-17,-80,13374,15,4,138,-16,35618,-41,34,127,0,0,3643,-43,0,2687,107,139,2101,1,0,119,1,296197,0
296223,95,-2053,142,-78,-16,-91,13371,-2,-7,48,16,35604,-45,34,127,0,0,3645,21,0,2687,107,139,2111,1,0,119,1,296197,0
296233,159,-2062,139,-77,-16,-83,13374,2,10,48,8,35586,-45,34,127,0,0,3643,0,0,2687,107,139,2121,1,0,119,1,296213,0
296243,131,-2051,134,-83,-21,-85,13373,12,5,71,0,35589,-58,34,127,0,0,3643,-10,0,2687,107,139,2131,1,0,119,1,296291,0
296253,138,-2052,134,-72,-20,-79,13369,-21,-10,3,24,35601,-60,34,127,0,0,3643,32,0,2687,107,139,2141,1,0,119,1,296307,0
296263,160,-2054,132,-77,-12,-69,13372,4,0,-3,24,35611,-42,34,127,0,0,3643,10,0,2687,107,139,2151,1,0,119,1,296307,0
296273,143,-2040,138,-68,-17,-65,13372,-1,7,41,16,35594,-35,34,127,0,0,3638,-43,0,2687,107,139,2161,1,0,119,1,296307,0
296283,153,-2039,130,-60,-13,-65,13368,-9,-17,-16,-16,35584,-41,34,127,0,0,3640,-10,0,2687,107,139,2171,1,0,119,1,296307,0
296293,123,-2036,126,-62,-17,-57,13371,3,4,-11,-16,35578,-58,34,127,0,0,3643,21,0,2687,107,139,2181,1,0,119,1,296307,0
296303,118,-2041,122,-55,-13,-52,13371,-2,11,-3,-8,35580,-48,34,127,0,0,3640,-32,0,2687,107,139,2191,1,0,119,1,296307,0
296313,106,-2046,124,-49,-8,-48,13369,7,-4,-34,8,35573,-40,34,127,0,0,3640,-10,0,2687,107,139,2201,1,0,119,1,296307,0
296323,130,-2050,139,-49,-11,-45,13368,-4,5,-38,40,35569,-60,34,127,0,0,3638,-10,0,2687,107,139,2211,1,0,119,1,296307,0
296333,89,-2056,154,-48,-21,-46,13370,4,2,-79,-32,35573,-58,34,127,0,0,3643,0,0,2687,107,139,2221,1,0,119,1,296307,0
296343,70,-2047,141,-48,-20,-41,13370,12,6,-16,40,35597,-52,34,127,0,0,3640,21,0,2687,107,139,2231,1,0,119,1,296322,0
296353,135,-2053,136,-52,-10,-56,13367,-19,-1,-59,0,35606,-34,34,127,0,0,3638,0,0,2687,107,139,2241,1,0,119,1,296354,0
296363,116,-2048,137,-48,-17,-56,13370,6,-2,-39,-16,35605,-35,34,127,0,0,3640,-10,0,2687,107,139,2251,1,0,119,1,296354,0
296373,145,-2036,145,-49,2,-48,13366,-15,5,-86,-24,35591,-48,34,127,0,0,3640,43,0,2687,107,139,2261,1,0,119,1,296354,0
296383,155,-2039,139,-50,5,-44,13369,6,5,-69,0,35583,-56,34,127,0,0,3640,10,0,2687,107,139,2271,1,0,119,1,296354,0
296393,117,-2046,143,-51,-20,-53,13369,7,3,1,32,35590,-26,34,127,0,0,3638,-21,0,2687,107,139,2281,1,0,119,1,296385,0
296403,135,-2046,146,-54,-18,-63,13368,0,-15,-9,32,35592,-24,34,127,0,0,3643,0,0,2687,107,139,2291,1,0,119,1,296385,0
296413,128,-2041,146,-52,-17,-52,13369,-4,1,-16,-8,35586,-34,34,127,0,0,3638,-21,0,2687,107,139,2301,1,0,119,1,296385,0
296423,144,-2046,140,-56,-8,-62,13368,0,-2,-81,8,35582,-57,34,127,0,0,3640,0,0,2687,107,139,2311,1,0,119,1,296400,0
296433,117,-2047,136,-52,-13,-63,13368,7,11,-45,-40,35581,-38,34,127,0,0,3638,-32,0,2687,107,139,2321,1,0,119,1,296416,0
296443,116,-2046,137,-55,-13,-68,13365,-5,-6,-109,-24,35586,-34,34,127,0,0,3640,21,0,2687,107,139,2331,1,0,119,1,296432,0
296453,137,-2045,134,-48,-8,-64,13367,-2,3,-86,8,35581,-43,34,127,0,0,3638,0,0,2687,107,139,2341,1,0,119,1,296432,0
296463,119,-2044,142,-55,-13,-68,13366,1,4,-119,-24,35588,-58,34,127,0,0,3638,0,0,2687,107,139,2351,1,0,119,1,296463,0
296473,120,-2044,145,-53,-12,-67,13368,2,-1,-133,-64,35590,-46,34,127,0,0,3638,-10,0,2687,107,139,2361,1,0,119,1,296463,0
296483,110,-2046,143,-55,-8,-67,13366,5,3,-114,-24,35585,-32,34,127,0,0,3636,-21,0,2687,107,139,2371,1,0,119,1,296463,0
296493,113,-2046,142,-56,-14,-69,13365,0,-2,-132,-56,35579,-43,34,127,0,0,3636,-21,0,2687,107,139,2381,1,0,119,1,296463,0
296503,130,-2042,137,-52,-14,-71,13365,7,-3,-144,-24,35583,-57,34,127,0,0,3638,10,0,2687,107,139,2391,1,0,119,1,296494,0
296513,134,-2049,134,-58,-11,-69,13365,1,5,-156,-48,35592,-53,34,127,0,0,3636,0,0,2687,107,139,2401,1,0,119,1,296494,0
296523,130,-2045,141,-55,-11,-66,13366,6,2,-167,-48,35590,-50,34,127,0,0,3634,-54,0,2687,107,139,2411,1,0,119,1,296494,0
296533,92,-2043,133,-58,-13,-59,13365,7,4,-175,-80,35582,-42,34,127,0,0,3634,-54,0,2687,107,139,2421,1,0,119,1,296525,0
296543,113,-2047,138,-56,-18,-66,13363,9,1,-202,-32,35580,-58,34,127,0,0,3636,0,0,2687,107,139,2431,1,0,119,1,296525,0
296553,136,-2037,139,-59,-16,-68,13360,-8,3,-233,-96,35584,-56,34,127,0,0,3636,21,0,2687,107,139,2441,1,0,119,1,296525,0
296563,104,-2041,143,-60,-13,-67,13363,20,5,-211,-96,35584,-47,34,127,0,0,3632,-43,0,2687,107,139,2451,1,0,119,1,296557,0
296573,126,-2044,140,-65,-8,-72,13358,-13,-6,-273,-80,35588,-40,34,127,0,0,3632,-10,0,2687,107,139,2461,1,0,119,1,296557,0
296583,146,-2042,135,-66,-8,-65,13359,-9,-4,-292,-48,35586,-52,34,127,0,0,3632,10,0,2687,107,139,2471,1,0,119,1,296557,0
296593,131,-2045,135,-61,-12,-62,13360,3,6,-264,-96,35592,-52,34,127,0,0,3632,-43,0,2687,107,139,2481,1,0,119,1,296572,0
296603,108,-2052,131,-64,-14,-65,13357,0,-8,-235,-56,35592,-55,34,127,0,0,3634,-10,0,2687,107,139,2491,1,0,119,1,296588,0
296613,133,-2049,133,-62,-9,-63,13358,-20,-1,-275,-128,35593,-39,34,127,0,0,3629,-21,0,2687,107,139,2501,1,0,119,1,296588,0
296623,117,-2052,139,-61,-16,-63,13354,0,-8,-350,-96,35590,-43,34,127,0,0,3629,21,0,2687,107,139,2511,-4,0,119,1,296619,0
296633,113,-2049,135,-63,-16,-66,13355,-2,11,-319,-144,35591,-38,34,127,0,0,3627,-54,0,2687,107,139,2521,-4,0,119,1,296650,0
296643,114,-2044,131,-62,-17,-71,13351,-10,-8,-364,-112,35587,-36,34,127,0,0,3629,0,0,2687,107,139,2531,-4,0,119,1,296650,0
296653,133,-2047,120,-62,-4,-75,13354,10,1,-341,-144,35581,-18,34,127,0,0,3627,-43,0,2687,107,139,2541,-4,0,119,1,296650,0
296663,128,-2052,122,-46,-17,-81,13351,-4,2,-382,-144,35569,-31,34,127,0,0,3625,-21,0,2687,107,139,2551,-4,0,119,1,296650,0
296673,133,-2040,137,-56,-14,-69,13349,-2,-5,-415,-96,35574,-37,34,127,0,0,3627,10,0,2687,107,139,2561,-4,0,119,1,296666,0
296683,137,-2048,144,-52,-2,-66,13351,9,11,-400,-96,35582,-40,34,127,0,0,3625,-10,0,2687,107,139,2571,-4,0,119,1,296666,0
296693,147,-2041,138,-54,-15,-67,13349,-7,-1,-418,-144,35591,-34,34,127,0,0,3625,-10,0,2687,107,139,2581,-4,0,119,1,296697,0
296703,133,-2038,135,-52,-9,-59,13348,0,-5,-405,-128,35595,-31,34,127,0,0,3627,10,0,2687,107,139,2591,-4,0,119,1,296697,0
296713,131,-2044,137,-63,-12,-61,13347,2,0,-400,-128,35597,-46,34,127,0,0,3625,10,0,2687,107,139,2601,-4,0,119,1,296697,0
296723,143,-2039,138,-62,-12,-62,13345,-10,-1,-468,-144,35591,-49,34,127,0,0,3625,21,0,2687,107,139,2611,-4,0,119,1,296713,0
296733,140,-2041,133,-66,-13,-59,13333,-31,-23,-411,-120,35577,-45,34,127,0,0,3623,21,0,2687,107,139,2621,-4,0,119,1,296713,0
296743,130,-2047,137,-68,-17,-59,13316,-49,-27,-289,-136,35582,-44,34,127,0,0,3621,0,0,2687,107,139,2631,-4,0,119,1,296713,0
296753,105,-2054,144,-67,-4,-75,13300,-7,-5,-208,-56,35591,-44,34,127,0,0,3621,-21,0,2687,107,139,2641,-4,0,119,1,296744,0
296763,137,-2046,137,-65,-9,-74,13302,-7,54,-267,-96,35607,-50,34,127,0,0,3621,-21,0,2687,107,139,2651,-4,0,119,1,296744,0
296773,125,-2049,144,-72,-11,-80,13300,3,15,-272,-96,35601,-34,34,127,0,0,3621,0,0,2687,107,139,2661,-4,0,119,1,296775,0
296783,128,-2049,133,-74,-11,-84,13299,-6,-5,-302,-80,35591,-28,34,127,0,0,3618,-32,0,2687,107,139,2671,-4,0,119,1,296775,0
296793,112,-2060,137,-72,-10,-96,13296,-2,-5,-329,-96,35581,-40,34,127,0,0,3616,-54,0,2687,107,139,2681,-4,0,119,1,296775,0
296803,133,-2039,137,-72,-4,-102,13294,-9,-4,-338,-88,35585,-37,34,127,0,0,3616,-32,0,2687,107,139,2691,-4,0,119,1,296775,0
296813,141,-2047,129,-72,-8,-102,13292,-14,-1,-397,-80,35591,-40,34,127,0,0,3616,21,0,2687,107,139,2701,-4,0,119,1,296807,0
296823,144,-2039,123,-70,1,-89,13292,-6,0,-445,-136,35589,-27,34,127,0,0,3616,21,0,2687,107,139,2711,-4,0,119,1,296807,0
296833,135,-2050,118,-71,-11,-80,13289,8,2,-412,-120,35583,-37,34,127,0,0,3614,-32,0,2687,107,139,2721,-4,0,119,1,296822,0
296843,160,-2044,124,-62,-7,-76,13288,3,4,-451,-112,35581,-41,33,127,0,0,3612,-21,0,2687,107,139,2731,-4,0,119,1,296822,0
296853,163,-2047,131,-63,-15,-66,13282,-14,-8,-465,-104,35587,-45,34,127,0,0,3612,21,0,2687,107,139,2741,-4,0,119,1,296838,0
296863,156,-2045,122,-62,-11,-52,13279,-2,-6,-500,-168,35589,-34,34,127,0,0,3612,0,0,2687,107,139,2751,-4,0,119,1,296838,0
296873,155,-2047,118,-58,-13,-39,13278,4,8,-460,-152,35583,-29,34,127,0,0,3612,10,0,2687,107,139,2761,-4,0,119,1,296853,0
296883,153,-2038,115,-56,-3,-39,13276,-1,8,-463,-160,35589,-51,34,127,0,0,3610,-10,0,2687,107,139,2771,-4,0,119,1,296885,0
296893,135,-2039,124,-47,-11,-38,13268,-15,-10,-453,-136,35596,-53,33,127,0,0,3607,-32,0,2687,107,139,2781,-4,0,119,1,296885,0
296903,143,-2040,120,-40,-9,-35,13256,-36,-22,-381,-96,35590,-39,34,127,0,0,3610,0,0,2687,107,139,2791,-4,0,119,1,296885,0
296913,124,-2045,133,-43,-11,-36,13241,-24,-15,-292,-88,35580,-33,33,127,0,0,3610,0,0,2687,107,139,2801,-4,0,119,1,296885,0
296923,139,-2050,136,-47,-11,-31,13242,0,30,-339,-72,35584,-40,34,127,0,0,3610,10,0,2687,107,139,2811,-4,0,119,1,296900,0
296933,120,-2048,137,-47,-15,-40,13242,-1,24,-346,-152,35607,-53,34,127,0,0,3612,21,0,2687,107,139,2821,-4,0,119,1,296932,0
296943,80,-2049,130,-51,-13,-45,13243,9,-1,-299,-80,35618,-28,34,127,0,0,3612,21,0,2687,107,139,2831,-4,0,119,1,296932,0
296953,122,-2051,130,-54,-7,-59,13242,0,0,-301,-120,35599,-25,34,127,0,0,3607,-21,0,2687,107,139,2841,-4,0,119,1,296932,0
296963,130,-2041,125,-53,-12,-64,13240,-4,-7,-342,-112,35587,-44,34,127,0,0,3612,10,0,2687,107,139,2851,-4,0,119,1,296932,0
296973,143,-2044,137,-55,-13,-57,13241,2,1,-291,-80,35600,-52,34,127,0,0,3610,0,0,2687,107,139,2861,-4,0,119,1,296963,0
296983,138,-2042,132,-58,-8,-65,13241,2,-2,-295,-40,35610,-50,34,127,0,0,3610,0,0,2687,107,139,2871,-4,0,119,1,296994,0
296993,146,-2044,132,-57,-21,-75,13239,-12,-7,-322,-80,35604,-47,34,127,0,0,3610,21,0,2687,107,139,2881,-4,0,119,1,297010,0
297003,139,-2040,130,-55,-9,-72,13241,-1,4,-375,-136,35587,-43,34,127,0,0,3607,0,0,2687,107,139,2891,-4,0,119,1,297010,0
297013,119,-2042,125,-54,-8,-80,13236,3,-8,-379,-80,35584,-55,34,127,0,0,3607,10,0,2687,107,139,2901,-4,0,119,1,297010,0
297023,131,-2050,123,-50,-1,-78,13238,-4,11,-407,-120,35591,-52,34,127,0,0,3605,-10,0,2687,107,139,2911,-4,0,119,1,297025,0
297033,135,-2040,123,-51,-15,-82,13235,3,-2,-406,-160,35590,-52,34,127,0,0,3605,-10,0,2687,107,139,2921,-4,0,119,1,297025,0
297043,126,-2041,124,-54,-13,-83,13231,-11,-3,-426,-144,35589,-41,34,127,0,0,3605,21,0,2687,107,139,2931,-4,0,119,1,297025,0
297053,136,-2039,121,-47,-9,-89,13231,-7,3,-442,-128,35594,-55,34,127,0,0,3603,0,0,2687,107,139,2941,-4,0,119,1,297025,0
297063,121,-2042,126,-43,-5,-88,13229,-5,1,-457,-160,35610,-40,34,127,0,0,3596,-76,0,2687,107,139,2951,-4,0,119,1,297057,0
297073,134,-2044,129,-58,-11,-93,13220,-33,-20,-531,-168,35615,-11,34,127,0,0,3599,-10,0,2687,107,139,2961,-4,0,119,1,297057,0
297083,138,-2056,113,-50,-6,-92,13210,-31,-22,-492,-136,35603,-9,33,127,0,0,3599,0,0,2687,107,139,2971,-4,0,119,1,297072,0
297093,145,-2048,133,-44,-9,-92,13188,-62,-22,-381,-128,35588,-17,33,127,0,0,3596,-32,0,2687,107,139,2981,-4,0,119,1,297072,0
297103,130,-2047,141,-49,-5,-111,13159,-54,-36,-234,-56,35588,-40,34,127,0,0,3594,0,0,2687,107,139,2991,-4,0,119,1,297088,0
297113,173,-2049,138,-44,-4,-96,13158,0,49,-350,-80,35600,-17,34,127,0,0,3594,-10,0,2687,107,139,3001,-4,0,119,1,297088,0
297123,162,-2044,134,-53,-14,-97,13154,-13,42,-376,-128,35595,-1,34,127,0,0,3592,-10,0,2687,107,139,3011,-4,0,119,1,297119,0
297133,142,-2056,126,-46,-4,-81,13146,-20,-23,-357,-104,35593,-11,34,127,0,0,3588,-32,0,2687,107,139,3021,-4,0,119,1,297119,0
297143,160,-2039,118,-46,-4,-74,13132,-48,-21,-361,-104,35586,0,34,127,0,0,3588,-21,0,2687,107,139,3031,-4,0,119,1,297119,0
297153,149,-2047,120,-41,-5,-72,13109,-35,-31,-204,-40,35593,10,34,127,0,0,3588,10,0,2687,107,139,3041,-4,0,119,1,297150,0
297163,160,-2047,126,-50,-11,-61,13111,9,45,-275,-40,35591,29,34,127,0,0,3585,0,0,2687,107,139,3051,-4,0,119,1,297150,0
297173,150,-2039,122,-42,-11,-50,13108,-2,35,-278,-72,35586,40,34,127,0,0,3585,-10,0,2687,107,139,3061,-4,0,119,1,297150,0
297183,137,-2047,121,-41,-13,-52,13108,-6,-7,-335,-64,35592,23,34,127,0,0,3583,10,0,2687,107,139,3071,-4,0,119,1,297182,0
297193,154,-2039,123,-42,-5,-51,13107,-10,-1,-374,-96,35598,26,34,127,0,0,3585,32,0,2687,107,139,3081,-4,0,119,1,297182,0
297203,149,-2048,125,-40,-6,-43,13109,3,7,-295,-72,35596,32,34,127,0,0,3583,0,0,2687,107,139,3091,-4,0,119,1,297182,0
297213,139,-2045,134,-41,-14,-46,13106,-11,-5,-312,-104,35584,45,34,127,0,0,3583,0,0,2687,107,139,3101,-4,0,119,1,297182,0
297223,154,-2036,137,-46,-9,-39,13105,-8,-6,-343,-96,35583,39,34,127,0,0,3583,0,0,2687,107,139,3111,-4,0,119,1,297213,0
297233,125,-2048,132,-52,-8,-44,13108,13,3,-285,-72,35602,21,34,127,0,0,3585,-10,0,2687,107,139,3121,-4,0,119,1,297213,0
297243,124,-2048,130,-43,-12,-42,13107,-5,-1,-298,-88,35606,28,34,127,0,0,3583,-21,0,2687,107,139,3131,-4,0,119,1,297213,0
297253,139,-2051,131,-49,-8,-43,13108,5,-5,-301,-104,35597,22,34,127,0,0,3585,-10,0,2687,107,139,3141,-4,0,119,1,297244,0
297263,101,-2061,137,-48,-13,-46,13107,6,3,-289,-64,35589,21,34,127,0,0,3585,0,0,2687,107,139,3151,-4,0,119,1,297260,0
297273,144,-2055,142,-54,-8,-54,13106,-7,-2,-333,-80,35590,20,34,127,0,0,3585,32,0,2687,107,139,3161,-4,0,119,1,297260,0
297283,136,-2052,130,-53,-14,-58,13106,-2,1,-319,-88,35593,29,33,127,0,0,3583,10,0,2687,107,139,3171,-4,0,119,1,297260,0
297293,137,-2049,131,-58,-8,-65,13105,-10,0,-363,-80,35583,40,34,127,0,0,3583,0,0,2687,107,139,3181,-4,0,119,1,297275,0
297303,118,-2051,131,-58,-6,-74,13104,2,-6,-380,-112,35591,18,34,127,0,0,3581,0,0,2687,107,139,3191,-4,0,119,1,297291,0
297313,121,-2048,129,-57,-9,-82,13105,6,4,-398,-144,35601,22,34,127,0,0,3581,-21,0,2687,107,139,3201,-4,0,119,1,297291,0
297323,133,-2047,126,-60,-1,-91,13103,0,-2,-401,-136,35605,18,34,127,0,0,3579,-43,0,2687,107,139,3211,-4,0,119,1,297307,0
297333,147,-2042,118,-59,-9,-92,13099,-11,-7,-461,-160,35595,16,34,127,0,0,3579,21,0,2687,107,139,3221,-4,0,119,1,297373,0
297343,134,-2041,118,-63,-6,-91,13098,-5,-4,-454,-152,35592,19,34,127,0,0,3574,-65,0,2687,107,139,3231,-4,0,119,1,297373,0
297353,134,-2048,132,-65,-14,-98,13095,-5,-1,-494,-128,35598,1,34,127,0,0,3574,-21,0,2687,107,139,3241,-4,0,119,1,297373,0
297363,140,-2047,134,-64,-3,-102,13095,3,1,-498,-200,35599,7,34,127,0,0,3570,-65,0,2687,107,139,3251,-4,0,119,1,297389,0
297373,148,-2048,134,-67,-14,-114,13085,-31,-6,-563,-152,35580,16,34,127,0,0,3570,-10,0,2687,107,139,3261,-4,0,119,1,297389,0
297383,136,-2044,123,-65,-10,-114,13073,-30,-30,-525,-160,35575,27,34,127,0,0,3568,-21,0,2687,107,139,3271,-4,0,119,1,297405,0
297393,150,-2038,125,-59,-6,-126,13050,-55,-30,-405,-120,35576,14,34,127,0,0,3568,-21,0,2687,107,139,3281,-4,0,119,1,297405,0
297403,131,-2050,118,-60,-3,-126,13039,-8,1,-443,-136,35585,-3,34,127,0,0,3566,-10,0,2687,107,139,3291,-4,0,119,1,297405,0
297413,156,-2042,117,-58,-6,-126,13038,-6,48,-492,-152,35592,11,34,127,0,0,3561,-32,0,2687,107,139,3301,-4,0,119,1,297405,0
297423,156,-2037,133,-62,-6,-131,13031,-14,13,-541,-168,35590,14,34,127,0,0,3557,-54,0,2687,107,139,3311,-4,0,119,1,297420,0
297433,147,-2049,142,-63,-13,-128,13013,-56,-33,-606,-168,35583,2,34,127,0,0,3557,21,0,2687,107,139,3321,-4,0,119,1,297420,0
297443,133,-2049,131,-65,0,-143,12973,-99,-63,-341,-160,35583,2,34,127,0,0,3550,-65,0,2687,107,139,3331,-4,0,119,1,297420,0
297453,134,-2053,124,-62,-7,-151,12940,-66,-34,-346,-136,35583,2,34,127,0,0,3548,-43,0,2687,107,139,3341,-4,0,119,1,297467,0
297463,156,-2045,123,-59,-2,-170,12911,-31,21,-248,-128,35583,2,34,127,0,0,3544,-65,0,2687,107,139,3351,-4,0,119,1,297467,0
297473,188,-2053,121,-62,-14,-160,12910,-3,71,-470,-112,35588,-12,34,127,0,0,3541,10,0,2687,107,139,3361,-4,0,119,1,297467,0
297483,148,-2059,116,-58,-7,-164,12909,-8,52,-500,-144,35577,-20,34,127,0,0,3535,-54,0,2687,107,139,3371,-4,0,119,1,297467,0
297493,157,-2046,105,-51,-7,-161,12900,-17,-19,-544,-168,35578,-25,34,127,0,0,3533,-43,0,2687,107,139,3381,-4,0,119,1,297467,0
297503,187,-2060,111,-45,-4,-152,12884,-44,-26,-574,-184,35587,-35,34,127,0,0,3531,0,0,2687,107,139,3391,-4,0,119,1,297530,0
297513,174,-2045,120,-41,-3,-139,12849,-76,-50,-391,-120,35596,-22,34,127,0,0,3524,-54,0,2687,107,139,3401,-4,0,119,1,297530,0
297523,178,-2055,123,-37,-6,-123,12829,-29,1,-459,-136,35592,-31,34,127,0,0,3522,-43,0,2687,107,139,3411,-4,0,119,1,297530,0
297533,204,-2063,126,-36,-9,-109,12811,-46,33,-397,-136,35585,-34,34,127,0,0,3524,10,0,2687,107,139,3421,-4,0,119,1,297530,0
297543,176,-2049,111,-31,-10,-100,12787,-44,-15,-254,-80,35584,-50,34,127,0,0,3520,-43,0,2687,107,139,3431,-4,0,119,1,297530,0
297553,191,-2036,110,-19,-8,-85,12783,3,39,-322,-104,35595,-50,34,127,0,0,3520,-10,0,2687,107,139,3441,-4,0,119,1,297545,0
297563,217,-2042,119,-15,-15,-66,12782,-4,50,-366,-112,35599,-52,34,127,0,0,3517,-10,0,2687,107,139,3451,-4,0,119,1,297545,0
297573,190,-2028,114,-12,-9,-46,12781,-2,2,-399,-64,35596,-66,34,127,0,0,3520,10,0,2687,107,139,3461,-4,0,119,1,297545,0
297583,192,-2018,111,-11,-5,-36,12781,2,4,-369,-112,35595,-65,34,127,0,0,3515,-54,0,2687,107,139,3471,-4,0,119,1,297576,0
297593,161,-2025,120,-12,-4,-24,12777,-7,-8,-398,-136,35599,-64,34,127,0,0,3517,-10,0,2687,107,139,3481,-4,0,119,1,297576,0
297603,147,-2030,123,-2,-3,-23,12778,6,4,-401,-88,35583,-56,34,127,0,0,3517,21,0,2687,107,139,3491,-4,0,119,1,297576,0
297613,176,-2033,130,-10,-3,-28,12776,-7,8,-407,-128,35585,-43,34,127,0,0,3515,0,0,2687,107,139,3501,-4,0,119,1,297608,0
297623,153,-2034,125,-8,-5,-29,12775,2,-5,-411,-88,35582,-64,34,127,0,0,3515,0,0,2687,107,139,3511,-4,0,119,1,297608,0
297633,163,-2034,146,-18,-2,-40,12775,-10,-1,-397,-144,35583,-77,34,127,0,0,3520,21,0,2687,107,139,3521,-4,0,119,1,297608,0
297643,140,-2041,143,-21,-10,-34,12777,2,0,-374,-104,35584,-89,34,127,0,0,3520,21,0,2687,107,139,3531,-4,0,119,1,297639,0
297653,161,-2034,146,-30,-7,-44,12778,8,3,-344,-112,35582,-83,34,127,0,0,3517,0,0,2687,107,139,3541,-4,0,119,1,297639,0
297663,159,-2034,144,-34,-9,-47,12776,-3,1,-390,-120,35582,-82,34,127,0,0,3517,-10,0,2687,107,139,3551,-4,0,119,1,297639,0
297673,174,-2047,158,-47,-7,-51,12776,8,2,-367,-96,35594,-84,34,127,0,0,3517,-21,0,2687,107,139,3561,-4,0,119,1,297655,0
297683,175,-2059,158,-59,-17,-56,12774,-3,0,-394,-80,35587,-73,34,127,0,0,3515,-21,0,2687,107,139,3571,-4,0,119,1,297670,0
297693,153,-2070,155,-70,-21,-46,12773,0,1,-434,-104,35588,-80,34,127,0,0,3515,-10,0,2687,107,139,3581,-4,0,119,1,297670,0
297703,178,-2073,152,-72,1,-47,12771,-5,6,-389,-80,35585,-85,34,127,0,0,3517,32,0,2687,107,139,3591,-4,0,119,1,297686,0
297713,182,-2082,158,-91,-11,-45,12772,-7,-1,-430,-144,35583,-96,34,127,0,0,3517,21,0,2687,107,139,3601,-4,0,119,1,297780,0
297723,189,-2087,149,-87,-15,-36,12767,-8,-10,-373,-72,35586,-86,34,127,0,0,3517,32,0,2687,107,139,3611,-4,0,119,1,297780,0
297733,187,-2073,154,-100,-20,-27,12768,-4,2,-371,-112,35585,-83,33,127,0,0,3515,10,0,2687,107,139,3621,-4,0,119,1,297780,0
297743,157,-2063,135,-108,-22,-28,12766,-11,-1,-408,-56,35579,-84,34,127,0,0,3515,21,0,2687,107,139,3631,-4,0,119,1,297780,0
297753,118,-2050,111,-108,-14,-35,12764,3,-3,-329,-72,35574,-83,34,127,0,0,3513,-54,0,2687,107,139,3641,-4,0,119,1,297780,0
297763,159,-2031,109,-102,-15,-37,12763,-13,3,-402,-128,35574,-86,34,127,0,0,3517,21,0,2687,107,139,3651,-4,0,119,1,297795,0
297773,181,-2014,98,-102,3,-33,12758,-1,-7,-297,-48,35570,-95,34,127,0,0,3515,10,0,2687,107,139,3661,-4,0,119,1,297795,0
297783,185,-2015,100,-102,-7,-35,12756,-2,6,-295,-48,35567,-82,34,127,0,0,3520,21,0,2687,107,139,3671,-4,0,119,1,297795,0
297793,136,-2023,109,-89,-17,-34,12758,9,13,-189,-24,35568,-96,34,127,0,0,3520,-21,0,2687,107,139,3681,-4,0,119,1,297795,0
297803,141,-2031,98,-82,-4,-36,12757,0,0,-200,-72,35573,-88,34,127,0,0,3517,0,0,2687,107,139,3691,-4,0,119,1,297795,0
297813,176,-2041,114,-74,-12,-35,12759,5,4,-255,-96,35583,-91,34,127,0,0,3517,-21,0,2687,107,139,3701,-4,0,119,1,297795,0
297823,164,-2043,124,-58,-10,-35,12755,1,-2,-234,-40,35601,-82,34,127,0,0,3517,-10,0,2687,107,139,3711,-4,0,119,1,297811,0
297833,183,-2043,112,-55,-8,-34,12755,-1,1,-225,-24,35609,-88,34,127,0,0,3517,0,0,2687,107,139,3721,-4,0,119,1,297811,0
297843,170,-2033,96,-49,-19,-32,12754,-6,4,-233,-56,35603,-99,34,127,0,0,3515,-21,0,2687,107,139,3731,-4,0,119,1,297826,0
297853,143,-2023,68,-30,-8,-38,12754,0,-5,-236,-64,35588,-102,34,127,0,0,3517,-10,0,2687,107,139,3741,-4,0,119,1,297842,0
297863,135,-2018,70,-22,-9,-36,12753,-3,2,-231,-56,35578,-107,34,127,0,0,3517,0,0,2687,107,139,3751,-4,0,119,1,297842,0
297873,160,-2024,98,-7,-9,-32,12753,-4,-2,-259,-40,35580,-105,34,127,0,0,3520,43,0,2687,107,139,3761,-4,0,119,1,297842,0
297883,176,-2034,106,3,-12,-38,12758,21,8,-175,-24,35588,-92,34,127,0,0,3517,-43,0,2687,107,139,3771,-4,0,119,1,297873,0
297893,151,-2045,115,6,-15,-33,12752,-8,-8,-225,-48,35594,-77,34,127,0,0,3517,0,0,2687,107,139,3781,-4,0,119,1,297889,0
297903,159,-2045,115,8,-17,-45,12750,7,-10,-207,-80,35588,-70,34,127,0,0,3517,-21,0,2687,107,139,3791,-4,0,119,1,297889,0
297913,184,-2044,128,16,-15,-47,12747,-8,12,-208,-40,35586,-76,34,127,0,0,3517,10,0,2687,107,139,3801,-4,0,119,1,297889,0
297923,148,-2051,133,12,-6,-45,12746,6,-2,-169,-40,35589,-88,34,127,0,0,3517,10,0,2687,107,139,3811,-4,0,119,1,297920,0
297933,189,-2061,141,7,-5,-44,12748,-1,10,-156,-48,35597,-82,34,127,0,0,3515,-32,0,2687,107,139,3821,-4,0,119,1,297920,0
297943,182,-2073,137,7,-9,-37,12742,-18,-10,-213,-24,35597,-91,34,127,0,0,3517,21,0,2687,107,139,3831,-4,0,119,1,297936,0
297953,200,-2080,140,-2,3,-29,12745,8,2,-157,-80,35589,-76,34,127,0,0,3517,0,0,2687,107,139,3841,-4,0,119,1,297936,0
297963,191,-2071,145,-6,-7,-16,12742,-10,1,-175,-32,35592,-102,34,127,0,0,3520,43,0,2687,107,139,3851,-4,0,119,1,297951,0
297973,202,-2069,146,-8,-4,-10,12744,11,-3,-134,-32,35597,-83,34,127,0,0,3517,10,0,2687,107,139,3861,-4,0,119,1,297951,0
297983,183,-2055,148,-8,-9,-11,12742,0,3,-156,-32,35598,-96,34,127,0,0,3517,0,0,2687,107,139,3871,-4,0,119,1,297951,0
297993,160,-2038,144,-15,-8,-12,12745,16,1,-76,8,35601,-90,34,127,0,0,3520,10,0,2687,107,139,3881,-4,0,119,1,297998,0
298003,178,-2034,139,-15,-2,-6,12744,-19,1,-144,-40,35590,-99,34,127,0,0,3520,32,0,2687,107,139,3891,-4,0,119,1,297998,0
298013,145,-2034,146,-28,3,-4,12746,9,-2,-70,-16,35588,-108,34,127,0,0,3520,0,0,2687,107,139,3901,-4,0,119,1,297998,0
298023,144,-2029,146,-34,2,-17,12746,-2,7,-61,-64,35585,-104,34,127,0,0,3520,-10,0,2687,107,139,3911,-4,0,119,1,297998,0
298033,126,-2036,149,-50,-14,-23,12745,3,-11,-43,24,35586,-111,34,127,0,0,3520,10,0,2687,107,139,3921,-4,0,119,1,298029,0
298043,140,-2030,148,-56,-10,-42,12746,-3,1,-23,8,35594,-92,34,127,0,0,3522,0,0,2687,107,139,3931,-4,0,119,1,298029,0
298053,112,-2037,143,-67,-13,-65,12747,-8,-3,-21,8,35595,-88,34,127,0,0,3522,21,0,2687,107,139,3941,-4,0,119,1,298045,0
298063,113,-2034,141,-67,-14,-82,12745,-11,-11,-50,16,35603,-84,34,127,0,0,3522,21,0,2687,107,139,3951,-4,0,119,1,298045,0
298073,110,-2032,142,-72,-21,-99,12746,-3,-2,-35,-32,35591,-87,34,127,0,0,3520,-32,0,2687,107,139,3961,-4,0,119,1,298061,0
298083,101,-2040,148,-78,-20,-123,12746,10,-1,-32,-24,35592,-86,34,127,0,0,3522,0,0,2687,107,139,3971,-4,0,119,1,298061,0
298093,141,-2047,152,-90,-23,-129,12746,-5,-2,-74,-56,35597,-94,34,127,0,0,3517,-54,0,2687,107,139,3981,-4,0,119,1,298092,0
298103,126,-2046,142,-101,-23,-159,12741,3,-8,-133,-104,35598,-101,34,127,0,0,3513,-54,0,2687,107,139,3991,-4,0,119,1,298123,0
298113,93,-2057,112,-90,1,-236,12737,-11,1,-235,-80,35598,-109,34,127,0,0,3509,-76,0,2687,107,139,4001,-4,0,119,1,298123,0
298123,142,-2057,103,-86,5,-225,12726,-37,-14,-337,-88,35585,-106,34,127,0,0,3506,-32,0,2687,107,139,4011,-4,0,119,1,298123,0
298133,168,-2061,107,-75,0,-234,12718,-7,-8,-432,-144,35588,-114,34,127,0,0,3498,-87,0,2687,107,139,4021,-4,0,119,1,298123,0
298143,205,-2050,117,-68,-9,-229,12705,-29,5,-543,-192,35591,-114,34,127,0,0,3495,-21,0,2687,107,139,4031,-4,0,119,1,298170,0
298153,217,-2064,101,-63,-4,-201,12685,-54,-25,-510,-176,35602,-101,34,127,0,0,3489,-65,0,2687,107,139,4041,-4,0,119,1,298170,0
298163,217,-2075,94,-58,-1,-201,12645,-84,-52,-395,-176,35599,-92,34,127,0,0,3484,-76,0,2687,107,139,4051,-4,0,119,1,298170,0
298173,264,-2069,89,-38,-7,-156,12621,-53,2,-444,-112,35597,-68,34,127,0,0,3482,-10,0,2687,107,139,4061,-4,0,119,1,298170,0
298183,244,-2055,94,-32,-18,-136,12596,-58,24,-350,-136,35588,-68,34,127,0,0,3480,-10,0,2687,107,139,4071,-4,0,119,1,298170,0
298193,222,-2038,87,-14,-14,-107,12585,-6,23,-367,-112,35588,-47,34,127,0,0,3478,0,0,2687,107,139,4081,-4,0,119,1,298170,0
298203,244,-2028,81,5,-9,-74,12585,1,54,-425,-104,35591,-39,34,127,0,0,3478,0,0,2687,107,139,4091,-4,0,119,1,298186,0
298213,205,-2010,98,19,-16,-47,12584,6,20,-412,-104,35608,-36,34,127,0,0,3476,-10,0,2687,107,139,4101,-4,0,119,1,298201,0
298223,214,-1996,93,28,-8,-38,12583,-5,0,-433,-176,35608,-30,34,127,0,0,3476,-32,0,2687,107,139,4111,-4,0,119,1,298201,0
298233,174,-2005,103,51,1,-30,12580,-3,-10,-448,-152,35609,-41,34,127,0,0,3478,32,0,2687,107,139,4121,-4,0,119,1,298217,0
298243,159,-2014,119,60,-1,-39,12580,8,5,-384,-136,35603,-45,34,127,0,0,3476,-43,0,2687,107,139,4131,-4,0,119,1,298233,0
298253,134,-2013,131,69,-6,-40,12576,-9,0,-386,-104,35599,-35,34,127,0,0,3478,10,0,2687,107,139,4141,-4,0,119,1,298233,0
298263,145,-2000,132,54,-7,-52,12577,-5,0,-403,-120,35598,-36,34,127,0,0,3476,-10,0,2687,107,139,4151,-4,0,119,1,298248,0
298273,154,-2039,152,48,-7,-66,12576,1,1,-411,-88,35591,-28,34,127,0,0,3478,32,0,2687,107,139,4161,-4,0,119,1,298248,0
298283,145,-2045,169,43,-9,-84,12578,2,4,-375,-104,35582,-37,34,127,0,0,3478,0,0,2687,107,139,4171,-4,0,119,1,298264,0
298293,153,-2060,182,24,-10,-89,12576,-2,-5,-401,-120,35594,-27,34,127,0,0,3478,10,0,2687,107,139,4181,-4,0,119,1,298295,0
298303,172,-2054,184,10,-18,-99,12575,5,-2,-418,-120,35589,-41,34,127,0,0,3478,32,0,2687,107,139,4191,-4,0,119,1,298295,0
298313,188,-2055,178,-18,-21,-132,12575,0,5,-395,-128,35585,-49,34,127,0,0,3476,-10,0,2687,107,139,4201,-4,0,119,1,298295,0
298323,112,-2069,161,-30,-6,-174,12572,-6,-4,-437,-136,35580,-52,34,127,0,0,3471,-43,0,2687,107,139,4211,-4,0,119,1,298295,0
298333,166,-2072,167,-44,11,-185,12555,-46,-33,-426,-152,35582,-64,34,127,0,0,3469,-43,0,2687,107,139,4221,-4,0,119,1,298311,0
298343,185,-2071,169,-50,9,-197,12522,-58,-55,-319,-160,35592,-50,34,127,0,0,3460,-98,0,2687,107,139,4231,-4,0,119,1,298358,0
298353,217,-2063,157,-67,-3,-178,12511,1,30,-482,-144,35591,-51,34,127,0,0,3460,-10,0,2687,107,139,4241,-4,0,119,1,298358,0
298363,218,-2069,160,-77,-5,-175,12507,-16,62,-571,-184,35586,-48,34,127,0,0,3454,-54,0,2687,107,139,4251,-4,0,119,1,298358,0
298373,216,-2073,151,-85,0,-169,12489,-45,-23,-514,-216,35576,-58,33,127,0,0,3451,-43,0,2687,107,139,4261,-4,0,119,1,298358,0
298383,227,-2072,160,-85,7,-167,12461,-51,-44,-424,-168,35574,-62,34,127,0,0,3447,-65,0,2687,107,139,4271,-4,0,119,1,298373,0
298393,262,-2051,161,-93,-2,-123,12446,-26,11,-548,-176,35581,-42,34,127,0,0,3443,-32,0,2687,107,139,4281,-4,0,119,1,298373,0
298403,254,-2033,141,-97,-14,-99,12431,-51,23,-548,-136,35583,-38,34,127,0,0,3440,-32,0,2687,107,139,4291,-4,0,119,1,298373,0
298413,201,-2028,116,-103,-18,-94,12395,-89,-49,-320,-144,35584,-37,34,127,0,0,3440,-43,0,2687,107,139,4301,-4,0,119,1,298420,0
298423,181,-2025,114,-97,4,-84,12376,-18,-2,-361,-104,35583,-19,34,127,0,0,3436,-43,0,2687,107,139,4311,-4,0,119,1,298420,0
298433,203,-2022,120,-83,-3,-74,12366,-25,51,-365,-112,35579,-11,34,127,0,0,3436,-21,0,2687,107,139,4321,-4,0,119,1,298420,0
298443,212,-2034,119,-87,-9,-68,12347,-53,-3,-291,-104,35582,12,34,127,0,0,3436,0,0,2687,107,139,4331,-4,0,119,1,298420,0
298453,188,-2034,105,-79,-4,-63,12341,0,3,-208,-56,35575,6,34,127,0,0,3436,21,0,2687,107,139,4341,-4,0,119,1,298436,0
298463,209,-2040,102,-70,-9,-60,12341,-19,42,-257,-72,35582,12,34,127,0,0,3436,10,0,2687,107,139,4351,-4,0,119,1,298467,0
298473,196,-2045,106,-62,-2,-60,12342,8,4,-293,-64,35581,2,34,127,0,0,3436,32,0,2687,107,139,4361,-4,0,119,1,298482,0
298483,191,-2040,113,-54,-2,-64,12343,8,12,-268,-80,35581,5,34,127,0,0,3432,-21,0,2687,107,139,4371,-4,0,119,1,298482,0
298493,197,-2030,116,-45,-5,-60,12339,-10,-1,-290,-72,35575,17,34,127,0,0,3434,0,0,2687,107,139,4381,-4,0,119,1,298482,0
298503,202,-2024,111,-37,-11,-53,12337,-23,-7,-337,-88,35573,15,33,127,0,0,3432,21,0,2687,107,139,4391,-4,0,119,1,298498,0
298513,170,-2022,122,-28,-13,-61,12338,6,4,-308,-56,35575,25,33,127,0,0,3432,-10,0,2687,107,139,4401,-4,0,119,1,298498,0
298523,184,-2032,113,-29,-11,-69,12337,1,6,-295,-56,35580,24,34,127,0,0,3429,-32,0,2687,107,139,4411,-4,0,119,1,298529,0
298533,188,-2031,115,-12,-2,-81,12337,-4,-4,-351,-120,35583,23,34,127,0,0,3427,-54,0,2687,107,139,4421,-4,0,119,1,298529,0
298543,198,-2038,124,-14,-5,-85,12334,-7,-4,-408,-56,35577,18,33,127,0,0,3427,-32,0,2687,107,139,4431,-4,0,119,1,298529,0
298553,216,-2034,123,1,-2,-81,12330,-10,-7,-429,-160,35574,3,34,127,0,0,3425,-43,0,2687,107,139,4441,-4,0,119,1,298529,0
298563,223,-2042,116,3,-8,-77,12328,-6,4,-449,-144,35574,12,34,127,0,0,3429,32,0,2687,107,139,4451,-4,0,119,1,298545,0
298573,212,-2046,134,0,-11,-64,12329,1,4,-433,-136,35582,9,34,127,0,0,3425,-32,0,2687,107,139,4461,-4,0,119,1,298561,0
298583,186,-2045,134,5,-3,-69,12327,9,6,-452,-136,35585,2,34,127,0,0,3425,-10,0,2687,107,139,4471,-4,0,119,1,298561,0
298593,189,-2042,129,4,-10,-74,12323,-12,-4,-513,-104,35580,15,34,127,0,0,3421,0,0,2687,107,139,4481,-4,0,119,1,298576,0
298603,193,-2033,131,7,-4,-78,12321,-9,2,-514,-144,35582,2,34,127,0,0,3421,-10,0,2687,107,139,4491,-4,0,119,1,298592,0
298613,197,-2023,129,7,-1,-76,12321,-1,3,-509,-144,35574,21,34,127,0,0,3421,-32,0,2687,107,139,4501,-4,0,119,1,298592,0
298623,197,-2037,143,6,-7,-79,12318,-17,-3,-572,-152,35577,15,34,127,0,0,3421,10,0,2687,107,139,4511,-4,0,119,1,298607,0
298633,173,-2052,155,7,-9,-88,12313,-18,-13,-567,-216,35582,23,34,127,0,0,3416,-32,0,2687,107,139,4521,-4,0,119,1,298607,0
298643,182,-2046,159,-2,-9,-91,12306,-11,-10,-557,-192,35589,22,34,127,0,0,3416,0,0,2687,107,139,4531,-4,0,119,1,298639,0
298653,193,-2059,146,-8,2,-106,12290,-45,-20,-466,-152,35591,8,34,127,0,0,3416,0,0,2687,107,139,4541,-4,0,119,1,298639,0
298663,196,-2058,138,-11,3,-115,12268,-45,-25,-371,-128,35589,-6,34,127,0,0,3414,-21,0,2687,107,139,4551,-4,0,119,1,298639,0
298673,222,-2050,142,-8,-1,-107,12264,2,31,-462,-176,35578,-19,34,127,0,0,3410,-32,0,2687,107,139,4561,-4,0,119,1,298670,0
298683,220,-2053,151,-16,-9,-103,12257,-17,33,-502,-152,35578,-33,34,127,0,0,3407,-32,0,2687,107,139,4571,-4,0,119,1,298701,0
298693,212,-2045,158,-19,-14,-95,12250,-23,-7,-549,-176,35582,-29,34,127,0,0,3405,-21,0,2687,107,139,4581,-4,0,119,1,298701,0
298703,222,-2041,137,-22,0,-89,12233,-41,-26,-435,-168,35578,-28,34,127,0,0,3403,-43,0,2687,107,139,4591,-4,0,119,1,298701,0
298713,231,-2042,145,-23,-13,-74,12204,-75,-43,-330,-112,35572,-13,34,127,0,0,3403,-21,0,2687,107,139,4601,-4,0,119,1,298701,0
298723,210,-2034,145,-28,-5,-66,12189,-5,6,-292,-80,35568,-25,34,127,0,0,3403,-21,0,2687,107,139,4611,-4,0,119,1,298701,0
298733,210,-2035,159,-39,-12,-55,12192,0,74,-328,-88,35582,-30,34,127,0,0,3403,0,0,2687,107,139,4621,-4,0,119,1,298717,0
298743,183,-2036,162,-38,-15,-60,12192,5,18,-321,-88,35595,-24,34,127,0,0,3403,0,0,2687,107,139,4631,-4,0,119,1,298732,0
298753,190,-2039,132,-43,-11,-62,12191,-5,-6,-324,-88,35603,-31,34,127,0,0,3401,-21,0,2687,107,139,4641,-4,0,119,1,298732,0
298763,199,-2035,139,-44,-5,-65,12189,-13,-6,-365,-112,35591,-22,33,127,0,0,3399,-32,0,2687,107,139,4651,-4,0,119,1,298748,0
298773,192,-2040,154,-47,-7,-80,12189,4,-3,-375,-112,35586,-41,34,127,0,0,3401,-10,0,2687,107,139,4661,-4,0,119,1,298764,0
298783,190,-2046,163,-54,-10,-79,12189,-2,3,-371,-112,35578,-42,34,127,0,0,3401,0,0,2687,107,139,4671,-4,0,119,1,298764,0
298793,202,-2043,159,-60,-4,-94,12188,6,-2,-387,-128,35583,-36,34,127,0,0,3399,-32,0,2687,107,139,4681,-4,0,119,1,298764,0
298803,208,-2042,143,-61,-13,-90,12185,-1,0,-431,-152,35588,-44,34,127,0,0,3396,-21,0,2687,107,139,4691,-4,0,119,1,298811,0
298813,187,-2035,132,-60,-12,-95,12176,-20,-10,-438,-160,35584,-41,34,127,0,0,3396,-21,0,2687,107,139,4701,-4,0,119,1,298811,0
298823,197,-2045,132,-59,-10,-98,12157,-48,-27,-347,-112,35591,-57,34,127,0,0,3396,0,0,2687,107,139,4711,-4,0,119,1,298842,0
298833,188,-2049,139,-61,-5,-107,12139,-17,-16,-249,-72,35587,-47,34,127,0,0,3394,-10,0,2687,107,139,4721,-4,0,119,1,298857,0
298843,217,-2048,143,-59,-7,-105,12140,-2,51,-358,-80,35589,-41,34,127,0,0,3390,-32,0,2687,107,139,4731,-4,0,119,1,298857,0
298853,215,-2027,139,-58,-7,-98,12135,-2,17,-381,-72,35585,-47,34,127,0,0,3388,-32,0,2687,107,139,4741,-4,0,119,1,298857,0
298863,218,-2033,134,-65,-16,-99,12135,-13,-2,-450,-128,35588,-43,34,127,0,0,3388,-32,0,2687,107,139,4751,-4,0,119,1,298857,0
298873,200,-2031,129,-60,-7,-108,12131,14,-6,-438,-112,35580,-46,34,127,0,0,3385,-21,0,2687,107,139,4761,-4,0,119,1,298857,0
298883,200,-2020,144,-53,-5,-125,12128,-6,5,-514,-136,35587,-40,34,127,0,0,3385,0,0,2687,107,139,4771,-4,0,119,1,298857,0
298893,167,-2037,162,-68,-7,-141,12124,-9,-4,-513,-152,35595,-36,34,127,0,0,3381,-32,0,2687,107,139,4781,-4,0,119,1,298904,0
298903,154,-2037,162,-73,-2,-162,12115,-22,-16,-579,-200,35600,-41,34,127,0,0,3377,-43,0,2687,107,139,4791,-4,0,119,1,298904,0
298913,170,-2038,128,-79,1,-201,12091,-58,-39,-513,-200,35590,-41,34,127,0,0,3372,-54,0,2687,107,139,4801,-4,0,119,1,298904,0
298923,153,-2045,130,-77,9,-223,12054,-62,-50,-451,-152,35584,-50,34,127,0,0,3368,-32,0,2687,107,139,4811,-4,0,119,1,298904,0
298933,217,-2048,159,-71,-5,-232,12037,-31,24,-528,-200,35584,-34,34,127,0,0,3359,-109,0,2687,107,139,4821,-4,0,119,1,298920,0
298943,221,-2052,169,-83,-10,-244,11994,-105,-16,-435,-144,35599,-55,34,127,0,0,3355,-32,0,2687,107,139,4831,-4,0,119,1,298936,0
298953,253,-2045,137,-79,-9,-229,11967,-57,-13,-463,-176,35603,-71,34,127,0,0,3350,-54,0,2687,107,139,4841,-4,0,119,1,298936,0
298963,270,-2034,114,-79,-3,-219,11929,-85,7,-399,-136,35601,-88,34,127,0,0,3344,-43,0,2687,107,139,4851,-4,0,119,1,298951,0
298973,283,-2047,101,-57,-13,-184,11917,-12,29,-531,-152,35594,-101,34,127,0,0,3342,-32,0,2687,107,139,4861,-4,0,119,1,298951,0
298983,301,-2045,107,-52,-15,-167,11912,-23,61,-612,-192,35598,-115,34,127,0,0,3339,-21,0,2687,107,139,4871,-4,0,119,1,298967,0
298993,282,-2029,121,-41,-10,-126,11889,-54,-34,-493,-168,35600,-116,34,127,0,0,3335,-43,0,2687,107,139,4881,-4,0,119,1,298967,0
299003,266,-2034,128,-41,-10,-115,11861,-29,-33,-455,-168,35602,-95,34,127,0,0,3335,0,0,2687,107,139,4891,-4,0,119,1,299014,0
299013,271,-2025,135,-39,-20,-84,11857,-2,52,-493,-120,35598,-69,34,127,0,0,3333,0,0,2687,107,139,4901,-4,0,119,1,299014,0
299023,248,-2025,134,-43,-15,-67,11856,-18,40,-502,-128,35592,-61,34,127,0,0,3335,10,0,2687,107,139,4911,-4,0,119,1,299014,0
299033,239,-2023,117,-41,-7,-63,11856,-9,-6,-540,-104,35593,-57,34,127,0,0,3335,32,0,2687,107,139,4921,-4,0,119,1,299014,0
299043,268,-2029,112,-24,13,-61,11854,-11,-3,-521,-144,35581,-62,34,127,0,0,3333,0,0,2687,107,139,4931,-4,0,119,1,299014,0
299053,250,-2041,149,-27,-15,-48,11855,-6,0,-534,-144,35588,-68,34,127,0,0,3333,10,0,2687,107,139,4941,-4,0,119,1,299045,0
299063,245,-2038,160,-33,-18,-51,11856,10,8,-519,-144,35588,-68,34,127,0,0,3335,0,0,2687,107,139,4951,-4,0,119,1,299045,0
299073,227,-2043,154,-39,-9,-50,11854,-5,5,-529,-176,35589,-73,34,127,0,0,3335,32,0,2687,107,139,4961,-4,0,119,1,299045,0
299083,216,-2044,135,-44,1,-51,11856,8,3,-486,-152,35595,-71,34,127,0,0,3333,-32,0,2687,107,139,4971,-4,0,119,1,299060,0
299093,223,-2040,122,-45,-17,-55,11852,-5,-2,-486,-152,35600,-62,34,127,0,0,3333,-21,0,2687,107,139,4981,-4,0,119,1,299076,0
299103,250,-2044,134,-45,-10,-49,11853,5,-4,-491,-152,35609,-51,34,127,0,0,3335,0,0,2687,107,139,4991,-4,0,119,1,299123,0
299113,274,-2043,134,-42,-6,-54,11851,-12,-2,-520,-184,35612,-51,34,127,0,0,3335,32,0,2687,107,139,5001,-4,0,119,1,299123,0
299123,227,-2045,142,-43,-11,-38,11850,5,-10,-440,-112,35597,-59,34,127,0,0,3333,-10,0,2687,107,139,5011,-4,0,119,1,299123,0
299133,223,-2050,154,-44,-18,-42,11848,-14,4,-519,-168,35593,-70,34,127,0,0,3333,0,0,2687,107,139,5021,-4,0,119,1,299123,0
299143,211,-2052,151,-44,-6,-44,11843,-5,-11,-432,-168,35579,-68,34,127,0,0,3335,10,0,2687,107,139,5031,-4,0,119,1,299123,0
299153,223,-2044,128,-51,-7,-39,11840,0,3,-394,-80,35587,-58,34,127,0,0,3335,10,0,2687,107,139,5041,-4,0,119,1,299123,0
299163,239,-2042,124,-46,-4,-45,11839,-3,6,-390,-112,35592,-58,34,127,0,0,3333,-10,0,2687,107,139,5051,-4,0,119,1,299154,0
299173,232,-2039,136,-45,-12,-45,11835,-11,-2,-385,-104,35596,-45,34,127,0,0,3335,10,0,2687,107,139,5061,-4,0,119,1,299154,0
299183,224,-2038,143,-48,-18,-49,11835,11,-2,-314,-128,35593,-54,33,127,0,0,3335,-21,0,2687,107,139,5071,-4,0,119,1,299170,0
299193,215,-2031,135,-47,-12,-43,11831,-1,2,-299,-64,35585,-56,34,127,0,0,3335,-10,0,2687,107,139,5081,-4,0,119,1,299185,0
299203,259,-2026,123,-42,-6,-44,11829,-5,-2,-308,-104,35589,-58,34,127,0,0,3333,-21,0,2687,107,139,5091,-4,0,119,1,299185,0
299213,220,-2024,124,-31,-15,-42,11824,-15,-10,-305,-48,35587,-58,34,127,0,0,3335,10,0,2687,107,139,5101,-4,0,119,1,299201,0
299223,247,-2028,136,-39,-13,-42,11823,10,3,-229,-56,35593,-52,34,127,0,0,3335,0,0,2687,107,139,5111,-4,0,119,1,299201,0
299233,233,-2027,149,-34,-14,-36,11824,4,18,-252,-88,35585,-45,34,127,0,0,3335,0,0,2687,107,139,5121,-4,0,119,1,299217,0
299243,220,-2028,141,-34,-10,-30,11822,-1,1,-224,-56,35592,-48,34,127,0,0,3335,0,0,2687,107,139,5131,-4,0,119,1,299217,0
299253,203,-2048,136,-43,-12,-37,11822,0,6,-222,-56,35588,-56,34,127,0,0,3335,0,0,2687,107,139,5141,-4,0,119,1,299232,0
299263,221,-2035,126,-39,-4,-37,11821,-6,-1,-248,-88,35586,-56,34,127,0,0,3337,21,0,2687,107,139,5151,-4,0,119,1,299264,0
299273,262,-2045,134,-37,-4,-43,11821,-5,-2,-205,-56,35585,-59,34,127,0,0,3335,0,0,2687,107,139,5161,-4,0,119,1,299264,0
299283,233,-2052,143,-36,-6,-48,11821,0,-3,-222,-48,35585,-63,34,127,0,0,3333,-21,0,2687,107,139,5171,-4,0,119,1,299279,0
299293,222,-2038,133,-40,-8,-48,11819,-13,-6,-279,-72,35589,-69,34,127,0,0,3335,10,0,2687,107,139,5181,-4,0,119,1,299279,0
299303,239,-2036,128,-41,-10,-48,11819,0,3,-228,-48,35587,-58,34,127,0,0,3335,0,0,2687,107,139,5191,-4,0,119,1,299279,0
299313,220,-2040,134,-31,-20,-46,11816,-3,-1,-243,-32,35595,-58,34,127,0,0,3335,10,0,2687,107,139,5201,-4,0,119,1,299326,0
299323,236,-2043,134,-39,-19,-45,11818,-6,2,-256,-32,35600,-53,34,127,0,0,3335,43,0,2687,107,139,5211,-4,0,119,1,299342,0
299333,255,-2030,119,-24,-9,-51,11817,-11,-2,-261,-112,35600,-56,34,127,0,0,3335,10,0,2687,107,139,5221,-4,0,119,1,299342,0
299343,205,-2053,125,-18,-22,-42,11814,3,-8,-233,-64,35588,-55,33,127,0,0,3337,54,0,2687,107,139,5231,-4,0,119,1,299342,0
299353,242,-2031,122,-23,-10,-39,11817,3,5,-189,-72,35577,-53,34,127,0,0,3335,-10,0,2687,107,139,5241,-4,0,119,1,299342,0
299363,210,-2044,108,-15,-7,-40,11815,-3,-3,-195,-40,35574,-65,34,127,0,0,3335,10,0,2687,107,139,5251,-4,0,119,1,299342,0
299373,202,-2027,105,8,-10,-53,11813,-14,-8,-249,-96,35583,-49,34,127,0,0,3333,10,0,2687,107,139,5261,-4,0,119,1,299342,0
299383,219,-2020,106,5,-3,-56,11815,12,2,-236,-80,35591,-57,34,127,0,0,3335,10,0,2687,107,139,5271,-4,0,119,1,299373,0
299393,197,-2051,162,8,-4,-62,11814,6,4,-186,-40,35597,-64,34,127,0,0,3333,-21,0,2687,107,139,5281,-4,0,119,1,299389,0
299403,223,-2054,184,3,-6,-78,11815,4,-12,-214,-40,35590,-54,34,127,0,0,3333,0,0,2687,107,139,5291,-4,0,119,1,299389,0
299413,195,-2050,189,-20,3,-103,11814,-5,-5,-239,-72,35589,-62,34,127,0,0,3331,-32,0,2687,107,139,5301,-4,0,119,1,299389,0
299423,213,-2050,184,-21,-2,-105,11810,-8,-7,-326,-72,35588,-45,34,127,0,0,3331,0,0,2687,107,139,5311,-4,0,119,1,299420,0
299433,244,-2032,167,-33,-13,-103,11805,-20,-12,-342,-48,35590,-50,34,127,0,0,3328,32,0,2687,107,139,5321,-4,0,119,1,299420,0
299443,242,-2025,152,-30,-8,-104,11805,5,5,-317,-104,35597,-45,34,127,0,0,3326,-43,0,2687,107,139,5331,-4,0,119,1,299420,0
299453,234,-2028,151,-43,-11,-112,11802,-8,1,-364,-104,35592,-50,34,127,0,0,3326,0,0,2687,107,139,5341,-4,0,119,1,299451,0
299463,239,-2038,154,-41,-1,-110,11800,-3,-1,-394,-176,35585,-50,34,127,0,0,3322,-43,0,2687,107,139,5351,-4,0,119,1,299451,0
299473,242,-2039,149,-54,-16,-103,11795,-11,2,-443,-144,35579,-54,34,127,0,0,3322,0,0,2687,107,139,5361,-4,0,119,1,299451,0
299483,227,-2053,150,-53,-12,-103,11788,-8,-7,-412,-160,35579,-54,34,127,0,0,3315,-76,0,2687,107,139,5371,-4,0,119,1,299482,0
299493,240,-2036,128,-49,-7,-103,11771,-51,-15,-428,-136,35584,-53,33,127,0,0,3317,-10,0,2687,107,139,5381,-4,0,119,1,299482,0
299503,256,-2031,119,-50,-10,-100,11742,-62,-45,-242,-88,35590,-47,34,127,0,0,3317,10,0,2687,107,139,5391,-4,0,119,1,299482,0
299513,275,-2029,122,-36,-4,-82,11742,18,42,-320,-72,35586,-40,33,127,0,0,3317,10,0,2687,107,139,5401,-4,0,119,1,299482,0
299523,267,-2032,143,-31,-17,-75,11739,-9,48,-337,-48,35589,-43,34,127,0,0,3313,-21,0,2687,107,139,5411,-4,0,119,1,299529,0
299533,238,-2043,159,-33,-15,-71,11737,-12,-11,-416,-120,35595,-47,34,127,0,0,3313,10,0,2687,107,139,5421,-4,0,119,1,299529,0
299543,242,-2042,145,-37,-7,-68,11737,-1,3,-419,-120,35598,-44,34,127,0,0,3313,-10,0,2687,107,139,5431,-4,0,119,1,299560,0
299553,228,-2040,144,-40,-11,-66,11736,7,4,-434,-136,35582,-34,34,127,0,0,3311,-21,0,2687,107,139,5441,-4,0,119,1,299560,0
299563,238,-2048,141,-42,-11,-71,11732,0,-2,-449,-128,35571,-30,34,127,0,0,3311,0,0,2687,107,139,5451,-4,0,119,1,299592,0
299573,267,-2027,112,-39,-5,-67,11734,7,12,-418,-112,35568,-31,34,127,0,0,3313,21,0,2687,107,139,5461,-4,0,119,1,299592,0
299583,255,-2028,109,-29,-14,-53,11730,-11,-4,-457,-152,35575,-42,34,127,0,0,3309,0,0,2687,107,139,5471,-4,0,119,1,299592,0
299593,258,-2036,110,-20,-3,-58,11730,-4,-2,-471,-160,35574,-40,34,127,0,0,3311,10,0,2687,107,139,5481,-4,0,119,1,299592,0
299603,228,-2042,145,-6,-7,-50,11732,12,4,-452,-120,35577,-41,34,127,0,0,3309,-21,0,2687,107,139,5491,-4,0,119,1,299592,0
299613,238,-2038,148,-9,-7,-51,11729,-3,4,-478,-144,35574,-43,34,127,0,0,3309,10,0,2687,107,139,5501,-4,0,119,1,299592,0
299623,256,-2029,139,-10,0,-47,11729,-12,2,-471,-160,35581,-45,34,127,0,0,3309,-10,0,2687,107,139,5511,-4,0,119,1,299607,0
299633,238,-2036,161,-21,-4,-47,11729,0,-3,-477,-144,35592,-48,34,127,0,0,3309,0,0,2687,107,139,5521,-4,0,119,1,299607,0
299643,239,-2038,167,-21,-2,-49,11729,0,4,-480,-144,35597,-46,34,127,0,0,3306,-21,0,2687,107,139,5531,-4,0,119,1,299670,0
299653,209,-2051,173,-40,-12,-58,11729,-6,-2,-499,-144,35588,-50,34,127,0,0,3304,-43,0,2687,107,139,5541,-4,0,119,1,299670,0
299663,235,-2045,169,-39,-7,-69,11726,2,-3,-530,-128,35579,-39,34,127,0,0,3304,-65,0,2687,107,139,5551,-4,0,119,1,299670,0
299673,218,-2021,145,-45,-1,-80,11722,0,2,-544,-192,35582,-29,34,127,0,0,3306,0,0,2687,107,139,5561,-4,0,119,1,299670,0
299683,234,-2029,133,-44,-10,-77,11720,-5,2,-539,-184,35576,-35,33,127,0,0,3302,-32,0,2687,107,139,5571,-4,0,119,1,299670,0
299693,243,-2027,144,-37,-10,-70,11712,-20,-12,-551,-160,35572,-48,34,127,0,0,3304,10,0,2687,107,139,5581,-4,0,119,1,299670,0
299703,272,-2033,140,-43,-1,-60,11708,-7,-7,-484,-160,35580,-56,34,127,0,0,3304,-10,0,2687,107,139,5591,-4,0,119,1,299685,0
299713,280,-2036,143,-35,-8,-49,11702,-20,5,-499,-128,35597,-64,34,127,0,0,3302,21,0,2687,107,139,5601,-4,0,119,1,299701,0
299723,286,-2031,136,-38,-8,-42,11691,-19,-5,-442,-184,35595,-60,34,127,0,0,3302,0,0,2687,107,139,5611,-4,0,119,1,299701,0
299733,237,-2041,139,-29,-10,-26,11683,-7,-1,-390,-128,35586,-67,34,127,0,0,3302,-54,0,2687,107,139,5621,-4,0,119,1,299717,0
299743,248,-2035,148,-34,-3,-23,11681,-7,12,-403,-96,35588,-44,34,127,0,0,3304,10,0,2687,107,139,5631,-4,0,119,1,299748,0
299753,232,-2040,154,-43,-11,-25,11680,-7,7,-409,-80,35593,-49,34,127,0,0,3302,10,0,2687,107,139,5641,-4,0,119,1,299748,0
299763,247,-2043,160,-38,-8,-32,11681,-5,6,-392,-48,35595,-40,34,127,0,0,3306,32,0,2687,107,139,5651,-4,0,119,1,299748,0
299773,229,-2041,146,-40,-6,-39,11682,-9,1,-376,-128,35587,-46,34,127,0,0,3302,-10,0,2687,107,139,5661,-4,0,119,1,299748,0
299783,211,-2042,141,-38,-3,-42,11678,-4,-10,-411,-120,35583,-57,34,127,0,0,3302,0,0,2687,107,139,5671,-4,0,119,1,299779,0
299793,243,-2034,136,-30,1,-46,11679,-5,4,-399,-128,35593,-56,34,127,0,0,3304,0,0,2687,107,139,5681,-4,0,119,1,299795,0
299803,250,-2032,124,-36,-4,-40,11679,-2,4,-424,-112,35593,-61,34,127,0,0,3306,54,0,2687,107,139,5691,-4,0,119,1,299795,0
299813,274,-2032,134,-36,-11,-32,11680,-1,-1,-363,-88,35585,-56,33,127,0,0,3304,0,0,2687,107,139,5701,-4,0,119,1,299795,0
299823,257,-2049,139,-28,-1,-31,11679,11,-1,-431,-136,35574,-45,34,127,0,0,3304,21,0,2687,107,139,5711,-4,0,119,1,299795,0
299833,265,-2030,142,-24,2,-37,11681,15,10,-328,-64,35590,-50,34,127,0,0,3302,-32,0,2687,107,139,5721,-4,0,119,1,299826,0
299843,236,-2031,145,-27,-3,-37,11674,-25,-7,-392,-112,35604,-34,34,127,0,0,3302,0,0,2687,107,139,5731,-4,0,119,1,299826,0
299853,241,-2030,147,-21,3,-37,11680,18,-6,-342,-104,35608,-42,34,127,0,0,3302,-43,0,2687,107,139,5741,-4,0,119,1,299873,0
299863,226,-2027,144,-20,2,-41,11676,-9,3,-355,-120,35600,-43,34,127,0,0,3302,-21,0,2687,107,139,5751,-4,0,119,1,299873,0
299873,258,-2042,150,-24,-3,-40,11676,-8,-8,-390,-88,35584,-35,34,127,0,0,3304,43,0,2687,107,139,5761,-4,0,119,1,299873,0
299883,242,-2028,152,-25,-6,-43,11680,5,10,-328,-96,35589,-43,34,127,0,0,3304,-10,0,2687,107,139,5771,-4,0,119,1,299873,0
299893,249,-2045,145,-25,6,-52,11676,-15,-10,-368,-88,35574,-33,34,127,0,0,3302,-10,0,2687,107,139,5781,-4,0,119,1,299888,0
299903,245,-2026,147,-20,7,-53,11678,-5,-10,-368,-88,35576,-48,34,127,0,0,3306,21,0,2687,107,139,5791,-4,0,119,1,299888,0
299913,275,-2030,146,-21,-3,-41,11678,-1,0,-331,-96,35590,-47,34,127,0,0,3306,21,0,2687,107,139,5801,-4,0,119,1,299998,0
299923,247,-2038,144,-20,3,-44,11680,12,2,-326,-96,35606,-50,34,127,0,0,3306,21,0,2687,107,139,5811,-4,0,119,1,299998,0
299933,261,-2018,141,-17,-11,-39,11680,18,3,-301,-96,35607,-49,34,127,0,0,3304,-10,0,2687,107,139,5821,-4,0,119,1,299998,0
299943,271,-2041,147,-15,-7,-42,11678,-6,1,-323,-56,35594,-37,34,127,0,0,3302,-21,0,2687,107,139,5831,-4,0,119,1,300013,0
299953,208,-2033,156,-19,-9,-38,11678,-8,-6,-336,-56,35577,-41,34,127,0,0,3302,-21,0,2687,107,139,5841,-4,0,119,1,300013,0
299963,249,-2024,150,-19,-11,-42,11679,0,5,-348,-96,35575,-39,34,127,0,0,3304,-32,0,2687,107,139,5851,-4,0,119,1,300013,0
299973,223,-2038,139,-21,-2,-32,11680,14,0,-304,-56,35579,-45,34,127,0,0,3304,-21,0,2687,107,139,5861,-4,0,119,1,300013,0
299983,251,-2040,133,-6,-3,-36,11677,-14,-6,-342,-88,35578,-52,33,127,0,0,3306,32,0,2687,107,139,5871,-4,0,119,1,300013,0
299993,247,-2042,146,-1,2,-45,11682,9,12,-302,-112,35579,-48,33,127,0,0,3306,0,0,2687,107,139,5881,-4,0,119,1,300013,0
300003,221,-2044,163,-3,-8,-41,11678,-4,-2,-359,-112,35580,-51,34,127,0,0,3302,-10,0,2687,107,139,5891,-4,0,119,1,300013,0
300013,233,-2036,170,-15,-3,-48,11679,4,-6,-349,-88,35585,-33,34,127,0,0,3304,0,0,2687,107,139,5901,-4,0,119,1,300013,0
300023,218,-2039,166,-17,-11,-53,11677,-6,4,-348,-88,35582,-37,34,127,0,0,3304,-10,0,2687,107,139,5911,-4,0,119,1,300013,0
300033,230,-2039,149,-18,-5,-52,11679,5,0,-321,-96,35586,-39,34,127,0,0,3304,0,0,2687,107,139,5921,-4,0,119,1,300013,0
300043,236,-2029,154,-22,-8,-53,11678,2,3,-327,-104,35593,-36,34,127,0,0,3306,21,0,2687,107,139,5931,-4,0,119,1,300013,0
300053,246,-2036,161,-20,-16,-49,11678,0,-5,-324,-96,35618,-50,34,127,0,0,3302,-32,0,2687,107,139,5941,-4,0,119,1,300060,0
300063,237,-2034,148,-24,-10,-59,11679,12,2,-341,-136,35617,-43,34,127,0,0,3304,0,0,2687,107,139,5951,-4,0,119,1,300091,0
300073,234,-2038,157,-23,-13,-57,11678,-3,3,-309,-104,35606,-37,34,127,0,0,3302,-54,0,2687,107,139,5961,-4,0,119,1,300091,0
300083,226,-2037,171,-24,-15,-63,11677,-1,-3,-367,-72,35606,-37,34,127,0,0,3304,0,0,2687,107,139,5971,-4,0,119,1,300091,0
300093,205,-2042,161,-28,-13,-70,11680,5,11,-317,-56,35596,-50,34,127,0,0,3302,-43,0,2687,107,139,5981,-4,0,119,1,300091,0
300103,194,-2034,151,-27,-19,-83,11674,-9,-5,-371,-72,35610,-61,34,127,0,0,3300,-32,0,2687,107,139,5991,-4,0,119,1,300091,0
300113,221,-2018,153,-23,1,-109,11674,-7,-5,-455,-96,35614,-43,34,127,0,0,3298,-43,0,2687,107,139,6001,-4,0,119,1,300091,0
300123,189,-2038,152,-25,7,-119,11675,2,8,-476,-176,35610,-41,34,127,0,0,3298,-43,0,2687,107,139,6011,-4,0,119,1,300107,0
300133,276,-2015,151,-15,4,-106,11670,-2,-1,-507,-144,35606,-43,34,127,0,0,3298,0,0,2687,107,139,6021,-4,0,119,1,300107,0
300143,285,-2024,154,-23,-10,-97,11669,-3,1,-535,-176,35609,-45,34,127,0,0,3295,-43,0,2687,107,139,6031,-4,0,119,1,300138,0
300153,251,-2031,148,-7,-5,-79,11666,1,-1,-514,-208,35609,-36,34,127,0,0,3293,-54,0,2687,107,139,6041,-4,0,119,1,300138,0
300163,273,-2036,152,-12,-8,-70,11662,-5,-1,-529,-200,35599,-37,34,127,0,0,3293,-32,0,2687,107,139,6051,-4,0,119,1,300154,0
300173,271,-2039,149,-7,-7,-55,11662,-9,3,-544,-104,35594,-36,34,127,0,0,3293,0,0,2687,107,139,6061,-4,0,119,1,300154,0
300183,290,-2035,149,-7,-2,-48,11657,-8,-7,-565,-168,35592,-35,34,127,0,0,3293,0,0,2687,107,139,6071,-4,0,119,1,300185,0
300193,244,-2035,150,-5,-10,-31,11651,-1,-5,-509,-152,35594,-21,34,127,0,0,3293,-21,0,2687,107,139,6081,-4,0,119,1,300185,0
300203,255,-2034,149,0,1,-34,11646,-19,2,-490,-144,35589,-32,34,127,0,0,3293,-10,0,2687,107,139,6091,-4,0,119,1,300185,0
300213,252,-2035,141,2,-6,-37,11629,-43,-25,-387,-112,35579,-15,34,127,0,0,3293,0,0,2687,107,139,6101,-4,0,119,1,300201,0
300223,268,-2032,134,-8,-11,-45,11606,-32,-33,-266,-56,35588,-24,34,127,0,0,3293,-10,0,2687,107,139,6111,-4,0,119,1,300216,0
300233,505,-2171,107,-16,-15,-120,11607,4,50,-311,-88,35596,-7,34,127,0,0,3293,10,0,2687,107,139,6121,-4,0,119,1,300216,0
300243,867,-1973,-20,-84,12,-428,11607,10,41,-296,-64,35593,9,34,127,0,0,3291,-10,0,2687,107,139,6131,-4,0,119,1,300216,0
300253,183,-2034,-125,-111,25,-480,11596,-51,-23,-550,-312,35589,5,34,127,0,0,3260,-307,0,2687,107,139,6141,-4,0,119,1,300248,0
300263,414,-1840,259,26,-46,-112,11519,-207,-160,-541,-312,35595,14,34,127,0,0,3256,-76,0,2687,107,139,6151,-4,0,119,1,300248,0
300273,148,-2267,302,-20,-57,-79,11452,-133,-106,-380,-176,35590,4,34,127,0,0,3256,32,0,2687,107,139,6161,-4,0,119,1,300248,0
300283,498,-2067,52,-99,41,-332,11419,-56,101,-304,-88,35595,2,34,127,0,0,3251,-21,0,2687,107,139,6171,-4,0,119,1,300326,0
300293,760,-1874,-175,-161,46,-555,11405,-24,106,-422,-192,35591,-13,34,127,0,0,3236,-208,0,2687,107,139,6181,-4,0,119,1,300341,0
300303,747,-1907,4,-87,-47,-264,11364,-120,-26,-580,-312,35596,-32,34,127,0,0,3227,-87,0,2687,107,139,6191,-4,0,119,1,300341,0
300313,306,-2123,198,-69,-104,-105,11294,-136,-112,-397,-240,35591,-30,34,127,0,0,3221,-65,0,2687,107,139,6201,-4,0,119,1,300341,0
300323,412,-2119,130,-100,-13,-300,11252,-44,26,-354,-128,35574,-29,34,127,0,0,3218,-43,0,2687,107,139,6211,-4,0,119,1,300341,0
300333,647,-1966,10,-153,40,-490,11248,-11,135,-623,-280,35568,-25,34,127,0,0,3205,-142,0,2687,107,139,6221,-4,0,119,1,300341,0
300343,621,-1908,7,-146,-35,-427,11198,-137,-34,-534,-288,35568,-29,34,127,0,0,3197,-87,0,2687,107,139,6231,-4,0,119,1,300341,0
300353,422,-1992,82,-113,-99,-243,11129,-166,-128,-435,-216,35575,-61,33,127,0,0,3190,10,0,2687,107,139,6241,-4,0,119,1,300341,0
300363,359,-2077,75,-121,-57,-287,11089,-76,30,-445,-168,35573,-73,34,127,0,0,3186,-54,0,2687,107,139,6251,-4,0,119,1,300341,0
300373,486,-2049,69,-112,29,-449,11066,-22,99,-457,-176,35586,-77,34,127,0,0,3179,-76,0,2687,107,139,6261,-4,0,119,1,300341,0
300383,599,-1999,113,-136,-9,-444,11059,-24,64,-672,-208,35603,-62,34,127,0,0,3172,-54,0,2687,107,139,6271,-4,0,119,1,300373,0
300393,493,-2034,151,-160,-90,-371,11030,-84,-29,-631,-256,35614,-72,34,127,0,0,3161,-76,0,2687,107,139,6281,-4,0,119,1,300373,0
300403,386,-2054,142,-163,-83,-397,10974,-110,-99,-401,-176,35603,-67,33,127,0,0,3157,-76,0,2687,107,139,6291,-4,0,119,1,300373,0
300413,333,-2065,137,-162,-21,-510,10930,-80,-25,-358,-144,35584,-53,34,127,0,0,3150,-87,0,2687,107,139,6301,-4,0,119,1,300404,0
300423,360,-2058,154,-181,-9,-549,10916,-26,88,-668,-248,35579,-45,34,127,0,0,3139,-87,0,2687,107,139,6311,-4,0,119,1,300404,0
300433,417,-2051,216,-231,-89,-544,10874,-119,6,-578,-264,35580,-54,34,127,0,0,3128,-98,0,2687,107,139,6321,-4,0,119,1,300420,0
300443,347,-2118,203,-246,-103,-557,10818,-130,-81,-519,-248,35593,-50,34,127,0,0,3122,-43,0,2687,107,139,6331,-4,0,119,1,300435,0
300453,340,-2078,113,-264,-75,-640,10760,-108,-26,-433,-200,35587,-20,34,127,0,0,3111,-98,0,2687,107,139,6341,-4,0,119,1,300435,0
300463,406,-2095,106,-236,-63,-670,10721,-66,37,-536,-280,35584,6,34,127,0,0,3100,-87,0,2687,107,139,6351,-4,0,119,1,300451,0
300473,447,-2097,151,-200,-107,-658,10698,-69,58,-674,-288,35578,16,34,127,0,0,3091,-98,0,2687,107,139,6361,-4,0,119,1,300451,0
300483,361,-2052,191,-157,-126,-659,10652,-80,-13,-588,-304,35581,10,34,127,0,0,3080,-98,0,2687,107,139,6371,-4,0,119,1,300482,0
300493,404,-2018,155,-165,-104,-622,10595,-140,-45,-551,-232,35585,-5,34,127,0,0,3071,-43,0,2687,107,139,6381,-4,0,119,1,300482,0
300503,434,-2001,98,-191,-97,-611,10533,-134,-33,-431,-216,35587,-25,34,127,0,0,3062,-120,0,2687,107,139,6391,-4,0,119,1,300482,0
300513,520,-2048,103,-203,-126,-556,10489,-95,28,-461,-192,35588,-31,34,127,0,0,3060,-32,0,2687,107,139,6401,-4,0,119,1,300498,0
300523,465,-2038,123,-195,-167,-520,10469,-19,81,-501,-160,35589,-43,34,127,0,0,3054,-54,0,2687,107,139,6411,-4,0,119,1,300513,0
300533,426,-2116,112,-213,-214,-462,10467,14,84,-611,-208,35587,-28,34,127,0,0,3054,-54,0,2687,107,139,6421,-4,0,119,1,300513,0
300543,408,-2103,99,-208,-207,-467,10458,-25,20,-598,-192,35579,-25,34,127,0,0,3054,10,0,2687,107,139,6431,-4,0,119,1,300513,0
300553,398,-2047,3,-154,-180,-477,10456,6,-1,-553,-120,35578,-11,34,127,0,0,3058,0,0,2687,107,139,6441,-4,0,119,1,300545,0
300563,369,-2042,7,-140,-156,-461,10459,7,27,-484,-136,35586,-23,34,127,0,0,3060,10,0,2687,107,139,6451,-4,0,119,1,300545,0
300573,283,-2116,38,-134,-138,-356,10460,-1,3,-434,-88,35584,-30,34,127,0,0,3065,76,0,2687,107,139,6461,-4,0,119,1,300545,0
300583,482,-2135,26,-113,-63,-299,10467,32,13,-197,-8,35583,-26,34,127,0,0,3082,153,0,2687,107,139,6471,-4,0,119,1,300576,0
300593,551,-2062,-2,-58,-73,-143,10505,88,74,143,128,35578,-27,34,127,0,0,3098,164,0,2687,107,139,6481,-4,0,119,1,300576,0
300603,587,-2022,16,-26,-118,-39,10566,136,98,235,200,35584,-28,34,127,0,0,3124,252,0,2687,107,139,6491,-4,0,119,1,300607,0
300613,622,-2024,26,32,-223,100,10641,184,72,381,336,35579,-39,34,127,0,0,3157,373,0,2687,107,139,6501,-4,0,119,1,300623,0
300623,618,-2075,52,46,-265,166,10764,300,130,357,416,35571,-19,33,127,0,0,3186,274,0,2687,107,139,6511,-4,0,119,1,300623,0
300633,504,-2081,130,51,-262,224,10902,300,119,346,488,35567,-14,33,127,0,0,3221,351,0,2687,107,139,6521,-4,0,119,1,300623,0
300643,430,-2091,77,58,-246,236,11052,334,37,382,560,35577,-22,34,127,0,0,3256,329,0,2687,107,139,6531,-4,0,119,1,300623,0
300653,423,-2130,18,74,-205,242,11213,356,44,392,560,35580,-32,34,127,0,0,3289,296,0,2687,107,139,6541,-4,0,119,1,300716,0
300663,413,-2115,67,93,-190,247,11374,351,23,394,656,35580,-34,34,127,0,0,3326,351,0,2687,107,139,6551,-4,0,119,1,300716,0
300673,340,-2098,101,95,-207,296,11543,378,13,433,680,35576,-26,34,127,0,0,3359,318,0,2687,107,139,6561,-4,0,119,1,300732,0
300683,387,-2110,95,108,-202,344,11722,402,34,412,712,35572,-5,34,127,0,0,3403,406,0,2687,107,139,6571,-4,0,119,1,300732,0
300693,321,-2046,62,144,-182,356,11903,401,24,421,800,35571,-19,34,127,0,0,3449,439,0,2687,107,139,6581,-4,0,119,1,300732,0
300703,344,-2001,52,154,-175,344,12094,423,27,482,856,35568,-24,34,127,0,0,3493,428,0,2687,107,139,6591,-4,0,119,1,300748,0
300713,430,-1988,42,131,-129,277,12296,435,37,443,928,35562,-22,34,127,0,0,3537,428,0,2687,107,139,6601,-4,0,119,1,300748,0
300723,398,-1952,45,115,-97,260,12499,456,18,492,968,35568,-15,34,127,0,0,3579,395,0,2687,107,139,6611,-4,0,119,1,300748,0
300733,393,-1924,80,109,-55,240,12707,454,20,405,904,35574,-21,34,127,0,0,3616,384,0,2687,107,139,6621,-4,0,119,1,300748,0
300743,398,-1906,116,98,-44,216,12906,434,-13,439,920,35574,-33,34,127,0,0,3654,384,0,2687,107,139,6631,-4,0,119,1,300748,0
300753,395,-1935,132,97,-60,198,13103,435,-22,462,888,35579,-26,34,127,0,0,3684,329,0,2687,107,139,6641,-4,0,119,1,300748,0
300763,435,-1931,133,101,-78,195,13296,422,-8,481,960,35580,-14,34,127,0,0,3722,362,0,2687,107,139,6651,-4,0,119,1,300748,0
300773,409,-1900,118,103,-115,220,13492,430,-2,427,904,35601,-15,34,127,0,0,3755,318,0,2687,107,139,6661,-4,0,119,1,300763,0
300783,395,-1905,125,88,-126,195,13684,408,2,449,896,35615,-25,34,127,0,0,3790,329,0,2687,107,139,6671,-4,0,119,1,300763,0
300793,409,-1898,129,105,-91,123,13872,411,-19,456,840,35615,-33,34,127,0,0,3818,263,0,2687,107,139,6681,-4,0,119,1,300794,0
300803,444,-1876,108,90,-70,79,14059,406,-5,428,776,35607,-32,34,127,0,0,3845,252,0,2687,107,139,6691,-4,0,119,1,300794,0
300813,466,-1843,129,45,-59,39,14230,370,-32,404,648,35594,-38,34,127,0,0,3867,219,0,2687,107,139,6701,-4,0,119,1,300810,0
300823,431,-1854,132,33,-61,36,14393,343,-44,382,568,35591,-34,33,127,0,0,3886,230,0,2687,107,139,6711,-4,0,119,1,300810,0
300833,412,-1928,141,17,-77,7,14533,282,-67,375,440,35576,-27,34,127,0,0,3900,142,0,2687,107,139,6721,-4,0,119,1,300810,0
300843,359,-1953,158,21,-74,-6,14652,256,-81,365,328,35569,-28,34,127,0,0,3915,142,0,2687,107,139,6731,-4,0,119,1,300826,0
300853,432,-1998,159,23,-68,2,14749,193,-76,387,288,35579,-11,34,127,0,0,3928,109,0,2687,107,139,6741,-4,0,119,1,300841,0
300863,424,-1999,149,25,-82,13,14840,196,-57,351,264,35587,-31,34,127,0,0,3941,131,0,2687,107,139,6751,-4,0,119,1,300841,0
300873,426,-1945,154,8,-89,23,14912,138,-51,376,208,35584,-35,34,127,0,0,3955,131,0,2687,107,139,6761,-4,0,119,1,300857,0
300883,418,-1926,115,18,-79,-11,14970,143,-59,434,232,35585,-47,34,127,0,0,3963,43,0,2687,107,139,6771,-4,0,119,1,300873,0
300893,391,-1988,83,17,-51,-6,15035,152,3,403,184,35593,-57,34,127,0,0,3972,21,0,2687,107,139,6781,-4,0,119,1,300873,0
300903,440,-1997,105,13,-35,-1,15082,97,-23,440,184,35598,-77,34,127,0,0,3981,43,0,2687,107,139,6791,-4,0,119,1,300888,0
300913,430,-1986,125,1,-32,-2,15119,58,-58,488,176,35597,-85,34,127,0,0,3988,54,0,2687,107,139,6801,-4,0,119,1,300904,0
300923,396,-2019,138,-6,-25,-11,15159,107,-6,390,184,35585,-61,34,127,0,0,3996,87,0,2687,107,139,6811,-4,0,119,1,300904,0
300933,411,-2020,175,-10,-34,12,15197,69,12,358,168,35582,-58,33,127,0,0,3996,32,0,2687,107,139,6821,-4,0,119,1,300904,0
300943,337,-1994,182,-9,-62,10,15227,46,-26,308,152,35597,-54,34,127,0,0,4007,98,0,2687,107,139,6831,-4,0,119,1,300935,0
300953,306,-2057,154,1,-57,-8,15233,14,-60,568,232,35603,-42,34,127,0,0,4014,54,0,2687,107,139,6841,-4,0,119,1,300951,0
300963,362,-2045,161,14,-64,-3,15247,37,-26,615,200,35600,-27,34,127,0,0,4020,87,0,2687,107,139,6851,-4,0,119,1,300951,0
300973,361,-2007,140,16,-76,-2,15281,97,55,507,224,35585,-29,34,127,0,0,4023,65,0,2687,107,139,6861,-4,0,119,1,300951,0
300983,413,-2027,115,9,-72,6,15327,93,63,470,216,35584,-39,34,127,0,0,4029,43,0,2687,107,139,6871,-4,0,119,1,300966,0
300993,384,-2013,100,8,-60,29,15379,97,23,347,168,35592,-35,34,127,0,0,4036,65,0,2687,107,139,6881,-4,0,119,1,300966,0
301003,391,-2028,111,16,-46,22,15419,86,-11,340,152,35593,-3,34,127,0,0,4045,98,0,2687,107,139,6891,-4,0,119,1,301060,0
301013,379,-2027,125,19,-65,41,15437,19,-64,507,192,35588,5,34,127,0,0,4049,43,0,2687,107,139,6901,-4,0,119,1,301076,0
301023,295,-2024,132,14,-70,38,15452,43,-52,590,240,35587,20,34,127,0,0,4060,98,0,2687,107,139,6911,-4,0,119,1,301076,0
301033,319,-2041,147,18,-42,25,15495,124,60,495,248,35589,-1,34,127,0,0,4064,54,0,2687,107,139,6921,-4,0,119,1,301076,0
301043,370,-2015,154,3,-27,-12,15541,112,67,463,176,35582,1,33,127,0,0,4073,32,0,2687,107,139,6931,-4,0,119,1,301076,0
301053,376,-1993,121,-3,-11,-30,15596,115,16,369,144,35575,-10,34,127,0,0,4080,65,0,2687,107,139,6941,-4,0,119,1,301076,0
301063,365,-1988,125,-2,-22,-19,15642,62,-7,306,112,35577,-39,34,127,0,0,4084,54,0,2687,107,139,6951,-4,0,119,1,301076,0
301073,367,-2008,121,5,-24,-46,15651,17,-97,472,168,35582,-42,34,127,0,0,4091,54,0,2687,107,139,6961,-4,0,119,1,301076,0
301083,367,-2012,101,13,-22,-42,15671,58,-33,457,128,35586,-46,34,127,0,0,4095,43,0,2687,107,139,6971,-4,0,119,1,301076,0
301093,379,-1985,126,18,-31,-35,15697,38,36,434,128,35582,-35,34,127,0,0,4095,-10,0,2687,107,139,6981,-4,0,119,1,301076,0
301103,391,-1954,96,27,-15,-48,15699,6,-48,511,184,35579,-44,34,127,0,0,4102,32,0,2687,107,139,6991,-4,0,119,1,301076,0
301113,394,-1973,80,23,14,-78,15706,19,-21,555,184,35595,-54,34,127,0,0,4104,43,0,2687,107,139,7001,-4,0,119,1,301122,0
301123,429,-1942,89,27,36,-83,15722,44,29,480,144,35611,-53,34,127,0,0,4104,32,0,2687,107,139,7011,-4,0,119,1,301122,0
301133,486,-1896,75,23,36,-63,15754,84,51,326,112,35607,-46,34,127,0,0,4104,-10,0,2687,107,139,7021,-4,0,119,1,301122,0
301143,463,-1880,87,25,23,-43,15762,-24,-18,279,88,35596,-53,34,127,0,0,4102,-10,0,2687,107,139,7031,-4,0,119,1,301122,0
301153,454,-1867,84,42,32,-34,15760,-2,-79,288,64,35585,-59,34,127,0,0,4102,-43,0,2687,107,139,7041,-4,0,119,1,301122,0
301163,473,-1836,104,61,24,-16,15760,-3,-5,229,48,35602,-71,34,127,0,0,4100,-32,0,2687,107,139,7051,-4,0,119,1,301154,0
301173,579,-1833,97,63,66,-52,15757,-5,2,143,0,35603,-54,34,127,0,0,4091,-98,0,2687,107,139,7061,-4,0,119,1,301154,0
301183,485,-1784,79,88,64,-50,15744,-48,-23,-130,-104,35595,-55,34,127,0,0,4082,-120,0,2687,107,139,7071,-4,0,119,1,301154,0
301193,664,-1803,97,111,45,-10,15709,-88,-69,-289,-136,35589,-51,34,127,0,0,4067,-153,0,2687,107,139,7081,-4,0,119,1,301185,0
301203,764,-1736,96,138,-4,10,15643,-151,-99,-246,-176,35591,-64,34,127,0,0,4051,-164,0,2687,107,139,7091,-4,0,119,1,301201,0
301213,759,-1625,34,170,-62,2,15576,-122,-50,-296,-192,35592,-47,34,127,0,0,4031,-197,0,2687,107,139,7101,-4,0,119,1,301201,0
301223,777,-1666,28,185,-94,-14,15507,-173,8,-514,-352,35584,-31,34,127,0,0,4001,-274,0,2687,107,139,7111,-4,0,119,1,301201,0
301233,628,-1684,73,200,-85,-24,15396,-271,-104,-482,-520,35578,-32,34,127,0,0,3968,-329,0,2687,107,139,7121,-4,0,119,1,301263,0
301243,499,-1733,85,163,-69,13,15259,-312,-124,-522,-640,35584,-33,34,127,0,0,3926,-406,0,2687,107,139,7131,-4,0,119,1,301263,0
301253,459,-1867,155,137,-36,40,15096,-366,-90,-494,-752,35585,-40,34,127,0,0,3884,-439,0,2687,107,139,7141,-4,0,119,1,301263,0
301263,402,-1909,178,140,-34,63,14921,-388,-71,-487,-848,35582,-40,34,127,0,0,3845,-439,0,2687,107,139,7151,-4,0,119,1,301279,0
301273,354,-2135,242,93,4,137,14733,-411,-46,-479,-848,35565,-54,34,127,0,0,3807,-340,0,2687,107,139,7161,-4,0,119,1,301279,0
301283,320,-2233,279,97,33,165,14543,-412,-25,-455,-896,35568,-51,34,127,0,0,3774,-351,0,2687,107,139,7171,-4,0,119,1,301279,0
301293,272,-2232,280,111,54,125,14356,-405,8,-416,-832,35572,-30,34,127,0,0,3739,-373,0,2687,107,139,7181,-4,0,119,1,301279,0
301303,352,-2246,265,95,73,94,14174,-390,17,-462,-808,35577,-19,34,127,0,0,3704,-362,0,2687,107,139,7191,-4,0,119,1,301279,0
301313,440,-2110,207,64,60,21,13992,-409,12,-439,-840,35575,-34,34,127,0,0,3671,-384,0,2687,107,139,7201,-4,0,119,1,301294,0
301323,445,-2026,123,49,45,-12,13809,-408,-8,-476,-864,35581,-27,34,127,0,0,3632,-395,0,2687,107,139,7211,-4,0,119,1,301294,0
301333,437,-1915,43,92,56,-85,13617,-434,-22,-493,-968,35589,-28,34,127,0,0,3590,-428,0,2687,107,139,7221,-4,0,119,1,301326,0
301343,424,-1831,43,110,77,-146,13414,-450,-44,-478,-984,35595,-16,34,127,0,0,3544,-472,0,2687,107,139,7231,-4,0,119,1,301326,0
301353,386,-1974,128,98,52,-124,13199,-473,-41,-495,-1112,35587,-16,34,127,0,0,3489,-549,0,2687,107,139,7241,-4,0,-16,0,301326,0
301363,401,-2094,172,113,50,-102,12971,-510,-44,-487,-1136,35586,-23,34,127,0,0,3445,-417,0,2687,107,139,7251,-4,0,-17,0,301372,0
301373,312,-2150,238,113,39,1,12734,-522,-38,-445,-1128,35590,-33,34,127,0,0,3399,-439,0,2687,107,139,7261,-4,0,-17,0,301388,0
301383,273,-2287,247,120,30,109,12500,-509,17,-403,-1032,35601,-38,34,127,0,0,3366,-362,0,2687,107,139,7271,-4,0,-18,0,301404,0
301393,334,-2263,230,170,10,211,12282,-472,7,-382,-856,35589,-3,34,127,0,0,3344,-197,0,2687,107,139,7281,-4,0,-18,0,301419,0
301403,345,-2232,196,220,17,192,12088,-416,70,-373,-680,35581,-9,34,127,0,0,3322,-230,0,2687,107,139,7291,-4,0,-18,0,301419,0
301413,319,-2183,113,214,24,140,11917,-365,91,-418,-608,35574,4,34,127,0,0,3300,-241,0,2687,107,139,7301,-4,0,-18,0,301419,0
301423,276,-2114,89,200,43,126,11769,-315,86,-423,-472,35578,-33,34,127,0,0,3282,-186,0,2687,107,139,7311,-4,0,-18,0,301419,0
301433,229,-2105,46,178,53,87,11640,-261,78,-429,-440,35570,-35,33,127,0,0,3265,-164,0,2687,107,139,7321,-4,0,-18,0,301419,0
301443,205,-2169,60,168,87,51,11526,-268,71,-453,-368,35567,-24,34,127,0,0,3243,-164,0,2687,107,139,7331,-4,0,-18,0,301419,0
301453,114,-2254,136,117,139,2,11420,-234,41,-476,-408,35573,-11,34,127,0,0,3225,-142,0,2687,107,139,7341,-4,0,-18,0,301466,0
301463,82,-2209,241,87,146,-43,11311,-244,13,-410,-320,35593,-10,34,127,0,0,3210,-120,0,2687,107,139,7351,-4,0,-18,0,301466,0
301473,62,-2321,403,91,92,-91,11228,-182,20,-399,-232,35587,-16,34,127,0,0,3197,-131,0,2687,107,139,7361,-4,0,-18,0,301466,0
301483,81,-2162,371,79,13,-116,11155,-155,80,-420,-216,35579,-51,34,127,0,0,3194,-54,0,2687,107,139,7371,-4,0,-18,0,301466,0
301493,119,-2063,332,28,-2,-241,11109,-47,92,-396,-136,35571,-64,34,127,0,0,3190,-43,0,2687,107,139,7381,-4,0,-18,0,301466,0
301503,197,-2063,303,2,-8,-313,11093,-33,120,-469,-192,35595,-102,34,127,0,0,3186,-65,0,2687,107,139,7391,-4,0,-18,0,301497,0
301513,238,-2080,301,-54,-22,-472,11076,-37,41,-438,-104,35600,-83,34,127,0,0,3183,-54,0,2687,107,139,7401,-4,0,-18,0,301497,0
301523,176,-2176,323,-89,-7,-514,11068,-22,12,-628,-208,35595,-67,34,127,0,0,3175,-43,0,2687,107,139,7411,-4,0,-18,0,301513,0
301533,130,-2173,350,-111,-8,-548,11047,-54,-10,-639,-240,35579,-51,34,127,0,0,3168,-54,0,2687,107,139,7421,-4,0,-18,0,301513,0
301543,208,-2190,293,-172,2,-602,11005,-105,-69,-409,-168,35573,-65,34,127,0,0,3168,-21,0,2687,107,139,7431,-4,0,-18,0,301529,0
301553,258,-2155,220,-185,-7,-680,10972,-55,-15,-385,-144,35582,-64,33,127,0,0,3161,-65,0,2687,107,139,7441,-4,0,-18,0,301560,0
301563,319,-2153,241,-195,-24,-722,10947,-55,42,-305,-120,35582,-46,34,127,0,0,3164,10,0,2687,107,139,7451,-4,0,-18,0,301560,0
301573,336,-2135,268,-193,-67,-753,10944,18,56,-372,-136,35576,-48,34,127,0,0,3161,0,0,2687,107,139,7461,-4,0,-18,0,301560,0
301583,337,-2085,276,-194,-79,-759,10942,-2,52,-364,-104,35579,-61,34,127,0,0,3164,21,0,2687,107,139,7471,-4,0,-18,0,301560,0
301593,396,-2102,170,-210,-56,-786,10942,-8,2,-346,-104,35584,-66,34,127,0,0,3161,0,0,2687,107,139,7481,-4,0,-18,0,301576,0
301603,413,-2044,65,-190,-42,-800,10945,13,7,-353,-112,35598,-63,34,127,0,0,3164,10,0,2687,107,139,7491,-4,0,-18,0,301591,0
301613,372,-2007,14,-196,-19,-778,10943,0,5,-294,-96,35594,-59,34,127,0,0,3166,21,0,2687,107,139,7501,-4,0,-18,0,301591,0
301623,332,-2098,89,-213,6,-727,10946,9,3,-205,-48,35589,-72,34,127,0,0,3172,54,0,2687,107,139,7511,-4,0,-18,0,301607,0
301633,311,-2079,194,-242,62,-761,10952,16,14,-4,24,35594,-66,34,127,0,0,3181,109,0,2687,107,139,7521,-4,0,-18,0,301638,0
301643,402,-2071,188,-242,74,-822,10973,55,40,192,112,35588,-46,34,127,0,0,3190,98,0,2687,107,139,7531,-4,0,-18,0,301638,0
301653,370,-2070,182,-261,39,-846,11014,106,70,171,88,35579,-40,34,127,0,0,3194,54,0,2687,107,139,7541,-4,0,-18,0,301654,0
301663,401,-2089,197,-270,48,-893,11038,39,2,271,104,35570,-45,34,127,0,0,3208,109,0,2687,107,139,7551,-4,0,-18,0,301654,0
301673,393,-2035,202,-270,64,-968,11081,130,3,234,88,35577,-70,34,127,0,0,3216,109,0,2687,107,139,7561,-4,0,-18,0,301654,0
301683,442,-2026,250,-277,49,-999,11133,116,67,218,112,35590,-75,34,127,0,0,3218,32,0,2687,107,139,7571,-4,0,-18,0,301685,0
301693,520,-2014,249,-303,-29,-986,11164,28,-35,273,152,35591,-74,34,127,0,0,3229,109,0,2687,107,139,7581,-4,0,-18,0,301685,0
301703,453,-1991,271,-308,-44,-1009,11170,22,-92,499,160,35583,-86,34,127,0,0,3236,76,0,2687,107,139,7591,-4,0,-18,0,301685,0
301713,542,-2008,229,-369,-22,-1056,11209,126,41,436,208,35585,-84,34,127,0,0,3247,98,0,2687,107,139,7601,-4,0,-18,0,301685,0
301723,621,-1973,207,-413,-24,-1040,11270,147,109,339,144,35587,-84,34,127,0,0,3254,76,0,2687,107,139,7611,-4,0,-18,0,301716,0
301733,625,-1906,194,-457,-55,-1022,11324,101,20,278,144,35587,-53,34,127,0,0,3260,65,0,2687,107,139,7621,-4,0,-18,0,301732,0
301743,632,-1926,182,-466,-57,-1030,11362,53,-58,286,136,35576,-40,34,127,0,0,3269,87,0,2687,107,139,7631,-4,0,-18,0,301732,0
301753,561,-1979,156,-493,-18,-1087,11376,41,-84,503,200,35577,-45,33,127,0,0,3273,21,0,2687,107,139,7641,-4,0,-18,0,301732,0
301763,599,-1990,151,-480,-1,-1104,11413,96,11,372,144,35595,-46,34,127,0,0,3278,21,0,2687,107,139,7651,-4,0,-18,0,301810,0
301773,668,-1872,84,-471,8,-1120,11448,66,36,330,128,35601,-34,34,127,0,0,3278,21,0,2687,107,139,7661,-4,0,-18,0,301810,0
301783,723,-1863,-2,-515,19,-1133,11486,72,-5,185,64,35593,-19,34,127,0,0,3284,32,0,2687,107,139,7671,-4,0,-18,0,301810,0
301793,597,-1874,33,-520,6,-935,11495,5,-48,298,104,35579,-18,34,127,0,0,3291,87,0,2687,107,139,7681,-4,0,-18,0,301810,0
301803,812,-2044,107,-491,-33,-868,11507,58,-43,527,256,35576,-10,34,127,0,0,3306,164,0,2687,107,139,7691,-4,0,2,0,301825,0
301813,795,-2069,250,-473,-59,-912,11577,167,136,372,240,35577,15,34,127,0,0,3317,120,0,2687,107,139,7701,-4,0,2,0,301825,0
301823,813,-2014,262,-513,-94,-877,11646,147,90,410,248,35571,15,34,127,0,0,3335,153,0,2687,107,139,7711,-4,0,2,0,301825,0
301833,818,-1943,125,-504,-163,-752,11730,201,17,402,312,35571,7,34,127,0,0,3353,153,0,2687,107,139,7721,-4,0,1,0,301825,0
301843,794,-1922,121,-475,-181,-698,11819,189,38,410,312,35583,-36,34,127,0,0,3377,230,0,2687,107,139,7731,-4,0,1,0,301825,0
301853,832,-1927,103,-405,-205,-738,11914,219,12,391,320,35605,-40,34,127,0,0,3396,219,0,2687,107,139,7741,-4,0,1,0,301825,0
301863,832,-1878,67,-418,-219,-718,12018,227,32,428,368,35616,-48,34,127,0,0,3416,230,0,2687,107,139,7751,-4,0,1,0,301857,0
301873,646,-1867,73,-522,-256,-642,12124,232,14,390,384,35613,-51,34,127,0,0,3443,274,0,2687,107,139,7761,-4,0,1,0,301888,0
301883,520,-1939,69,-526,-256,-637,12235,243,12,450,440,35600,-63,34,127,0,0,3469,252,0,2687,107,139,7771,-4,0,1,0,301888,0
301893,457,-2018,28,-497,-194,-750,12359,283,35,432,440,35586,-39,34,127,0,0,3495,252,0,2687,107,139,7781,-4,0,1,0,301888,0
301903,480,-2006,56,-541,-146,-836,12485,284,29,446,432,35588,-7,34,127,0,0,3522,230,0,2687,107,139,7791,-4,0,1,0,301904,0
301913,519,-2042,158,-602,-168,-956,12619,289,15,401,432,35578,-2,34,127,0,0,3548,274,0,2687,107,139,7801,-4,0,1,0,301904,0
301923,485,-2032,212,-618,-176,-1033,12751,290,9,421,496,35586,-27,34,127,0,0,3572,252,0,2687,107,139,7811,-4,0,1,0,301904,0
301933,514,-1987,207,-695,-184,-1125,12878,281,-12,405,456,35602,-43,34,127,0,0,3599,263,0,2687,107,139,7821,-4,0,1,0,301904,0
301943,543,-2024,228,-741,-202,-1196,13003,275,-14,454,504,35619,-49,34,127,0,0,3625,274,0,2687,107,139,7831,-4,0,1,0,301935,0
301953,612,-2081,292,-779,-262,-1292,13136,299,14,418,512,35620,-32,34,127,0,0,3651,296,0,2687,107,139,7841,-4,0,1,0,301950,0
301963,646,-2066,316,-784,-335,-1331,13267,295,9,474,552,35603,-8,34,127,0,0,3680,285,0,2687,107,139,7851,-4,0,1,0,301950,0
301973,629,-2077,358,-830,-438,-1335,13407,309,12,463,624,35597,-20,34,127,0,0,3711,285,0,2687,107,139,7861,-4,0,1,0,301950,0
301983,672,-2112,319,-860,-490,-1368,13560,342,42,473,664,35601,-15,34,127,0,0,3744,329,0,2687,107,139,7871,-4,0,1,0,301966,0
301993,730,-2082,253,-946,-530,-1422,13717,350,32,440,736,35605,-30,34,127,0,0,3783,384,0,2687,107,139,7881,-4,0,1,0,301982,0
302003,765,-2094,206,-967,-572,-1452,13881,368,23,474,776,35603,-19,34,127,0,0,3821,384,0,2687,107,139,7891,-4,0,1,0,301982,0
302013,821,-2203,217,-965,-704,-1432,14057,396,34,490,840,35596,-10,34,127,0,0,3862,417,0,2687,107,139,7901,-4,0,1,0,301982,0
302023,789,-2236,299,-964,-815,-1416,14243,420,42,514,1016,35603,-18,34,127,0,0,3908,494,0,2687,107,139,7911,-4,0,1,0,302013,0
302033,751,-2212,360,-989,-992,-1436,14453,477,70,505,1152,35594,-13,34,127,0,0,3961,527,0,2687,107,139,7921,-4,0,2,0,302013,0
302043,694,-2205,333,-992,-1129,-1494,14681,518,79,547,1256,35588,-31,34,127,0,0,4016,560,0,2687,107,139,7931,-4,0,2,0,302013,0
302053,535,-2231,302,-968,-1287,-1570,14936,576,89,508,1312,35588,-21,34,127,0,0,4073,593,0,2687,107,139,7941,-4,0,2,0,302044,0
302063,456,-2175,236,-981,-1350,-1679,15205,598,78,528,1368,35588,-20,34,127,0,0,4135,604,0,2687,107,139,7951,-4,0,2,0,302044,0
302073,381,-2107,114,-1086,-1398,-1867,15485,632,48,556,1424,35585,-2,34,127,0,0,4196,615,0,2687,107,139,7961,-4,0,3,0,302044,0
302083,409,-2015,55,-1143,-1356,-2050,15779,656,56,481,1448,35580,-14,34,127,0,0,4251,549,0,2687,107,139,7971,-4,0,3,0,302075,0
302093,311,-2014,18,-1325,-1330,-2270,16074,643,24,501,1472,35585,-21,34,127,0,0,4311,593,0,2687,107,139,7981,-4,0,3,0,302091,0
302103,236,-2144,74,-1431,-1264,-2439,16367,645,-4,599,1504,35590,-6,34,127,0,0,4363,505,0,2687,107,139,7991,-4,0,4,0,302091,0
302113,178,-2184,75,-1538,-1181,-2768,16654,629,-10,550,1432,35591,-20,34,127,0,0,4418,516,0,2687,107,139,8001,-4,0,4,0,302091,0
302123,301,-1939,6,-1593,-1178,-3059,16932,595,-34,589,1408,35577,3,34,127,0,0,4467,505,0,2687,107,139,8011,-4,0,5,0,302169,0
302133,449,-1812,-40,-1804,-1325,-3433,17207,598,-26,528,1272,35577,0,34,127,0,0,4508,395,0,2687,107,139,8021,-4,0,6,0,302169,0
302143,165,-1792,164,-1887,-1470,-3521,17459,547,-54,564,1248,35583,-26,34,127,0,0,4539,307,0,2687,107,139,8031,-4,0,6,0,302185,0
302153,-1365,-2252,278,-1696,-1618,-3305,17687,476,-91,493,984,35578,-12,34,127,0,0,4583,461,0,2687,107,139,8041,-4,0,7,0,302185,0
302163,514,-2972,-91,-1873,-1508,-4574,17911,527,-51,769,1416,35571,-4,34,127,0,0,4647,571,0,2687,107,139,8051,-4,0,8,0,302185,0
302173,209,-3815,492,-2055,-1513,-5169,18172,545,75,423,976,35573,-10,34,127,0,0,4649,10,0,2687,107,139,8061,-4,0,9,0,302185,0
302183,-1063,-3443,1075,-1901,-2152,-4891,18369,386,-88,394,712,35582,-20,34,127,0,0,4669,241,0,2687,107,139,8071,-4,0,10,0,302185,0
302193,-329,-3666,730,-2239,-2260,-5416,18530,365,-196,639,1032,35587,-37,34,127,0,0,4735,670,0,2687,107,139,8081,-4,0,12,0,302185,0
302203,194,-4435,466,-2241,-2130,-6156,18737,480,43,670,1104,35587,-2,34,127,0,0,4770,329,0,2687,107,139,8091,-4,0,13,0,302185,0
302213,86,-4143,1003,-2132,-2725,-6033,18951,454,100,506,928,35582,-6,34,127,0,0,4801,285,0,2687,107,139,8101,-4,0,16,0,302185,0
302223,-125,-4133,1565,-2392,-3211,-5721,19148,419,-38,626,1056,35594,-26,34,127,0,0,4855,538,0,2687,107,139,8111,-4,0,18,0,302216,0
302233,-344,-4181,1449,-2678,-3530,-5386,19367,512,14,802,1408,35602,-36,34,127,0,0,4930,714,0,2687,107,139,8121,-4,0,21,0,302216,0
302243,-583,-3742,1404,-2615,-3454,-4974,19638,628,158,828,1672,35590,-11,34,127,0,0,5009,802,0,2687,107,139,8131,-4,0,24,0,302216,0
302253,-821,-2509,1052,-2308,-3184,-4205,19954,725,194,846,1904,35571,11,34,127,0,0,5093,823,0,2687,107,139,8141,-4,0,28,0,302263,0
302263,63,-1673,758,-2467,-2820,-3722,20309,821,163,984,2304,35571,19,34,127,0,0,5205,1142,0,2687,107,139,8151,-4,0,32,0,302263,0
302273,1088,-1195,-858,-2365,-913,-4231,20733,938,207,623,1944,35579,17,34,127,0,0,5207,-142,0,2687,107,139,8161,-4,0,37,0,302263,0
302283,1010,-1815,-1137,-1966,275,-3794,21083,678,-44,81,616,35576,19,34,127,0,0,5135,-791,0,2687,107,139,8171,-4,0,41,0,302263,0
302293,186,-2040,-92,-929,1180,-2973,21213,7,-623,-1190,-664,35570,-18,34,127,0,0,5038,-966,0,2687,107,139,8181,-4,0,46,0,302278,0
302303,63,-1877,592,-673,1766,-2742,21027,-490,-1086,-642,-1376,35568,-29,34,127,0,0,4935,-1032,0,2687,107,139,8191,-4,0,50,0,302294,0
302313,475,-1809,544,-534,2475,-1996,20730,-720,-752,-710,-1904,35579,-43,34,127,0,0,4836,-988,0,2687,107,139,8201,-4,0,56,66,302294,0
302323,511,-1676,78,-333,2803,-1574,20345,-899,-365,-589,-2280,35581,-16,34,127,0,0,4726,-1098,0,2687,107,139,8211,-4,0,60,61,302294,0
302333,523,-1293,-272,230,3054,-858,19885,-1049,-298,-515,-2576,35576,16,34,127,0,0,4614,-1153,0,2687,107,139,8221,-4,0,67,54,302325,0
302343,550,-1072,-292,501,3114,-348,19371,-1162,-234,-503,-2760,35577,12,34,127,0,0,4493,-1197,0,2687,107,139,8231,-4,0,71,50,302325,0
302353,655,-962,-175,734,3062,567,18822,-1229,-164,-537,-2992,35580,6,34,127,0,0,4374,-1208,0,2687,107,139,8241,-4,0,77,44,302325,0
302363,804,-950,-205,905,3001,1200,18247,-1262,-114,-407,-3008,35591,0,34,127,0,0,4264,-1120,0,2687,107,139,8251,-4,0,82,40,302357,0
302373,888,-893,-403,1194,2883,2182,17666,-1267,-46,-344,-2904,35582,11,34,127,0,0,4161,-1054,0,2687,107,139,8261,-4,0,88,35,302357,0
302383,933,-847,-461,1406,2783,2849,17094,-1258,68,-316,-2808,35572,-8,34,127,0,0,4060,-1021,0,2687,107,139,8271,-4,0,92,32,302357,0
302393,1058,-781,-494,1698,2652,3728,16532,-1243,-31,-376,-2824,35572,-21,34,127,0,0,3948,-1076,0,2687,107,139,8281,-4,0,99,27,302372,0
302403,1053,-760,-541,1822,2557,4269,15968,-1257,-113,-496,-3016,35577,-13,34,127,0,0,3812,-1362,0,2687,107,139,8291,-4,0,103,25,302403,0
302413,1003,-759,-443,2006,2302,5335,15369,-1341,-74,-618,-3320,35582,16,34,127,0,0,3673,-1417,0,2687,107,139,8301,-4,0,109,21,302403,0
302423,879,-806,-350,2145,1850,6111,14735,-1411,-140,-621,-3480,35568,28,34,127,0,0,3557,-1175,0,2687,107,139,8311,-4,0,114,18,302419,0
302433,889,-992,-204,2320,1006,7152,14101,-1371,-69,-387,-3168,35562,16,34,127,0,0,3471,-812,0,2687,107,139,8321,-4,0,120,15,302419,0
302443,1018,-1211,-207,2480,491,7709,13523,-1224,108,-206,-2624,35567,12,34,127,0,0,3407,-582,0,2687,107,139,8331,-4,0,124,12,302419,0
302453,1093,-1441,-353,2841,-33,8300,13022,-1040,260,-166,-2144,35587,6,34,127,0,0,3361,-472,0,2687,107,139,8341,-4,0,131,9,302450,0
302463,1033,-1473,-498,3107,-253,8633,12600,-882,295,-211,-1800,35587,-10,34,127,0,0,3313,-461,0,2687,107,139,8351,-4,0,135,7,302450,0
302473,981,-1506,-488,3479,-474,9120,12243,-753,276,-301,-1544,35584,-24,34,127,0,0,3269,-428,0,2687,107,139,8361,-4,0,141,5,302450,0
302483,974,-1601,-464,3715,-463,9390,11963,-660,213,-333,-1272,35583,-50,34,127,0,0,3236,-351,0,2687,107,139,8371,-4,0,145,3,302560,0
302493,1109,-1714,-546,4088,-207,9800,11693,-564,173,-355,-1000,35586,-41,34,127,0,0,3218,-153,0,2687,107,139,8381,-4,0,151,1,302560,0
302503,1258,-1740,-628,4302,69,9984,11473,-455,179,-309,-688,35582,-11,34,127,0,0,3210,-76,0,2687,107,139,8391,-4,0,155,0,302575,0
302513,1303,-1735,-635,4512,606,10053,11297,-366,176,-333,-464,35573,-25,34,127,0,0,3197,-120,0,2687,107,139,8401,-4,0,161,-1,302575,0
302523,1323,-1811,-589,4584,915,10003,11165,-255,167,-337,-336,35570,-22,34,127,0,0,3181,-175,0,2687,107,139,8411,-4,0,165,-2,302575,0
302533,1420,-2040,-397,4580,1137,9955,11073,-181,161,-458,-288,35572,-64,34,127,0,0,3164,-109,0,2687,107,139,8421,-4,0,171,-3,302575,0
302543,1503,-2217,-225,4538,1092,9950,11001,-151,107,-427,-232,35573,-50,34,127,0,0,3161,-32,0,2687,107,139,8431,-4,0,174,-4,302575,0
302553,1629,-2558,-36,4468,877,9803,10945,-111,64,-285,-112,35565,-54,34,127,0,0,3161,0,0,2687,107,139,8441,-4,0,180,-5,302575,0
302563,1692,-2741,38,4392,658,9724,10939,24,129,-333,-96,35571,-44,34,127,0,0,3161,-10,0,2687,107,139,8451,-4,0,183,-6,302575,0
302573,1506,-2901,117,4176,345,9518,10940,-12,101,-350,-96,35573,-51,34,127,0,0,3161,0,0,2687,107,139,8461,-4,0,188,-7,302575,0
302583,1179,-2899,33,3993,269,9192,10942,14,1,-372,-104,35572,-43,34,127,0,0,3164,32,0,2687,107,139,8471,-4,0,192,-7,302591,0
302593,965,-2991,-287,3647,393,8548,10943,11,8,-312,-112,35567,-44,34,127,0,0,3164,-32,0,2687,107,139,8481,-4,0,196,-7,302591,0
302603,932,-3120,-503,3411,678,8172,10943,15,4,-225,-40,35573,-55,34,127,0,0,3172,98,0,2687,107,139,8491,-4,0,199,-7,302591,0
302613,821,-2864,-643,2949,1461,7490,10957,36,27,34,80,35586,-61,34,127,0,0,3190,175,0,2687,107,139,8501,-4,0,203,-8,302591,0
302623,626,-2729,-653,2588,2171,6842,10996,136,77,356,232,35599,-41,34,127,0,0,3212,219,0,2687,107,139,8511,-4,0,205,-8,302640,0
302633,618,-2616,-692,2090,3395,5616,11092,242,174,275,200,35595,-37,34,127,0,0,3232,186,0,2687,107,139,8521,-4,0,209,-8,302640,0
302643,626,-2415,-669,1818,4190,4733,11202,235,126,273,296,35587,-45,34,127,0,0,3258,285,0,2687,107,139,8531,-4,0,211,-8,302640,0
302653,667,-1999,-640,1437,5279,3246,11317,264,35,321,384,35584,-75,34,127,0,0,3291,340,0,2687,107,139,8541,-4,0,214,-8,302640,0
302663,978,-1777,-524,1308,5815,2171,11442,280,30,396,496,35588,-62,34,127,0,0,3326,373,0,2687,107,139,8551,-4,0,214,-8,302656,0
302673,1343,-1495,-104,926,5951,336,11600,367,83,352,504,35591,-15,34,127,0,0,3353,241,0,2687,107,139,8561,-4,0,214,-8,302656,0
302683,1500,-1583,341,573,5828,-886,11766,364,75,236,312,35586,-4,34,127,0,0,3364,87,0,2687,107,139,8571,-4,0,214,-8,302687,0
302693,1783,-1710,715,-28,5246,-2340,11899,274,-61,129,136,35583,-17,34,127,0,0,3368,10,0,2687,107,139,8581,-4,0,214,-8,302687,0
302703,1926,-1666,641,-394,4701,-3050,11960,29,-212,-70,24,35574,-58,34,127,0,0,3366,0,0,2687,107,139,8591,-4,0,214,-8,302703,0
302713,1994,-1375,265,-771,3716,-3928,11938,-48,-319,139,0,35570,-69,34,127,0,0,3359,-87,0,2687,107,139,8601,-4,0,214,-8,302703,0
302723,1477,-7422,-244,-1244,998,-4442,11937,-6,-91,56,280,35561,-88,34,127,0,0,3456,1208,0,1331,58,140,3,1,1,214,-8,302703,0
302733,1750,-3901,2576,637,97,-6342,12101,631,394,2129,2976,35568,-80,34,127,0,0,3649,1856,0,1331,58,140,13,1,1,214,-8,302718,0
302743,2521,-2227,2194,-180,-1207,-7493,12699,1516,1251,1414,4232,35566,-8,34,127,0,0,3728,681,0,1331,58,140,23,1,1,214,-8,302734,0
302753,832,-1680,1187,-2213,-2488,-7286,13449,1635,1059,419,3792,35561,48,34,127,0,0,3724,-54,0,1331,58,140,33,1,1,214,-8,302734,0
302763,-1653,-1871,757,-2455,-3074,-6614,14142,1463,82,235,3408,35564,65,34,127,0,0,3711,0,0,1331,58,140,43,1,1,214,-8,302749,0
302773,-931,-2320,-1524,-1891,-1945,-6445,14783,1410,-224,565,3688,35571,24,34,127,0,0,3770,670,0,1331,58,140,53,1,1,214,-8,302749,0
302783,-507,-1885,-2315,-1287,-170,-7683,15487,1603,55,653,3768,35580,9,34,127,0,0,3781,-10,0,1331,58,140,63,1,1,214,-8,302765,0
302793,4645,-4196,-2465,-1010,1494,-10629,16207,1535,160,88,2656,35576,9,34,127,0,0,3640,-1604,0,1331,58,140,73,1,1,214,-8,302781,0
302803,1608,-1903,-1465,-142,-51,-10226,16754,934,-374,-1886,-832,35569,-2,34,127,0,0,3322,-3197,520,1331,58,140,83,1,1,214,-8,302781,0
302813,6673,-898,735,-398,-1167,-6146,16492,-900,-2009,508,-1616,35571,-22,34,127,0,0,3221,-812,720,1331,58,140,93,1,1,214,-8,302796,0
302823,1403,-977,443,-1111,-2688,-5793,15680,-2168,-2568,367,-4496,35592,-61,34,127,0,0,3071,-1604,920,1331,58,140,103,1,1,214,-8,302812,0
302833,-2035,-1711,-1321,-426,579,-7070,14483,-2718,-1717,332,-5160,35602,-59,34,127,0,0,2849,-2230,1120,1331,58,140,113,1,1,214,-8,302812,0
302843,529,-2358,-1791,180,2562,-7284,13323,-2445,-516,545,-4016,35603,-62,34,127,0,0,2627,-2285,1320,1331,58,140,123,1,1,214,-8,302828,0
302853,3553,-2037,201,1148,492,-5414,12360,-1966,539,698,-2520,35595,-81,34,127,0,0,2454,-1713,1500,1331,58,140,133,1,1,214,-8,302843,0
302863,3569,-2562,1559,742,-600,-3529,11681,-1270,951,844,-640,35596,-102,34,127,0,0,2348,-988,1500,1331,58,140,143,1,1,214,-8,302843,0
302873,1390,-2364,1605,51,-891,-2561,11397,-288,1345,1612,392,35604,-105,34,127,0,0,2289,-560,1500,1331,58,140,153,1,1,214,-8,302859,0
302883,1806,-2528,403,-190,-774,-1821,11461,147,1427,1001,424,35597,-76,34,127,0,0,2280,54,1500,1331,58,140,163,1,1,214,-8,302859,0
302893,1850,-2070,-528,141,-99,-1501,11432,-169,335,1048,48,35580,-38,34,127,0,0,2274,-65,1500,1331,58,140,173,1,1,214,-8,302874,0
302903,1369,-1973,21,320,220,-1520,11231,-533,-557,817,-112,35582,-53,34,127,0,0,2234,-428,1610,1331,58,140,183,1,1,214,-8,302890,0
302913,905,-2387,835,101,518,-1320,10987,-476,-375,1059,48,35592,-70,34,127,0,0,2181,-549,1740,1331,58,140,193,1,1,214,-8,302890,0
302923,1983,-2572,1003,-109,318,-576,10945,88,386,1060,552,35587,-56,34,127,0,0,2175,-32,1820,1331,58,140,203,1,1,214,-8,302906,0
302933,2157,-2346,648,-638,-419,620,11049,282,692,1010,1032,35571,-31,34,127,0,0,2206,373,1840,1331,58,140,213,1,1,214,-8,302906,0
302943,724,-3714,955,-676,-1016,1257,11288,630,506,1054,2072,35573,-14,34,127,0,0,2287,878,1820,1331,58,140,223,1,1,214,-8,302953,0
302953,109,-4169,1738,-222,-870,1739,11722,1096,659,1198,3232,35580,-7,34,127,0,0,2419,1351,1790,1331,58,140,233,1,1,214,-8,302953,0
302963,505,-3240,1458,-493,-850,1764,12347,1492,750,1162,4112,35575,21,34,127,0,0,2597,1768,1710,1331,58,140,243,1,1,214,-8,302953,0
302973,543,-3123,900,-934,-1156,1911,13122,1773,637,988,4728,35563,65,34,127,0,0,2792,1988,1400,1331,58,140,253,1,1,214,-8,302968,0
302983,486,-3285,667,-913,-1458,1953,13982,1945,419,775,5048,35544,81,34,127,0,0,3016,2252,1100,1331,58,140,263,1,1,214,-8,302968,0
302993,-298,-2996,466,-572,-1718,1711,14910,2081,284,646,5224,35557,65,34,127,0,0,3269,2493,790,1331,58,140,273,1,1,214,-8,302968,0
303003,-342,-2662,463,-585,-1761,1430,15884,2160,211,503,5032,35567,43,34,127,0,0,3528,2592,160,1331,58,140,283,1,1,214,-8,302999,0
303013,-136,-2720,402,-807,-2461,1454,16396,-215,-955,-6534,-2912,35564,102,34,127,0,0,3801,2757,0,1331,58,140,293,1,1,214,-8,302999,0
303023,-1181,-2685,597,-617,-1915,273,15865,-1186,-3303,-290,-1608,35549,110,34,127,0,0,4031,2219,0,1331,58,140,303,1,1,214,-8,302999,0
303033,-988,-2534,-115,-680,-1946,-176,15556,-152,-1159,3010,1776,35562,76,34,127,0,0,4302,2757,0,1331,58,140,313,1,1,214,-8,303015,0
303043,-1135,-2410,219,-617,-2077,-499,15976,1184,2031,1709,3696,35568,55,34,127,0,0,4563,2625,0,1331,58,140,323,1,1,214,-8,303031,0
303053,-711,-2067,74,-1116,-2415,-1426,16725,1828,1943,1490,4936,35578,62,34,127,0,0,4801,2351,0,1331,58,140,333,1,1,214,-8,303031,0
303063,-1238,-2180,533,-1338,-2563,-2094,17658,2119,938,1017,5432,35553,131,34,127,0,0,5014,2120,0,1331,58,140,343,1,1,214,-8,303046,0
303073,-929,-2481,99,-1386,-2498,-3665,18665,2241,444,733,5536,35544,128,34,127,0,0,5196,1757,0,1331,58,140,353,1,1,214,-8,303062,0
303083,-1340,-2804,238,-1487,-2387,-4434,19679,2193,123,356,5016,35553,105,34,127,0,0,5337,1340,0,1331,58,140,363,1,1,214,-8,303062,0
303093,-1483,-2790,631,-1631,-2341,-5430,20594,1927,-216,313,4528,35568,69,34,127,0,0,5460,1241,0,1331,58,140,373,1,2,214,-8,303078,0
303103,-1537,-2677,769,-1945,-2295,-5956,21396,1676,-419,40,2464,35570,46,34,127,0,0,5567,1043,0,1331,58,140,383,1,2,214,-8,303093,0
303113,-1428,-2821,758,-2269,-2323,-6522,21934,907,-755,-1310,-280,35580,-9,34,127,0,0,5666,966,0,1331,58,140,393,1,2,214,-8,303093,0
303123,-1424,-2792,677,-2365,-2227,-6907,21839,-536,-1819,-1293,-1816,35588,-42,34,127,0,0,5756,878,0,1331,58,140,403,1,2,214,-8,303093,0
303133,-1618,-2338,740,-2411,-2004,-7094,21458,-980,-1719,-1134,-2936,35599,-18,34,127,0,0,5829,725,0,1331,58,140,413,1,2,214,-8,303124,0
303143,-1405,-2274,614,-2543,-1727,-7041,20890,-1349,-807,-937,-3608,35585,35,34,127,0,0,5910,802,0,1331,58,140,423,1,2,214,-8,303124,0
303153,-807,-1905,711,-2608,-1117,-6784,20193,-1601,-586,-681,-3960,35566,76,34,127,0,0,6013,1087,0,1331,58,140,433,1,2,214,-8,303140,0
303163,-56,-1828,146,-2606,174,-7557,19437,-1677,-335,-565,-4320,35562,64,34,127,0,0,6046,153,0,1331,58,140,443,1,2,214,-8,303187,0
303173,-134,-1543,-239,-2454,1360,-7875,18577,-2051,-310,-1454,-5816,35559,78,34,127,0,0,5961,-955,0,1331,58,140,453,0,2,214,-8,303187,0
303183,-541,-1466,-6,-2200,1451,-7798,17436,-2712,-810,-1668,-7632,35539,155,34,127,0,0,5818,-1472,0,1331,58,140,463,0,2,214,-8,303187,0
303193,-422,-1337,241,-1947,871,-7560,15951,-3476,-1223,-1451,-8896,35499,252,34,127,0,0,5668,-1472,0,1331,58,140,473,0,2,214,-8,303187,0
303203,-242,-1310,263,-1885,321,-7292,14265,-3763,-1025,-1162,-9456,35474,306,34,127,0,0,5521,-1439,0,1331,58,140,483,0,2,214,-8,303203,0
303213,211,-1483,115,-1848,-341,-6550,12531,-3833,-414,217,-5040,35482,274,34,127,0,0,5392,-1307,0,1331,58,140,493,0,2,214,-8,303203,0
303223,111,-1484,219,-1579,-627,-6384,11802,-54,2089,7850,3768,35545,91,33,127,0,0,5262,-1307,0,1331,58,140,503,0,2,214,-8,303203,0
303233,995,-1557,87,-1303,-957,-4318,12581,2059,5257,2358,6384,35537,126,34,127,0,0,5178,-758,0,1331,58,140,513,0,2,214,-8,303281,0
303243,319,-1259,371,-1079,-834,-3705,13818,2962,3332,2042,8600,35523,160,34,127,0,0,5088,-933,0,1331,58,140,523,0,2,214,-8,303281,0
303253,417,-988,601,-954,-434,-2633,15472,3967,1626,2179,10688,35444,440,34,127,0,0,4987,-1021,0,1331,58,140,533,0,2,214,-8,303281,0
303263,898,-850,469,-884,61,-1532,17323,3827,1126,-1002,5792,35462,341,34,127,0,0,4875,-1120,0,1331,58,140,543,0,2,214,-8,303281,0
303273,1171,-592,292,-750,812,136,18500,2054,-1208,-2060,2024,35521,116,34,127,0,0,4754,-1219,0,1331,58,140,553,0,2,214,-8,303281,0
303283,1121,-387,340,-518,1189,1129,19003,726,-2681,-2061,-472,35576,-89,34,127,0,0,4620,-1362,0,1331,58,140,563,0,2,214,-8,303281,0
303293,1666,-75,283,-123,1689,2763,18833,-579,-2502,-967,-1664,35617,-202,34,127,0,0,4478,-1428,0,1331,58,140,573,0,2,214,-8,303281,0
303303,2156,176,159,138,1771,4092,18452,-956,-1563,-898,-2616,35588,-76,33,127,0,0,4326,-1483,0,1331,58,140,583,0,2,214,-8,303281,0
303313,2172,758,157,471,1641,5895,17926,-1226,-619,-700,-3128,35577,-3,34,127,0,0,4181,-1450,0,1331,58,140,593,0,2,214,-8,303296,0
303323,2056,978,158,820,981,6795,17319,-1378,-412,-535,-3328,35586,28,34,127,0,0,4049,-1318,0,1331,58,140,603,0,2,214,-8,303312,0
303333,2255,668,98,1446,-319,8292,16668,-1444,-227,-374,-3288,35591,13,34,127,0,0,3933,-1065,0,1331,58,140,613,0,2,214,-8,303327,0
303343,2293,377,-43,1909,-1035,9433,16023,-1397,-54,-217,-2904,35593,-10,34,127,0,0,3851,-758,0,1331,58,140,623,0,2,214,-8,303327,0
303353,2069,158,352,2605,-1837,10857,15432,-1250,133,-116,-2320,35575,-7,34,127,0,0,3807,-439,0,1331,58,140,633,0,2,214,-8,303327,0
303363,1828,-2,425,3035,-2279,11441,14948,-999,324,-90,-1736,35574,-7,34,127,0,0,3770,-351,0,1331,58,140,643,0,2,214,-8,303343,0
303373,1527,-480,319,3699,-2685,11990,14575,-759,412,-142,-1376,35583,-30,34,127,0,0,3730,-439,0,1331,58,140,653,0,2,214,-8,303343,0
303383,1306,-843,109,4156,-2628,12351,14278,-614,413,-284,-1224,35600,-35,34,127,0,0,3687,-483,0,1331,58,140,663,0,2,214,-8,303374,0
303393,849,-1267,-46,4844,-2185,12819,14025,-543,175,-370,-1152,35597,-51,34,127,0,0,3656,-351,0,1331,58,140,673,0,2,214,-8,303374,0
303403,650,-1570,-152,5221,-1671,12978,13795,-486,54,-334,-888,35585,-12,34,127,0,0,3638,-153,0,1331,58,140,683,0,2,214,-8,303406,0
303413,716,-2026,-469,5563,-529,12958,13601,-405,110,-304,-520,35578,-11,34,127,0,0,3638,0,0,1331,58,140,693,0,2,214,-8,303406,0
303423,623,-2471,-665,5610,301,12729,13452,-285,152,-224,-256,35579,-12,34,127,0,0,3638,21,0,1331,58,140,703,0,2,214,-8,303406,0
303433,540,-3164,-755,5528,1627,12164,13382,-82,238,-64,-16,35569,-33,34,127,0,0,3645,65,0,1331,58,140,713,0,2,214,-8,303406,0
303443,810,-3599,-647,5216,2588,11469,13403,96,330,40,32,35574,-54,34,127,0,0,3649,0,0,1331,58,140,723,0,2,214,-8,303437,0
303453,558,-4368,-147,4678,3732,10314,13433,24,204,-184,-56,35580,-55,34,127,0,0,3647,-32,0,1331,58,140,733,0,2,214,-8,303437,0
303463,803,-4683,119,4158,4348,9355,13425,-1,-71,-89,-32,35591,-63,34,127,0,0,3649,-10,0,1331,58,140,743,0,2,214,-8,303452,0
303473,1273,-4732,612,3053,4702,7627,13427,-14,-46,-149,8,35588,-76,34,127,0,0,3649,0,0,1331,58,140,753,0,2,214,-8,303452,0
303483,1526,-4549,489,2454,4829,6406,13429,7,18,-122,-8,35572,-68,34,127,0,0,3651,21,0,1331,58,140,763,0,2,214,-8,303468,0
303493,1625,-3554,147,1516,4967,4874,13431,3,0,40,80,35571,-89,34,127,0,0,3665,142,0,1331,58,140,773,0,2,214,-8,303484,0
303503,1323,-2749,28,1138,5066,3569,13461,95,58,320,136,35577,-89,34,127,0,0,3671,10,0,1331,58,140,783,0,2,214,-8,303484,0
303513,1588,-1471,-516,793,5072,1740,13518,92,106,20,24,35596,-109,34,127,0,0,3669,-32,0,1331,58,140,793,0,2,214,-8,303499,0
303523,1927,-428,-889,838,4875,704,13514,-34,-94,70,0,35591,-77,34,127,0,0,3667,-32,0,1331,58,140,803,0,2,214,-8,303499,0
303533,1659,905,-1180,666,3841,-1014,13504,-26,-126,-81,-88,35579,-85,34,127,0,0,3658,-87,0,1331,58,140,813,0,2,214,-8,303515,0
303543,1636,657,-898,406,3264,-2029,13485,-29,-19,-234,-120,35587,-102,34,127,0,0,3654,-65,0,1331,58,140,823,0,2,214,-8,303531,0
303553,1586,-478,-125,-133,2372,-3164,13479,-8,13,-364,-88,35591,-105,34,127,0,0,3651,-32,0,1331,58,140,833,0,2,214,-8,303531,0
303563,1211,-979,32,-405,2047,-3808,13480,3,34,-383,-72,35598,-97,34,127,0,0,3651,-21,0,1331,58,140,843,0,2,214,-8,303546,0
303573,686,-1305,-141,-744,1668,-4698,13478,-10,2,-392,-104,35584,-93,34,127,0,0,3649,-32,0,1331,58,140,853,0,2,214,-8,303562,0
303583,568,-1280,-272,-847,1490,-5040,13475,-11,-14,-451,-80,35572,-94,34,127,0,0,3651,43,0,1331,58,140,863,0,2,214,-8,303562,0
303593,-1385,-3962,-933,-1290,1117,-4893,13469,-14,-13,-383,-88,35572,-120,34,127,0,0,3660,109,0,4721,1123,141,9,1,2,263,0,303577,0
303603,2501,-9682,5339,-552,959,-3648,13497,188,75,1209,1912,35581,-96,34,127,0,0,3913,2812,0,4721,1123,141,19,1,2,263,0,303593,0
303613,-1232,-4308,6061,2911,-2801,-6993,13883,1082,832,1247,2904,35562,-24,34,127,0,0,4027,955,0,4721,1123,141,29,1,2,263,0,303593,0
303623,848,168,1509,1065,-2145,-8842,14418,1158,973,64,1640,35556,8,34,127,0,0,3939,-1043,0,4721,1123,141,39,1,2,263,0,303609,0
303633,913,-1974,98,-4641,-394,-10741,14778,469,-191,-2767,-1496,35558,4,34,127,0,0,3673,-2812,0,4721,1123,141,49,1,2,263,0,303624,0
303643,-67,-1869,-1094,-2775,-412,-10632,14408,-1132,-1874,-1955,-4008,35556,31,33,127,0,0,3370,-3043,0,4721,1123,141,59,1,2,263,0,303624,0
303653,2272,-2990,-4575,-2585,-552,-9933,13654,-1844,-2096,-1499,-5472,35550,101,34,127,0,0,3071,-3120,0,4721,1123,141,69,1,2,263,0,303624,0
303663,1647,-3448,-2302,-636,-526,-8968,12629,-2412,-1190,-1160,-6232,35524,166,34,127,0,0,2805,-2537,0,4721,1123,141,79,1,2,263,0,303671,0
303673,1453,-1644,-1860,695,111,-8263,11463,-2594,-750,-570,-6064,35532,148,34,127,0,0,2577,-2219,0,4721,1123,141,89,1,2,263,0,303671,0
303683,1461,-1385,59,363,365,-7471,10316,-2492,-176,-468,-5832,35538,106,34,127,0,0,2366,-2098,0,4721,1123,141,99,1,2,263,0,303671,0
303693,3808,-1021,-150,-41,200,-5048,9226,-2348,167,-282,-5272,35552,63,33,127,0,0,2203,-1571,0,4721,1123,141,109,1,2,263,0,303687,0
303703,4711,-2025,-783,34,-216,-3386,8217,-2144,274,-117,-4392,35546,43,34,127,0,0,2093,-1054,0,4721,1123,141,119,1,2,263,0,303687,0
303713,2777,-2422,126,460,-500,-1566,7340,-1834,430,6,-3264,35572,-11,34,127,0,0,2041,-472,0,4721,1123,141,129,1,2,263,0,303687,0
303723,1509,-3034,1576,181,-70,-1234,6644,-1408,614,94,-2192,35594,-24,34,127,0,0,2010,-340,0,4721,1123,141,139,1,2,263,0,303718,0
303733,2062,-3781,2340,-259,381,-840,6136,-1004,715,54,-1456,35603,-38,34,127,0,0,1986,-208,0,4721,1123,141,149,1,2,263,0,303718,0
303743,3077,-3505,2173,-441,104,-267,5787,-676,652,-37,-824,35587,-23,34,127,0,0,1986,21,0,4721,1123,141,159,1,2,263,0,303718,0
303753,1802,-3674,1365,-692,-569,1015,5571,-410,546,-140,-304,35581,-34,34,127,0,0,2008,318,0,4721,1123,141,169,1,2,263,0,303765,0
303763,1834,-4637,1255,-1150,-689,1762,5496,9,520,873,632,35593,-51,34,127,0,0,2109,1054,0,4721,1123,141,179,1,2,263,0,303765,0
303773,344,-4721,1582,-1362,-1559,2990,5659,476,764,1049,1984,35588,-46,34,127,0,0,2333,2427,0,4721,1123,141,189,1,2,263,0,303765,0
303783,-1517,-3891,770,-1367,-1924,3188,6067,1093,929,1621,3552,35573,-3,34,127,0,0,2603,2757,0,4721,1123,141,199,1,2,263,0,303765,0
303793,-1600,-3930,-275,-1131,-1848,2688,6768,1750,1059,1654,5160,35544,65,34,127,0,0,2915,3142,0,4721,1123,141,209,1,2,263,0,303765,0
303803,-2081,-3526,-406,-595,-1797,1951,7757,2358,1119,1478,6472,35543,116,34,127,0,0,3265,3548,0,4721,1123,141,219,1,2,263,0,303812,0
303813,-1615,-2938,186,-361,-1636,391,9010,2908,1045,1242,7448,35532,171,34,127,0,0,3583,3142,0,4721,1123,141,229,1,2,263,0,303812,0
303823,-1616,-3225,589,-489,-1755,-423,10416,3155,766,753,7800,35531,189,34,127,0,0,3880,2933,0,4721,1123,141,239,1,2,263,0,303812,0
303833,-1622,-2731,924,-684,-2076,-1876,11905,3289,412,523,7840,35516,174,34,127,0,0,4146,2636,0,4721,1123,141,249,1,2,263,0,303812,0
303843,-1863,-2392,822,-1037,-2085,-2986,13347,3101,31,296,7360,35527,107,34,127,0,0,4381,2263,0,4721,1123,141,259,1,2,263,0,303812,0
303853,-1158,-2306,1025,-1377,-1876,-4642,14698,2941,-286,227,6728,35558,60,34,127,0,0,4563,1779,0,4721,1123,141,269,1,2,263,0,303859,0
303863,-470,-2844,1011,-1211,-1935,-5515,15991,2775,-268,35,5656,35578,21,34,127,0,0,4682,1120,0,4721,1123,141,279,1,2,263,0,303859,0
303873,-583,-2542,1319,-1263,-2845,-6104,17121,2322,-459,-117,4216,35585,4,34,127,0,0,4761,780,0,4721,1123,141,289,1,2,263,0,303859,0
303883,-615,-2009,1330,-1432,-3322,-6204,18012,1812,-814,-107,3208,35577,-31,34,127,0,0,4838,758,0,4721,1123,141,299,1,2,263,0,303874,0
303893,-635,-1904,938,-1777,-3992,-6417,18700,1393,-834,13,2664,35589,-50,34,127,0,0,4928,933,0,4721,1123,141,309,1,2,263,0,303874,0
303903,418,-2081,620,-1876,-3692,-7085,19250,1141,-629,280,2536,35604,-55,34,127,0,0,4992,560,0,4721,1123,141,319,1,2,263,0,303921,0
303913,63,-2203,228,-2059,-2746,-7811,19715,942,-405,155,1520,35606,-26,34,127,0,0,4965,-329,0,4721,1123,141,329,1,2,263,0,303937,0
303923,-445,-2303,490,-2095,-2165,-7992,20037,589,-453,-66,80,35603,-21,34,127,0,0,4880,-900,0,4721,1123,141,339,0,2,263,0,303937,0
303933,-554,-2313,767,-2207,-1562,-7937,20034,-315,-957,-1136,-952,35599,-32,34,127,0,0,4794,-867,0,4721,1123,141,349,0,2,263,0,303937,0
303943,-793,-2042,672,-2225,-1268,-7843,19801,-566,-1098,-523,-1408,35597,-30,34,127,0,0,4715,-791,0,4721,1123,141,359,0,2,263,0,303937,0
303953,-516,-1646,225,-2223,-917,-7517,19499,-686,-469,-421,-1512,35589,-12,34,127,0,0,4653,-593,0,4721,1123,141,369,0,2,263,0,303937,0
303963,-566,-1398,2,-2084,-754,-7372,19177,-704,-147,-371,-1472,35578,0,34,127,0,0,4594,-593,0,4721,1123,141,379,0,2,263,0,303984,0
303973,-561,-1100,-189,-1849,-674,-7260,18859,-698,-23,-347,-1480,35574,-15,34,127,0,0,4539,-560,0,4721,1123,141,389,0,2,263,0,303984,0
303983,-458,-975,-233,-1715,-724,-7177,18547,-694,19,-391,-1544,35576,-19,34,127,0,0,4467,-736,0,4721,1123,141,399,0,2,263,0,303999,0
303993,-308,-936,-295,-1491,-894,-6871,18226,-725,-12,-485,-1712,35569,-4,34,127,0,0,4390,-769,0,4721,1123,141,409,0,2,263,0,303999,0
304003,-154,-1102,-246,-1309,-920,-6460,17879,-777,-76,-453,-1784,35562,-7,34,127,0,0,4315,-747,0,4721,1123,141,419,0,2,263,0,303999,0
304013,108,-1199,-44,-1112,-728,-5444,17510,-823,-85,-404,-1816,35566,-9,34,127,0,0,4240,-725,0,4721,1123,141,429,0,2,263,0,303999,0
304023,205,-1168,-3,-906,-467,-4574,17128,-835,-57,-313,-1736,35581,-35,34,127,0,0,4183,-582,0,4721,1123,141,439,0,2,263,0,304015,0
304033,279,-907,-35,-494,-48,-3361,16761,-797,13,-273,-1592,35600,-15,34,127,0,0,4122,-604,0,4721,1123,141,449,0,2,263,0,304015,0
304043,420,-737,-95,-157,319,-2450,16410,-764,63,-313,-1568,35599,-18,34,127,0,0,4056,-659,0,4721,1123,141,459,0,2,263,0,304015,0
304053,880,-304,-212,250,1045,-816,16065,-753,42,-321,-1576,35609,-12,34,127,0,0,3990,-648,0,4721,1123,141,469,0,2,263,0,304062,0
304063,1015,-45,-325,518,1504,284,15725,-744,21,-338,-1608,35607,-32,34,127,0,0,3913,-802,0,4721,1123,141,479,0,2,263,0,304077,0
304073,1052,303,-458,1044,1997,1745,15384,-761,5,-512,-1832,35605,-11,34,127,0,0,3823,-944,0,4721,1123,141,489,0,2,263,0,304077,0
304083,1038,530,-480,1406,2137,2699,15006,-865,-88,-664,-2208,35585,8,34,127,0,0,3719,-1043,0,4721,1123,141,499,0,2,263,0,304077,0
304093,1228,734,-412,1848,2166,4425,14575,-978,-176,-594,-2392,35566,17,34,127,0,0,3627,-878,0,4721,1123,141,509,0,2,263,0,304077,0
304103,1470,779,-314,2088,2120,5772,14121,-999,-137,-421,-2264,35576,-4,34,127,0,0,3563,-560,0,4721,1123,141,519,0,2,263,0,304077,0
304113,1619,742,-220,2523,1919,7686,13690,-918,17,-223,-1832,35595,-13,34,127,0,0,3531,-296,0,4721,1123,141,529,0,2,263,0,304124,0
304123,1695,794,-183,2769,1636,8760,13321,-761,178,-141,-1288,35607,0,34,127,0,0,3502,-263,0,4721,1123,141,539,0,2,263,0,304124,0
304133,1717,711,-68,3043,756,10072,13026,-605,261,-179,-952,35607,-6,34,127,0,0,3476,-263,0,4721,1123,141,549,0,2,263,0,304124,0
304143,1647,438,26,3251,39,10839,12792,-487,256,-243,-792,35589,-22,34,127,0,0,3451,-263,0,4721,1123,141,559,0,2,263,0,304124,0
304153,1485,-41,105,3637,-1094,11965,12597,-403,181,-325,-632,35588,-47,34,127,0,0,3432,-186,0,4721,1123,141,569,0,2,263,0,304124,0
304163,1296,-371,190,3904,-1672,12555,12438,-319,142,-334,-432,35596,-42,34,127,0,0,3421,-54,0,4721,1123,141,579,0,2,263,0,304155,0
304173,1111,-881,281,4268,-2077,13214,12311,-264,131,-281,-200,35591,-34,34,127,0,0,3416,10,0,4721,1123,141,589,0,2,263,0,304171,0
304183,1019,-1131,166,4434,-2069,13501,12244,-101,179,-220,-88,35591,-40,34,127,0,0,3414,10,0,4721,1123,141,599,0,2,263,0,304171,0
304193,854,-1690,-141,4545,-1599,13727,12238,2,235,-282,-64,35593,-42,34,127,0,0,3414,0,0,4721,1123,141,609,0,2,263,0,304171,0
304203,565,-2059,-509,4572,-948,13780,12246,37,128,-193,-40,35603,-31,34,127,0,0,3423,65,0,4721,1123,141,619,0,2,263,0,304202,0
304213,527,-2615,-1041,4425,595,13560,12273,88,60,40,80,35600,-10,34,127,0,0,3443,186,0,4721,1123,141,629,0,2,263,0,304202,0
304223,445,-3124,-1284,4254,1691,13161,12331,155,102,246,152,35593,8,34,127,0,0,3460,186,0,4721,1123,141,639,0,2,263,0,304202,0
304233,373,-4037,-1146,3861,3425,12236,12405,165,87,310,248,35594,-9,34,127,0,0,3476,142,0,4721,1123,141,649,0,2,263,0,304234,0
304243,397,-4603,-771,3439,4573,11388,12482,191,28,313,208,35601,-19,34,127,0,0,3489,98,0,4721,1123,141,659,0,2,263,0,304234,0
304253,555,-5393,220,2471,5827,9630,12566,169,28,166,120,35598,-33,34,127,0,0,3495,65,0,4721,1123,141,669,0,2,263,0,304234,0
304263,924,-5720,662,1978,6388,8357,12609,42,-81,-74,-32,35597,-44,34,127,0,0,3489,-65,0,4721,1123,141,679,0,2,263,0,304234,0
304273,1234,-4689,734,1452,6555,6383,12584,-57,-222,-37,-40,35601,-65,34,127,0,0,3487,-10,0,4721,1123,141,689,0,2,263,0,304249,0
304283,1366,-3566,693,1115,6359,5045,12589,16,-53,-182,-32,35603,-64,34,127,0,0,3487,0,0,4721,1123,141,699,0,2,263,0,304280,0
304293,1846,-1577,180,894,5481,2866,12586,5,45,-123,-40,35602,-52,34,127,0,0,3487,-10,0,4721,1123,141,709,0,2,263,0,304280,0
304303,2171,-209,-354,702,4215,1367,12586,-4,-11,-184,-64,35581,-43,34,127,0,0,3482,-32,0,4721,1123,141,719,0,2,263,0,304280,0
304313,2109,728,-705,121,2054,-710,12583,0,-5,-247,-32,35577,-52,34,127,0,0,3482,-32,0,4721,1123,141,729,0,2,263,0,304296,0
304323,2057,161,-483,-198,875,-1904,12580,-12,1,-283,-128,35595,-72,34,127,0,0,3476,-65,0,4721,1123,141,739,0,2,263,0,304390,0
304333,1837,-749,-10,-838,-267,-3303,12562,-60,-31,-378,-184,35600,-63,34,127,0,0,3460,-186,0,4721,1123,141,749,0,2,263,0,304390,0
304343,1407,-1091,39,-1221,-533,-4024,12506,-138,-108,-406,-248,35593,-48,34,127,0,0,3440,-230,0,4721,1123,141,759,0,2,263,0,304390,0
304353,630,-1614,-364,-1624,-762,-4830,12434,-190,-103,-685,-448,35578,-53,34,127,0,0,3405,-329,0,4721,1123,141,769,0,2,263,0,304390,0
304363,2040,-9113,1458,-1482,-2975,-4167,12321,-239,-114,249,632,35575,-30,34,127,0,0,3563,1977,0,1468,443,142,3,1,2,294,5,304405,0
304373,-965,-4941,4352,1135,-5076,-5393,12537,683,607,1207,2176,35574,7,34,127,0,0,3717,1549,0,1468,443,142,13,1,2,294,5,304405,0
304383,-1244,-1363,4513,94,-4565,-7189,12962,970,957,483,2016,35565,35,34,127,0,0,3728,-120,0,1468,443,142,23,1,2,294,5,304405,0
304393,-932,463,349,-3526,-1863,-7728,13342,750,278,-20,648,35558,26,34,127,0,0,3662,-703,0,1468,443,142,33,1,2,294,5,304405,0
304403,662,-2289,-1813,-3894,-400,-8535,13514,112,-389,-1494,-528,35565,-48,34,127,0,0,3572,-966,0,1468,443,142,43,1,2,294,5,304405,0
304413,564,-2969,-4202,-2303,1549,-11527,13314,-664,-1135,-1868,-3192,35570,-48,34,127,0,0,3212,-3779,0,1468,443,142,53,1,2,294,5,304405,0
304423,4151,-2417,-1844,-1255,708,-10477,12614,-1867,-1663,-2010,-5408,35552,40,34,127,0,0,2900,-3098,0,1468,443,142,63,1,2,294,5,304405,0
304433,3136,-1895,-1057,-297,-920,-8082,11580,-2375,-1633,-895,-5848,35547,111,34,127,0,0,2656,-2406,0,1468,443,142,73,1,2,294,5,304405,0
304443,971,-1002,-100,-261,-1056,-6678,10481,-2411,-753,-464,-5512,35559,129,34,127,0,0,2463,-1801,0,1468,443,142,83,1,2,294,5,304468,0
304453,954,-1822,-215,-506,29,-6077,9461,-2179,34,-356,-5064,35585,69,34,127,0,0,2298,-1669,0,1468,443,142,93,1,2,294,5,304468,0
304463,2461,-1274,-1095,-239,333,-5264,8515,-2028,315,-327,-4640,35582,49,34,127,0,0,2137,-1571,0,1468,443,142,103,1,2,294,5,304468,0
304473,3847,-2275,-753,356,-65,-3057,7643,-1868,273,-244,-3984,35562,28,34,127,0,0,2032,-999,0,1468,443,142,113,1,2,294,5,304468,0
304483,3291,-2708,389,549,-271,-1942,6944,-1633,327,-75,-3072,35556,-4,34,127,0,0,1973,-549,0,1468,443,142,123,1,2,294,5,304468,0
304493,2110,-3388,1756,238,-42,-1248,6313,-1289,497,-9,-2208,35564,-37,34,127,0,0,1935,-351,0,1468,443,142,133,1,2,294,5,304483,0
304503,2091,-3466,1740,-31,141,-978,5839,-937,597,-45,-1520,35585,-30,34,127,0,0,1909,-263,0,1468,443,142,143,1,2,294,5,304483,0
304513,2750,-3108,1184,-142,-39,29,5506,-660,566,-149,-992,35588,-24,34,127,0,0,1902,-21,0,1468,443,142,153,1,2,294,5,304499,0
304523,1948,-2701,1039,-256,-159,717,5271,-464,442,-175,-440,35585,-37,34,127,0,0,1924,252,0,1468,443,142,163,1,2,294,5,304499,0
304533,2102,-2430,1022,-715,-371,1891,5147,-156,403,465,328,35581,-39,34,127,0,0,1997,791,0,1468,443,142,173,1,2,294,5,304530,0
304543,1760,-2913,596,-1250,-682,2707,5257,358,690,719,1136,35574,-28,34,127,0,0,2122,1307,0,1468,443,142,183,1,2,294,5,304530,0
304553,-875,-4965,1456,-1524,-1683,4257,5500,630,688,1205,2280,35565,-1,34,127,0,0,2346,2406,0,1468,443,142,193,1,2,294,5,304530,0
304563,-1132,-4873,1199,-1121,-2008,4090,5964,1215,681,1743,4192,35555,35,34,127,0,0,2660,3153,0,1468,443,142,203,1,2,294,5,304546,0
304573,-2240,-4071,592,-697,-1992,2833,6753,1935,1088,1621,5680,35538,87,34,127,0,0,2990,3306,0,1468,443,142,213,1,2,294,5,304546,0
304583,-3121,-3682,654,-248,-2089,1958,7834,2548,1175,1424,6848,35523,156,34,127,0,0,3339,3449,0,1468,443,142,223,1,2,294,5,304593,0
304593,-2006,-3313,871,-137,-2544,222,9152,3034,993,1180,7768,35506,222,34,127,0,0,3676,3317,0,1468,443,142,233,1,2,294,5,304593,0
304603,-1977,-3257,1011,-255,-3006,-861,10623,3300,727,742,8064,35501,227,34,127,0,0,3961,2845,0,1468,443,142,243,1,2,294,5,304593,0
304613,-2327,-2500,1047,-654,-3406,-2312,12157,3353,371,396,7848,35511,167,34,127,0,0,4236,2713,0,1468,443,142,253,1,2,294,5,304593,0
304623,-2200,-2403,608,-1037,-3426,-3480,13608,3114,-88,323,7496,35527,95,34,127,0,0,4480,2406,0,1468,443,142,263,1,2,294,5,304593,0
304633,-1365,-1964,451,-1657,-3517,-4925,14993,3045,-293,305,7064,35544,60,34,127,0,0,4677,1922,0,1468,443,142,273,1,2,294,5,304624,0
304643,-773,-2721,629,-1799,-3376,-5744,16343,2891,-172,101,6080,35550,42,34,127,0,0,4820,1395,0,1468,443,142,283,1,2,294,5,304624,0
304653,-1181,-3260,1258,-2097,-3328,-6834,17528,2454,-424,-34,4848,35559,13,34,127,0,0,4910,856,0,1468,443,142,293,1,2,294,5,304655,0
304663,-1242,-3026,1388,-2387,-3175,-7238,18501,1994,-759,-91,3640,35579,-31,34,127,0,0,4981,659,0,1468,443,142,303,1,2,294,5,304655,0
304673,-1223,-2727,1284,-2873,-3074,-7376,19277,1579,-784,-72,2768,35584,-41,34,127,0,0,5049,736,0,1468,443,142,313,1,2,294,5,304655,0
304683,-1020,-2617,863,-3024,-2752,-7476,19873,1205,-719,127,2504,35582,-41,34,127,0,0,5139,922,0,1468,443,142,323,1,2,294,5,304655,0
304693,-521,-2168,84,-2918,-1237,-8493,20353,1019,-550,437,2248,35571,-25,34,127,0,0,5174,241,0,1468,443,142,333,1,2,294,5,304733,0
304703,-355,-1937,-136,-2726,-228,-8793,20751,798,-354,142,1064,35576,-27,34,127,0,0,5121,-582,0,1468,443,142,343,1,2,294,5,304749,0
304713,-861,-1721,228,-2525,805,-8733,20999,405,-471,-767,-464,35580,-13,34,127,0,0,5020,-1032,0,1468,443,142,353,0,2,294,5,304749,0
304723,-748,-1697,416,-2463,1239,-8665,20874,-416,-1044,-665,-1256,35568,-1,34,127,0,0,4913,-1054,0,1468,443,142,363,0,2,294,5,304749,0
304733,-701,-1504,316,-2294,1454,-8389,20602,-671,-954,-718,-1848,35561,25,34,127,0,0,4816,-988,0,1468,443,142,373,0,2,294,5,304749,0
304743,-565,-1392,142,-2104,1418,-8112,20238,-847,-407,-504,-2032,35566,-15,34,127,0,0,4728,-856,0,1468,443,142,383,0,2,294,5,304749,0
304753,-467,-1098,-18,-1643,1139,-7640,19824,-939,-256,-421,-2088,35575,3,34,127,0,0,4647,-802,0,1468,443,142,393,0,2,294,5,304749,0
304763,-444,-854,-43,-1379,808,-7313,19395,-946,-113,-360,-2128,35568,-4,34,127,0,0,4559,-867,0,1468,443,142,403,0,2,294,5,304749,0
304773,-186,-662,-22,-1135,280,-6706,18957,-970,-39,-448,-2296,35567,22,34,127,0,0,4471,-922,0,1468,443,142,413,0,2,294,5,304749,0
304783,34,-718,12,-1067,-29,-6004,18508,-1000,-33,-401,-2264,35567,12,34,127,0,0,4396,-780,0,1468,443,142,423,0,2,294,5,304765,0
304793,299,-909,158,-844,-267,-4706,18060,-967,-19,-257,-2008,35579,3,34,127,0,0,4343,-505,0,1468,443,142,433,0,2,294,5,304780,0
304803,403,-915,271,-710,-241,-3869,17647,-879,79,-171,-1648,35573,-5,34,127,0,0,4291,-505,0,1468,443,142,443,0,2,294,5,304780,0
304813,676,-841,395,-616,236,-2550,17280,-785,159,-195,-1456,35570,-20,34,127,0,0,4231,-615,0,1468,443,142,453,0,2,294,5,304796,0
304823,867,-735,420,-584,772,-1544,16938,-741,128,-303,-1576,35576,-44,34,127,0,0,4152,-780,0,1468,443,142,463,0,2,294,5,304812,0
304833,1152,-560,254,-311,1599,212,16592,-779,33,-452,-1824,35586,-50,34,127,0,0,4056,-966,0,1468,443,142,473,0,2,294,5,304812,0
304843,1130,-266,56,-23,1847,1264,16205,-892,-99,-549,-2120,35586,-40,34,127,0,0,3946,-1087,0,1468,443,142,483,0,2,294,5,304827,0
304853,1188,221,-86,522,1730,2548,15767,-1008,-185,-629,-2472,35566,5,34,127,0,0,3829,-1131,0,1468,443,142,493,0,2,294,5,304843,0
304863,1320,481,-102,815,1399,3426,15273,-1124,-204,-615,-2680,35552,20,34,127,0,0,3724,-1043,0,1468,443,142,503,0,2,294,5,304858,0
304873,1799,717,-58,1194,1009,5157,14754,-1142,-148,-456,-2704,35556,20,34,127,0,0,3638,-845,0,1468,443,142,513,0,2,294,5,304858,0
304883,2037,774,-5,1424,786,6404,14252,-1073,1,-293,-2264,35565,11,34,127,0,0,3588,-494,0,1468,443,142,523,0,2,294,5,304858,0
304893,1893,662,-11,1915,452,7834,13810,-923,168,-185,-1824,35585,5,34,127,0,0,3544,-450,0,1468,443,142,533,0,2,294,5,304890,0
304903,1841,622,-20,2255,125,8554,13436,-786,254,-220,-1528,35583,-11,34,127,0,0,3495,-494,0,1468,443,142,543,0,2,294,5,304890,0
304913,1833,393,32,2745,-446,9600,13119,-665,233,-308,-1376,35585,-55,34,127,0,0,3449,-472,0,1468,443,142,553,0,2,294,5,304890,0
304923,1711,177,133,3013,-829,10272,12832,-623,166,-373,-1288,35588,-54,33,127,0,0,3407,-373,0,1468,443,142,563,0,2,294,5,304905,0
304933,1350,-163,206,3460,-1162,11007,12569,-552,99,-345,-992,35589,-49,34,127,0,0,3385,-219,0,1468,443,142,573,0,2,294,5,304921,0
304943,1177,-374,129,3760,-1108,11372,12349,-462,133,-366,-792,35588,-38,34,127,0,0,3361,-230,0,1468,443,142,583,0,2,294,5,304921,0
304953,1116,-653,-7,4133,-662,11954,12161,-396,142,-383,-656,35579,-34,34,127,0,0,3339,-208,0,1468,443,142,593,0,2,294,5,304936,0
304963,1028,-820,-43,4264,-258,12309,11992,-350,92,-385,-544,35593,-42,34,127,0,0,3322,-164,0,1468,443,142,603,0,2,294,5,304952,0
304973,815,-1175,-131,4380,480,12692,11853,-283,95,-375,-296,35588,-36,34,127,0,0,3317,-21,0,1468,443,142,613,0,2,294,5,304952,0
304983,778,-1603,-196,4374,1074,12774,11762,-160,149,-220,-80,35587,-45,34,127,0,0,3317,-21,0,1468,443,142,623,0,2,294,5,304952,0
304993,602,-2437,-247,4288,1970,12911,11733,0,218,-126,-16,35582,-54,34,127,0,0,3324,54,0,1468,443,142,633,0,2,294,5,304968,0
305003,700,-2883,-176,4076,2595,13027,11757,41,225,78,112,35597,-49,34,127,0,0,3348,241,0,1468,443,142,643,0,2,294,5,304983,0
305013,369,-3664,-30,3640,3338,12692,11813,172,140,412,232,35600,-58,34,127,0,0,3377,296,0,1468,443,142,653,0,2,294,5,305015,0
305023,463,-4249,4,3369,3817,12170,11923,274,183,373,376,35600,-56,34,127,0,0,3403,285,0,1468,443,142,663,0,2,294,5,305015,0
305033,717,-4979,260,2821,4170,11100,12057,299,144,351,408,35583,-55,34,127,0,0,3432,274,0,1468,443,142,673,0,2,294,5,305015,0
305043,761,-5313,692,2369,4226,10099,12202,311,56,270,352,35587,-64,34,127,0,0,3454,208,0,1468,443,142,683,0,2,294,5,305015,0
305053,953,-5333,750,1962,4416,8233,12335,291,-8,224,248,35585,-40,34,127,0,0,3462,76,0,1468,443,142,693,0,2,294,5,305046,0
305063,1147,-4715,619,1858,4540,7089,12434,173,-92,116,128,35588,-10,34,127,0,0,3469,65,0,1468,443,142,703,0,2,294,5,305046,0
