state_time,accelx,accely,accelz,gyrox,gyroy,gyroz,mot_ang,mot_vel,mot_acc,mot_cur,mot_volt,batt_volt,batt_curr,temperature,status_mn,status_ex,status_re,ank_ang,ank_vel,ank_torque,peak_ank_torque,step_energy,step_count,step_time,gait_state,movement,speed,incline,sys_time,eventFlags
259342,56,-2048,210,-46,-8,-36,14574,-3,-3,-320,-72,35579,-18,33,127,0,0,3860,21,0,2033,197,112,1870,1,0,83,0,259395,0
259352,44,-2042,205,-49,-13,-19,14576,1,10,-308,-96,35580,-22,34,127,0,0,3861,-10,0,2033,197,112,1880,1,0,83,0,259395,0
259362,57,-2031,210,-52,4,-17,14576,11,-5,-282,-72,35585,-14,34,127,0,0,3860,16,0,2033,197,112,1890,1,0,83,0,259395,0
259372,62,-2034,217,-55,-1,-17,14575,-5,0,-253,-64,35592,-8,34,127,0,0,3860,10,0,2033,197,112,1900,1,0,83,0,259395,0
259382,41,-2035,218,-54,-7,-7,14575,-1,-2,-293,-72,35593,14,34,127,0,0,3857,-27,0,2033,197,112,1910,1,0,83,0,259395,0
259392,35,-2035,218,-57,-5,-13,14575,8,6,-264,-72,35585,49,34,127,0,0,3860,-38,0,2033,197,112,1920,1,0,83,0,259395,0
259402,28,-2056,218,-64,-8,-9,14576,2,-5,-225,-72,35594,30,34,127,0,0,3860,-32,0,2033,197,112,1930,1,0,83,0,259395,0
259412,37,-2048,227,-62,-2,-15,14575,0,-3,-230,-24,35589,29,34,127,0,0,3858,-32,0,2033,197,112,1940,1,0,83,0,259395,0
259422,42,-2046,221,-75,-3,-18,14576,-4,3,-236,-72,35594,-9,34,127,0,0,3860,-43,0,2033,197,112,1950,1,0,83,0,259411,0
259432,18,-2037,216,-81,-4,-17,14576,11,-2,-231,-48,35598,14,34,127,0,0,3866,49,0,2033,197,112,1960,1,0,83,0,259426,0
259442,39,-2033,213,-73,-7,-18,14580,-1,13,-162,-32,35597,1,34,127,0,0,3861,-27,0,2033,197,112,1970,1,0,83,0,259426,0
259452,34,-2026,216,-84,-8,-21,14578,14,-10,-191,-80,35600,-7,34,127,0,0,3860,-76,0,2033,197,112,1980,1,0,83,0,259458,0
259462,-9,-2031,212,-84,-14,-21,14578,16,1,-128,-56,35600,3,34,127,0,0,3866,-27,0,2033,197,112,1990,1,0,83,0,259458,0
259472,33,-2032,224,-82,-14,-25,14577,-13,2,-168,-48,35593,-7,34,127,0,0,3862,-5,0,2033,197,112,2000,1,0,83,0,259458,0
259482,20,-2037,210,-90,-10,-36,14578,14,1,-192,-56,35586,-2,34,127,0,0,3862,-16,0,2033,197,112,2010,1,0,83,0,259458,0
259492,17,-2041,209,-91,-8,-43,14579,2,12,-124,-32,35589,-17,34,127,0,0,3864,-10,0,2033,197,112,2020,1,0,83,0,259473,0
259502,35,-2043,204,-99,-7,-48,14578,0,-3,-192,-32,35602,-1,34,127,0,0,3864,49,0,2033,197,112,2030,1,0,83,0,259489,0
259512,29,-2049,211,-98,-9,-50,14579,1,5,-170,-32,35600,15,34,127,0,0,3861,-5,0,2033,197,112,2040,1,0,83,0,259504,0
259522,1,-2055,213,-104,-11,-57,14578,2,2,-176,-56,35601,-10,34,127,0,0,3859,-76,0,2033,197,112,2050,1,0,83,0,259520,0
259532,29,-2059,206,-105,-17,-66,14577,4,-6,-216,-48,35596,-7,34,127,0,0,3862,-10,0,2033,197,112,2060,1,0,83,0,259520,0
259542,24,-2053,207,-105,-16,-63,14579,4,10,-157,-32,35591,-1,34,127,0,0,3861,-27,0,2033,197,112,2070,1,0,83,0,259520,0
259552,51,-2048,203,-108,-9,-65,14576,-10,-2,-175,-48,35584,12,34,127,0,0,3859,-38,0,2033,197,112,2080,1,0,83,0,259536,0
259562,2,-2066,191,-102,-20,-66,14579,10,-1,-178,-32,35584,16,34,127,0,0,3861,-49,0,2033,197,112,2090,1,0,83,0,259567,0
259572,32,-2043,200,-102,-18,-65,14578,3,5,-161,-32,35592,-10,34,127,0,0,3861,-38,0,2033,197,112,2100,1,0,83,0,259567,0
259582,38,-2044,192,-100,-8,-61,14578,9,2,-132,-32,35594,-3,34,127,0,0,3864,-10,0,2033,197,112,2110,1,0,83,0,259567,0
259592,44,-2036,181,-94,-11,-60,14576,-17,-7,-187,-24,35589,7,34,127,0,0,3861,16,0,2033,197,112,2120,1,0,83,0,259583,0
259602,60,-2044,189,-85,-2,-63,14579,10,0,-196,-32,35577,13,34,127,0,0,3861,-10,0,2033,197,112,2130,1,0,83,0,259583,0
259612,41,-2037,186,-83,-11,-54,14577,-3,6,-191,-72,35585,5,34,127,0,0,3863,-21,0,2033,197,112,2140,1,0,83,0,259614,0
259622,51,-2029,197,-83,-4,-48,14578,0,1,-166,-56,35605,-20,34,127,0,0,3862,-5,0,2033,197,112,2150,1,0,83,0,259614,0
259632,65,-2033,191,-76,-2,-51,14578,-4,4,-183,-32,35610,-11,34,127,0,0,3861,-21,0,2033,197,112,2160,1,0,83,0,259614,0
259642,53,-2037,193,-79,-10,-43,14578,2,4,-196,-32,35595,-9,34,127,0,0,3864,10,0,2033,197,112,2170,1,0,83,0,259614,0
259652,53,-2038,198,-78,-9,-38,14576,-10,1,-181,-48,35595,-5,34,127,0,0,3866,65,0,2033,197,112,2180,1,0,83,0,259676,0
259662,33,-2043,187,-72,-19,-36,14578,-12,-2,-162,-32,35601,-8,34,127,0,0,3861,10,0,2033,197,112,2190,1,0,83,0,259676,0
259672,64,-2045,184,-68,-10,-41,14579,3,-1,-185,-56,35605,-3,33,127,0,0,3862,-16,0,2033,197,112,2200,1,0,83,0,259676,0
259682,10,-2042,193,-60,-15,-30,14577,2,1,-183,-48,35590,5,34,127,0,0,3862,-27,0,2033,197,112,2210,1,0,83,0,259676,0
259692,41,-2039,184,-62,-9,-36,14578,2,-2,-164,-56,35574,-8,34,127,0,0,3866,-10,0,2033,197,112,2220,1,0,83,0,259676,0
259702,36,-2036,191,-59,-14,-30,14579,0,0,-162,-56,35577,-7,34,127,0,0,3862,-16,0,2033,197,112,2230,1,0,83,0,259692,0
259712,55,-2038,195,-57,-9,-27,14575,-4,-8,-206,-48,35591,-11,34,127,0,0,3866,71,0,2033,197,112,2240,1,0,83,0,259692,0
259722,53,-2043,185,-50,-19,-36,14578,-12,2,-195,-56,35599,-6,34,127,0,0,3862,21,0,2033,197,112,2250,1,0,83,0,259723,0
259732,26,-2042,197,-52,-13,-29,14579,11,0,-163,-56,35604,5,34,127,0,0,3862,-43,0,2033,197,112,2260,1,0,83,0,259723,0
259742,44,-2044,209,-55,-2,-30,14578,6,1,-132,-24,35606,-23,34,127,0,0,3864,16,0,2033,197,112,2270,1,0,83,0,259723,0
259752,58,-2047,208,-62,-3,-28,14578,-11,-1,-158,-56,35599,-17,34,127,0,0,3862,-21,0,2033,197,112,2280,1,0,83,0,259723,0
259762,44,-2048,195,-63,-9,-35,14577,6,-3,-196,-24,35602,-13,34,127,0,0,3861,16,0,2033,197,112,2290,1,0,83,0,259754,0
259772,57,-2055,196,-61,-7,-28,14579,0,6,-176,-56,35601,15,34,127,0,0,3866,-10,0,2033,197,112,2300,1,0,83,0,259770,0
259782,47,-2046,200,-59,-12,-23,14579,4,1,-177,-32,35603,6,34,127,0,0,3861,0,0,2033,197,112,2310,1,0,83,0,259770,0
259792,45,-2042,198,-61,-7,-28,14577,0,-5,-173,-56,35601,-7,34,127,0,0,3862,-43,0,2033,197,112,2320,1,0,83,0,259770,0
259802,21,-2042,199,-63,-16,-24,14580,12,3,-145,-56,35604,-13,34,127,0,0,3866,-38,0,2033,197,112,2330,1,0,83,0,259801,0
259812,9,-2038,192,-64,-13,-25,14580,15,3,-111,-32,35602,5,34,127,0,0,3864,-27,0,2033,197,112,2340,1,0,83,0,259801,0
259822,42,-2050,192,-64,-14,-27,14576,-7,-8,-161,-48,35603,1,34,127,0,0,3862,5,0,2033,197,112,2350,1,0,83,0,259801,0
259832,40,-2036,197,-67,-13,-23,14580,8,6,-136,-56,35597,0,34,127,0,0,3866,5,0,2033,197,112,2360,1,0,83,0,259817,0
259842,31,-2045,201,-67,-19,-21,14578,-10,4,-128,-24,35605,4,34,127,0,0,3861,-32,0,2033,197,112,2370,1,0,83,0,259833,0
259852,48,-2041,196,-69,-25,-20,14580,5,-3,-85,-8,35602,27,34,127,0,0,3863,-54,0,2033,197,112,2380,1,0,83,0,259833,0
259862,21,-2034,186,-68,-28,-20,14580,-2,2,-39,-8,35594,25,34,127,0,0,3870,16,0,2033,197,112,2390,1,0,83,0,259833,0
259872,23,-2036,180,-72,-23,-25,14586,12,6,14,0,35604,4,34,127,0,0,3866,-49,0,2033,197,112,2400,1,0,83,0,259848,0
259882,22,-2046,186,-63,-17,-43,14581,-15,-5,-35,8,35606,3,34,127,0,0,3869,43,0,2033,197,112,2410,1,0,83,0,259895,0
259892,40,-2048,179,-62,-20,-43,14586,-4,-2,-14,0,35609,0,34,127,0,0,3869,0,0,2033,197,112,2420,1,0,83,0,259895,0
259902,30,-2052,188,-60,-14,-53,14585,-1,1,5,24,35593,10,34,127,0,0,3868,5,0,2033,197,112,2430,1,0,83,0,259911,0
259912,50,-2045,193,-58,-15,-52,14585,-4,-7,-6,0,35594,-22,34,127,0,0,3869,0,0,2033,197,112,2440,1,0,83,0,259911,0
259922,35,-2053,198,-60,-21,-50,14586,-3,0,34,0,35595,-21,34,127,0,0,3869,-5,0,2033,197,112,2450,1,0,83,0,259911,0
259932,46,-2046,196,-54,-21,-60,14587,-3,-3,20,0,35600,-7,34,127,0,0,3869,-16,0,2033,197,112,2460,1,0,83,0,259911,0
259942,23,-2049,190,-54,-16,-55,14586,-1,-5,29,24,35611,14,34,127,0,0,3868,0,0,2033,197,112,2470,1,0,83,0,259958,0
259952,51,-2043,181,-51,-16,-64,14587,-11,-1,-14,0,35612,24,34,127,0,0,3866,-32,0,2033,197,112,2480,1,0,83,0,259958,0
259962,7,-2048,188,-48,-16,-66,14585,3,-3,-30,-24,35618,3,34,127,0,0,3867,-49,0,2033,197,112,2490,1,0,83,0,259958,0
259972,16,-2045,185,-56,-18,-74,14586,4,5,-10,0,35609,8,34,127,0,0,3869,-10,0,2033,197,112,2500,1,0,83,0,259958,0
259982,38,-2042,195,-51,-19,-75,14587,4,-1,24,0,35588,12,34,127,0,0,3872,27,0,2033,197,112,2510,-4,0,83,0,259973,0
259992,36,-2047,194,-48,-9,-76,14588,-2,2,41,0,35588,8,34,127,0,0,3869,-21,0,2033,197,112,2520,-4,0,83,0,259973,0
260002,33,-2044,194,-58,-19,-80,14587,-4,-2,4,0,35605,2,34,127,0,0,3869,0,0,2033,197,112,2530,-4,0,83,0,259989,0
260012,42,-2041,193,-57,-16,-82,14588,0,2,11,-24,35618,-7,34,127,0,0,3870,-10,0,2033,197,112,2540,-4,0,83,0,259989,0
260022,30,-2039,196,-60,-27,-76,14586,-2,-5,-6,0,35612,5,34,127,0,0,3869,0,0,2033,197,112,2550,-4,0,83,0,260004,0
260032,45,-2051,193,-51,-21,-74,14587,-2,-1,-24,0,35607,20,34,127,0,0,3869,27,0,2033,197,112,2560,-4,0,83,0,260004,0
260042,40,-2046,189,-56,-21,-73,14587,0,4,-33,0,35612,1,34,127,0,0,3869,16,0,2033,197,112,2570,-4,0,83,0,260036,0
260052,50,-2039,181,-52,-16,-76,14587,-3,3,-65,0,35623,12,34,127,0,0,3866,-21,0,2033,197,112,2580,-4,0,83,0,260036,0
260062,42,-2039,188,-49,-13,-78,14585,4,-2,-69,-16,35618,8,34,127,0,0,3867,-5,0,2033,197,112,2590,-4,0,83,0,260051,0
260072,48,-2040,180,-47,-17,-89,14585,-1,4,-92,-24,35610,22,34,127,0,0,3867,-10,0,2033,197,112,2600,-4,0,83,0,260051,0
260082,25,-2045,185,-44,-8,-94,14584,0,4,-109,-40,35600,-8,34,127,0,0,3864,-32,0,2033,197,112,2610,-4,0,83,0,260082,0
260092,32,-2040,191,-38,-9,-104,14581,0,-7,-156,-64,35615,-24,34,127,0,0,3862,-21,0,2033,197,112,2620,-4,0,83,0,260082,0
260102,18,-2056,185,-37,-4,-117,14580,0,1,-204,-80,35611,-9,34,127,0,0,3863,-32,0,2033,197,112,2630,-4,0,83,0,260082,0
260112,40,-2060,185,-36,-10,-115,14575,-17,-3,-303,-72,35600,-9,34,127,0,0,3854,-32,0,2033,197,112,2640,-4,0,83,0,260082,0
260122,41,-2057,202,-38,-10,-119,14572,-6,-5,-338,-88,35600,-3,34,127,0,0,3855,-43,0,2033,197,112,2650,-4,0,83,0,260129,0
260132,59,-2067,198,-41,-4,-111,14567,-26,-4,-415,-104,35612,-17,34,127,0,0,3852,10,0,2033,197,112,2660,-4,0,83,0,260129,0
260142,51,-2055,188,-43,-4,-115,14566,-5,-10,-453,-128,35617,-10,34,127,0,0,3854,16,0,2033,197,112,2670,-4,0,83,0,260129,0
260152,52,-2056,187,-43,-5,-113,14564,-13,4,-487,-168,35594,-9,34,127,0,0,3849,-27,0,2033,197,112,2680,-4,0,83,0,260129,0
260162,47,-2053,199,-43,1,-117,14556,-22,-19,-539,-152,35590,-27,34,127,0,0,3843,-60,0,2033,197,112,2690,-4,0,83,0,260161,0
260172,53,-2039,191,-42,-5,-125,14553,0,-3,-536,-144,35601,-21,34,127,0,0,3843,-82,0,2033,197,112,2700,-4,0,83,0,260161,0
260182,56,-2042,191,-41,-1,-118,14546,-32,0,-607,-200,35614,-12,34,127,0,0,3843,-38,0,2033,197,112,2710,-4,0,83,0,260161,0
260192,51,-2032,196,-43,-6,-116,14519,-82,-53,-439,-152,35603,0,34,127,0,0,3839,-32,0,2033,197,112,2720,-4,0,83,0,260176,0
260202,38,-2037,188,-44,0,-126,14482,-74,-65,-350,-104,35593,6,34,127,0,0,3840,16,0,2033,197,112,2730,-4,0,83,0,260192,0
260212,51,-2041,196,-42,-5,-116,14454,-72,2,-300,-88,35602,-16,34,127,0,0,3836,10,0,2033,197,112,2740,-4,0,83,0,260192,0
260222,46,-2032,206,-51,0,-116,14435,-23,36,-252,-72,35608,-20,34,127,0,0,3834,5,0,2033,197,112,2750,-4,0,83,0,260207,0
260232,95,-2037,205,-52,-12,-99,14436,-14,60,-387,-104,35609,-19,34,127,0,0,3832,10,0,2033,197,112,2760,-4,0,83,0,260317,0
260242,51,-2033,188,-50,-4,-97,14434,3,18,-373,-96,35604,-3,34,127,0,0,3828,-38,0,2033,197,112,2770,-4,0,83,0,260317,0
260252,75,-2038,182,-46,-9,-92,14431,-16,-4,-445,-88,35595,-14,34,127,0,0,3828,10,0,2033,197,112,2780,-4,0,83,0,260317,0
260262,82,-2041,187,-47,-8,-88,14431,0,-3,-448,-128,35597,-29,34,127,0,0,3827,-10,0,2033,197,112,2790,-4,0,83,0,260317,0
260272,77,-2033,186,-51,-9,-81,14428,-11,2,-457,-104,35591,-43,34,127,0,0,3826,-21,0,2033,197,112,2800,-4,0,83,0,260317,0
260282,78,-2049,193,-51,-6,-69,14426,-21,-3,-507,-152,35583,-40,34,127,0,0,3828,43,0,2033,197,112,2810,-4,0,83,0,260332,0
260292,60,-2041,187,-50,-2,-64,14422,-10,-8,-507,-144,35580,-35,34,127,0,0,3825,10,0,2033,197,112,2820,-4,0,83,0,260332,0
260302,77,-2050,188,-42,-3,-59,14418,0,-4,-505,-136,35586,-47,34,127,0,0,3825,0,0,2033,197,112,2830,-4,0,83,0,260332,0
260312,74,-2045,198,-46,-4,-46,14415,-7,6,-468,-128,35592,-32,34,127,0,0,3825,10,0,2033,197,112,2840,-4,0,83,0,260332,0
260322,86,-2045,190,-49,-15,-41,14413,-9,0,-484,-144,35583,-25,34,127,0,0,3823,-10,0,2033,197,112,2850,-4,0,83,0,260332,0
260332,69,-2040,189,-46,-7,-41,14408,-5,-7,-434,-112,35579,-38,34,127,0,0,3828,21,0,2033,197,112,2860,-4,0,83,0,260332,0
260342,78,-2049,186,-46,1,-39,14407,-14,3,-440,-104,35579,-35,34,127,0,0,3825,27,0,2033,197,112,2870,-4,0,83,0,260332,0
260352,77,-2039,187,-49,-6,-27,14404,-3,6,-417,-128,35594,-25,34,127,0,0,3826,10,0,2033,197,112,2880,-4,0,83,0,260332,0
260362,51,-2049,188,-41,-5,-28,14398,-10,-10,-337,-64,35605,-19,34,127,0,0,3824,0,0,2033,197,112,2890,-4,0,83,0,260332,0
260372,83,-2048,182,-39,-4,-34,14398,-3,8,-347,-88,35615,-14,34,127,0,0,3825,-5,0,2033,197,112,2900,-4,0,83,0,260379,0
260382,44,-2042,184,-39,-8,-28,14396,-3,2,-359,-88,35616,-38,34,127,0,0,3828,32,0,2033,197,112,2910,-4,0,83,0,260411,0
260392,50,-2039,190,-38,-7,-19,14397,3,2,-328,-64,35608,-40,34,127,0,0,3824,-10,0,2033,197,112,2920,-4,0,83,0,260411,0
260402,80,-2042,196,-35,3,-24,14394,-4,1,-334,-88,35594,-30,34,127,0,0,3825,-5,0,2033,197,112,2930,-4,0,83,0,260411,0
260412,71,-2050,192,-32,-4,-23,14393,-9,-5,-335,-80,35581,-32,34,127,0,0,3828,5,0,2033,197,112,2940,-4,0,83,0,260411,0
260422,77,-2039,199,-38,7,-12,14396,5,4,-308,-64,35585,-36,34,127,0,0,3827,5,0,2033,197,112,2950,-4,0,83,0,260411,0
260432,62,-2041,201,-39,1,-6,14395,0,1,-293,-88,35592,-40,34,127,0,0,3825,-10,0,2033,197,112,2960,-4,0,83,0,260411,0
260442,28,-2048,204,-37,-13,-9,14395,0,-2,-296,-64,35598,-24,34,127,0,0,3824,-27,0,2033,197,112,2970,-4,0,83,0,260426,0
260452,69,-2042,196,-48,-9,-14,14393,-7,-2,-317,-56,35594,-21,34,127,0,0,3824,0,0,2033,197,112,2980,-4,0,83,0,260442,0
260462,50,-2053,187,-46,-2,-19,14393,-8,4,-323,-80,35605,-21,34,127,0,0,3825,-5,0,2033,197,112,2990,-4,0,83,0,260442,0
260472,51,-2045,192,-51,-7,-16,14393,-1,-3,-296,-80,35608,-32,34,127,0,0,3828,0,0,2033,197,112,3000,-4,0,83,0,260457,0
260482,71,-2049,188,-48,2,-16,14393,-7,-2,-300,-56,35607,-24,34,127,0,0,3824,10,0,2033,197,112,3010,-4,0,83,0,260473,0
260492,80,-2060,193,-49,7,-18,14395,6,2,-244,-64,35594,-21,34,127,0,0,3827,-16,0,2033,197,112,3020,-4,0,83,0,260489,0
260502,44,-2045,199,-49,-14,-15,14396,1,2,-230,-40,35581,-22,34,127,0,0,3826,-10,0,2033,197,112,3030,-4,0,83,0,260489,0
260512,64,-2048,201,-47,-9,-9,14395,-5,-3,-233,-40,35583,-32,34,127,0,0,3829,32,0,2033,197,112,3040,-4,0,83,0,260489,0
260522,60,-2043,205,-59,-14,-9,14397,-6,3,-253,-16,35595,-37,34,127,0,0,3825,5,0,2033,197,112,3050,-4,0,83,0,260520,0
260532,52,-2040,188,-54,-12,-2,14398,13,1,-187,-24,35600,-35,34,127,0,0,3832,10,0,2033,197,112,3060,-4,0,83,0,260520,0
260542,48,-2040,186,-53,-13,-8,14401,0,5,-115,-24,35586,-29,34,127,0,0,3832,-5,0,2033,197,112,3070,-4,0,83,0,260535,0
260552,54,-2042,186,-50,-5,-13,14401,-1,-10,-145,-24,35588,-49,34,127,0,0,3832,0,0,2033,197,112,3080,-4,0,83,0,260535,0
260562,51,-2047,180,-48,-11,-19,14403,5,-3,-150,-32,35592,-50,34,127,0,0,3861,296,0,2033,197,112,3090,-4,0,83,0,260567,0
260572,-49,-2044,182,-46,-12,-7,14416,36,33,-105,-32,35598,-40,34,127,0,0,3834,115,0,2033,197,112,3100,-4,0,83,0,260567,0
260582,39,-2046,193,-50,-8,-29,14415,-5,-8,-63,-32,35588,-40,34,127,0,0,3837,5,0,2033,197,112,3110,-4,0,83,0,260567,0
260592,40,-2047,192,-48,-13,-28,14422,16,-12,-70,-24,35586,-42,34,127,0,0,3833,-49,0,2033,197,112,3120,-4,0,83,0,260567,0
260602,51,-2039,199,-47,-11,-30,14418,-21,-5,-140,-16,35599,-74,34,127,0,0,3836,32,0,2033,197,112,3130,-4,0,83,0,260660,0
260612,59,-2049,195,-51,-4,-29,14427,21,0,-98,-32,35606,-52,34,127,0,0,3839,0,0,2033,197,112,3140,-4,0,83,0,260660,0
260622,62,-2044,195,-54,-14,-39,14424,-10,6,-78,-24,35600,-49,34,127,0,0,3839,49,0,2033,197,112,3150,-4,0,83,0,260660,0
260632,41,-2050,193,-58,-9,-38,14428,0,-7,-78,-8,35589,-50,34,127,0,0,3838,16,0,2033,197,112,3160,-4,0,83,0,260660,0
260642,63,-2043,187,-57,-9,-48,14427,0,0,-76,-8,35588,-53,34,127,0,0,3838,27,0,2033,197,112,3170,-4,0,83,0,260676,0
260652,50,-2042,183,-59,-11,-49,14429,2,3,-38,-16,35594,-45,34,127,0,0,3838,-27,0,2033,197,112,3180,-4,0,83,0,260676,0
260662,49,-2041,194,-54,-7,-52,14431,5,-1,-18,-16,35585,-42,34,127,0,0,3835,-38,0,2033,197,112,3190,-4,0,83,0,260676,0
260672,55,-2042,187,-61,-10,-60,14430,7,-5,-56,-16,35576,-44,34,127,0,0,3838,-10,0,2033,197,112,3200,-4,0,83,0,260676,0
260682,53,-2037,193,-66,-14,-60,14431,3,3,-31,-16,35582,-43,34,127,0,0,3838,-16,0,2033,197,112,3210,-4,0,83,0,260676,0
260692,47,-2049,185,-60,-13,-58,14428,-15,-5,-140,16,35594,-26,34,127,0,0,3830,-10,0,2033,197,112,3220,-4,0,83,0,260676,0
260702,12,-2053,181,-59,-15,-67,14432,12,5,-59,8,35597,-11,34,127,0,0,3834,-98,0,2033,197,112,3230,-4,0,83,0,260676,0
260712,46,-2042,189,-61,-16,-67,14431,-1,2,-95,8,35597,-1,34,127,0,0,3837,-16,0,2033,197,112,3240,-4,0,83,0,260707,0
260722,96,-2043,199,-61,-10,-62,14430,-18,-8,-140,-24,35605,-30,34,127,0,0,3838,32,0,2033,197,112,3250,-4,0,83,0,260723,0
260732,94,-2051,199,-65,-5,-62,14431,9,0,-95,-16,35604,-38,34,127,0,0,3838,27,0,2033,197,112,3260,-4,0,83,0,260723,0
260742,25,-2042,186,-62,-21,-57,14432,-6,1,-65,8,35592,-32,34,127,0,0,3834,-54,0,2033,197,112,3270,-4,0,83,0,260723,0
260752,76,-2040,188,-66,-18,-65,14431,5,-14,-91,8,35583,-32,34,127,0,0,3837,-5,0,2033,197,112,3280,-4,0,83,0,260739,0
260762,37,-2047,178,-61,-18,-68,14432,-11,3,-90,8,35581,-39,34,127,0,0,3837,5,0,2033,197,112,3290,-4,0,83,0,260754,0
260772,52,-2053,184,-62,-21,-65,14433,4,-2,-83,-24,35597,-55,34,127,0,0,3841,16,0,2033,197,112,3300,-4,0,83,0,260754,0
260782,54,-2046,188,-61,-14,-71,14432,3,-4,-63,-24,35600,-45,34,127,0,0,3832,-54,0,2033,197,112,3310,-4,0,83,0,260785,0
260792,86,-2042,185,-55,-12,-74,14430,-6,-4,-93,-56,35595,-34,34,127,0,0,3837,-65,0,2033,197,112,3320,-4,0,83,0,260785,0
260802,13,-2046,179,-55,-15,-59,14430,4,0,-140,-64,35589,-34,34,127,0,0,3840,0,0,2033,197,112,3330,-4,0,83,0,260785,0
260812,30,-2041,183,-55,-14,-57,14432,11,11,-91,-16,35596,-40,34,127,0,0,3835,-5,0,2033,197,112,3340,-4,0,83,0,260785,0
260822,37,-2052,187,-54,-28,-63,14430,-2,2,-160,-64,35605,-36,34,127,0,0,3834,-49,0,2033,197,112,3350,-4,0,83,0,260817,0
260832,16,-2045,187,-52,-24,-62,14430,18,3,-119,-32,35609,-31,34,127,0,0,3833,-65,0,2033,197,112,3360,-4,0,83,0,260817,0
260842,38,-2050,184,-57,-9,-69,14426,-24,0,-209,-32,35598,-32,34,127,0,0,3839,54,0,2033,197,112,3370,-4,0,83,0,260817,0
260852,20,-2049,180,-52,-10,-55,14429,5,-2,-218,-40,35599,-48,34,127,0,0,3839,93,0,2033,197,112,3380,-4,0,83,0,260848,0
260862,89,-2045,172,-51,-5,-70,14430,5,15,-106,-16,35601,-32,34,127,0,0,3838,54,0,2033,197,112,3390,-4,0,83,0,260848,0
260872,63,-2056,182,-49,-6,-65,14431,-13,-3,-107,-64,35602,-23,34,127,0,0,3837,-27,0,2033,197,112,3400,-4,0,83,0,260864,0
260882,37,-2052,188,-50,-9,-68,14430,14,-4,-127,-8,35597,8,34,127,0,0,3838,21,0,2033,197,112,3410,-4,0,83,0,260864,0
260892,49,-2044,185,-51,-19,-57,14428,-30,1,-188,-40,35586,-18,34,127,0,0,3833,10,0,2033,197,112,3420,-4,0,83,0,260864,0
260902,21,-2046,182,-55,-9,-68,14429,22,-5,-201,-32,35601,-39,34,127,0,0,3836,-16,0,2033,197,112,3430,-4,0,83,0,260895,0
260912,39,-2037,182,-50,-22,-72,14425,-12,3,-220,-32,35605,-28,34,127,0,0,3829,-16,0,2033,197,112,3440,-4,0,83,0,260895,0
260922,28,-2052,182,-47,-5,-81,14429,12,1,-216,-56,35598,-42,34,127,0,0,3834,-65,0,2033,197,112,3450,-4,0,83,0,260895,0
260932,50,-2045,192,-49,-17,-86,14425,-5,0,-262,-80,35590,-46,34,127,0,0,3832,-32,0,2033,197,112,3460,-4,0,83,0,261020,0
260942,53,-2047,186,-57,-7,-94,14425,4,-3,-289,-72,35602,-53,34,127,0,0,3832,0,0,2033,197,112,3470,-4,0,83,0,261020,0
260952,49,-2045,189,-59,-8,-91,14424,0,4,-302,-96,35612,-38,34,127,0,0,3826,-71,0,2033,197,112,3480,-4,0,83,0,261035,0
260962,44,-2048,173,-58,-12,-97,14417,-16,-17,-371,-80,35600,-26,34,127,0,0,3826,-38,0,2033,197,112,3490,-4,0,83,0,261035,0
260972,53,-2046,184,-60,-11,-95,14412,-10,-5,-405,-120,35583,-46,34,127,0,0,3828,-5,0,2033,197,112,3500,-4,0,83,0,261035,0
260982,49,-2048,191,-57,-8,-104,14406,-5,5,-336,-104,35585,-41,34,127,0,0,3825,-54,0,2033,197,112,3510,-4,0,83,0,261035,0
260992,58,-2043,188,-58,-15,-105,14402,-17,5,-376,-96,35593,-32,34,127,0,0,3825,0,0,2033,197,112,3520,-4,0,83,0,261035,0
261002,61,-2045,185,-63,-10,-101,14394,-19,-6,-374,-112,35594,-15,34,127,0,0,3823,-16,0,2033,197,112,3530,-4,0,83,0,261035,0
261012,54,-2043,181,-60,-6,-104,14387,-17,-3,-394,-96,35584,-7,34,127,0,0,3819,0,0,2033,197,112,3540,-4,0,83,0,261035,0
261022,64,-2043,176,-60,-9,-101,14385,0,15,-374,-112,35588,-27,34,127,0,0,3817,-38,0,2033,197,112,3550,-4,0,83,0,261035,0
261032,93,-2045,180,-61,-17,-96,14381,-9,6,-454,-128,35592,-25,34,127,0,0,3818,-10,0,2033,197,112,3560,-4,0,83,0,261035,0
261042,64,-2042,180,-56,-12,-92,14376,-3,-4,-448,-144,35597,-21,34,127,0,0,3823,27,0,2033,197,112,3570,-4,0,83,0,261035,0
261052,56,-2044,182,-55,-14,-88,14375,-9,10,-454,-144,35588,-17,34,127,0,0,3813,-16,0,2033,197,112,3580,-4,0,83,0,261035,0
261062,69,-2049,183,-59,-15,-99,14370,-12,-8,-508,-152,35593,-33,34,127,0,0,3817,16,0,2033,197,112,3590,-4,0,83,0,261051,0
261072,54,-2047,183,-62,-12,-87,14369,1,2,-520,-176,35620,-47,34,127,0,0,3812,0,0,2033,197,112,3600,-4,0,83,0,261051,0
261082,60,-2052,187,-52,-19,-92,14360,-23,-6,-575,-184,35641,-22,34,127,0,0,3810,-16,0,2033,197,112,3610,-4,0,83,0,261082,0
261092,51,-2043,172,-61,-11,-92,14348,-29,-21,-540,-160,35636,-16,34,127,0,0,3810,5,0,2033,197,112,3620,-4,0,83,0,261082,0
261102,72,-2046,177,-56,-11,-89,14316,-84,-44,-360,-120,35615,-29,34,127,0,0,3804,-21,0,2033,197,112,3630,-4,0,83,0,261098,0
261112,59,-2052,179,-49,-9,-92,14298,-6,-3,-314,-72,35600,-59,34,127,0,0,3801,-76,0,2033,197,112,3640,-4,0,83,0,261098,0
261122,98,-2048,187,-53,-11,-86,14301,0,77,-382,-104,35600,-70,34,127,0,0,3805,-16,0,2033,197,112,3650,-4,0,83,0,261098,0
261132,78,-2056,190,-58,-20,-77,14300,-4,20,-386,-104,35606,-62,34,127,0,0,3802,-32,0,2033,197,112,3660,-4,0,83,0,261129,0
261142,56,-2043,177,-53,-15,-81,14299,2,-1,-428,-128,35611,-54,34,127,0,0,3803,-43,0,2033,197,112,3670,-4,0,83,0,261129,0
261152,63,-2048,179,-50,-11,-79,14297,1,-1,-413,-120,35612,-54,34,127,0,0,3806,0,0,2033,197,112,3680,-4,0,83,0,261129,0
261162,74,-2047,171,-48,-13,-72,14296,-6,2,-431,-120,35609,-57,34,127,0,0,3803,-16,0,2033,197,112,3690,-4,0,83,0,261145,0
261172,73,-2040,181,-45,-12,-74,14290,-30,-10,-486,-136,35610,-71,34,127,0,0,3801,10,0,2033,197,112,3700,-4,0,83,0,261160,0
261182,67,-2042,183,-49,-13,-73,14277,-38,-29,-409,-112,35606,-61,34,127,0,0,3801,0,0,2033,197,112,3710,-4,0,83,0,261176,0
261192,74,-2050,181,-47,-11,-79,14259,-47,-24,-285,-72,35607,-87,34,127,0,0,3801,0,0,2033,197,112,3720,-4,0,83,0,261176,0
261202,89,-2035,188,-50,-9,-75,14254,-8,13,-332,-80,35605,-91,34,127,0,0,3802,71,0,2033,197,112,3730,-4,0,83,0,261176,0
261212,75,-2043,191,-44,-13,-63,14254,-7,36,-360,-112,35602,-97,34,127,0,0,3800,27,0,2033,197,112,3740,-4,0,83,0,261207,0
261222,68,-2042,186,-52,-8,-69,14253,9,6,-355,-104,35600,-98,34,127,0,0,3796,-5,0,2033,197,112,3750,-4,0,83,0,261207,0
261232,63,-2039,174,-51,-7,-66,14249,-4,-6,-387,-104,35596,-103,34,127,0,0,3793,-32,0,2033,197,112,3760,-4,0,83,0,261207,0
261242,66,-2044,175,-50,-10,-65,14249,-5,-1,-402,-96,35608,-121,34,127,0,0,3796,-10,0,2033,197,112,3770,-4,0,83,0,261238,0
261252,74,-2045,171,-42,-8,-67,14249,-4,3,-395,-96,35611,-103,34,127,0,0,3793,-32,0,2033,197,112,3780,-4,0,83,0,261238,0
261262,66,-2046,180,-40,-10,-63,14250,-5,3,-372,-120,35601,-94,34,127,0,0,3797,-43,0,2033,197,112,3790,-4,0,83,0,261238,0
261272,61,-2052,185,-41,-15,-63,14248,6,-4,-387,-120,35590,-102,34,127,0,0,3794,-38,0,2033,197,112,3800,-4,0,83,0,261254,0
261282,68,-2047,191,-37,-5,-57,14249,5,5,-434,-120,35596,-113,34,127,0,0,3794,-27,0,2033,197,112,3810,-4,0,83,0,261270,0
261292,73,-2050,190,-44,-15,-57,14245,-10,-1,-450,-112,35611,-102,34,127,0,0,3791,-32,0,2033,197,112,3820,-4,0,83,0,261270,0
261302,67,-2044,186,-47,-10,-58,14244,-10,0,-456,-136,35603,-83,34,127,0,0,3795,-16,0,2033,197,112,3830,-4,0,83,0,261301,0
261312,57,-2046,178,-38,-14,-58,14247,11,2,-426,-112,35594,-65,34,127,0,0,3794,0,0,2033,197,112,3840,-4,0,83,0,261317,0
261322,68,-2055,171,-43,-7,-57,14245,-2,2,-454,-112,35589,-74,34,127,0,0,3794,5,0,2033,197,112,3850,-4,0,83,0,261332,0
261332,73,-2041,172,-41,-13,-56,14244,-9,-6,-492,-152,35597,-72,34,127,0,0,3793,5,0,2033,197,112,3860,-4,0,83,0,261363,0
261342,70,-2045,178,-40,-8,-68,14243,3,-6,-469,-128,35589,-80,34,127,0,0,3789,-21,0,2033,197,112,3870,-4,0,83,0,261363,0
261352,82,-2043,178,-37,-8,-66,14241,-7,1,-461,-152,35577,-75,34,127,0,0,3793,-21,0,2033,197,112,3880,-4,0,83,0,261363,0
261362,81,-2047,194,-45,-9,-66,14241,-2,4,-480,-152,35581,-102,34,127,0,0,3790,-10,0,2033,197,112,3890,-4,0,83,0,261379,0
261372,82,-2049,190,-45,-4,-61,14242,10,2,-513,-152,35590,-112,34,127,0,0,3793,-5,0,2033,197,112,3900,-4,0,83,0,261379,0
261382,88,-2041,184,-49,-3,-52,14241,-1,0,-509,-152,35587,-103,34,127,0,0,3790,10,0,2033,197,112,3910,-4,0,83,0,261379,0
261392,87,-2040,180,-53,-4,-46,14239,-9,-3,-560,-144,35581,-99,34,127,0,0,3786,-10,0,2033,197,112,3920,-4,0,83,0,261379,0
261402,84,-2047,174,-45,-4,-51,14236,3,1,-538,-168,35583,-102,34,127,0,0,3784,-54,0,2033,197,112,3930,-4,0,83,0,261379,0
261412,102,-2051,182,-44,-5,-45,14232,-12,-5,-567,-136,35608,-122,34,127,0,0,3786,-5,0,2033,197,112,3940,-4,0,83,0,261426,0
261422,107,-2041,184,-42,3,-39,14231,-9,0,-591,-152,35628,-117,34,127,0,0,3788,32,0,2033,197,112,3950,-4,0,83,0,261426,0
261432,89,-2038,186,-48,-6,-33,14231,11,7,-525,-128,35611,-111,34,127,0,0,3786,-27,0,2033,197,112,3960,-4,0,83,0,261442,0
261442,78,-2044,178,-43,-4,-27,14230,-4,5,-531,-152,35588,-120,34,127,0,0,3784,-76,0,2033,197,112,3970,-4,0,83,0,261442,0
261452,72,-2041,179,-44,-1,-27,14230,5,1,-538,-152,35582,-114,34,127,0,0,3784,-82,0,2033,197,112,3980,-4,0,83,0,261442,0
261462,62,-2051,180,-46,-3,-27,14228,-8,-1,-529,-152,35588,-103,34,127,0,0,3788,-54,0,2033,197,112,3990,-4,0,83,0,261442,0
261472,69,-2037,187,-42,1,-26,14227,-4,-2,-528,-120,35598,-78,34,127,0,0,3783,-43,0,2033,197,112,4000,-4,0,83,0,261457,0
261482,63,-2051,189,-44,-6,-28,14228,0,3,-508,-128,35596,-61,34,127,0,0,3783,-87,0,2033,197,112,4010,-4,0,83,0,261473,0
261492,79,-2046,181,-44,-10,-22,14229,1,-1,-499,-128,35609,-71,34,127,0,0,3786,-54,0,2033,197,112,4020,-4,0,83,0,261473,0
261502,47,-2041,187,-47,-5,-18,14229,2,2,-518,-104,35603,-74,34,127,0,0,3789,-21,0,2033,197,112,4030,-4,0,83,0,261488,0
261512,68,-2039,177,-51,-4,-21,14227,-3,-1,-558,-144,35604,-85,34,127,0,0,3794,76,0,2033,197,112,4040,-4,0,83,0,261504,0
261522,74,-2048,175,-45,-13,-31,14227,0,0,-481,-144,35593,-79,34,127,0,0,3794,38,0,2033,197,112,4050,-4,0,83,0,261504,0
261532,45,-2046,186,-43,-8,-23,14226,-1,-1,-499,-120,35592,-93,34,127,0,0,3786,-16,0,2033,197,112,4060,-4,0,83,0,261520,0
261542,83,-2044,183,-49,2,-38,14224,-4,-6,-508,-120,35602,-96,34,127,0,0,3786,10,0,2033,197,112,4070,-4,0,83,0,261535,0
261552,65,-2045,182,-47,-1,-44,14224,0,-3,-464,-120,35606,-82,34,127,0,0,3790,-16,0,2033,197,112,4080,-4,0,83,0,261551,0
261562,59,-2042,181,-49,-11,-40,14225,-2,2,-484,-120,35593,-87,34,127,0,0,3790,0,0,2033,197,112,4090,-4,0,83,0,261551,0
261572,57,-2049,189,-49,-7,-42,14226,-3,2,-490,-120,35580,-94,34,127,0,0,3790,0,0,2033,197,112,4100,-4,0,83,0,261566,0
261582,65,-2055,192,-55,-16,-47,14226,0,-1,-486,-120,35585,-113,34,127,0,0,3790,0,0,2033,197,112,4110,-4,0,83,0,261566,0
261592,65,-2054,189,-56,-7,-52,14227,7,6,-473,-120,35589,-97,34,127,0,0,3783,-93,0,2033,197,112,4120,-4,0,83,0,261582,0
261602,47,-2042,178,-60,-12,-52,14223,-4,-1,-478,-112,35583,-84,33,127,0,0,3783,-87,0,2033,197,112,4130,-4,0,83,0,261582,0
261612,70,-2047,173,-58,-13,-61,14222,8,1,-463,-112,35579,-93,34,127,0,0,3790,-21,0,2033,197,112,4140,-4,0,83,0,261613,0
261622,89,-2044,190,-52,-10,-57,14224,4,13,-470,-120,35592,-91,34,127,0,0,3793,32,0,2033,197,112,4150,-4,0,83,0,261613,0
261632,59,-2043,188,-54,-7,-55,14223,11,-1,-445,-112,35604,-95,34,127,0,0,3786,-21,0,2033,197,112,4160,-4,0,83,0,261613,0
261642,54,-2045,181,-54,-9,-62,14220,-6,-5,-466,-112,35594,-83,34,127,0,0,3786,-27,0,2033,197,112,4170,-4,0,83,0,261629,0
261652,85,-2047,181,-63,-14,-66,14220,-5,0,-506,-112,35580,-79,34,127,0,0,3786,-16,0,2033,197,112,4180,-4,0,83,0,261629,0
261662,91,-2048,182,-64,-9,-63,14214,-16,-7,-439,-72,35585,-90,34,127,0,0,3789,49,0,2033,197,112,4190,-4,0,83,0,261645,0
261672,88,-2045,177,-63,-9,-61,14213,-12,-5,-426,-96,35601,-87,34,127,0,0,3786,-5,0,2033,197,112,4200,-4,0,83,0,261645,0
261682,55,-2036,177,-64,-10,-67,14207,-8,-5,-349,-104,35600,-87,34,127,0,0,3788,-49,0,2033,197,112,4210,-4,0,83,0,261723,0
261692,72,-2035,186,-66,-13,-61,14196,-29,-16,-358,-64,35602,-74,34,127,0,0,3783,-21,0,2033,197,112,4220,-4,0,83,0,261738,0
261702,79,-2048,178,-64,-8,-65,14191,4,4,-300,-96,35600,-80,34,127,0,0,3785,-38,0,2033,197,112,4230,-4,0,83,0,261738,0
261712,95,-2049,176,-64,-8,-68,14189,2,24,-314,-48,35608,-80,34,127,0,0,3790,32,0,2033,197,112,4240,-4,0,83,0,261738,0
261722,93,-2043,175,-67,-4,-46,14194,12,16,-225,-104,35606,-64,34,127,0,0,3785,-104,0,2033,197,112,4250,-4,0,83,0,261738,0
261732,76,-2041,175,-59,-6,-61,14187,-1,-17,-232,-40,35593,-67,34,127,0,0,3790,5,0,2033,197,112,4260,-4,0,83,0,261738,0
261742,87,-2046,174,-52,-13,-52,14192,-3,5,-284,-56,35582,-65,33,127,0,0,3786,-21,0,2033,197,112,4270,-4,0,83,0,261738,0
261752,67,-2038,175,-56,-13,-50,14186,-1,-3,-327,-40,35582,-74,34,127,0,0,3790,71,0,2033,197,112,4280,-4,0,83,0,261754,0
261762,90,-2043,184,-52,-15,-51,14191,-5,8,-251,-80,35598,-64,34,127,0,0,3788,-21,0,2033,197,112,4290,-4,0,83,0,261754,0
261772,66,-2057,173,-51,-16,-55,14185,-7,-14,-302,-40,35597,-63,34,127,0,0,3790,82,0,2033,197,112,4300,-4,0,83,0,261754,0
261782,101,-2038,181,-51,-6,-47,14191,3,2,-260,-80,35605,-82,34,127,0,0,3784,-65,0,2033,197,112,4310,-4,0,83,0,261785,0
261792,67,-2049,189,-53,-13,-57,14183,-8,-12,-331,-56,35611,-76,34,127,0,0,3788,38,0,2033,197,112,4320,-4,0,83,0,261785,0
261802,109,-2039,181,-59,-9,-57,14185,-11,-4,-344,-88,35616,-77,34,127,0,0,3785,10,0,2033,197,112,4330,-4,0,83,0,261785,0
261812,74,-2049,178,-62,-5,-56,14187,21,12,-288,-48,35603,-71,34,127,0,0,3783,-60,0,2033,197,112,4340,-4,0,83,0,261801,0
261822,80,-2048,176,-58,-8,-52,14185,-9,-3,-279,-80,35593,-65,34,127,0,0,3785,-38,0,2033,197,112,4350,-4,0,83,0,261801,0
261832,82,-2047,175,-55,-3,-58,14184,-3,-11,-319,-88,35606,-78,34,127,0,0,3785,-5,0,2033,197,112,4360,-4,0,83,0,261832,0
261842,72,-2045,177,-51,-14,-61,14186,0,11,-324,-64,35623,-78,34,127,0,0,3784,0,0,2033,197,112,4370,-4,0,83,0,261832,0
261852,86,-2046,183,-54,-7,-57,14185,-6,-3,-348,-88,35625,-69,34,127,0,0,3789,32,0,2033,197,112,4380,-4,0,83,0,261832,0
261862,76,-2051,179,-50,-3,-61,14184,-5,-1,-343,-88,35605,-65,34,127,0,0,3785,10,0,2033,197,112,4390,-4,0,83,0,261832,0
261872,80,-2051,177,-55,-3,-59,14185,3,-1,-358,-152,35590,-80,34,127,0,0,3789,-16,0,2033,197,112,4400,-4,0,83,0,261863,0
261882,60,-2042,184,-56,-13,-54,14183,7,-8,-367,-104,35600,-83,34,127,0,0,3786,27,0,2033,197,112,4410,-4,0,83,0,261863,0
261892,61,-2044,179,-61,-15,-48,14181,-6,3,-379,-104,35601,-65,34,127,0,0,3783,16,0,2033,197,112,4420,-4,0,83,0,261879,0
261902,64,-2044,177,-62,-13,-58,14182,-2,3,-388,-104,35592,-55,34,127,0,0,3783,-16,0,2033,197,112,4430,-4,0,83,0,261910,0
261912,66,-2039,182,-61,-18,-53,14180,-6,-8,-415,-104,35597,-65,34,127,0,0,3783,16,0,2033,197,112,4440,-4,0,83,0,261910,0
261922,78,-2048,176,-51,-1,-59,14181,-3,2,-409,-96,35603,-85,34,127,0,0,3777,-65,0,2033,197,112,4450,-4,0,83,0,261926,0
261932,91,-2044,172,-63,-13,-57,14180,0,1,-413,-96,35609,-84,34,127,0,0,3780,-54,0,2033,197,112,4460,-4,0,83,0,261926,0
261942,72,-2058,179,-59,-11,-51,14179,-3,2,-430,-120,35596,-66,33,127,0,0,3781,-32,0,2033,197,112,4470,-4,0,83,0,261926,0
261952,79,-2052,173,-52,-5,-59,14178,1,3,-425,-96,35593,-65,34,127,0,0,3780,-38,0,2033,197,112,4480,-4,0,83,0,261926,0
261962,83,-2045,176,-58,-11,-51,14178,-2,3,-425,-120,35606,-70,34,127,0,0,3781,-32,0,2033,197,112,4490,-4,0,83,0,261957,0
261972,88,-2049,178,-55,-11,-49,14178,-1,0,-471,-144,35627,-65,34,127,0,0,3779,-21,0,2033,197,112,4500,-4,0,83,0,261957,0
261982,66,-2040,174,-45,-8,-39,14172,-5,-11,-417,-80,35612,-65,34,127,0,0,3777,-27,0,2033,197,112,4510,-4,0,83,0,261973,0
261992,113,-2041,172,-51,-7,-51,14172,-13,5,-478,-104,35600,-50,34,127,0,0,3778,0,0,2033,197,112,4520,-4,0,83,0,261973,0
262002,62,-2040,176,-48,-11,-53,14173,9,7,-432,-128,35602,-71,34,127,0,0,3779,-60,0,2033,197,112,4530,-4,0,83,0,261988,0
262012,54,-2038,176,-47,-10,-51,14169,3,-1,-401,-104,35618,-65,34,127,0,0,3781,0,0,2033,197,112,4540,-4,0,83,0,261988,0
262022,67,-2042,173,-48,-5,-46,14173,-1,6,-361,-128,35620,-60,34,127,0,0,3779,-87,0,2033,197,112,4550,-4,0,83,0,262020,0
262032,77,-2033,176,-50,-8,-50,14165,-15,-13,-448,-120,35611,-58,34,127,0,0,3782,32,0,2033,197,112,4560,-4,0,83,0,262020,0
262042,75,-2042,169,-56,-12,-39,14166,4,0,-419,-120,35590,-68,34,127,0,0,3779,-43,0,2033,197,112,4570,-4,0,83,0,262020,0
262052,71,-2048,177,-47,-3,-47,14167,5,17,-374,-72,35600,-86,34,127,0,0,3783,0,0,2033,197,112,4580,-4,0,83,0,262066,0
262062,101,-2050,176,-51,-11,-50,14168,-10,-1,-418,-128,35611,-69,34,127,0,0,3779,-21,0,2033,197,112,4590,-4,0,83,0,262129,0
262072,70,-2054,176,-54,-3,-45,14162,-5,-16,-393,-112,35601,-53,34,127,0,0,3779,-5,0,2033,197,112,4600,-4,0,83,0,262129,0
262082,73,-2053,166,-39,-9,-44,14162,-8,2,-422,-112,35593,-61,34,127,0,0,3779,0,0,2033,197,112,4610,-4,0,83,0,262129,0
262092,76,-2052,164,-42,-11,-49,14162,0,4,-413,-112,35592,-75,34,127,0,0,3779,0,0,2033,197,112,4620,-4,0,83,0,262129,0
262102,80,-2049,170,-41,-14,-45,14162,-3,-1,-410,-160,35609,-63,34,127,0,0,3781,-10,0,2033,197,112,4630,-4,0,83,0,262144,0
262112,66,-2049,170,-38,-9,-39,14161,4,-1,-391,-104,35603,-48,34,127,0,0,3776,-32,0,2033,197,112,4640,-4,0,83,0,262144,0
262122,87,-2045,183,-41,-6,-41,14157,-4,-2,-414,-104,35591,-48,34,127,0,0,3779,-10,0,2033,197,112,4650,-4,0,83,0,262144,0
262132,79,-2047,182,-42,-10,-37,14157,6,6,-356,-104,35588,-61,34,127,0,0,3779,-43,0,2033,197,112,4660,-4,0,83,0,262144,0
262142,83,-2055,188,-45,-3,-33,14153,-13,2,-335,-96,35597,-53,34,127,0,0,3779,5,0,2033,197,112,4670,-4,0,83,0,262144,0
262152,101,-2055,191,-42,-1,-35,14151,-7,-4,-355,-64,35600,-46,33,127,0,0,3774,-27,0,2033,197,112,4680,-4,0,83,0,262144,0
262162,73,-2050,188,-56,-7,-38,14143,-25,-11,-343,-72,35585,-40,34,127,0,0,3779,-10,0,2033,197,112,4690,-4,0,83,0,262144,0
262172,68,-2045,179,-51,-6,-37,14136,-13,-10,-269,-56,35590,-74,34,127,0,0,3779,5,0,2033,197,112,4700,-4,0,83,0,262144,0
262182,74,-2046,168,-54,-9,-44,14134,3,15,-218,-24,35612,-71,34,127,0,0,3778,5,0,2033,197,112,4710,-4,0,83,0,262176,0
262192,78,-2027,167,-54,-9,-48,14134,-2,20,-208,-56,35621,-54,34,127,0,0,3779,-16,0,2033,197,112,4720,-4,0,83,0,262176,0
262202,64,-2026,170,-53,-18,-53,14134,4,0,-223,-48,35605,-41,34,127,0,0,3779,0,0,2033,197,112,4730,-4,0,83,0,262176,0
262212,70,-2016,167,-54,-16,-60,14134,5,-1,-221,-56,35593,-46,34,127,0,0,3779,0,0,2033,197,112,4740,-4,0,83,0,262238,0
262222,57,-2021,171,-57,-22,-59,14133,-3,3,-226,-56,35604,-66,34,127,0,0,3779,0,0,2033,197,112,4750,-4,0,83,0,262238,0
262232,65,-2036,179,-61,-16,-70,14132,-6,-1,-224,-56,35610,-52,34,127,0,0,3779,0,0,2033,197,112,4760,-4,0,83,0,262238,0
262242,68,-2049,176,-61,-10,-89,14134,6,0,-187,-56,35598,-46,34,127,0,0,3779,-43,0,2033,197,112,4770,-4,0,83,0,262238,0
262252,51,-2064,158,-57,1,-120,14132,6,-3,-217,-96,35575,-56,34,127,0,0,3774,-60,0,2033,197,112,4780,-4,0,83,0,262238,0
262262,78,-2076,165,-51,2,-115,14124,-14,-14,-291,-80,35577,-63,34,127,0,0,3774,0,0,2033,197,112,4790,-4,0,83,0,262238,0
262272,87,-2065,168,-45,-6,-106,14120,-12,0,-363,-96,35601,-52,34,127,0,0,3772,10,0,2033,197,112,4800,-4,0,83,0,262254,0
262282,93,-2079,172,-43,-16,-101,14116,2,5,-351,-112,35618,-42,34,127,0,0,3770,-10,0,2033,197,112,4810,-4,0,83,0,262285,0
262292,90,-2070,161,-45,-9,-93,14114,-10,5,-398,-136,35621,-30,34,127,0,0,3768,-21,0,2033,197,112,4820,-4,0,83,0,262285,0
262302,95,-2058,158,-37,-5,-89,14109,-10,-4,-437,-120,35616,-54,34,127,0,0,3765,16,0,2033,197,112,4830,-4,0,83,0,262285,0
262312,96,-2064,160,-27,-4,-81,14102,-11,-5,-446,-112,35608,-51,34,127,0,0,3765,-10,0,2033,197,112,4840,-4,0,83,0,262285,0
262322,104,-2034,158,-28,-8,-69,14096,-13,0,-420,-120,35612,-45,34,127,0,0,3762,-32,0,2033,197,112,4850,-4,0,83,0,262316,0
262332,99,-2036,160,-19,-10,-66,14081,-37,-15,-329,-120,35602,-36,34,127,0,0,3767,-16,0,2033,197,112,4860,-4,0,83,0,262316,0
262342,76,-2037,161,-9,-6,-62,14064,-23,-29,-183,-56,35597,-54,34,127,0,0,3762,-32,0,2033,197,112,4870,-4,0,83,0,262316,0
262352,102,-2022,172,-8,-6,-47,14062,-6,30,-312,-72,35599,-54,34,127,0,0,3763,5,0,2033,197,112,4880,-4,0,83,0,262332,0
262362,94,-2049,170,-3,-13,-40,14063,11,32,-269,-80,35600,-54,34,127,0,0,3763,0,0,2033,197,112,4890,-4,0,83,0,262363,0
262372,71,-2042,167,2,-11,-45,14060,6,-3,-277,-48,35603,-40,34,127,0,0,3759,0,0,2033,197,112,4900,-4,0,83,0,262363,0
262382,70,-2041,160,11,-3,-54,14061,-3,-5,-300,-72,35592,-43,34,127,0,0,3760,-16,0,2033,197,112,4910,-4,0,83,0,262363,0
262392,88,-2043,164,17,-11,-53,14062,5,0,-250,-72,35594,-52,34,127,0,0,3763,-16,0,2033,197,112,4920,-4,0,83,0,262379,0
262402,72,-2036,158,24,-9,-43,14060,-5,1,-240,-72,35597,-40,34,127,0,0,3760,-60,0,2033,197,112,4930,-4,0,83,0,262394,0
262412,101,-2042,154,29,-5,-46,14060,-1,-12,-315,-88,35592,-25,34,127,0,0,3761,-16,0,2033,197,112,4940,-4,0,83,0,262394,0
262422,81,-2031,167,43,-6,-40,14058,-5,-2,-308,-64,35580,-46,34,127,0,0,3763,21,0,2033,197,112,4950,-4,0,83,0,262394,0
262432,83,-2016,151,58,-6,-32,14059,-6,2,-273,-72,35586,-54,34,127,0,0,3760,-16,0,2033,197,112,4960,-4,0,83,0,262488,0
262442,69,-2034,163,66,-10,-38,14060,0,0,-289,-96,35603,-54,34,127,0,0,3765,10,0,2033,197,112,4970,-4,0,83,0,262488,0
262452,45,-2030,166,73,-13,-40,14059,5,-2,-264,-72,35603,-41,34,127,0,0,3763,16,0,2033,197,112,4980,-4,0,83,0,262488,0
262462,87,-2029,175,76,7,-49,14059,-9,2,-237,-72,35588,-40,34,127,0,0,3763,5,0,2033,197,112,4990,-4,0,83,0,262504,0
262472,48,-2034,182,78,2,-47,14059,-1,-4,-253,-72,35582,-62,34,127,0,0,3760,-32,0,2033,197,112,5000,-4,0,83,0,262504,0
262482,79,-2028,179,84,-6,-53,14057,-12,-5,-294,-64,35586,-56,34,127,0,0,3763,32,0,2033,197,112,5010,-4,0,83,0,262504,0
262492,95,-2039,192,80,-3,-54,14059,-1,0,-285,-112,35587,-47,34,127,0,0,3762,-16,0,2033,197,112,5020,-4,0,83,0,262504,0
262502,63,-2067,190,90,-3,-77,14057,0,-6,-305,-88,35576,-33,34,127,0,0,3758,-32,0,2033,197,112,5030,-4,0,83,0,262504,0
262512,72,-2079,188,86,5,-77,14057,-1,1,-343,-112,35568,-56,34,127,0,0,3759,-21,0,2033,197,112,5040,-4,0,83,0,262504,0
262522,93,-2075,192,89,4,-79,14056,-2,2,-364,-136,35582,-67,34,127,0,0,3757,-38,0,2033,197,112,5050,-4,0,83,0,262504,0
262532,109,-2076,191,95,-2,-74,14053,-5,-2,-380,-128,35594,-49,34,127,0,0,3754,-38,0,2033,197,112,5060,-4,0,83,0,262504,0
262542,110,-2076,196,88,-4,-62,14048,-11,-6,-490,-168,35603,-44,34,127,0,0,3759,32,0,2033,197,112,5070,-4,0,83,0,262535,0
262552,78,-2066,192,96,0,-47,14042,-14,0,-446,-152,35598,-33,34,127,0,0,3752,27,0,2033,197,112,5080,-4,0,83,0,262551,0
262562,95,-2058,177,98,10,-31,14040,4,7,-475,-128,35597,-46,34,127,0,0,3755,10,0,2033,197,112,5090,-4,0,83,0,262551,0
262572,107,-2054,182,102,5,-17,14040,4,15,-425,-128,35591,-43,34,127,0,0,3751,-32,0,2033,197,112,5100,-4,0,83,0,262551,0
262582,103,-2047,210,106,11,-9,14040,0,3,-428,-152,35590,-41,34,127,0,0,3756,-5,0,2033,197,112,5110,-4,0,83,0,262566,0
262592,88,-2046,218,99,14,0,14037,-12,-7,-444,-120,35587,-47,34,127,0,0,3751,32,0,2033,197,112,5120,-4,0,83,0,262582,0
262602,117,-2040,239,98,22,10,14038,4,8,-428,-120,35592,-49,34,127,0,0,3755,-10,0,2033,197,112,5130,-4,0,83,0,262582,0
262612,94,-2030,237,89,9,21,14035,-3,1,-429,-112,35609,-57,34,127,0,0,3755,27,0,2033,197,112,5140,-4,0,83,0,262617,0
262622,80,-2003,221,73,22,33,14036,-6,-1,-420,-120,35606,-51,34,127,0,0,3758,32,0,2033,197,112,5150,-4,0,83,0,262619,0
262632,51,-2011,205,72,23,33,14039,5,3,-325,-96,35596,-34,34,127,0,0,3754,-27,0,2033,197,112,5160,-4,0,83,0,262622,0
262642,66,-2026,212,70,19,30,14037,-12,-7,-391,-72,35589,-56,34,127,0,0,3759,60,0,2033,197,112,5170,-4,0,83,0,262626,0
262652,58,-2025,228,73,14,35,14045,20,12,-302,-88,35596,-58,34,127,0,0,3759,-27,0,2033,197,112,5180,-4,0,83,0,262641,0
262662,78,-2032,248,50,3,37,14042,-7,-1,-301,-56,35613,-41,34,127,0,0,3761,38,0,2033,197,112,5190,-4,0,83,0,262641,0
262672,62,-2047,238,47,5,28,14049,23,0,-191,-48,35603,-25,34,127,0,0,3763,-10,0,2033,197,112,5200,-4,0,83,0,262657,0
262682,61,-2045,236,38,4,21,14050,-1,8,-85,0,35593,-37,34,127,0,0,3768,32,0,2033,197,112,5210,-4,0,83,0,262688,0
262692,64,-2048,234,29,-2,23,14055,2,-8,-68,-40,35595,-59,34,127,0,0,3769,-5,0,2033,197,112,5220,-4,0,83,0,262688,0
262702,31,-2041,232,24,-7,11,14055,14,0,-17,8,35606,-45,34,127,0,0,3767,-27,0,2033,197,112,5230,-4,0,83,0,262688,0
262712,51,-2043,229,14,0,-9,14056,0,-2,-17,8,35600,-37,34,127,0,0,3770,5,0,2033,197,112,5240,-4,0,83,0,262688,0
262722,36,-2059,232,2,-9,-27,14057,1,2,0,24,35581,-41,34,127,0,0,3772,38,0,2033,197,112,5250,-4,0,83,0,262719,0
262732,25,-2048,247,-1,-7,-45,14061,4,8,24,0,35588,-63,34,127,0,0,3770,-16,0,2033,197,112,5260,-4,0,83,0,262719,0
262742,17,-2057,248,-27,-17,-61,14059,4,-12,16,0,35600,-62,34,127,0,0,3773,5,0,2033,197,112,5270,-4,0,83,0,262719,0
262752,7,-2047,252,-28,-21,-74,14060,-6,-6,12,24,35595,-44,34,127,0,0,3769,27,0,2033,197,112,5280,-4,0,83,0,262735,0
262762,52,-2056,232,-43,-20,-108,14059,-7,-3,20,0,35585,-42,34,127,0,0,3770,-5,0,2033,197,112,5290,-4,0,83,0,262751,0
262772,53,-2061,238,-51,-28,-118,14059,-1,-3,5,24,35583,-46,34,127,0,0,3769,5,0,2033,197,112,5300,-4,0,83,0,262751,0
262782,59,-2048,239,-60,-26,-129,14060,-5,-1,-26,24,35599,-41,34,127,0,0,3772,43,0,2033,197,112,5310,-4,0,83,0,262766,0
262792,38,-2040,218,-65,-29,-132,14060,-4,-1,-49,-24,35606,-33,34,127,0,0,3771,27,0,2033,197,112,5320,-4,0,83,0,262766,0
262802,60,-2046,194,-61,-29,-163,14059,11,-2,-84,-16,35594,-22,34,127,0,0,3765,-16,0,2033,197,112,5330,-4,0,83,0,262782,0
262812,65,-2044,186,-57,-8,-213,14056,-5,-2,-167,-40,35593,-41,34,127,0,0,3762,-54,0,2033,197,112,5340,-4,0,83,0,262797,0
262822,77,-2052,195,-37,5,-214,14053,0,-7,-251,-104,35591,-46,34,127,0,0,3759,-71,0,2033,197,112,5350,-4,0,83,0,262813,0
262832,105,-2029,199,-30,0,-219,14044,-28,-11,-398,-136,35603,-41,34,127,0,0,3755,-32,0,2033,197,112,5360,-4,0,83,0,262813,0
262842,75,-2024,195,-23,-10,-203,14034,-24,-17,-507,-184,35589,-37,34,127,0,0,3748,-16,0,2033,197,112,5370,-4,0,83,0,262813,0
262852,79,-2034,180,-13,-12,-213,14013,-53,-21,-445,-168,35584,-43,34,127,0,0,3743,-65,0,2033,197,112,5380,-4,0,83,0,262860,0
262862,75,-2023,155,14,4,-223,13981,-59,-34,-430,-176,35590,-53,34,127,0,0,3739,-54,0,2033,197,112,5390,-4,0,83,0,262860,0
262872,115,-2036,168,32,5,-203,13961,-43,10,-511,-184,35600,-47,34,127,0,0,3738,-32,0,2033,197,112,5400,-4,0,83,0,262860,0
262882,123,-2048,223,35,-4,-196,13926,-74,-5,-388,-184,35592,-36,34,127,0,0,3728,-93,0,2033,197,112,5410,-4,0,83,0,262875,0
262892,107,-2049,249,30,-6,-179,13893,-66,-19,-391,-120,35586,-31,34,127,0,0,3725,-32,0,2033,197,112,5420,-4,0,83,0,262875,0
262902,123,-2033,231,26,-7,-174,13862,-55,12,-288,-104,35603,-12,34,127,0,0,3721,-71,0,2033,197,112,5430,-4,0,83,0,262875,0
262912,117,-2026,202,35,-10,-146,13862,4,67,-477,-144,35617,10,34,127,0,0,3719,-16,0,2033,197,112,5440,-4,0,83,0,262938,0
262922,83,-2012,182,47,-16,-146,13860,-7,49,-527,-184,35622,25,34,127,0,0,3718,-21,0,2033,197,112,5450,-4,0,83,0,262938,0
262932,62,-2030,194,55,-2,-146,13847,-41,-26,-614,-216,35598,25,34,127,0,0,3711,27,0,2033,197,112,5460,-4,0,83,0,262969,0
262942,91,-2037,224,60,7,-158,13824,-62,-42,-503,-168,35591,18,34,127,0,0,3707,-32,0,2033,197,112,5470,-4,0,83,0,262969,0
262952,116,-2052,250,55,10,-151,13796,-57,-31,-433,-184,35597,21,34,127,0,0,3707,0,0,2033,197,112,5480,-4,0,83,0,262969,0
262962,130,-2055,273,40,-16,-128,13791,-4,41,-514,-192,35600,14,34,127,0,0,3699,-65,0,2033,197,112,5490,-4,0,83,0,262985,0
262972,143,-2054,266,22,-21,-123,13779,-29,30,-568,-168,35596,13,34,127,0,0,3699,-54,0,2033,197,112,5500,-4,0,83,0,262985,0
262982,103,-2047,257,12,-11,-128,13752,-77,-43,-427,-144,35602,-11,34,127,0,0,3696,-32,0,2033,197,112,5510,-4,0,83,0,262985,0
262992,94,-2050,237,7,-4,-138,13721,-52,-42,-342,-104,35609,-13,34,127,0,0,3697,-21,0,2033,197,112,5520,-4,0,83,0,262985,0
263002,119,-2036,235,6,-5,-125,13703,-29,31,-301,-88,35609,-17,34,127,0,0,3695,-16,0,2033,197,112,5530,-4,0,83,0,262985,0
263012,109,-2040,255,-9,-13,-122,13681,-43,17,-266,-72,35608,-35,34,127,0,0,3690,-21,0,2033,197,112,5540,-4,0,83,0,262985,0
263022,70,-2044,252,-17,-12,-131,13680,10,30,-326,-112,35606,-43,34,127,0,0,3689,-87,0,2033,197,112,5550,-4,0,83,0,263016,0
263032,108,-2046,267,-26,-10,-136,13676,-2,35,-379,-128,35623,-56,34,127,0,0,3687,-65,0,2033,197,112,5560,-4,0,83,0,263032,0
263042,105,-2037,247,-38,-14,-133,13669,-16,-11,-438,-96,35625,-40,34,127,0,0,3682,-27,0,2033,197,112,5570,-4,0,83,0,263032,0
263052,113,-2039,239,-47,-13,-129,13668,-5,0,-465,-112,35614,-35,34,127,0,0,3680,-49,0,2033,197,112,5580,-4,0,83,0,263032,0
263062,130,-2029,245,-54,-12,-140,13664,-17,-1,-510,-128,35607,-38,34,127,0,0,3678,-49,0,2033,197,112,5590,-4,0,83,0,263047,0
263072,120,-2028,248,-63,-15,-126,13658,-18,-12,-570,-160,35618,-30,34,127,0,0,3680,-21,0,2033,197,112,5600,-4,0,83,0,263063,0
263082,112,-2036,243,-65,-11,-122,13641,-40,-24,-462,-160,35630,-26,34,127,0,0,3681,-5,0,2033,197,112,5610,-4,0,83,0,263063,0
263092,108,-2032,244,-70,-13,-125,13616,-66,-38,-398,-152,35623,-26,34,127,0,0,3677,16,0,2033,197,112,5620,-4,0,83,0,263063,0
263102,107,-2035,232,-80,-14,-120,13601,-13,4,-386,-120,35613,-10,34,127,0,0,3670,-49,0,2033,197,112,5630,-4,0,83,0,263094,0
263112,138,-2032,221,-66,-20,-111,13600,-7,46,-487,-144,35623,-23,34,127,0,0,3671,0,0,2033,197,112,5640,-4,0,83,0,263094,0
263122,122,-2038,224,-72,-19,-103,13596,-13,13,-467,-128,35625,-6,34,127,0,0,3668,-32,0,2033,197,112,5650,-4,0,83,0,263094,0
263132,124,-2042,232,-79,-14,-98,13586,-25,-16,-452,-144,35625,-12,34,127,0,0,3666,-49,0,2033,197,112,5660,-4,0,83,0,263125,0
263142,144,-2038,235,-77,-18,-95,13562,-73,-42,-353,-96,35606,-4,34,127,0,0,3669,21,0,2033,197,112,5670,-4,0,83,0,263125,0
263152,114,-2030,239,-77,-17,-87,13543,-18,-20,-270,-96,35596,-44,34,127,0,0,3665,-27,0,2033,197,112,5680,-4,0,83,0,263125,0
263162,125,-2042,245,-79,-15,-75,13545,0,65,-336,-96,35610,-68,34,127,0,0,3665,-32,0,2033,197,112,5690,-4,0,83,0,263219,0
263172,133,-2049,239,-83,-23,-76,13543,-2,17,-376,-96,35609,-70,34,127,0,0,3661,-32,0,2033,197,112,5700,-4,0,83,0,263235,0
263182,119,-2043,235,-87,-12,-70,13543,0,-4,-400,-88,35606,-71,34,127,0,0,3665,-5,0,2033,197,112,5710,-4,0,83,0,263235,0
263192,115,-2043,230,-93,-19,-75,13542,-6,6,-405,-120,35591,-73,34,127,0,0,3662,-32,0,2033,197,112,5720,-4,0,83,0,263235,0
263202,116,-2039,224,-97,-19,-72,13535,-15,-15,-436,-112,35588,-101,34,127,0,0,3662,43,0,2033,197,112,5730,-4,0,83,0,263235,0
263212,100,-2039,226,-97,-11,-76,13532,-6,-8,-442,-128,35592,-90,34,127,0,0,3663,43,0,2033,197,112,5740,-4,0,83,0,263235,0
263222,117,-2039,224,-97,-11,-81,13528,-8,4,-404,-112,35585,-77,34,127,0,0,3657,-27,0,2033,197,112,5750,-4,0,83,0,263235,0
263232,128,-2041,219,-96,-21,-86,13518,-30,-16,-386,-96,35575,-79,34,127,0,0,3657,-16,0,2033,197,112,5760,-4,0,83,0,263235,0
263242,114,-2043,220,-97,-21,-82,13500,-45,-29,-313,-88,35579,-89,34,127,0,0,3655,-32,0,2033,197,112,5770,-4,0,83,0,263235,0
263252,116,-2040,222,-85,-2,-97,13492,5,8,-289,-88,35592,-93,34,127,0,0,3659,-10,0,2033,197,112,5780,-4,0,83,0,263235,0
263262,142,-2039,224,-90,-9,-90,13494,-1,42,-357,-88,35598,-88,34,127,0,0,3652,-5,0,2033,197,112,5790,-4,0,83,0,263250,0
263272,130,-2037,223,-87,-10,-89,13490,1,3,-355,-88,35594,-79,34,127,0,0,3652,-27,0,2033,197,112,5800,-4,0,83,0,263266,0
263282,118,-2044,210,-90,-17,-86,13488,-7,0,-416,-104,35606,-99,34,127,0,0,3654,5,0,2033,197,112,5810,-4,0,83,0,263282,0
263292,105,-2035,205,-79,-14,-89,13489,7,3,-400,-104,35609,-103,34,127,0,0,3650,-32,0,2033,197,112,5820,-4,0,83,0,263282,0
263302,118,-2038,212,-75,-10,-95,13487,-3,2,-435,-128,35606,-102,34,127,0,0,3651,-27,0,2033,197,112,5830,-4,0,83,0,263282,0
263312,125,-2030,211,-74,-8,-96,13485,0,-7,-452,-120,35595,-98,34,127,0,0,3648,-43,0,2033,197,112,5840,-4,0,83,0,263313,0
263322,127,-2027,216,-62,-8,-92,13483,-4,-1,-519,-160,35581,-103,34,127,0,0,3650,0,0,2033,197,112,5850,-4,0,83,0,263313,0
263332,119,-2033,210,-70,-12,-94,13476,-14,-4,-516,-176,35594,-114,34,127,0,0,3645,-38,0,2033,197,112,5860,-4,0,83,0,263313,0
263342,132,-2044,209,-57,-6,-85,13470,-17,-8,-577,-160,35603,-99,34,127,0,0,3645,5,0,2033,197,112,5870,-4,0,83,0,263328,0
263352,142,-2036,207,-60,-4,-73,13459,-31,-16,-542,-136,35596,-99,34,127,0,0,3641,0,0,2033,197,112,5880,-4,0,83,0,263360,0
263362,142,-2033,199,-52,-15,-69,13436,-60,-32,-412,-120,35586,-85,34,127,0,0,3646,32,0,2033,197,112,5890,-4,0,83,0,263360,0
263372,109,-2037,194,-38,-13,-66,13423,0,-8,-310,-88,35586,-91,34,127,0,0,3643,-5,0,2033,197,112,5900,-4,0,83,0,263360,0
263382,130,-2030,199,-33,-6,-54,13425,1,56,-361,-96,35592,-65,34,127,0,0,3643,-27,0,2033,197,112,5910,-4,0,83,0,263360,0
263392,118,-2037,206,-26,-8,-50,13424,3,14,-368,-88,35595,-51,34,127,0,0,3639,-32,0,2033,197,112,5920,-4,0,83,0,263391,0
263402,121,-2043,213,-23,-1,-53,13423,1,0,-372,-88,35600,-61,34,127,0,0,3639,-43,0,2033,197,112,5930,-4,0,83,0,263391,0
263412,151,-2041,221,-20,-10,-49,13423,-2,-2,-367,-88,35601,-64,34,127,0,0,3643,-10,0,2033,197,112,5940,-4,0,83,0,263391,0
263422,131,-2033,224,-19,-5,-34,13423,1,5,-365,-88,35605,-73,34,127,0,0,3643,16,0,2033,197,112,5950,-4,0,83,0,263407,0
263432,133,-2043,220,-18,-5,-31,13423,-3,-2,-405,-88,35600,-77,34,127,0,0,3636,-32,0,2033,197,112,5960,-4,0,83,0,263422,0
263442,92,-2038,225,-20,-13,-37,13421,0,-4,-401,-112,35592,-59,34,127,0,0,3640,-43,0,2033,197,112,5970,-4,0,83,0,263438,0
263452,108,-2032,219,-23,-12,-36,13422,0,5,-382,-112,35587,-78,34,127,0,0,3644,-10,0,2033,197,112,5980,-4,0,83,0,263438,0
263462,140,-2039,224,-21,-1,-48,13421,-4,-3,-366,-112,35596,-73,34,127,0,0,3644,21,0,2033,197,112,5990,-4,0,83,0,263453,0
263472,130,-2041,224,-21,-5,-47,13421,-6,-3,-395,-88,35604,-71,34,127,0,0,3639,16,0,2033,197,112,6000,-4,0,83,0,263453,0
263482,139,-2040,227,-24,-10,-44,13421,-6,-3,-416,-88,35595,-60,34,127,0,0,3643,49,0,2033,197,112,6010,-4,0,83,0,263453,0
263492,137,-2036,228,-26,-11,-50,13423,3,4,-374,-112,35584,-61,34,127,0,0,3640,-32,0,2033,197,112,6020,-4,0,83,0,263516,0
263502,100,-2045,230,-33,-11,-59,13422,17,-1,-359,-88,35593,-80,34,127,0,0,3639,-54,0,2033,197,112,6030,-4,0,83,0,263532,0
263512,105,-2043,242,-35,-13,-78,13421,3,-3,-353,-112,35594,-69,34,127,0,0,3640,-49,0,2033,197,112,6040,-4,0,83,0,263532,0
263522,68,-2027,231,-43,6,-129,13418,-18,-10,-457,-152,35587,-53,34,127,0,0,3639,5,0,2033,197,112,6050,-4,0,83,0,263532,0
263532,62,-2045,235,-43,9,-155,13413,-6,-11,-484,-168,35571,-53,34,127,0,0,3627,-120,0,2033,197,112,6060,-4,0,83,0,263547,0
263542,91,-2029,243,-53,-5,-180,13400,-44,-17,-552,-160,35574,-67,34,127,0,0,3625,-60,0,2033,197,112,6070,-4,0,83,0,263563,0
263552,75,-2040,252,-67,-5,-190,13368,-94,-58,-449,-192,35588,-63,34,127,0,0,3619,-104,0,2033,197,112,6080,-4,0,83,0,263563,0
263562,61,-2038,238,-69,6,-232,13330,-64,-42,-392,-160,35588,-42,34,127,0,0,3615,-93,0,2033,197,112,6090,-4,0,83,0,263578,0
263572,141,-2034,244,-71,4,-247,13288,-87,-4,-327,-152,35584,-37,34,127,0,0,3609,-87,0,2033,197,112,6100,-4,0,83,0,263578,0
263582,123,-2052,243,-78,-14,-242,13271,-26,44,-496,-160,35586,-42,34,127,0,0,3601,-104,0,2033,197,112,6110,-4,0,83,0,263578,0
263592,141,-2035,235,-83,-17,-265,13245,-69,23,-494,-232,35593,-33,34,127,0,0,3596,-93,0,2033,197,112,6120,-4,0,83,0,263578,0
263602,106,-2044,224,-85,-4,-278,13209,-66,-41,-490,-200,35594,-37,34,127,0,0,3585,-115,0,2033,197,112,6130,-4,0,83,0,263594,0
263612,166,-2039,217,-92,-9,-270,13157,-132,-43,-426,-192,35583,-15,34,127,0,0,3583,-49,0,2033,197,112,6140,-4,0,83,0,263594,0
263622,144,-2034,207,-87,-8,-279,13098,-135,-50,-280,-120,35585,-32,34,127,0,0,3572,-76,0,2033,197,112,6150,-4,0,83,0,263610,0
263632,110,-2027,196,-78,-7,-271,13079,-14,74,-484,-168,35597,-13,34,127,0,0,3567,-98,0,2033,197,112,6160,-4,0,83,0,263641,0
263642,163,-2028,215,-76,-15,-268,13057,-62,71,-499,-192,35600,11,34,127,0,0,3563,-27,0,2033,197,112,6170,-4,0,83,0,263641,0
263652,133,-2033,202,-76,-9,-260,13027,-55,-34,-503,-200,35587,18,34,127,0,0,3554,-49,0,2033,197,112,6180,-4,0,83,0,263641,0
263662,203,-2040,192,-60,-10,-249,12999,-83,-8,-502,-208,35576,6,34,127,0,0,3547,-87,0,2033,197,112,6190,-4,0,83,0,263657,0
263672,192,-2037,202,-48,-10,-244,12947,-104,-57,-365,-176,35581,-31,34,127,0,0,3540,-104,0,2033,197,112,6200,-4,0,83,0,263657,0
263682,215,-2041,199,-32,2,-231,12900,-92,-24,-333,-104,35590,-36,34,127,0,0,3535,-60,0,2033,197,112,6210,-4,0,83,0,263688,0
263692,191,-2047,182,-30,-15,-199,12888,-17,79,-472,-120,35598,-30,34,127,0,0,3531,-71,0,2033,197,112,6220,-4,0,83,0,263688,0
263702,208,-2030,195,-20,-17,-174,12871,-61,50,-515,-184,35588,-32,34,127,0,0,3525,-60,0,2033,197,112,6230,-4,0,83,0,263688,0
263712,188,-2036,192,-16,-15,-164,12833,-80,-68,-408,-128,35588,-29,34,127,0,0,3523,0,0,2033,197,112,6240,-4,0,83,0,263688,0
263722,202,-2035,180,10,-3,-141,12813,-36,3,-381,-112,35599,-43,34,127,0,0,3521,-16,0,2033,197,112,6250,-4,0,83,0,263703,0
263732,203,-2024,189,24,-9,-129,12788,-52,24,-310,-104,35610,-41,34,127,0,0,3520,-32,0,2033,197,112,6260,-4,0,83,0,263703,0
263742,165,-2036,200,34,-12,-114,12779,-10,23,-368,-128,35609,-48,34,127,0,0,3515,-54,0,2033,197,112,6270,-4,0,83,0,263735,0
263752,184,-2034,209,42,-7,-115,12779,5,49,-417,-152,35614,-71,34,127,0,0,3513,-82,0,2033,197,112,6280,-4,0,83,0,263735,0
263762,168,-2028,233,43,-5,-120,12772,-18,-3,-480,-160,35603,-79,34,127,0,0,3511,-32,0,2033,197,112,6290,-4,0,83,0,263735,0
263772,161,-2043,229,47,-3,-123,12760,-14,-19,-400,-136,35608,-83,34,127,0,0,3507,-93,0,2033,197,112,6300,-4,0,83,0,263766,0
263782,159,-2013,228,42,-13,-135,12732,-75,-35,-350,-104,35597,-60,34,127,0,0,3509,0,0,2033,197,112,6310,-4,0,83,0,263766,0
263792,89,-2030,226,35,1,-172,12715,-4,-5,-333,-112,35593,-84,34,127,0,0,3501,-71,0,2033,197,112,6320,-4,0,83,0,263766,0
263802,149,-2033,252,39,4,-194,12714,-3,62,-509,-152,35605,-96,34,127,0,0,3493,-98,0,2033,197,112,6330,-4,0,83,0,263797,0
263812,144,-2027,246,24,-7,-212,12702,-30,2,-544,-176,35601,-90,34,127,0,0,3495,-60,0,2033,197,112,6340,-4,0,83,0,263797,0
263822,174,-2028,212,26,-16,-223,12679,-72,-38,-533,-200,35600,-81,34,127,0,0,3489,-16,0,2033,197,112,6350,-4,0,83,0,263797,0
263832,159,-2024,183,37,-1,-241,12637,-73,-59,-411,-160,35591,-86,34,127,0,0,3478,-131,0,2033,197,112,6360,-4,0,83,0,263828,0
263842,208,-2015,218,48,5,-230,12611,-74,4,-456,-176,35606,-94,34,127,0,0,3478,-38,0,2033,197,112,6370,-4,0,83,0,263828,0
263852,198,-2027,220,53,1,-229,12579,-47,10,-370,-152,35615,-64,34,127,0,0,3470,-98,0,2033,197,112,6380,-4,0,83,0,263828,0
263862,183,-2028,221,49,-17,-208,12557,-47,26,-446,-136,35610,-41,34,127,0,0,3468,-10,0,2033,197,112,6390,-4,0,83,0,263860,0
263872,155,-2053,226,58,-11,-227,12523,-80,-8,-346,-128,35596,-35,34,127,0,0,3461,-76,0,2033,197,112,6400,-4,0,83,0,263860,0
263882,154,-2060,264,58,20,-251,12511,-7,15,-465,-168,35591,-47,34,127,0,0,3458,-60,0,2033,197,112,6410,-4,0,83,0,263860,0
263892,225,-2044,299,46,5,-247,12506,-28,56,-623,-184,35610,-50,34,127,0,0,3449,-43,0,2033,197,112,6420,-4,0,83,0,263953,0
263902,199,-2032,296,11,-28,-225,12479,-72,-46,-524,-224,35614,-45,34,127,0,0,3450,-21,0,2033,197,112,6430,-4,0,83,0,263953,0
263912,166,-2027,269,2,-24,-234,12447,-53,-44,-476,-224,35599,-31,34,127,0,0,3444,-65,0,2033,197,112,6440,-4,0,83,0,263953,0
263922,179,-2025,262,-10,-14,-238,12422,-71,12,-512,-216,35598,-44,34,127,0,0,3443,-16,0,2033,197,112,6450,-4,0,83,0,263969,0
263932,158,-2027,271,-18,-7,-262,12375,-98,-38,-357,-152,35593,-24,34,127,0,0,3434,-54,0,2033,197,112,6460,-4,0,83,0,263969,0
263942,229,-2031,262,-39,-10,-262,12339,-79,-14,-299,-120,35599,-2,34,127,0,0,3429,-27,0,2033,197,112,6470,-4,0,83,0,263969,0
263952,198,-2037,265,-34,-13,-267,12325,-3,61,-407,-128,35588,27,34,127,0,0,3422,-54,0,2033,197,112,6480,-4,0,83,0,263969,0
263962,252,-2022,266,-51,-22,-265,12323,-17,67,-544,-176,35579,25,34,127,0,0,3414,-71,0,2033,197,112,6490,-4,0,83,0,263969,0
263972,225,-2046,239,-61,-18,-253,12311,-38,-13,-610,-240,35589,19,34,127,0,0,3412,-76,0,2033,197,112,6500,-4,0,83,0,263969,0
263982,238,-2040,229,-57,-7,-243,12282,-87,-57,-574,-232,35594,32,34,127,0,0,3404,-76,0,2033,197,112,6510,-4,0,83,0,263969,0
263992,230,-2039,230,-48,-4,-249,12236,-82,-64,-451,-184,35600,21,34,127,0,0,3403,-27,0,2033,197,112,6520,-4,0,83,0,263985,0
264002,271,-2018,256,-53,-12,-222,12190,-102,-19,-363,-160,35601,4,34,127,0,0,3396,-21,0,2033,197,112,6530,-4,0,83,0,263985,0
264012,226,-2035,245,-71,-23,-205,12152,-74,16,-315,-104,35628,-20,34,127,0,0,3388,-54,0,2033,197,112,6540,-4,0,83,0,264016,0
264022,202,-2025,233,-69,-11,-216,12129,-28,51,-378,-112,35647,-29,34,127,0,0,3388,-43,0,2033,197,112,6550,-4,0,83,0,264016,0
264032,219,-2028,246,-65,-13,-213,12129,6,77,-507,-160,35633,-29,34,127,0,0,3380,-60,0,2033,197,112,6560,-4,0,83,0,264016,0
264042,226,-2023,256,-73,-9,-209,12117,-31,14,-602,-208,35615,-42,34,127,0,0,3377,-65,0,2033,197,112,6570,-4,0,83,0,264016,0
264052,252,-2028,260,-76,-10,-197,12088,-78,-60,-524,-208,35617,-27,34,127,0,0,3372,-54,0,2033,197,112,6580,-4,0,83,0,264047,0
264062,246,-2024,241,-80,-4,-186,12053,-61,-43,-424,-128,35624,-21,34,127,0,0,3366,-43,0,2033,197,112,6590,-4,0,83,0,264047,0
264072,263,-2032,224,-79,-17,-155,12038,-41,37,-529,-168,35621,-24,34,127,0,0,3366,-32,0,2033,197,112,6600,-4,0,83,0,264047,0
264082,283,-2021,224,-76,-21,-140,12010,-68,5,-379,-136,35602,-15,34,127,0,0,3360,-38,0,2033,197,112,6610,-4,0,83,0,264078,0
264092,234,-2035,211,-71,-6,-123,11992,-18,-6,-419,-120,35597,-49,34,127,0,0,3358,-32,0,2033,197,112,6620,-4,0,83,0,264078,0
264102,258,-2033,215,-65,-17,-112,11993,-2,65,-520,-112,35603,-55,34,127,0,0,3358,5,0,2033,197,112,6630,-4,0,83,0,264078,0
264112,242,-2031,219,-60,-20,-108,11986,-17,8,-556,-152,35612,-60,34,127,0,0,3357,0,0,2033,197,112,6640,-4,0,83,0,264156,0
264122,234,-2013,196,-55,-14,-94,11977,-31,-20,-531,-176,35611,-64,34,127,0,0,3356,5,0,2033,197,112,6650,-4,0,83,0,264156,0
264132,245,-2014,196,-45,-9,-95,11945,-77,-54,-352,-120,35591,-80,34,127,0,0,3353,-16,0,2033,197,112,6660,-4,0,83,0,264156,0
264142,211,-2033,194,-30,6,-93,11931,10,3,-367,-112,35595,-113,34,127,0,0,3347,-65,0,2033,197,112,6670,-4,0,83,0,264172,0
264152,281,-2030,234,-20,2,-85,11931,-1,71,-471,-136,35599,-92,34,127,0,0,3348,-43,0,2033,197,112,6680,-4,0,83,0,264172,0
264162,260,-2042,263,-25,-9,-68,11930,9,14,-476,-176,35592,-92,34,127,0,0,3350,-10,0,2033,197,112,6690,-4,0,83,0,264172,0
264172,247,-2041,261,-33,-17,-57,11926,-6,1,-483,-176,35581,-86,34,127,0,0,3344,-21,0,2033,197,112,6700,-4,0,83,0,264172,0
264182,230,-2037,227,-42,-16,-40,11926,0,2,-501,-144,35582,-103,34,127,0,0,3349,5,0,2033,197,112,6710,-4,0,83,0,264172,0
264192,234,-2024,220,-35,-13,-34,11925,-6,8,-506,-120,35601,-104,34,127,0,0,3345,27,0,2033,197,112,6720,-4,0,83,0,264172,0
264202,209,-2027,219,-30,-11,-47,11926,9,4,-508,-176,35609,-97,34,127,0,0,3350,10,0,2033,197,112,6730,-4,0,83,0,264172,0
264212,187,-2037,234,-18,-8,-48,11926,10,6,-482,-120,35614,-101,34,127,0,0,3345,-10,0,2033,197,112,6740,-4,0,83,0,264328,0
264222,226,-2028,250,-22,4,-55,11924,-9,-3,-508,-168,35619,-98,34,127,0,0,3347,-21,0,2033,197,112,6750,-4,0,83,0,264328,0
264232,233,-2036,255,-23,0,-56,11919,-19,-10,-517,-160,35612,-96,34,127,0,0,3347,32,0,2033,197,112,6760,-4,0,83,0,264328,0
264242,242,-2034,263,-36,-5,-48,11920,-4,0,-513,-136,35604,-104,33,127,0,0,3339,-54,0,2033,197,112,6770,-4,0,83,0,264328,0
264252,268,-2028,259,-44,-9,-40,11918,-5,-1,-541,-128,35592,-89,34,127,0,0,3346,0,0,2033,197,112,6780,-4,0,83,0,264328,0
264262,254,-2027,238,-51,-15,-38,11919,-2,-1,-514,-112,35599,-100,34,127,0,0,3348,65,0,2033,197,112,6790,-4,0,83,0,264344,0
264272,239,-2036,218,-49,-9,-36,11918,-10,-2,-515,-160,35611,-94,34,127,0,0,3347,32,0,2033,197,112,6800,-4,0,83,0,264344,0
264282,201,-2025,229,-41,-13,-42,11917,4,-8,-503,-128,35611,-96,34,127,0,0,3346,16,0,2033,197,112,6810,-4,0,83,0,264344,0
264292,227,-2032,230,-38,-5,-47,11918,8,6,-489,-152,35595,-91,34,127,0,0,3350,38,0,2033,197,112,6820,-4,0,83,0,264344,0
264302,211,-2038,242,-39,-16,-41,11918,0,0,-450,-152,35581,-90,34,127,0,0,3350,21,0,2033,197,112,6830,-4,0,83,0,264344,0
264312,237,-2040,254,-45,-9,-43,11916,-3,-7,-502,-152,35584,-105,34,127,0,0,3347,54,0,2033,197,112,6840,-4,0,83,0,264344,0
264322,234,-2031,252,-50,-16,-48,11915,-3,1,-522,-152,35590,-94,34,127,0,0,3347,43,0,2033,197,112,6850,-4,0,83,0,264344,0
264332,229,-2035,238,-55,-21,-44,11914,-3,1,-539,-144,35583,-91,34,127,0,0,3340,-5,0,2033,197,112,6860,-4,0,83,0,264344,0
264342,223,-2021,230,-52,-10,-47,11906,-18,-7,-492,-136,35576,-83,34,127,0,0,3344,-27,0,2033,197,112,6870,-4,0,83,0,264344,0
264352,211,-2017,223,-54,-20,-46,11903,-11,-5,-448,-96,35578,-84,34,127,0,0,3343,5,0,2033,197,112,6880,-4,0,83,0,264344,0
264362,221,-2023,222,-43,2,-48,11898,-7,-1,-425,-112,35600,-85,34,127,0,0,3350,38,0,2033,197,112,6890,-4,0,83,0,264344,0
264372,211,-2031,226,-39,-6,-38,11891,-15,3,-341,-80,35601,-80,34,127,0,0,3339,-10,0,2033,197,112,6900,-4,0,83,0,264360,0
264382,217,-2026,246,-38,-2,-42,11889,-1,-5,-342,-64,35609,-71,34,127,0,0,3339,-71,0,2033,197,112,6910,-4,0,83,0,264395,0
264392,257,-2022,240,-37,-10,-39,11885,-3,0,-349,-64,35609,-73,34,127,0,0,3346,21,0,2033,197,112,6920,-4,0,83,0,264395,0
264402,228,-2019,243,-41,-9,-36,11889,4,5,-263,-72,35609,-72,34,127,0,0,3349,0,0,2033,197,112,6930,-4,0,83,0,264395,0
264412,216,-2027,228,-44,-9,-36,11885,-16,-3,-295,-64,35598,-86,33,127,0,0,3349,71,0,2033,197,112,6940,-4,0,83,0,264395,0
264422,241,-2025,213,-33,-4,-41,11888,0,-6,-325,-120,35588,-78,33,127,0,0,3345,-27,0,2033,197,112,6950,-4,0,83,0,264395,0
264432,224,-2035,224,-22,5,-37,11881,0,-13,-295,-56,35584,-81,34,127,0,0,3346,32,0,2033,197,112,6960,-4,0,83,0,264426,0
264442,281,-2027,244,-25,1,-34,11884,-5,7,-329,-64,35594,-82,34,127,0,0,3346,49,0,2033,197,112,6970,-4,0,83,0,264426,0
264452,247,-2036,244,-26,-2,-20,11885,8,6,-318,-88,35598,-77,34,127,0,0,3340,-49,0,2033,197,112,6980,-4,0,83,0,264426,0
264462,226,-2036,238,-26,-2,-15,11879,-6,-10,-356,-80,35590,-68,34,127,0,0,3347,38,0,2033,197,112,6990,-4,0,83,0,264442,0
264472,213,-2033,238,-33,-2,-14,11879,-10,-10,-348,-80,35584,-68,34,127,0,0,3347,60,0,2033,197,112,7000,-4,0,83,0,264473,0
264482,237,-2032,241,-38,-2,-21,11881,3,7,-324,-80,35595,-82,34,127,0,0,3344,10,0,2033,197,112,7010,-4,0,83,0,264473,0
264492,219,-2034,239,-39,-5,-25,11881,5,-4,-347,-80,35604,-87,34,127,0,0,3347,32,0,2033,197,112,7020,-4,0,83,0,264473,0
264502,230,-2029,248,-38,2,-31,11881,5,1,-303,-80,35596,-89,34,127,0,0,3347,38,0,2033,197,112,7030,-4,0,83,0,264489,0
264512,230,-2032,245,-46,-6,-35,11880,0,3,-324,-80,35581,-87,34,127,0,0,3347,43,0,2033,197,112,7040,-4,0,83,0,264489,0
264522,236,-2023,251,-56,-13,-44,11881,4,-2,-310,-80,35578,-83,34,127,0,0,3344,5,0,2033,197,112,7050,-4,0,83,0,264520,0
264532,230,-2035,253,-56,-8,-58,11879,-6,1,-339,-80,35597,-93,34,127,0,0,3344,0,0,2033,197,112,7060,-4,0,83,0,264520,0
264542,186,-2018,247,-68,11,-103,11880,-1,-5,-367,-128,35601,-91,34,127,0,0,3343,-38,0,2033,197,112,7070,-4,0,83,0,264520,0
264552,188,-2035,252,-67,7,-101,11873,-11,-10,-470,-136,35601,-84,34,127,0,0,3337,0,0,2033,197,112,7080,-4,0,83,0,264551,0
264562,214,-2024,256,-70,-2,-97,11868,1,-7,-463,-144,35607,-77,34,127,0,0,3332,-71,0,2033,197,112,7090,-4,0,83,0,264551,0
264572,252,-2013,243,-76,-12,-94,11861,-21,0,-550,-136,35605,-72,34,127,0,0,3328,-54,0,2033,197,112,7100,-4,0,83,0,264551,0
264582,246,-2026,204,-68,-7,-84,11856,-5,-7,-559,-168,35605,-64,33,127,0,0,3331,-43,0,2033,197,112,7110,-4,0,83,0,264583,0
264592,248,-2024,209,-53,0,-69,11847,-20,-2,-522,-128,35601,-48,34,127,0,0,3329,0,0,2033,197,112,7120,-4,0,83,0,264583,0
264602,264,-2031,229,-48,-2,-51,11839,-21,-7,-489,-160,35582,-49,34,127,0,0,3332,-16,0,2033,197,112,7130,-4,0,83,0,264583,0
264612,284,-2034,242,-51,-8,-37,11818,-51,-24,-307,-96,35583,-57,34,127,0,0,3331,-16,0,2033,197,112,7140,-4,0,83,0,264614,0
264622,251,-2026,225,-49,-5,-24,11806,-16,-3,-256,-72,35592,-40,34,127,0,0,3327,-32,0,2033,197,112,7150,-4,0,83,0,264614,0
264632,274,-2023,209,-41,-2,-16,11808,0,44,-291,-96,35588,-43,33,127,0,0,3328,-38,0,2033,197,112,7160,-4,0,83,0,264614,0
264642,206,-2022,206,-32,-8,-3,11808,5,14,-261,-96,35575,-35,33,127,0,0,3328,-76,0,2033,197,112,7170,-4,0,83,0,264645,0
264652,224,-2026,201,-23,-1,-9,11805,-13,-7,-327,-64,35594,-59,34,127,0,0,3334,60,0,2033,197,112,7180,-4,0,83,0,264661,0
264662,259,-2046,202,-10,13,-17,11808,15,7,-257,-72,35602,-52,34,127,0,0,3331,-5,0,2033,197,112,7190,-4,0,83,0,264661,0
264672,242,-2020,244,-5,10,-7,11803,-12,-1,-270,-88,35603,-52,34,127,0,0,3335,76,0,2033,197,112,7200,-4,0,83,0,264676,0
264682,268,-2027,271,-16,6,0,11805,-6,-6,-259,-64,35587,-66,34,127,0,0,3331,32,0,2033,197,112,7210,-4,0,83,0,264676,0
264692,265,-2037,242,-22,6,4,11805,-3,0,-244,-48,35580,-59,34,127,0,0,3329,-10,0,2033,197,112,7220,-4,0,83,0,264676,0
264702,208,-2027,243,-16,3,17,11803,-10,-8,-288,-40,35592,-44,34,127,0,0,3326,-16,0,2033,197,112,7230,-4,0,83,0,264676,0
264712,239,-2024,250,-19,9,16,11805,-3,0,-286,-64,35600,-35,34,127,0,0,3334,49,0,2033,197,112,7240,-4,0,83,0,264723,0
264722,223,-2021,250,-22,-3,15,11803,-12,-7,-271,-48,35599,-34,34,127,0,0,3329,21,0,2033,197,112,7250,-4,0,83,0,264723,0
264732,203,-2026,245,-24,-9,13,11806,4,0,-252,-72,35596,-56,34,127,0,0,3331,-16,0,2033,197,112,7260,-4,0,83,0,264723,0
264742,177,-2031,246,-29,0,-12,11805,-8,-1,-226,-48,35594,-59,34,127,0,0,3333,5,0,2033,197,112,7270,-4,0,83,0,264723,0
264752,198,-2025,238,-27,-8,-28,11807,-5,-5,-184,-24,35596,-42,34,127,0,0,3332,5,0,2033,197,112,7280,-4,0,83,0,264723,0
264762,214,-2025,242,-31,-5,-49,11806,-13,-3,-210,-48,35608,-23,34,127,0,0,3333,27,0,2033,197,112,7290,-4,0,83,0,264786,0
264772,196,-2026,254,-40,-9,-50,11808,5,-5,-212,-48,35604,-21,34,127,0,0,3333,27,0,2033,197,112,7300,-4,0,83,0,264801,0
264782,195,-2030,271,-45,-10,-59,11807,-1,3,-209,-48,35606,-39,34,127,0,0,3333,16,0,2033,197,112,7310,-4,0,83,0,264801,0
264792,221,-2019,263,-45,-4,-62,11804,-8,-7,-232,-48,35599,-32,34,127,0,0,3333,43,0,2033,197,112,7320,-4,0,83,0,264801,0
264802,235,-2026,260,-58,-16,-66,11807,-2,1,-215,-72,35586,-41,34,127,0,0,3331,-10,0,2033,197,112,7330,-4,0,83,0,264801,0
264812,239,-2030,249,-63,-7,-61,11807,-1,3,-240,-48,35577,-41,34,127,0,0,3333,10,0,2033,197,112,7340,-4,0,83,0,264801,0
264822,279,-2040,244,-59,-10,-47,11804,-14,-4,-301,-88,35578,-70,34,127,0,0,3332,27,0,2033,197,112,7350,-4,0,83,0,264801,0
264832,257,-2036,232,-62,-7,-43,11803,11,2,-307,-64,35596,-64,34,127,0,0,3331,49,0,2033,197,112,7360,-4,0,83,0,264817,0
264842,261,-2028,233,-59,-6,-25,11805,5,8,-240,-72,35602,-58,34,127,0,0,3334,5,0,2033,197,112,7370,-4,0,83,0,264848,0
264852,231,-2029,219,-45,-11,-20,11805,5,3,-258,-64,35607,-50,34,127,0,0,3331,0,0,2033,197,112,7380,-4,0,83,0,264848,0
264862,246,-2043,217,-48,-6,-21,11804,-4,-6,-272,-88,35599,-40,34,127,0,0,3332,10,0,2033,197,112,7390,-4,0,83,0,264848,0
264872,240,-2030,223,-44,-2,-22,11805,12,0,-233,-48,35599,-48,34,127,0,0,3329,-21,0,2033,197,112,7400,-4,0,83,0,264848,0
264882,254,-2036,246,-45,-2,-17,11803,-11,1,-244,-48,35607,-53,34,127,0,0,3329,-21,0,2033,197,112,7410,-4,0,83,0,264879,0
264892,789,-2168,2,-105,-20,-275,11806,3,-5,-218,-64,35616,-30,34,127,0,0,3331,-10,0,2033,197,112,7420,-4,0,83,0,264879,0
264902,925,-1883,77,-188,-1,-404,11804,-11,-1,-250,-88,35613,-33,34,127,0,0,3325,-82,0,2033,197,112,7430,-4,0,83,0,264879,0
264912,203,-1935,134,-146,-52,-268,11794,-38,-27,-497,-232,35606,-35,34,127,0,0,3313,-115,0,2033,197,112,7440,-4,0,83,0,264895,0
264922,-51,-1987,316,-70,-88,9,11749,-120,-83,-387,-152,35601,-48,34,127,0,0,3306,-76,0,2033,197,112,7450,-4,0,83,0,264911,0
264932,219,-2170,208,-88,38,-138,11720,-23,-30,-356,-104,35609,-35,34,127,0,0,3307,-60,0,2033,197,112,7460,-4,0,83,0,264926,0
264942,1063,-1956,-12,-157,14,-403,11729,12,118,-429,-144,35601,-28,34,127,0,0,3309,-65,0,2033,197,112,7470,-4,0,83,0,264926,0
264952,642,-1940,-11,-156,-62,-391,11717,-40,15,-580,-288,35605,-47,34,127,0,0,3293,-170,0,2033,197,112,7480,-4,0,83,0,264942,0
264962,325,-1894,205,-124,-90,-93,11669,-125,-106,-543,-248,35603,-45,34,127,0,0,3289,-49,0,2033,197,112,7490,-4,0,83,0,264942,0
264972,313,-2088,226,-103,-22,-116,11624,-102,-61,-435,-152,35602,-43,34,127,0,0,3289,0,0,2033,197,112,7500,-4,0,83,0,264957,0
264982,655,-2038,81,-105,52,-350,11588,-46,32,-326,-120,35600,-28,34,127,0,0,3281,-60,0,2033,197,112,7510,-4,0,83,0,265004,0
264992,705,-1996,132,-131,-2,-371,11567,-60,58,-551,-208,35614,-22,34,127,0,0,3270,-60,0,2033,197,112,7520,-4,0,83,0,265020,0
265002,330,-1986,227,-155,-92,-224,11520,-99,-39,-461,-176,35620,11,34,127,0,0,3264,-38,0,2033,197,112,7530,-4,0,83,0,265036,0
265012,305,-1976,252,-154,-78,-169,11498,-48,3,-513,-152,35612,25,34,127,0,0,3265,21,0,2033,197,112,7540,-4,0,83,0,265051,0
265022,436,-2025,128,-167,-20,-345,11471,-59,41,-405,-144,35590,21,34,127,0,0,3260,16,0,2033,197,112,7550,-4,0,83,0,265051,0
265032,402,-2065,125,-173,7,-494,11460,-23,20,-584,-240,35581,6,34,127,0,0,3246,-126,0,2033,197,112,7560,-4,0,83,0,265051,0
265042,383,-2008,262,-215,-47,-545,11425,-106,-23,-630,-288,35591,-9,34,127,0,0,3232,-126,0,2033,197,112,7570,-4,0,83,0,265051,0
265052,288,-2068,292,-255,-72,-548,11349,-174,-133,-474,-328,35603,-17,34,127,0,0,3224,-120,0,2033,197,112,7580,-4,0,83,0,265051,0
265062,269,-2071,216,-278,-57,-623,11267,-167,-71,-428,-280,35594,-8,34,127,0,0,3203,-170,0,2033,197,112,7590,-4,0,83,0,265051,0
265072,328,-2049,203,-292,-40,-721,11198,-157,17,-494,-304,35595,-24,34,127,0,0,3191,-153,0,2033,197,112,7600,-4,0,83,0,265067,0
265082,403,-1992,245,-322,-57,-814,11121,-187,-4,-536,-344,35595,-43,34,127,0,0,3168,-192,0,2033,197,112,7610,-4,0,83,0,265067,0
265092,369,-2005,252,-353,-79,-821,11043,-169,-25,-564,-360,35616,-54,34,127,0,0,3147,-236,0,2033,197,112,7620,-4,0,83,0,265082,0
265102,359,-2053,251,-357,-85,-812,10952,-210,-19,-496,-376,35619,-65,34,127,0,0,3127,-258,0,2033,197,112,7630,-4,0,83,0,265082,0
265112,408,-2057,181,-334,-64,-801,10859,-204,-28,-531,-368,35622,-56,34,127,0,0,3113,-181,0,2033,197,112,7640,-4,0,83,0,265114,0
265122,628,-1971,156,-319,-71,-773,10767,-210,-1,-479,-328,35633,-65,34,127,0,0,3094,-181,0,2033,197,112,7650,-4,0,83,0,265114,0
265132,596,-2007,138,-303,-104,-702,10687,-159,21,-526,-288,35619,-37,34,127,0,0,3081,-153,0,2033,197,112,7660,-4,0,83,0,265114,0
265142,497,-2035,169,-259,-151,-558,10621,-142,55,-568,-288,35605,-21,34,127,0,0,3075,-104,0,2033,197,112,7670,-4,0,83,0,265114,0
265152,494,-2057,175,-253,-139,-524,10555,-142,18,-492,-240,35586,2,34,127,0,0,3066,-49,0,2033,197,112,7680,-4,0,83,0,265145,0
265162,449,-2059,116,-234,-134,-486,10502,-80,22,-440,-192,35598,-9,34,127,0,0,3059,-87,0,2033,197,112,7690,-4,0,83,0,265145,0
265172,505,-2043,111,-203,-139,-449,10471,-59,78,-488,-184,35607,-22,34,127,0,0,3053,-60,0,2033,197,112,7700,-4,0,83,0,265145,0
265182,439,-2017,99,-170,-145,-436,10458,-23,72,-594,-200,35619,-35,34,127,0,0,3052,-43,0,2033,197,112,7710,-4,0,83,0,265192,0
265192,405,-2040,107,-148,-133,-426,10441,-58,23,-660,-216,35619,-35,34,127,0,0,3047,10,0,2033,197,112,7720,-4,0,83,0,265192,0
265202,394,-2042,110,-113,-116,-412,10402,-75,-58,-397,-160,35609,-48,34,127,0,0,3045,-49,0,2033,197,112,7730,-4,0,83,0,265192,0
265212,419,-1980,108,-107,-119,-396,10386,-24,12,-473,-144,35603,-64,34,127,0,0,3046,16,0,2033,197,112,7740,-4,0,83,0,265192,0
265222,458,-1968,144,-103,-196,-364,10373,-38,46,-424,-120,35598,-91,34,127,0,0,3043,10,0,2033,197,112,7750,-4,0,83,0,265223,0
265232,438,-2035,116,-100,-194,-355,10359,-28,-12,-279,-72,35600,-95,34,127,0,0,3042,-49,0,2033,197,112,7760,-4,0,83,0,265223,0
265242,345,-2075,130,-116,-140,-348,10358,-7,18,-332,-88,35591,-105,34,127,0,0,3046,32,0,2033,197,112,7770,-4,0,83,0,265223,0
265252,334,-2066,145,-123,-76,-366,10359,-4,32,-291,-72,35594,-110,34,127,0,0,3042,-16,0,2033,197,112,7780,-4,0,83,0,265223,0
265262,416,-2064,106,-111,-44,-370,10359,-3,6,-301,-64,35606,-112,34,127,0,0,3042,-27,0,2033,197,112,7790,-4,0,83,0,265254,0
265272,451,-2034,124,-103,-62,-358,10358,5,-4,-267,-24,35614,-106,34,127,0,0,3046,43,0,2033,197,112,7800,-4,0,83,0,265254,0
265282,401,-2050,163,-102,-106,-298,10360,-8,3,-174,-8,35601,-103,34,127,0,0,3052,82,0,2033,197,112,7810,-4,0,83,0,265285,0
265292,420,-2055,197,-100,-116,-312,10374,40,23,74,8,35614,-127,34,127,0,0,3059,-10,0,2033,197,112,7820,-4,0,83,0,265285,0
265302,313,-2021,241,-90,-144,-366,10394,51,40,132,88,35611,-112,34,127,0,0,3064,32,0,2033,197,112,7830,-4,0,83,0,265285,0
265312,312,-2028,248,-78,-157,-397,10424,40,31,33,48,35608,-101,34,127,0,0,3069,49,0,2033,197,112,7840,-4,0,83,0,265285,0
265322,410,-1967,218,-59,-174,-467,10426,3,-43,191,56,35595,-76,34,127,0,0,3075,65,0,2033,197,112,7850,-4,0,83,0,265317,0
265332,461,-1922,177,-50,-232,-489,10429,0,-40,225,72,35601,-73,34,127,0,0,3077,76,0,2033,197,112,7860,-4,0,83,0,265317,0
265342,570,-1958,189,-25,-314,-482,10436,7,7,229,80,35615,-72,34,127,0,0,3076,49,0,2033,197,112,7870,-4,0,83,0,265317,0
265352,544,-1955,180,-6,-362,-465,10447,18,7,207,40,35618,-55,34,127,0,0,3073,-16,0,2033,197,112,7880,-4,0,83,0,265348,0
265362,457,-1947,118,0,-382,-466,10459,29,6,113,16,35600,-34,34,127,0,0,3077,5,0,2033,197,112,7890,-4,0,83,0,265348,0
265372,467,-1969,69,20,-380,-473,10471,18,5,-36,8,35586,-24,34,127,0,0,3076,5,0,2033,197,112,7900,-4,0,83,0,265348,0
265382,436,-1952,25,80,-373,-484,10470,-4,-25,-41,-8,35591,-31,34,127,0,0,3073,10,0,2033,197,112,7910,-4,0,83,0,265364,0
265392,452,-1964,34,110,-329,-478,10470,0,-15,-32,-16,35602,-37,34,127,0,0,3077,0,0,2033,197,112,7920,-4,0,83,0,265426,0
265402,478,-2010,50,105,-280,-465,10471,3,0,-27,-32,35600,-25,34,127,0,0,3075,-38,0,2033,197,112,7930,-4,0,83,0,265426,0
265412,442,-2011,84,103,-247,-459,10472,21,-5,-27,8,35591,-22,34,127,0,0,3076,21,0,2033,197,112,7940,-4,0,83,0,265442,0
265422,420,-2019,74,106,-250,-441,10470,-25,1,-57,8,35577,-37,34,127,0,0,3082,137,0,2033,197,112,7950,-4,0,83,0,265442,0
265432,493,-2047,104,119,-268,-407,10479,24,10,57,56,35581,-29,34,127,0,0,3082,109,0,2033,197,112,7960,-4,0,83,0,265442,0
265442,416,-1993,141,159,-271,-457,10491,35,31,223,56,35583,-44,33,127,0,0,3088,-27,0,2033,197,112,7970,-4,0,83,0,265442,0
265452,476,-2036,97,161,-233,-466,10506,25,6,220,64,35576,-26,34,127,0,0,3095,82,0,2033,197,112,7980,-4,0,83,0,265442,0
265462,548,-2053,106,176,-210,-439,10525,58,6,241,88,35586,-46,34,127,0,0,3095,43,0,2033,197,112,7990,-4,0,83,0,265442,0
265472,577,-2034,117,174,-230,-374,10559,60,41,186,88,35606,-51,34,127,0,0,3109,98,0,2033,197,112,8000,-4,0,83,0,265489,0
265482,518,-2033,159,164,-244,-336,10567,26,-30,446,200,35621,-52,34,127,0,0,3122,164,0,2033,197,112,8010,-4,0,83,0,265535,0
265492,521,-2084,152,156,-226,-316,10612,140,39,408,216,35607,-49,34,127,0,0,3133,164,0,2033,197,112,8020,-4,0,83,0,265535,0
265502,529,-2074,166,143,-174,-275,10694,208,147,295,224,35597,-28,34,127,0,0,3147,164,0,2033,197,112,8030,-4,0,83,0,265535,0
265512,498,-2038,180,116,-163,-265,10790,202,92,230,176,35585,-20,34,127,0,0,3162,159,0,2033,197,112,8040,-4,0,83,0,265551,0
265522,526,-2019,145,109,-126,-254,10860,133,-34,312,168,35586,-11,34,127,0,0,3179,109,0,2033,197,112,8050,-4,0,83,0,265551,0
265532,579,-2017,129,140,-86,-255,10930,155,-46,346,224,35589,-7,34,127,0,0,3195,126,0,2033,197,112,8060,-4,0,83,0,265551,0
265542,678,-1944,176,149,-88,-229,11004,149,9,362,216,35595,-20,34,127,0,0,3218,225,0,2033,197,112,8070,-4,0,83,0,265551,0
265552,638,-1868,164,162,-120,-198,11079,184,6,399,296,35593,-39,34,127,0,0,3227,148,0,2033,197,112,8080,-4,0,83,0,265551,0
265562,557,-1893,112,141,-119,-156,11172,211,45,349,272,35592,-62,34,127,0,0,3249,181,0,2033,197,112,8090,-4,0,83,0,265551,0
265572,487,-1929,152,133,-72,-175,11259,185,23,394,264,35589,-63,34,127,0,0,3268,170,0,2033,197,112,8100,-4,0,83,0,265551,0
265582,567,-1962,225,91,-11,-238,11352,198,-7,338,280,35602,-57,34,127,0,0,3281,181,0,2033,197,112,8110,-4,0,83,0,265582,0
265592,560,-1923,223,61,1,-265,11432,168,-18,382,240,35618,-47,34,127,0,0,3289,71,0,2033,197,112,8120,-4,0,83,0,265582,0
265602,532,-1905,205,53,-6,-257,11507,159,-27,306,184,35618,-35,34,127,0,0,3301,65,0,2033,197,112,8130,-4,0,83,0,265598,0
265612,534,-1883,212,51,-16,-255,11579,142,-15,306,176,35601,-30,34,127,0,0,3317,131,0,2033,197,112,8140,-4,0,83,0,265598,0
265622,529,-1927,258,27,-4,-262,11633,100,-52,360,184,35580,-24,34,127,0,0,3325,120,0,2033,197,112,8150,-4,0,83,0,265598,0
265632,572,-1941,257,32,9,-281,11683,131,-42,346,152,35589,-21,34,127,0,0,3335,104,0,2033,197,112,8160,-4,0,83,0,265614,0
265642,581,-1967,284,-12,-27,-277,11740,132,20,277,152,35603,-33,34,127,0,0,3346,170,0,2033,197,112,8170,-4,0,83,0,265629,0
265652,529,-2007,305,-46,-49,-269,11781,62,-24,371,120,35610,-47,34,127,0,0,3350,87,0,2033,197,112,8180,-4,0,83,0,265645,0
265662,492,-2019,296,-62,-60,-334,11813,84,-55,404,168,35590,-43,34,127,0,0,3355,65,0,2033,197,112,8190,-4,0,83,0,265645,0
265672,563,-2001,266,-71,-67,-372,11844,73,-5,425,176,35596,-26,34,127,0,0,3365,71,0,2033,197,112,8200,-4,0,83,0,265660,0
265682,514,-1972,231,-101,-94,-397,11897,115,46,300,144,35594,-38,34,127,0,0,3368,21,0,2033,197,112,8210,-4,0,83,0,265676,0
265692,512,-1963,184,-97,-114,-411,11943,99,29,242,144,35600,-60,34,127,0,0,3377,109,0,2033,197,112,8220,-4,0,83,0,265676,0
265702,469,-1931,21,-87,-82,-459,11961,17,-74,389,128,35591,-75,34,127,0,0,3382,65,0,2033,197,112,8230,-4,0,83,0,265707,0
265712,407,-1971,-18,-101,8,-511,11965,9,-84,510,168,35597,-89,34,127,0,0,3380,16,0,2033,197,112,8240,-4,0,83,0,265707,0
265722,439,-1982,70,-124,139,-567,11989,77,22,450,152,35592,-97,34,127,0,0,3385,-21,0,2033,197,112,8250,-4,0,83,0,265707,0
265732,526,-1940,100,-137,166,-585,12026,75,69,304,96,35594,-91,34,127,0,0,3388,-10,0,2033,197,112,8260,-4,0,83,0,265707,0
265742,585,-1917,75,-182,170,-613,12036,7,-33,369,96,35596,-83,34,127,0,0,3393,27,0,2033,197,112,8270,-4,0,83,0,265801,0
265752,627,-1907,94,-213,164,-621,12043,20,-58,379,104,35600,-62,34,127,0,0,3389,-21,0,2033,197,112,8280,-4,0,83,0,265801,0
265762,746,-1943,185,-172,160,-628,12059,32,19,213,32,35604,-64,34,127,0,0,3394,-5,0,2033,197,112,8290,-4,0,83,0,265801,0
265772,768,-1885,190,-204,157,-614,12067,15,-5,237,56,35606,-51,34,127,0,0,3395,16,0,2033,197,112,8300,-4,0,83,0,265817,0
265782,760,-1805,208,-267,161,-561,12071,15,-20,238,48,35590,-50,34,127,0,0,3392,-32,0,2033,197,112,8310,-4,0,83,0,265817,0
265792,763,-1837,175,-284,175,-522,12068,0,-11,218,48,35578,-33,34,127,0,0,3392,-16,0,2033,197,112,8320,-4,0,83,0,265817,0
265802,865,-1972,251,-297,198,-518,12067,-12,-7,161,24,35579,-29,34,127,0,0,3393,38,0,2033,197,112,8330,-4,0,83,0,265817,0
265812,837,-1963,413,-301,148,-567,12069,5,3,171,48,35589,-37,34,127,0,0,3392,16,0,2033,197,112,8340,-4,0,83,0,265817,0
265822,771,-1837,412,-288,-20,-459,12069,-6,3,141,32,35589,-35,34,127,0,0,3390,-5,0,2033,197,112,8350,-4,0,83,0,265817,0
265832,686,-1883,274,-286,-95,-437,12069,10,-6,191,24,35579,-43,34,127,0,0,3390,-49,0,2033,197,112,8360,-4,0,83,0,265817,0
265842,629,-2109,299,-315,-82,-522,12067,-4,0,123,32,35583,-29,34,127,0,0,3393,32,0,2033,197,112,8370,-4,0,83,0,265817,0
265852,704,-2125,274,-325,-61,-561,12070,15,4,187,48,35594,-13,34,127,0,0,3385,-65,0,2033,197,112,8380,-4,0,83,0,265848,0
265862,605,-1991,210,-363,-113,-558,12064,-16,-3,119,56,35608,-24,34,127,0,0,3392,38,0,2033,197,112,8390,-4,0,83,0,265848,0
265872,560,-2006,89,-363,-123,-602,12072,-4,3,105,16,35592,-23,34,127,0,0,3393,16,0,2033,197,112,8400,-4,0,83,0,265848,0
265882,508,-2053,94,-352,-47,-729,12072,24,10,222,48,35597,-52,34,127,0,0,3385,-98,0,2033,197,112,8410,-4,0,83,0,265879,0
265892,589,-2060,195,-411,-34,-797,12069,-5,-14,167,24,35600,-42,34,127,0,0,3393,-54,0,2033,197,112,8420,-4,0,83,0,265879,0
265902,444,-2080,258,-527,-98,-794,12074,18,3,212,64,35612,-41,34,127,0,0,3394,16,0,2033,197,112,8430,-4,0,83,0,265879,0
265912,593,-2157,244,-567,-137,-814,12076,19,16,366,168,35613,-52,34,127,0,0,3412,175,0,2033,197,112,8440,-4,0,83,0,265910,0
265922,519,-2119,218,-543,-100,-967,12104,67,52,441,208,35601,-33,34,127,0,0,3414,104,0,2033,197,112,8450,-4,0,83,0,265926,0
265932,655,-2073,261,-573,-83,-1040,12155,129,98,327,152,35606,-36,34,127,0,0,3425,71,0,2033,197,112,8460,-4,0,83,0,265926,0
265942,726,-1958,279,-554,-206,-1012,12196,90,23,366,184,35610,-25,34,127,0,0,3433,98,0,2033,197,112,8470,-4,0,83,0,265926,0
265952,749,-1956,220,-564,-305,-954,12229,55,-39,439,248,35596,-35,34,127,0,0,3449,230,0,2033,197,112,8480,-4,0,83,0,265926,0
265962,746,-1976,234,-583,-299,-1030,12285,159,33,486,296,35595,-37,34,127,0,0,3458,137,0,2033,197,112,8490,-4,0,-14,0,265942,0
265972,842,-1970,231,-596,-281,-1047,12370,188,108,377,240,35603,-7,34,127,0,0,3476,137,0,2033,197,112,8500,-4,0,-15,0,265957,0
265982,817,-1859,192,-636,-332,-978,12438,132,2,418,264,35614,-7,34,127,0,0,3488,142,0,2033,197,112,8510,-4,0,-15,0,265973,0
265992,793,-1872,158,-663,-375,-926,12512,171,-21,422,320,35622,-16,34,127,0,0,3507,214,0,2033,197,112,8520,-4,0,-15,0,265988,0
266002,901,-1985,216,-644,-386,-897,12601,187,43,447,336,35603,-33,34,127,0,0,3527,170,0,2033,197,112,8530,-4,0,-15,0,265988,0
266012,904,-1991,230,-644,-407,-862,12694,203,28,405,352,35600,-57,34,127,0,0,3554,252,0,2033,197,112,8540,-4,0,-15,0,266004,0
266022,985,-1969,220,-669,-500,-785,12788,201,9,495,432,35589,-69,34,127,0,0,3577,280,0,2033,197,112,8550,-4,0,-14,0,266004,0
266032,908,-1956,176,-657,-572,-743,12897,244,29,486,464,35600,-66,34,127,0,0,3604,285,0,2033,197,112,8560,-4,0,-14,0,266020,0
266042,802,-2013,159,-640,-655,-710,13018,275,48,534,584,35595,-50,34,127,0,0,3637,313,0,2033,197,112,8570,-4,0,-14,0,266020,0
266052,665,-2046,204,-646,-685,-747,13164,336,76,486,624,35608,-28,34,127,0,0,3671,368,0,2033,197,112,8580,-4,0,-14,0,266051,0
266062,653,-2104,162,-668,-695,-830,13318,359,70,509,720,35614,-15,34,127,0,0,3702,335,0,2033,197,112,8590,-4,0,-14,0,266051,0
266072,643,-2057,106,-702,-704,-867,13485,370,41,423,744,35620,-15,34,127,0,0,3741,395,0,2033,197,112,8600,-4,0,-14,0,266051,0
266082,613,-1977,8,-698,-759,-979,13651,361,20,455,800,35610,-40,34,127,0,0,3772,357,0,2033,197,112,8610,-4,0,-14,0,266067,0
266092,588,-1883,-54,-682,-779,-1087,13821,373,6,483,840,35597,-44,34,127,0,0,3807,351,0,2033,197,112,8620,-4,0,-14,0,266160,0
266102,473,-1989,16,-745,-736,-1209,14001,390,22,443,808,35605,-43,34,127,0,0,3838,340,0,2033,197,112,8630,-4,0,-13,0,266160,0
266112,466,-2077,85,-804,-662,-1341,14181,389,15,419,776,35611,-12,34,127,0,0,3869,247,0,2033,197,112,8640,-4,0,-13,0,266176,0
266122,430,-2077,123,-929,-570,-1527,14356,373,-12,417,752,35603,-13,34,127,0,0,3903,335,0,2033,197,112,8650,-4,0,-13,0,266176,0
266132,425,-2056,77,-1008,-538,-1677,14526,368,-22,435,696,35584,-29,34,127,0,0,3933,351,0,2033,197,112,8660,-4,0,-13,0,266176,0
266142,403,-1961,39,-1088,-571,-1959,14695,378,-7,428,640,35579,-17,34,127,0,0,3952,219,0,2033,197,112,8670,-4,0,-13,0,266192,0
266152,401,-2028,99,-1124,-607,-2167,14857,358,-9,372,520,35583,-20,34,127,0,0,3975,214,0,2033,197,112,8680,-4,0,-13,0,266192,0
266162,-101,-1869,350,-1092,-847,-2380,15000,302,-55,365,368,35591,-13,34,127,0,0,3979,-21,0,2033,197,112,8690,-4,0,-12,0,266192,0
266172,-735,-2008,366,-1234,-752,-1937,15104,186,-116,321,352,35585,-37,34,127,0,0,4022,543,0,2033,197,112,8700,-4,0,-12,0,266192,0
266182,692,-2838,307,-1618,-444,-3341,15223,339,-36,706,728,35580,-45,34,127,0,0,4064,263,0,2033,197,112,8710,-4,0,-12,0,266192,0
266192,217,-2966,454,-1547,-543,-3142,15381,341,135,421,456,35582,-42,34,127,0,0,4066,32,0,2033,197,112,8720,-4,0,-11,0,266192,0
266202,-148,-2977,598,-1557,-1046,-2849,15507,254,-21,410,488,35591,-9,34,127,0,0,4107,488,0,2033,197,112,8730,-4,0,-11,0,266192,0
266212,377,-3025,477,-1647,-1194,-3472,15646,349,-30,590,800,35595,6,34,127,0,0,4158,499,0,2033,197,112,8740,-4,0,-10,0,266192,0
266222,885,-3453,327,-1740,-1328,-4429,15823,400,117,459,720,35606,-9,34,127,0,0,4178,153,0,2033,197,112,8750,-4,0,-10,0,266223,0
266232,170,-3526,589,-1465,-1894,-4350,15986,344,31,467,608,35612,-48,34,127,0,0,4213,340,0,2033,197,112,8760,-4,0,-9,0,266223,0
266242,-208,-3825,828,-1407,-2320,-4670,16141,346,-44,580,760,35608,-49,34,127,0,0,4253,401,0,2033,197,112,8770,-4,0,-9,0,266223,0
266252,71,-4422,1129,-1439,-2423,-5050,16307,367,13,580,816,35595,-40,34,127,0,0,4284,329,0,2033,197,112,8780,-4,0,-8,0,266238,0
266262,531,-4612,1328,-1552,-2828,-5409,16479,377,31,539,728,35602,5,34,127,0,0,4308,192,0,2033,197,112,8790,-4,0,-7,0,266254,0
266272,310,-4084,1345,-1668,-3301,-5081,16635,332,-28,553,736,35612,-21,34,127,0,0,4346,411,0,2033,197,112,8800,-4,0,-6,0,266254,0
266282,-122,-3378,1152,-1624,-3582,-4632,16794,374,-24,758,992,35618,-49,34,127,0,0,4407,598,0,2033,197,112,8810,-4,0,-5,0,266254,0
266292,-512,-2563,964,-1400,-3352,-4364,16990,464,90,830,1272,35604,-63,34,127,0,0,4471,631,0,2033,197,112,8820,-4,0,-4,0,266270,0
266302,-554,-1599,616,-1339,-2870,-3828,17241,582,179,777,1528,35597,-32,34,127,0,0,4554,862,0,2033,197,112,8830,-4,0,-2,0,266285,0
266312,1386,-1094,-186,-1361,-1737,-4239,17541,699,199,819,1672,35597,-5,34,127,0,0,4588,214,0,2033,197,112,8840,-4,0,0,0,266316,0
266322,1083,-1495,-854,-1399,-522,-3717,17828,565,8,263,712,35616,-16,34,127,0,0,4537,-538,0,2033,197,112,8850,-4,0,1,0,266316,0
266332,321,-1852,-567,-642,-96,-2939,17970,143,-345,-594,-376,35609,-29,34,127,0,0,4461,-681,0,2033,197,112,8860,-4,0,2,0,266316,0
266342,-399,-1169,400,2,265,-2489,17834,-401,-782,-557,-928,35604,-24,34,127,0,0,4386,-741,0,2033,197,112,8870,-4,0,5,0,266332,0
266352,-145,-1045,677,151,360,-2222,17604,-550,-706,-482,-1312,35594,-12,34,127,0,0,4304,-812,0,2033,197,112,8880,-4,0,6,0,266332,0
266362,294,-1195,143,373,316,-1504,17315,-679,-290,-509,-1584,35606,-16,34,127,0,0,4219,-845,0,2033,197,112,8890,-4,0,9,0,266332,0
266372,321,-1128,-190,733,239,-836,16975,-779,-218,-451,-1760,35615,-3,34,127,0,0,4145,-758,0,2033,197,112,8900,-4,0,10,0,266363,0
266382,167,-872,-241,1178,163,-1,16609,-808,-153,-412,-1832,35615,-3,34,127,0,0,4069,-802,0,2033,197,112,8910,-4,0,13,0,266363,0
266392,223,-916,-89,1402,185,520,16227,-851,-73,-401,-1904,35592,-3,34,127,0,0,3981,-829,0,2033,197,112,8920,-4,0,15,0,266379,0
266402,254,-1054,-103,1670,350,1380,15828,-898,-62,-487,-2080,35580,-1,34,127,0,0,3882,-966,0,2033,197,112,8930,-4,0,18,0,266410,0
266412,235,-1032,-200,1843,579,1964,15408,-945,-87,-576,-2312,35588,-17,34,127,0,0,3778,-1120,0,2033,197,112,8940,-4,0,19,0,266410,0
266422,164,-937,-293,2094,832,2874,14995,-1036,-122,-638,-2552,35580,13,34,127,0,0,3680,-1016,0,2033,197,112,8950,-4,0,22,0,266410,0
266432,95,-898,-235,2231,928,3445,14511,-1071,-126,-513,-2616,35568,7,34,127,0,0,3587,-884,0,2033,197,112,8960,-4,0,24,0,266410,0
266442,183,-904,-182,2316,1073,4229,14024,-1052,-49,-397,-2440,35574,11,34,127,0,0,3503,-818,0,2033,197,112,8970,-4,0,27,58,266426,0
266452,277,-1027,-211,2357,1198,4699,13564,-995,64,-357,-2296,35588,0,34,127,0,0,3436,-752,0,2033,197,112,8980,-4,0,29,51,266441,0
266462,375,-1277,-227,2428,1414,5338,13130,-940,101,-362,-2048,35594,-9,34,127,0,0,3378,-576,0,2033,197,112,8990,-4,0,33,42,266441,0
266472,400,-1410,-218,2503,1588,5660,12727,-869,107,-329,-1864,35586,-20,34,127,0,0,3315,-609,0,2033,197,112,9000,-4,0,35,37,266457,0
266482,504,-1593,-165,2560,1888,6153,12355,-795,123,-373,-1744,35576,-20,34,127,0,0,3256,-615,0,2033,197,112,9010,-4,0,38,30,266535,0
266492,661,-1698,-93,2552,2017,6582,12004,-760,102,-389,-1576,35587,-6,34,127,0,0,3212,-455,0,2033,197,112,9020,-4,0,40,25,266535,0
266502,795,-1750,11,2476,2067,7211,11683,-690,94,-365,-1328,35596,-18,34,127,0,0,3181,-269,0,2033,197,112,9030,-4,0,44,20,266535,0
266512,863,-1802,54,2407,1996,7523,11406,-573,139,-309,-928,35589,4,34,127,0,0,3172,-71,0,2033,197,112,9040,-4,0,46,17,266535,0
266522,992,-1985,100,2373,1820,7855,11184,-440,199,-264,-520,35576,-9,34,127,0,0,3168,-32,0,2033,197,112,9050,-4,0,50,12,266535,0
266532,1081,-2105,97,2393,1726,7995,11032,-271,252,-256,-216,35579,-19,34,127,0,0,3168,-5,0,2033,197,112,9060,-4,0,52,10,266551,0
266542,1057,-2226,65,2472,1583,8133,10957,-110,291,-100,-48,35582,-38,34,127,0,0,3170,-27,0,2033,197,112,9070,-4,0,56,7,266551,0
266552,987,-2285,40,2546,1485,8198,10954,29,284,-108,-24,35578,-40,34,127,0,0,3172,10,0,2033,197,112,9080,-4,0,58,5,266551,0
266562,1150,-2325,75,2627,1387,8312,10963,18,148,129,112,35567,-29,34,127,0,0,3191,159,0,2033,197,112,9090,-4,0,62,2,266551,0
266572,1007,-2325,61,2688,1390,8264,11012,142,90,194,104,35571,-27,34,127,0,0,3197,43,0,2033,197,112,9100,-4,0,64,1,266551,0
266582,947,-2360,4,2739,1467,8289,11056,73,64,-9,16,35582,-28,34,127,0,0,3193,-16,0,2033,197,112,9110,-4,0,68,0,266582,0
266592,847,-2358,93,2746,1498,8316,11067,0,-97,-56,-24,35592,-38,34,127,0,0,3194,-49,0,2033,197,112,9120,-4,0,70,0,266582,0
266602,653,-2392,224,2771,1549,8167,11064,-1,-89,-113,-64,35589,-46,34,127,0,0,3187,-93,0,2033,197,112,9130,-4,0,73,-2,266582,0
266612,595,-2478,191,2771,1576,8078,11049,-50,-44,-400,-192,35590,-54,34,127,0,0,3175,-148,0,2033,197,112,9140,-4,0,76,-2,266613,0
266622,628,-2500,149,2753,1659,8088,11000,-134,-98,-354,-200,35596,-58,34,127,0,0,3160,-131,0,2033,197,112,9150,-4,0,79,-3,266613,0
266632,499,-2466,161,2733,1673,8050,10945,-106,-79,-294,-128,35588,-65,34,127,0,0,3159,-38,0,2033,197,112,9160,-4,0,81,-3,266629,0
266642,386,-2520,163,2705,1704,7820,10930,0,85,-466,-144,35583,-64,34,127,0,0,3151,-10,0,2033,197,112,9170,-4,0,84,-4,266629,0
266652,418,-2626,126,2678,1752,7645,10925,-32,91,-658,-200,35586,-58,34,127,0,0,3138,-54,0,2033,197,112,9180,-4,0,86,-4,266629,0
266662,324,-2729,154,2619,1835,7332,10902,-62,-36,-651,-256,35597,-44,34,127,0,0,3131,-142,0,2033,197,112,9190,-4,0,89,-4,266660,0
266672,298,-2756,200,2549,1887,7037,10853,-102,-82,-517,-224,35603,-53,34,127,0,0,3124,-126,0,2033,197,112,9200,-4,0,91,-4,266660,0
266682,279,-2818,224,2393,1932,6534,10806,-120,-41,-476,-240,35603,-44,34,127,0,0,3120,-137,0,2033,197,112,9210,-4,0,94,-4,266660,0
266692,191,-2826,261,2239,1973,6157,10761,-87,-1,-455,-192,35589,-25,34,127,0,0,3112,-82,0,2033,197,112,9220,-4,0,96,-4,266691,0
266702,222,-2811,203,2021,2139,5523,10736,-26,59,-475,-184,35582,2,34,127,0,0,3104,-104,0,2033,197,112,9230,-4,0,99,-4,266691,0
266712,291,-2677,97,1865,2245,5105,10731,-2,86,-672,-216,35585,10,34,127,0,0,3110,-32,0,2033,197,112,9240,-4,0,100,-4,266691,0
266722,332,-2407,43,1708,2366,4384,10727,-15,40,-727,-232,35584,18,34,127,0,0,3101,-38,0,2033,197,112,9250,-4,0,103,-4,266707,0
266732,371,-2302,22,1606,2391,3871,10712,-40,-24,-759,-264,35597,18,34,127,0,0,3088,-131,0,2033,197,112,9260,-4,0,104,-4,266754,0
266742,536,-2195,38,1470,2322,3226,10669,-113,-77,-621,-336,35605,5,34,127,0,0,3086,-137,0,2033,197,112,9270,-4,0,106,-4,266754,0
266752,558,-2159,139,1337,2165,2858,10613,-131,-77,-595,-288,35609,-3,34,127,0,0,3069,-82,0,2033,197,112,9280,-4,0,106,-4,266754,0
266762,603,-2138,236,1115,1893,2263,10552,-137,-20,-500,-232,35594,-18,34,127,0,0,3066,-93,0,2033,197,112,9290,-4,0,106,-4,266754,0
266772,714,-2085,200,962,1691,1871,10503,-82,14,-525,-216,35579,-31,34,127,0,0,3054,-104,0,2033,197,112,9300,-4,0,106,-4,266754,0
266782,787,-1979,202,730,1340,1374,10464,-86,45,-582,-240,35583,-29,34,127,0,0,3043,-137,0,2033,197,112,9310,-4,0,106,-4,266769,0
266792,767,-1884,178,623,1119,1096,10430,-93,6,-647,-280,35608,-38,34,127,0,0,3038,-87,0,2033,197,112,9320,-4,0,106,-4,266816,0
266802,750,-1731,98,507,848,626,10374,-109,-33,-474,-216,35629,-46,34,127,0,0,3034,-27,0,2033,197,112,9330,-4,0,106,-4,266816,0
266812,799,-1677,80,432,720,292,10331,-83,-2,-511,-208,35631,-67,34,127,0,0,3019,-82,0,2033,197,112,9340,-4,0,106,-4,266816,0
266822,758,-1687,102,252,615,-246,10310,-41,68,-775,-296,35627,-84,34,127,0,0,3009,-181,0,2033,197,112,9350,-4,0,106,-4,266816,0
266832,700,-1694,105,124,642,-640,10264,-115,-8,-708,-376,35617,-85,34,127,0,0,2984,-236,0,2033,197,112,9360,-4,0,106,-4,266832,0
266842,663,-1714,71,-99,748,-1282,10188,-191,-115,-620,-408,35609,-78,34,127,0,0,2970,-214,0,2033,197,112,9370,-4,0,106,-4,266848,0
266852,582,-1648,31,-229,963,-1722,10105,-175,-63,-591,-360,35598,-44,34,127,0,0,2957,-120,0,2033,197,112,9380,-4,0,106,-4,266863,0
266862,558,-1535,-84,-403,1508,-2454,10028,-158,13,-540,-288,35594,-26,34,127,0,0,2952,-60,0,2033,197,112,9390,-4,0,106,-4,266863,0
266872,511,-1519,-82,-430,2009,-2960,9958,-148,28,-448,-232,35598,9,34,127,0,0,2943,-104,0,1224,23,113,0,1,1,106,-4,266863,0
266882,648,-2434,-152,-505,2981,-3507,9945,81,135,325,512,35597,24,34,127,0,0,2944,32,0,1224,23,113,10,1,1,106,-4,266879,0
266892,-1134,-9022,2309,-686,3102,-1804,10114,500,504,1636,2832,35598,38,34,127,0,0,3180,2708,0,1224,23,113,20,1,1,106,-4,266894,0
266902,-3172,-2518,3598,724,1249,-2726,10769,1840,1342,2371,5712,35576,89,34,127,0,0,3458,2817,0,1224,23,113,30,1,1,106,-4,266894,0
266912,-1153,-923,1286,-506,2168,-3698,11911,2750,1936,1587,7096,35552,153,34,127,0,0,3683,2054,0,1224,23,113,40,1,1,106,-4,266894,0
266922,1089,-947,-2714,-1820,2296,-3980,13233,2914,1174,759,7264,35532,182,34,127,0,0,3849,1647,0,1224,23,113,50,1,1,106,-4,266894,0
266932,-351,-2941,-2222,-1070,1948,-3146,14551,2919,247,763,7592,35521,184,34,127,0,0,4040,2026,0,1224,23,113,60,1,1,106,-4,266957,0
266942,-2478,-3869,216,-292,1154,-3136,15986,3271,238,1068,8288,35531,148,34,127,0,0,4283,2395,0,1224,23,113,70,1,1,106,-4,266957,0
266952,-1701,-3876,1543,-444,902,-3914,17552,3483,501,997,8568,35529,189,34,127,0,0,4501,2103,0,1224,23,113,80,1,1,106,-4,266957,0
266962,1958,-3173,690,-885,354,-5148,19119,3402,210,205,7168,35523,192,34,127,0,0,4605,933,0,1224,23,113,90,1,1,106,-4,266957,0
266972,2715,-2394,-252,-928,-158,-5584,20502,2829,-408,-395,4720,35536,131,34,127,0,0,4620,21,0,1224,23,113,100,1,1,106,-4,266973,0
266982,1960,-1897,15,-736,-622,-5062,21495,1890,-1183,-842,2552,35568,22,34,127,0,0,4602,-203,0,1224,23,113,110,1,1,106,-4,266973,0
266992,643,-1528,453,-562,-1051,-4487,22099,1116,-1517,-459,1016,35603,-65,34,127,0,0,4581,-247,0,1224,23,113,120,1,1,106,-4,266973,0
267002,521,-1938,640,-640,-840,-3760,22428,575,-1231,-215,152,35623,-70,34,127,0,0,4565,-159,0,1224,23,113,130,1,1,106,-4,267004,0
267012,354,-1858,647,-481,-629,-3452,22492,-77,-1015,-534,-200,35633,-57,34,127,0,0,4557,-82,0,1224,23,113,140,1,1,106,-4,267004,0
267022,306,-2018,140,-337,-296,-3396,22395,-225,-807,-138,-144,35618,-17,34,127,0,0,4537,-164,0,1224,23,113,150,1,1,106,-4,267004,0
267032,538,-2110,296,-190,-215,-3207,22321,-157,-192,-306,-272,35607,-2,34,127,0,0,4510,-269,0,1224,23,113,160,1,1,106,-4,267035,0
267042,1844,-2981,586,-308,-403,-2955,22233,-203,14,-122,40,35598,-4,34,127,0,0,4485,-203,620,1224,23,113,170,1,1,106,-4,267035,0
267052,128,-2008,218,-440,-217,-3348,22239,104,178,360,240,35596,-15,34,127,0,0,4382,-1027,820,1224,23,113,180,1,1,106,-4,267035,0
267062,590,-2321,242,-732,-332,-2308,22277,43,258,553,168,35593,-42,34,127,0,0,4331,-401,1020,1224,23,113,190,1,1,106,-4,267035,0
267072,1345,-2251,134,-875,-650,-1831,22214,-232,-195,686,-16,35602,-47,34,127,0,0,4320,-175,1220,1224,23,113,200,1,1,106,-4,267051,0
267082,89,-1972,13,-638,-556,-2061,21982,-644,-545,617,-488,35607,-43,34,127,0,0,4273,-433,1420,1224,23,113,210,1,1,106,-4,267066,0
267092,-205,-1877,-452,-485,102,-2494,21568,-994,-686,680,-912,35617,-62,34,127,0,0,4195,-840,1500,1224,23,113,220,1,1,106,-4,267066,0
267102,489,-1963,-186,-170,406,-2550,21083,-1069,-451,769,-888,35617,-75,34,127,0,0,4101,-966,1500,1224,23,113,230,1,1,106,-4,267098,0
267112,794,-2053,355,-128,193,-2132,20645,-898,2,824,-280,35620,-100,34,127,0,0,4017,-785,1500,1224,23,113,240,1,1,106,-4,267098,0
267122,164,-2178,746,-238,-242,-1358,20384,-408,473,1288,192,35625,-88,34,127,0,0,3973,-417,1500,1224,23,113,250,1,1,106,-4,267098,0
267132,511,-2136,386,-318,-363,-1052,20317,-95,730,953,168,35618,-81,34,127,0,0,3961,-87,1500,1224,23,113,260,1,1,106,-4,267129,0
267142,518,-1972,-182,-284,-334,-969,20261,-178,330,917,48,35614,-66,34,127,0,0,3947,-104,1500,1224,23,113,270,1,1,106,-4,267129,0
267152,417,-1881,-373,-143,-122,-1185,20079,-506,-279,795,-208,35607,-33,34,127,0,0,3916,-357,1500,1224,23,113,280,1,1,106,-4,267129,0
267162,172,-1881,-278,47,284,-1600,19750,-806,-543,606,-424,35606,-28,34,127,0,0,3857,-604,1500,1224,23,113,290,1,1,106,-4,267160,0
267172,298,-1904,-166,145,317,-1608,19385,-746,-322,828,-48,35602,-30,34,127,0,0,3792,-604,1500,1224,23,113,300,1,1,106,-4,267160,0
267182,376,-2002,278,260,-38,-959,19200,-236,360,1239,200,35603,-40,34,127,0,0,3752,-291,1500,1224,23,113,310,1,1,106,-4,267160,0
267192,742,-2014,438,273,-291,-620,19178,-22,676,894,224,35596,-59,34,127,0,0,3741,-65,1500,1224,23,113,320,1,1,106,-4,267176,0
267202,175,-2055,326,289,-387,-719,19143,-111,222,908,152,35607,-52,34,127,0,0,3740,-60,1500,1224,23,113,330,1,1,106,-4,267176,0
267212,366,-2043,144,309,-160,-928,19056,-249,-152,902,8,35607,-41,34,127,0,0,3726,-153,1500,1224,23,113,340,1,1,106,-4,267269,0
267222,248,-2077,262,382,56,-1234,18855,-512,-338,763,-128,35622,-46,34,127,0,0,3688,-401,1500,1224,23,113,350,1,1,106,-4,267269,0
267232,161,-1942,274,391,243,-1398,18559,-674,-398,682,-184,35612,-59,34,127,0,0,3632,-620,1500,1224,23,113,360,1,1,106,-4,267269,0
267242,130,-1855,336,369,159,-1370,18301,-472,-71,1051,80,35601,-66,34,127,0,0,3583,-422,1500,1224,23,113,370,1,1,106,-4,267285,0
267252,616,-1858,323,282,-105,-1055,18193,-158,406,1011,128,35592,-55,34,127,0,0,3561,-159,1500,1224,23,113,380,1,1,106,-4,267285,0
267262,491,-1943,519,184,-476,-846,18129,-141,354,892,112,35594,-66,34,127,0,0,3550,-137,1500,1224,23,113,390,1,1,106,-4,267285,0
267272,275,-2000,507,156,-372,-982,18035,-238,-12,893,40,35591,-76,34,127,0,0,3534,-142,1500,1224,23,113,400,1,1,106,-4,267285,0
267282,200,-2114,522,147,-12,-1393,17864,-433,-222,836,-104,35581,-79,34,127,0,0,3500,-324,1500,1224,23,113,410,1,1,106,-4,267285,0
267292,316,-2040,509,150,73,-1597,17601,-638,-334,725,-280,35582,-52,34,127,0,0,3457,-510,1520,1224,23,113,420,1,1,106,-4,267285,0
267302,155,-2071,399,136,72,-1722,17288,-689,-265,858,-144,35594,-38,34,127,0,0,3392,-587,1670,1224,23,113,430,1,1,106,-4,267285,0
267312,7,-2051,356,97,-19,-1620,17048,-422,85,1260,152,35619,-57,34,127,0,0,3347,-428,1820,1224,23,113,440,1,1,106,-4,267301,0
267322,548,-2021,475,-73,-308,-1298,16948,-162,446,1203,176,35633,-54,34,127,0,0,3321,-192,1970,1224,23,113,450,1,1,106,-4,267301,0
267332,644,-1924,384,-111,-568,-1193,16884,-148,318,1233,168,35635,-52,34,127,0,0,3317,-27,2130,1224,23,113,460,1,1,106,-4,267332,0
267342,582,-1881,78,-78,-331,-1271,16781,-264,-36,1299,80,35622,-45,34,127,0,0,3292,-219,2290,1224,23,113,470,1,1,106,-4,267332,0
267352,351,-1920,75,29,-116,-1372,16627,-364,-176,1378,32,35601,-53,34,127,0,0,3269,-285,2460,1224,23,113,480,1,1,106,-4,267332,0
267362,561,-2028,321,116,-48,-1434,16444,-405,-147,1502,40,35595,-76,34,127,0,0,3229,-406,2610,1224,23,113,490,1,1,106,-4,267347,0
267372,720,-2021,569,12,-135,-1360,16268,-380,-44,1589,80,35599,-59,34,127,0,0,3194,-362,2700,1224,23,113,500,1,1,106,-4,267379,0
267382,627,-2195,607,-59,-321,-1236,16116,-296,53,1624,168,35611,-54,34,127,0,0,3171,-230,2770,1224,23,113,510,1,1,106,-4,267379,0
267392,429,-2285,528,7,-332,-1107,16024,-167,169,1681,256,35612,-31,34,127,0,0,3148,-186,2850,1224,23,113,520,1,1,106,-4,267394,0
267402,435,-2057,395,107,-516,-974,15992,-18,230,1662,456,35597,-39,34,127,0,0,3140,-60,2930,1224,23,113,530,1,1,106,-4,267394,0
267412,665,-2040,398,39,-625,-916,16005,36,202,1750,520,35583,-41,34,127,0,0,3146,60,3010,1224,23,113,540,1,1,106,-4,267394,0
267422,399,-2210,206,-20,-635,-959,16007,-6,63,1820,520,35583,-28,34,127,0,0,3140,-38,3090,1224,23,113,550,1,1,106,-4,267410,0
267432,132,-2131,188,-38,-522,-1016,16013,18,-18,1856,576,35586,-17,34,127,0,0,3148,54,3190,1224,23,113,560,1,1,106,-4,267426,0
267442,285,-2215,158,-42,-308,-1120,16020,17,15,1927,592,35581,-21,33,127,0,0,3148,49,3280,1224,23,113,570,1,1,106,-4,267426,0
267452,469,-2143,222,-23,-281,-1159,16027,18,2,1989,584,35577,-21,34,127,0,0,3149,32,3380,1224,23,113,580,1,1,106,-4,267441,0
267462,584,-2138,340,-14,-326,-1210,16041,44,22,2036,632,35587,-22,34,127,0,0,3155,71,3490,1224,23,113,590,1,1,106,-4,267441,0
267472,503,-2119,401,-29,-403,-1157,16080,114,69,2026,832,35579,-4,34,127,0,0,3164,115,3590,1224,23,113,600,1,1,106,-4,267472,0
267482,508,-2068,516,-56,-534,-1068,16157,192,124,2056,1104,35579,2,34,127,0,0,3172,126,3710,1224,23,113,610,1,1,106,-4,267472,0
267492,564,-2070,521,-102,-607,-988,16275,266,146,2173,1320,35570,27,34,127,0,0,3199,219,3830,1224,23,113,620,1,1,106,-4,267472,0
267502,572,-2008,435,-144,-648,-977,16420,346,126,2239,1536,35563,50,34,127,0,0,3229,302,3960,1224,23,113,630,1,1,106,-4,267504,0
267512,569,-1997,375,-155,-694,-974,16595,406,113,2366,1624,35558,67,34,127,0,0,3262,346,4100,1224,23,113,640,1,1,106,-4,267519,0
267522,473,-2002,301,-176,-666,-1006,16782,404,73,2468,1672,35548,74,34,127,0,0,3295,329,4250,1224,23,113,650,1,1,106,-4,267519,0
267532,383,-2030,279,-192,-609,-1072,16948,355,-25,2578,1584,35546,62,34,127,0,0,3331,373,4400,1224,23,113,660,1,1,106,-4,267519,0
267542,647,-1984,268,-218,-487,-1207,17103,316,-57,2688,1424,35547,67,34,127,0,0,3354,230,4560,1224,23,113,670,1,1,106,-4,267519,0
267552,716,-1891,272,-241,-476,-1252,17231,281,-81,2723,1416,35561,69,34,127,0,0,3375,214,4720,1224,23,113,680,1,1,106,-4,267535,0
267562,600,-1841,228,-266,-486,-1241,17356,286,-45,2791,1520,35574,81,34,127,0,0,3398,197,4880,1224,23,113,690,1,1,106,-4,267551,0
267572,832,-1828,218,-269,-508,-1227,17494,299,28,2921,1544,35570,47,34,127,0,0,3428,274,5040,1224,23,113,700,1,1,106,-4,267551,0
267582,633,-1784,287,-360,-532,-1126,17650,359,53,2957,1784,35557,33,34,127,0,0,3458,318,5210,1224,23,113,710,1,1,106,-4,267627,0
267592,722,-1900,358,-396,-551,-1069,17842,454,106,3107,2064,35553,81,34,127,0,0,3492,357,5380,1224,23,113,720,1,1,106,-4,267627,0
267602,746,-1930,341,-350,-661,-1031,18063,506,126,3180,2224,35557,126,34,127,0,0,3537,439,5560,1224,23,113,730,1,1,106,-4,267642,0
267612,627,-1945,315,-371,-680,-1003,18306,533,94,3399,2248,35546,148,34,127,0,0,3583,527,5740,1224,23,113,740,1,1,106,-4,267642,0
267622,618,-2007,378,-384,-676,-1020,18564,581,59,3496,2400,35523,159,34,127,0,0,3632,505,5940,1224,23,113,750,1,1,106,-4,267642,0
267632,451,-2018,433,-426,-637,-1018,18828,575,30,3554,2432,35524,175,34,127,0,0,3679,455,6140,1224,23,113,760,1,1,106,-4,267642,0
267642,793,-2020,443,-474,-638,-1055,19102,593,28,3724,2512,35523,192,34,127,0,0,3732,483,6350,1224,23,113,770,1,1,106,-4,267642,0
267652,609,-1992,427,-499,-641,-1042,19389,655,40,3825,2736,35520,209,34,127,0,0,3778,494,6560,1224,23,113,780,1,1,106,-4,267642,0
267662,703,-2066,384,-591,-698,-1074,19691,675,65,3854,2816,35497,237,34,127,0,0,3836,494,6770,1224,23,113,790,1,1,106,-4,267642,0
267672,761,-2105,416,-590,-733,-1100,20006,693,52,4014,2880,35493,244,34,127,0,0,3899,631,6990,1224,23,113,800,1,1,106,-4,267642,0
267682,718,-2235,385,-580,-816,-1133,20337,734,52,4131,3056,35497,277,34,127,0,0,3958,598,7160,1224,23,113,810,1,1,106,-4,267673,0
267692,512,-2293,412,-608,-875,-1157,20682,775,58,4245,3208,35501,297,34,127,0,0,4019,637,7250,1224,23,113,820,1,1,106,-4,267689,0
267702,580,-2326,438,-645,-1024,-1281,21028,697,24,1981,-568,35486,308,34,127,0,0,4091,686,0,1224,23,113,830,1,1,106,-4,267689,0
267712,-272,-2002,388,-546,-600,-3074,20732,-1027,-1334,111,-1872,35500,214,33,127,0,0,4037,-703,0,1224,23,113,840,1,1,106,-4,267689,0
267722,-281,-1852,171,-467,23,-4173,20117,-1471,-1864,-874,-4960,35541,80,34,127,0,0,3936,-1038,0,1224,23,113,850,1,1,106,-4,267720,0
267732,-2181,-2445,699,-465,-1558,-3053,19071,-2733,-1366,-2617,-7992,35565,97,34,127,0,0,3913,109,0,1224,23,113,860,1,1,106,-4,267720,0
267742,321,-3671,1471,-986,-1548,-2979,17631,-3147,-1632,56,-5456,35538,164,34,127,0,0,3964,494,0,1224,23,113,870,1,1,106,-4,267720,0
267752,-1204,-2792,1091,-938,-1974,-3180,16459,-2241,-1,1526,-2472,35533,107,34,127,0,0,4027,664,0,1224,23,113,880,1,1,106,-4,267736,0
267762,-1066,-2830,12,-995,-1680,-4301,15802,-1133,1641,1028,-416,35568,19,34,127,0,0,4084,516,0,1224,23,113,890,1,1,106,-4,267736,0
267772,-950,-2743,-18,-831,-1545,-4845,15614,14,1890,1631,560,35618,-128,34,127,0,0,4133,466,0,1224,23,113,900,1,1,106,-4,267783,0
267782,-274,-2672,596,-835,-2048,-5250,15771,390,1559,455,864,35621,-99,34,127,0,0,4195,659,0,1224,23,113,910,1,1,106,-4,267783,0
267792,-434,-3101,592,-1005,-2437,-5696,15980,478,635,523,1144,35591,-63,34,127,0,0,4268,708,0,1224,23,113,920,1,1,106,-4,267783,0
267802,-818,-3637,262,-1043,-2828,-6560,16232,588,171,584,1360,35584,-37,34,127,0,0,4336,670,0,1224,23,113,930,1,1,106,-4,267783,0
267812,-953,-3696,404,-914,-2957,-6982,16519,644,152,595,1576,35588,-18,34,127,0,0,4411,747,0,1224,23,113,940,1,1,106,-4,267783,0
267822,-975,-3937,690,-863,-3101,-7591,16841,732,128,669,1880,35602,-11,34,127,0,0,4490,796,0,1224,23,113,950,1,1,106,-4,267814,0
267832,-665,-4067,898,-883,-3517,-7727,17208,850,161,770,2208,35603,7,34,127,0,0,4586,961,0,1224,23,113,960,1,1,106,-4,267814,0
267842,-1039,-4454,1264,-1245,-3954,-7280,17626,967,193,923,2744,35596,-2,34,127,0,0,4719,1400,0,1224,23,113,970,1,1,106,-4,267814,0
267852,-360,-4917,1500,-1633,-4264,-7538,18160,1268,332,1106,3504,35587,31,34,127,0,0,4871,1444,0,1224,23,113,980,1,1,106,-4,267845,0
267862,-1175,-5000,1638,-1806,-4323,-6696,18805,1461,440,901,3800,35568,60,34,127,0,0,5019,1455,0,1224,23,113,990,1,1,106,-4,267845,0
267872,-1257,-3697,1546,-1894,-4597,-5681,19523,1634,334,1061,4400,35557,62,34,127,0,0,5218,2032,0,1224,23,113,1000,1,1,106,-4,267876,0
267882,-1164,-2134,717,-2310,-4924,-4455,20353,1906,365,1306,5304,35545,78,34,127,0,0,5472,2642,0,1224,23,113,1010,1,1,106,-4,267876,0
267892,2385,-2185,250,-2226,-4175,-4407,21353,2370,568,1766,6712,35540,127,34,127,0,0,5730,2427,0,1224,23,113,1020,1,1,106,-4,267876,0
267902,1726,-1101,-1753,-2042,-955,-5365,22505,2495,627,286,5048,35535,174,34,127,0,0,5706,-379,0,1224,23,113,1030,1,1,106,-4,267876,0
267912,1390,-1841,-1564,-1605,634,-5178,23473,1912,-168,-916,1712,35546,123,34,127,0,0,5543,-1763,0,1224,23,113,1040,0,1,106,-4,267908,0
267922,78,-1676,-89,-617,1143,-4374,23849,172,-1622,-3055,-1448,35573,8,34,127,0,0,5322,-2164,0,1224,23,113,1050,0,1,106,-4,267923,0
267932,-23,-1429,724,-675,1157,-4211,23506,-924,-2625,-1164,-2744,35592,-38,34,127,0,0,5135,-1922,0,1224,23,113,1060,0,1,106,-4,267923,0
267942,898,-1538,691,-772,977,-2935,22955,-1310,-1595,-862,-3336,35591,-13,34,127,0,0,4985,-1466,0,1224,23,113,1070,0,1,106,-4,267923,0
267952,1410,-1476,95,-642,1016,-1686,22327,-1387,-497,-398,-3208,35583,30,34,127,0,0,4882,-1027,0,1224,23,113,1080,0,1,106,-4,267939,0
267962,1462,-828,-121,-337,1308,-4,21722,-1298,-60,-162,-2736,35592,10,34,127,0,0,4807,-708,0,1224,23,113,1090,0,1,106,-4,267939,0
267972,1485,-350,-1,-168,1599,784,21179,-1145,183,-109,-2368,35599,-12,34,127,0,0,4721,-873,0,1224,23,113,1100,0,1,106,-4,267955,0
267982,1930,13,-12,-1,2053,2152,20695,-1032,240,-201,-2248,35603,-9,34,127,0,0,4628,-977,0,1224,23,113,1110,0,1,106,-4,267986,0
267992,2271,157,-64,126,2233,3359,20236,-1019,149,-312,-2296,35591,-12,34,127,0,0,4527,-1016,0,1224,23,113,1120,0,1,106,-4,267986,0
268002,2361,452,-22,359,2197,5256,19768,-1040,7,-370,-2392,35583,-2,34,127,0,0,4418,-1049,0,1224,23,113,1130,0,1,106,-4,267986,0
268012,2255,594,112,529,1881,6358,19287,-1054,-44,-333,-2360,35571,-3,34,127,0,0,4325,-966,0,1224,23,113,1140,0,1,106,-4,268001,0
268022,2162,561,263,947,1006,7799,18814,-1037,-3,-326,-2232,35585,-7,34,127,0,0,4240,-807,0,1224,23,113,1150,0,1,106,-4,268017,0
268032,2163,604,241,1225,256,8734,18365,-971,59,-278,-2048,35600,-22,34,127,0,0,4168,-686,0,1224,23,113,1160,0,1,106,-4,268017,0
268042,1931,706,177,1766,-872,10002,17950,-888,111,-223,-1752,35600,-34,34,127,0,0,4103,-648,0,1224,23,113,1170,0,1,106,-4,268017,0
268052,1730,707,65,2183,-1477,10680,17579,-781,156,-207,-1416,35596,-29,34,127,0,0,4059,-483,0,1224,23,113,1180,0,1,106,-4,268095,0
268062,1241,616,-97,2811,-1888,11339,17262,-657,194,-187,-1112,35609,-20,34,127,0,0,4017,-422,0,1224,23,113,1190,0,1,106,-4,268095,0
268072,879,542,-243,3251,-1772,11498,16996,-547,203,-243,-920,35615,-18,34,127,0,0,3973,-450,0,1224,23,113,1200,0,1,106,-4,268095,0
268082,544,371,-500,3775,-1095,11525,16774,-480,177,-344,-848,35606,-23,34,127,0,0,3927,-499,0,1224,23,113,1210,0,1,106,-4,268095,0
268092,465,123,-724,3972,-357,11528,16567,-442,99,-350,-736,35592,-43,34,127,0,0,3891,-379,0,1224,23,113,1220,0,1,106,-4,268095,0
268102,528,-445,-920,4225,985,11563,16378,-405,61,-298,-520,35594,-34,34,127,0,0,3874,-219,0,1224,23,113,1230,0,1,106,-4,268111,0
268112,718,-771,-973,4317,1971,11455,16226,-307,108,-174,-152,35600,-37,34,127,0,0,3873,10,0,1224,23,113,1240,0,1,106,-4,268111,0
268122,439,-1297,-933,4232,3351,11017,16173,3,280,282,128,35598,-35,34,127,0,0,3888,120,0,1224,23,113,1250,0,1,106,-4,268111,0
268132,731,-1696,-792,4049,4212,10799,16259,234,484,399,448,35594,-11,34,127,0,0,3933,494,0,1224,23,113,1260,0,1,106,-4,268111,0
268142,640,-2201,-284,3577,4884,10416,16399,363,335,682,1040,35603,-10,34,127,0,0,4018,933,0,1224,23,113,1270,0,1,106,-4,268142,0
268152,794,-2480,117,3211,4892,10125,16643,634,309,1065,2088,35611,6,34,127,0,0,4169,1620,0,1224,23,113,1280,0,1,106,-4,268142,0
268162,1380,-2995,259,2474,4587,9351,17081,1114,603,1333,3368,35599,22,34,127,0,0,4374,2076,0,1224,23,113,1290,0,1,106,-4,268142,0
268172,1430,-3379,410,1983,4306,8593,17753,1634,845,1447,4696,35583,49,34,127,0,0,4606,2373,0,1224,23,113,1300,0,1,106,-4,268173,0
268182,1639,-3500,487,1475,4295,6865,18644,2057,868,990,5240,35561,82,34,127,0,0,4806,1917,0,1224,23,113,1310,0,1,106,-4,268173,0
268192,1977,-3132,324,1171,4449,5457,19618,2152,541,487,5008,35558,92,34,127,0,0,4937,1219,0,1224,23,113,1320,0,1,106,-4,268173,0
268202,1898,-2608,334,939,4193,4069,20532,1920,-7,186,4136,35566,79,34,127,0,0,5004,675,0,1224,23,113,1330,0,1,106,-4,268205,0
268212,1681,-2091,217,852,3957,3364,21302,1602,-432,65,3256,35567,31,34,127,0,0,5059,510,0,1224,23,113,1340,0,1,106,-4,268205,0
268222,1329,-1111,-31,643,3208,2368,21923,1280,-563,117,2720,35575,-10,34,127,0,0,5121,664,0,1224,23,113,1350,0,1,106,-4,268205,0
268232,1428,-698,-123,638,2463,1546,22432,1073,-487,335,2576,35576,-17,34,127,0,0,5197,774,0,1224,23,113,1360,0,1,106,-4,268205,0
268242,1600,-215,-337,457,1347,-165,22908,1035,-254,514,2528,35580,-11,34,127,0,0,5264,697,0,1224,23,113,1370,0,1,106,-4,268236,0
268252,1499,8,-289,290,580,-1218,23380,1022,-59,468,2328,35576,0,34,127,0,0,5309,510,0,1224,23,113,1380,0,1,106,-4,268251,0
268262,1367,-106,-139,-26,-462,-2509,23819,937,-83,375,2008,35574,-3,34,127,0,0,5351,390,0,1224,23,113,1390,0,1,106,-4,268251,0
268272,1111,-230,-128,-378,-1087,-3184,24208,825,-166,413,1808,35578,-8,34,127,0,0,5408,532,0,1224,23,113,1400,0,1,106,-4,268251,0
268282,11884,-17020,337,-1084,-1447,-11532,24619,963,-38,322,1152,35591,-23,34,127,0,0,5241,-2554,0,7185,1824,114,2,1,0,282,-5,268267,0
268292,-1944,425,5854,2260,-720,-11599,24167,-2761,-1859,-8548,-9968,35545,205,34,127,0,0,4691,-5240,0,7185,1824,114,12,1,0,282,-5,268267,0
268302,-2284,3130,-2422,-4719,559,-10637,22280,-4384,-4944,-455,-9576,35451,465,34,127,0,0,4361,-3955,0,7185,1824,114,22,1,0,282,-5,268283,0
268312,4,-1510,-446,-3081,296,-10119,20145,-4896,-2736,1479,-9568,35463,403,34,127,0,0,3941,-4169,0,7185,1824,114,32,1,0,282,-5,268361,0
268322,-70,-2573,-2597,-318,-1581,-7273,17946,-4672,-538,2415,-9512,35535,128,34,127,0,0,3532,-4031,0,7185,1824,114,42,1,0,282,-5,268361,0
268332,-574,-3129,-1532,306,-514,-8309,15864,-4592,677,811,-9320,35694,-379,34,127,0,0,3137,-3949,0,7185,1824,114,52,1,0,282,-5,268376,0
268342,2530,-3379,645,78,2682,-9478,13807,-4468,-22,672,-9256,35706,-410,34,127,0,0,2731,-4015,0,7185,1824,114,62,1,0,282,-5,268376,0
268352,2327,-2236,1095,173,983,-8062,11810,-4349,-307,627,-8760,35658,-272,34,127,0,0,2378,-3477,0,7185,1824,114,72,1,0,282,-5,268376,0
268362,286,-5135,439,-1017,-1476,-4178,9989,-3807,432,407,-7184,35629,-158,34,127,0,0,2195,-1587,0,7185,1824,114,82,1,0,282,-5,268376,0
268372,-688,-4457,560,-255,-1622,-4528,8503,-3036,992,547,-5232,35626,-122,34,127,0,0,2084,-1159,0,7185,1824,114,92,1,0,282,-5,268376,0
268382,-560,-2272,-1425,52,651,-5733,7352,-2330,1299,324,-4096,35610,-111,34,127,0,0,1940,-1466,0,7185,1824,114,102,1,0,282,-5,268376,0
268392,1290,-2372,-1350,444,729,-5601,6459,-1831,1141,69,-3576,35591,-96,34,127,0,0,1808,-1329,0,7185,1824,114,112,1,0,282,-5,268376,0
268402,4397,-2118,193,510,715,-3479,5729,-1516,797,-97,-3304,35588,-54,34,127,0,0,1701,-1027,0,7185,1824,114,122,1,0,282,-5,268392,0
268412,4492,-3040,1628,393,-109,-2032,5108,-1303,525,-149,-2656,35582,-4,34,127,0,0,1655,-340,0,7185,1824,114,132,1,0,282,-5,268392,0
268422,3025,-2853,2077,-621,-572,-873,4642,-1050,408,-33,-1696,35594,3,34,127,0,0,1663,98,0,7185,1824,114,142,1,0,282,-5,268392,0
268432,1111,-3965,1738,-839,-871,240,4244,-778,452,71,-520,35593,13,34,127,0,0,1720,719,0,7185,1824,114,152,1,0,282,-5,268423,0
268442,922,-3724,1002,-823,-709,1401,4076,-25,722,1715,1000,35604,-25,34,127,0,0,1856,1483,0,7185,1824,114,162,1,0,282,-5,268439,0
268452,1441,-3821,582,-1045,-805,1805,4302,620,1272,1130,2160,35599,-24,34,127,0,0,2044,1950,0,7185,1824,114,172,1,0,282,-5,268439,0
268462,1108,-4062,839,-1047,-951,1988,4727,1077,1079,1303,3384,35589,-9,34,127,0,0,2290,2548,0,7185,1824,114,182,1,0,282,-5,268439,0
268472,922,-3802,733,-1007,-1311,2094,5359,1520,782,1272,4424,35568,35,34,127,0,0,2542,2598,0,7185,1824,114,192,1,0,282,-5,268470,0
268482,-410,-3614,662,-644,-1955,2245,6168,1901,733,1238,5288,35556,74,34,127,0,0,2817,2779,0,7185,1824,114,202,1,0,282,-5,268470,0
268492,-904,-3478,680,-520,-2262,2067,7158,2311,682,1298,6312,35546,109,33,127,0,0,3155,3400,0,7185,1824,114,212,1,0,282,-5,268470,0
268502,-1298,-3444,448,-455,-2113,1085,8370,2813,779,1405,7512,35533,156,34,127,0,0,3494,3427,0,7185,1824,114,222,1,0,282,-5,268486,0
268512,-2181,-2906,671,-490,-2056,458,9779,3175,803,923,8048,35528,185,34,127,0,0,3817,3213,0,7185,1824,114,232,1,0,282,-5,268501,0
268522,-1823,-2615,495,-483,-2163,-334,11310,3462,587,873,8504,35521,203,34,127,0,0,4151,3306,0,7185,1824,114,242,1,0,282,-5,268501,0
268532,-1808,-2597,361,-541,-2434,-1113,12907,3494,349,627,8688,35530,191,34,127,0,0,4475,3218,0,7185,1824,114,252,1,0,282,-5,268533,0
268542,-1213,-2166,486,-856,-2393,-2579,14483,3494,48,627,8656,35529,187,34,127,0,0,4760,2686,0,7185,1824,114,262,1,0,282,-5,268533,0
268552,-346,-2547,477,-1103,-2414,-3438,16102,3562,57,293,7992,35523,161,34,127,0,0,4985,2246,0,7185,1824,114,272,1,0,282,-5,268548,0
268562,-597,-3316,910,-1331,-2579,-4478,17622,3222,-135,124,7040,35527,97,34,127,0,0,5170,1862,0,7185,1824,114,282,1,0,282,-5,268548,0
268572,-752,-3154,854,-1339,-2800,-4989,18966,2849,-569,36,6088,35547,63,34,127,0,0,5328,1593,0,7185,1824,114,292,1,2,282,-5,268548,0
268582,-1004,-2272,975,-1617,-3316,-5340,20146,2478,-648,61,5392,35580,5,34,127,0,0,5489,1730,0,7185,1824,114,302,1,2,282,-5,268579,0
268592,-1183,-1988,918,-1820,-3697,-5532,21134,2036,-687,-154,2976,35600,-20,34,127,0,0,5641,1483,0,7185,1824,114,312,1,2,282,-5,268579,0
268602,-1573,-2020,825,-2091,-4115,-5606,21811,1200,-995,-906,632,35602,-63,34,127,0,0,5807,1642,0,7185,1824,114,322,1,2,282,-5,268579,0
268612,-1369,-1869,1014,-2146,-3978,-5578,22043,128,-1520,-1742,-472,35604,-91,34,127,0,0,5996,1922,0,7185,1824,114,332,1,2,282,-5,268642,0
268622,-177,-2110,133,-2221,-2023,-6878,21902,-371,-1570,-707,-1480,35606,-85,34,127,0,0,6077,560,0,7185,1824,114,342,1,2,282,-5,268642,0
268632,-107,-2091,-169,-2097,-714,-6976,21561,-969,-1010,-1732,-3560,35592,-41,34,127,0,0,6033,-521,0,7185,1824,114,352,0,2,282,-5,268642,0
268642,-695,-1943,-2,-1728,862,-7169,20842,-1886,-1178,-2206,-6024,35560,47,34,127,0,0,5904,-1395,0,7185,1824,114,362,0,2,282,-5,268642,0
268652,-781,-1746,157,-1521,1215,-7090,19668,-2844,-1637,-1672,-7784,35514,166,34,127,0,0,5755,-1516,0,7185,1824,114,372,0,2,282,-5,268658,0
268662,-686,-1415,87,-1285,1196,-6934,18185,-3404,-1427,-1332,-8992,35492,253,34,127,0,0,5605,-1433,0,7185,1824,114,382,0,2,282,-5,268658,0
268672,-409,-1260,7,-1150,831,-6661,16489,-3880,-953,-1078,-9648,35488,305,34,127,0,0,5474,-1290,0,7185,1824,114,392,0,2,282,-5,268658,0
268682,-67,-1203,-240,-852,202,-6623,14822,-3213,-286,3625,-768,35520,217,34,127,0,0,5347,-1274,0,7185,1824,114,402,0,2,282,-5,268658,0
268692,-620,-922,-215,-507,-390,-6582,14788,1160,3629,5401,4792,35560,105,34,127,0,0,5215,-1263,0,7185,1824,114,412,0,2,282,-5,268673,0
268702,992,-1383,-275,-387,-918,-5208,15756,2479,5195,2411,7488,35558,111,34,127,0,0,5128,-845,0,7185,1824,114,422,0,2,282,-5,268689,0
268712,532,-1308,38,-197,-1196,-4544,17220,3489,2502,1688,7656,35517,206,34,127,0,0,5042,-862,0,7185,1824,114,432,0,2,282,-5,268704,0
268722,615,-1267,72,-44,-1515,-3200,18666,2916,795,-1145,3952,35478,298,34,127,0,0,4975,-692,0,7185,1824,114,442,0,2,282,-5,268720,0
268732,664,-1103,69,126,-1592,-2535,19572,1620,-1292,-1302,1304,35526,107,34,127,0,0,4907,-719,0,7185,1824,114,452,0,2,282,-5,268720,0
268742,810,-859,1,468,-1485,-1166,19983,605,-2006,-1562,-432,35583,-59,34,127,0,0,4833,-780,0,7185,1824,114,462,0,2,282,-5,268720,0
268752,1183,-672,-122,686,-1188,-257,19854,-434,-1939,-472,-976,35611,-111,34,127,0,0,4755,-823,0,7185,1824,114,472,0,2,282,-5,268736,0
268762,1304,-242,28,998,-856,1197,19611,-575,-1139,-523,-1416,35610,-66,34,127,0,0,4670,-862,0,7185,1824,114,482,0,2,282,-5,268767,0
268772,1488,-64,30,1226,-635,2163,19294,-729,-293,-539,-1824,35604,-27,34,127,0,0,4575,-933,0,7185,1824,114,492,0,2,282,-5,268767,0
268782,1707,205,-5,1606,-512,3695,18917,-873,-246,-519,-2152,35609,-27,34,127,0,0,4474,-1021,0,7185,1824,114,502,0,2,282,-5,268767,0
268792,1809,414,-6,1813,-418,4842,18492,-962,-214,-416,-2248,35598,-11,34,127,0,0,4387,-906,0,7185,1824,114,512,0,2,282,-5,268783,0
268802,1962,640,-26,2140,-269,6753,18042,-995,-132,-322,-2152,35582,10,34,127,0,0,4320,-642,0,7185,1824,114,522,0,2,282,-5,268783,0
268812,1909,686,-84,2429,-317,7817,17610,-925,0,-205,-1808,35577,-5,34,127,0,0,4270,-494,0,7185,1824,114,532,0,2,282,-5,268798,0
268822,1664,624,-182,3038,-551,9013,17219,-820,131,-169,-1520,35582,-16,34,127,0,0,4222,-494,0,7185,1824,114,542,0,2,282,-5,268814,0
268832,1704,463,-112,3459,-739,9839,16875,-721,173,-175,-1240,35589,-29,34,127,0,0,4189,-362,0,7185,1824,114,552,0,2,282,-5,268814,0
268842,1656,255,108,3863,-993,11018,16580,-618,177,-175,-888,35591,-14,34,127,0,0,4168,-192,0,7185,1824,114,562,0,2,282,-5,268829,0
268852,1411,163,286,4047,-992,11629,16340,-487,197,-146,-464,35592,-29,34,127,0,0,4168,5,0,7185,1824,114,572,0,2,282,-5,268829,0
268862,1059,-120,258,4276,-685,12120,16165,-328,232,-24,-96,35589,-25,34,127,0,0,4164,-5,0,7185,1824,114,582,0,2,282,-5,268861,0
268872,981,-419,15,4433,-254,12387,16103,-67,358,-35,-16,35602,-34,34,127,0,0,4161,-5,0,7185,1824,114,592,0,2,282,-5,268861,0
268882,978,-962,-295,4709,619,12788,16109,36,341,-58,-24,35602,-19,34,127,0,0,4158,-54,0,7185,1824,114,602,0,2,282,-5,268861,0
268892,898,-1238,-298,4921,1193,12908,16108,-12,88,-58,0,35594,-16,34,127,0,0,4163,5,0,7185,1824,114,612,0,2,282,-5,268876,0
268902,1152,-1761,-176,4884,1754,13221,16124,73,13,300,264,35596,-31,34,127,0,0,4205,401,0,7185,1824,114,622,0,2,282,-5,268876,0
268912,1026,-2181,20,4695,1935,13277,16232,291,229,576,712,35598,-17,34,127,0,0,4280,747,0,7185,1824,114,632,0,2,282,-5,268907,0
268922,1000,-3054,124,4355,2198,12756,16412,467,324,845,1472,35599,14,34,127,0,0,4395,1181,0,7185,1824,114,642,0,2,282,-5,268907,0
268932,874,-3624,67,4162,2405,12012,16719,762,398,964,2176,35584,20,34,127,0,0,4521,1257,0,7185,1824,114,652,0,2,282,-5,268907,0
268942,1080,-4608,17,3918,3026,10244,17153,1022,498,829,2584,35576,31,34,127,0,0,4634,999,0,7185,1824,114,662,0,2,282,-5,268939,0
