state_time,accelx,accely,accelz,gyrox,gyroy,gyroz,mot_ang,mot_vel,mot_acc,mot_cur,mot_volt,batt_volt,batt_curr,temperature,status_mn,status_ex,status_re,ank_ang,ank_vel,ank_torque,peak_ank_torque,step_energy,step_count,step_time,gait_state,movement,speed,incline,sys_time,eventFlags
555444,69,-2029,319,-18,-16,-95,14291,-5,0,234,80,35468,-65,34,127,0,0,3817,5,0,1918,717,237,14540,-4,0,6,0,555458,0
555454,89,-2033,321,-37,-20,-100,14291,-2,-2,228,56,35469,-66,35,127,0,0,3822,32,0,1918,717,237,14550,-4,0,6,0,555458,0
555464,79,-2034,312,-44,-20,-92,14290,-7,1,236,56,35473,-71,34,127,0,0,3815,0,0,1918,717,237,14560,-4,0,6,0,555458,0
555474,79,-2039,300,-59,-18,-97,14290,2,-5,206,32,35469,-74,34,127,0,0,3816,-49,0,1918,717,237,14570,-4,0,6,0,555458,0
555484,96,-2041,308,-64,-20,-94,14286,-9,-4,150,32,35473,-90,35,127,0,0,3813,-54,0,1918,717,237,14580,-4,0,6,0,555458,0
555494,110,-2035,309,-76,-15,-81,14283,-7,-5,106,24,35478,-89,34,127,0,0,3817,16,0,1918,717,237,14590,-4,0,6,0,555473,0
555504,88,-2035,308,-83,-13,-70,14281,-3,5,122,8,35479,-81,35,127,0,0,3815,5,0,1918,717,237,14600,-4,0,6,0,555489,0
555514,109,-2027,307,-99,-15,-56,14275,-12,-3,109,40,35477,-76,34,127,0,0,3811,10,0,1918,717,237,14610,-4,0,6,0,555489,0
555524,131,-2031,306,-109,-9,-45,14270,-19,-8,52,24,35474,-71,34,127,0,0,3812,16,0,1918,717,237,14620,-4,0,6,0,555489,0
555534,115,-2033,292,-112,-14,-19,14269,10,5,120,48,35488,-85,35,127,0,0,3811,5,0,1918,717,237,14630,-4,0,6,0,555520,0
555544,141,-2025,282,-114,-9,-12,14269,-2,14,143,24,35492,-91,35,127,0,0,3808,-27,0,1918,717,237,14640,-4,0,6,0,555520,0
555554,31,-2026,274,-106,-15,13,14271,12,4,207,48,35480,-94,34,127,0,0,3811,-71,0,1918,717,237,14650,-4,0,6,0,555520,0
555564,82,-2026,270,-102,-10,10,14267,-11,-4,134,48,35483,-110,35,127,0,0,3817,43,0,1918,717,237,14660,-4,0,6,0,555551,0
555574,136,-2039,268,-103,7,23,14270,1,4,132,48,35487,-99,34,127,0,0,3817,76,0,1918,717,237,14670,-4,0,6,0,555551,0
555584,67,-2039,273,-98,6,30,14272,7,6,233,48,35494,-103,35,127,0,0,3814,5,0,1918,717,237,14680,-4,0,6,0,555551,0
555594,65,-2034,280,-95,-6,30,14270,-1,-14,227,72,35480,-90,35,127,0,0,3813,0,0,1918,717,237,14690,-4,0,6,0,555582,0
555604,85,-2034,272,-98,1,36,14276,15,8,283,88,35469,-88,35,127,0,0,3818,-16,0,1918,717,237,14700,-4,0,6,0,555582,0
555614,46,-2026,268,-93,-12,52,14280,3,12,303,96,35476,-98,35,127,0,0,3814,-10,0,1918,717,237,14710,-4,0,6,0,555582,0
555624,58,-2028,267,-97,-21,59,14281,3,-11,339,120,35494,-96,35,127,0,0,3823,43,0,1918,717,237,14720,-4,0,6,0,555614,0
555634,56,-2039,248,-89,-24,42,14292,22,16,344,128,35493,-91,35,127,0,0,3825,65,0,1918,717,237,14730,-4,0,6,0,555614,0
555644,38,-2038,242,-70,-15,32,14308,25,26,325,112,35481,-82,34,127,0,0,3827,38,0,1918,717,237,14740,-4,0,6,0,555614,0
555654,31,-2037,242,-50,-7,6,14315,9,-11,389,128,35468,-81,35,127,0,0,3829,38,0,1918,717,237,14750,-4,0,6,0,555645,0
555664,20,-2031,241,-43,-8,-10,14318,8,-18,414,96,35475,-82,34,127,0,0,3830,10,0,1918,717,237,14760,-4,0,6,0,555645,0
555674,21,-2034,252,-31,-6,-23,14317,7,-11,427,120,35478,-67,35,127,0,0,3829,0,0,1918,717,237,14770,-4,0,6,0,555661,0
555684,29,-2032,258,-22,-4,-39,14318,10,-1,449,136,35464,-61,34,127,0,0,3832,32,0,1918,717,237,14780,-4,0,6,0,555661,0
555694,46,-2036,255,-11,-10,-56,14321,0,7,428,128,35465,-75,34,127,0,0,3828,-27,0,1918,717,237,14790,-4,0,6,0,555661,0
555704,42,-2040,248,-10,-13,-60,14321,-3,-6,447,112,35485,-80,35,127,0,0,3829,-32,0,1918,717,237,14800,-4,0,6,0,555739,0
555714,36,-2038,239,10,-6,-67,14322,9,-4,437,128,35498,-74,34,127,0,0,3832,10,0,1918,717,237,14810,-4,0,6,0,555739,0
555724,59,-2028,241,18,-15,-68,14321,-11,2,418,112,35479,-57,34,127,0,0,3829,10,0,1918,717,237,14820,-4,0,6,0,555739,0
555734,46,-2033,257,34,-3,-71,14321,7,-2,426,104,35459,-63,35,127,0,0,3833,5,0,1918,717,237,14830,-4,0,6,0,555739,0
555744,59,-2045,282,39,-16,-65,14322,0,2,464,136,35457,-55,34,127,0,0,3828,-5,0,1918,717,237,14840,-4,0,6,0,555754,0
555754,62,-2036,286,39,-7,-72,14322,1,-1,407,128,35465,-66,35,127,0,0,3828,5,0,1918,717,237,14850,-4,0,6,0,555754,0
555764,76,-2037,288,35,-9,-66,14322,-5,1,399,104,35469,-69,34,127,0,0,3829,0,0,1918,717,237,14860,-4,0,6,0,555754,0
555774,36,-2036,294,44,-15,-76,14321,-5,2,408,128,35462,-64,34,127,0,0,3828,5,0,1918,717,237,14870,-4,0,6,0,555754,0
555784,47,-2032,296,36,-13,-85,14321,-12,1,380,88,35463,-73,35,127,0,0,3830,0,0,1918,717,237,14880,-4,0,6,0,555754,0
555794,45,-2033,308,26,-17,-98,14322,8,2,391,112,35484,-69,35,127,0,0,3833,60,0,1918,717,237,14890,-4,0,6,0,555770,0
555804,43,-2027,316,14,-17,-104,14322,-1,-4,385,112,35497,-66,35,127,0,0,3829,43,0,1918,717,237,14900,-4,0,6,0,555786,0
555814,73,-2029,346,-13,-15,-128,14320,-15,-6,325,88,35497,-51,34,127,0,0,3827,27,0,1918,717,237,14910,-4,0,6,0,555786,0
555824,65,-2029,350,-26,-16,-141,14320,-2,-2,286,88,35486,-52,34,127,0,0,3824,-10,0,1918,717,237,14920,-4,0,6,0,555801,0
555834,60,-2037,327,-44,1,-169,14318,0,-2,246,48,35487,-72,34,127,0,0,3819,-43,0,1918,717,237,14930,-4,0,6,0,555832,0
555844,67,-2037,310,-62,-7,-155,14310,-22,-19,77,16,35490,-61,35,127,0,0,3818,-16,0,1918,717,237,14940,-4,0,6,0,555832,0
555854,92,-2033,307,-75,-5,-148,14308,6,-3,10,-8,35481,-52,34,127,0,0,3816,-32,0,1918,717,237,14950,-4,0,6,0,555848,0
555864,96,-2039,314,-80,-10,-139,14303,-20,11,-72,-40,35472,-61,34,127,0,0,3815,5,0,1918,717,237,14960,-4,0,6,0,555848,0
555874,90,-2031,291,-92,-8,-126,14297,-16,-13,-154,-56,35478,-64,35,127,0,0,3806,-27,0,1918,717,237,14970,-4,0,6,0,555848,0
555884,116,-2034,275,-92,-4,-117,14284,-35,-15,-171,-48,35494,-71,34,127,0,0,3807,-16,0,1918,717,237,14980,-4,0,6,0,555848,0
555894,138,-2028,278,-95,-9,-90,14264,-43,-23,-58,-56,35497,-59,34,127,0,0,3806,-16,0,1918,717,237,14990,-4,0,6,0,555879,0
555904,126,-2035,285,-96,-14,-69,14251,-32,6,-144,16,35488,-83,35,127,0,0,3801,38,0,1918,717,237,15000,-4,0,6,0,555879,0
555914,167,-2032,286,-96,-12,-44,14254,-5,39,-198,-40,35481,-93,34,127,0,0,3800,-32,0,1918,717,237,15010,-4,0,6,0,555879,0
555924,133,-2035,284,-94,-5,-24,14252,5,14,-143,-8,35492,-87,35,127,0,0,3799,-54,0,1918,717,237,15020,-4,0,6,0,555911,0
555934,130,-2031,273,-94,1,-2,14252,-3,-8,-145,-32,35490,-86,34,127,0,0,3806,5,0,1918,717,237,15030,-4,0,6,0,555911,0
555944,97,-2035,257,-88,3,22,14253,-5,1,-164,-56,35480,-74,34,127,0,0,3807,38,0,1918,717,237,15040,-4,0,6,0,555926,0
555954,128,-2030,255,-77,11,42,14254,13,10,-87,-16,35470,-96,35,127,0,0,3808,49,0,1918,717,237,15050,-4,0,6,0,555926,0
555964,119,-2031,264,-76,12,63,14252,-11,0,-70,-32,35480,-108,34,127,0,0,3806,43,0,1918,717,237,15060,-4,0,6,0,555973,0
555974,106,-2034,267,-62,11,82,14254,5,-3,-33,-16,35495,-106,35,127,0,0,3805,-5,0,1918,717,237,15070,-4,0,6,0,555989,0
555984,103,-2034,278,-63,-9,115,14257,14,6,39,8,35482,-94,34,127,0,0,3814,38,0,1918,717,237,15080,-4,0,6,0,555989,0
555994,149,-2038,285,-67,-28,154,14262,20,14,244,112,35470,-101,34,127,0,0,3818,87,0,1918,717,237,15090,-4,0,6,0,555989,0
556004,55,-2031,260,-66,-31,177,14280,38,32,338,120,35473,-106,35,127,0,0,3826,60,0,1918,717,237,15100,-4,0,6,0,555989,0
556014,16,-2039,259,-51,-11,163,14310,85,44,341,136,35480,-91,34,127,0,0,3833,60,0,1918,717,237,15110,-4,0,6,0,555989,0
556024,75,-2038,278,-47,-11,149,14330,19,4,434,184,35480,-66,34,127,0,0,3838,82,0,1918,717,237,15120,-4,0,6,0,555989,0
556034,31,-2037,278,-50,-18,136,14339,19,-54,577,216,35494,-66,34,127,0,0,3843,82,0,1918,717,237,15130,-4,0,6,0,556020,0
556044,12,-2034,277,-46,-22,117,14375,100,33,411,168,35506,-56,35,127,0,0,3845,10,0,1918,717,237,15140,-4,0,6,0,556020,0
556054,29,-2038,272,-50,-20,81,14412,64,51,374,136,35513,-46,34,127,0,0,3856,49,0,1918,717,237,15150,-4,0,6,0,556020,0
556064,-34,-2036,261,-48,-10,61,14446,69,-10,320,120,35502,-23,34,127,0,0,3854,27,0,1918,717,237,15160,-4,0,6,0,556035,0
556074,-3,-2038,264,-31,0,17,14447,-4,-65,472,160,35492,-15,35,127,0,0,3858,10,0,1918,717,237,15170,-4,0,6,0,556114,0
556084,6,-2037,271,-37,3,8,14448,-10,-61,458,184,35494,-24,34,127,0,0,3860,71,0,1918,717,237,15180,-4,0,6,0,556114,0
556094,28,-2035,277,-31,-7,-17,14455,20,10,547,168,35494,-27,35,127,0,0,3863,5,0,1918,717,237,15190,-4,0,6,0,556114,0
556104,29,-2037,284,-29,-21,-23,14458,-2,1,545,184,35501,-12,35,127,0,0,3862,32,0,1918,717,237,15200,-4,0,6,0,556114,0
556114,34,-2038,280,-24,-7,-31,14459,0,-13,549,160,35500,1,35,127,0,0,3863,38,0,1918,717,237,15210,-4,0,6,0,556114,0
556124,30,-2037,264,-24,-10,-48,14462,3,0,568,176,35498,-17,35,127,0,0,3862,27,0,1918,717,237,15220,-4,0,6,0,556129,0
556134,50,-2032,250,-10,-6,-59,14461,-2,2,515,160,35498,-30,34,127,0,0,3863,54,0,1918,717,237,15230,-4,0,6,0,556129,0
556144,17,-2036,241,2,-8,-69,14463,5,4,532,152,35487,-19,35,127,0,0,3863,16,0,1918,717,237,15240,-4,0,6,0,556129,0
556154,48,-2033,255,11,-9,-76,14463,6,0,567,200,35485,-24,34,127,0,0,3858,-10,0,1918,717,237,15250,-4,0,6,0,556129,0
556164,70,-2031,276,13,-2,-95,14466,4,3,507,144,35488,-30,34,127,0,0,3860,-43,0,1918,717,237,15260,-4,0,6,0,556160,0
556174,27,-2036,306,11,-22,-95,14466,0,-5,530,168,35501,-44,35,127,0,0,3859,-38,0,1918,717,237,15270,-4,0,6,0,556160,0
556184,41,-2032,306,8,-26,-110,14468,0,-5,493,120,35511,-32,34,127,0,0,3861,-5,0,1918,717,237,15280,-4,0,6,0,556160,0
556194,17,-2045,313,-7,-28,-117,14468,2,0,433,128,35492,-20,34,127,0,0,3861,21,0,1918,717,237,15290,-4,0,6,0,556160,0
556204,16,-2035,307,-14,-26,-126,14466,5,1,453,120,35492,-34,35,127,0,0,3858,-32,0,1918,717,237,15300,-4,0,6,0,556192,0
556214,43,-2031,300,-34,-14,-165,14465,0,2,386,128,35501,-39,35,127,0,0,3855,-21,0,1918,717,237,15310,-4,0,6,0,556192,0
556224,6,-2034,298,-25,7,-195,14461,-5,-6,316,64,35515,-38,35,127,0,0,3851,-27,0,1918,717,237,15320,-4,0,6,0,556192,0
556234,74,-2042,313,-39,9,-197,14452,-29,-6,214,32,35501,-21,35,127,0,0,3844,-60,0,1918,717,237,15330,-4,0,6,0,556223,0
556244,84,-2026,317,-49,-1,-190,14443,-23,-12,65,8,35487,-6,35,127,0,0,3839,-65,0,1918,717,237,15340,-4,0,6,0,556239,0
556254,93,-2032,313,-67,-8,-181,14441,0,12,0,-8,35487,-21,34,127,0,0,3837,-54,0,1918,717,237,15350,-4,0,6,0,556239,0
556264,101,-2024,310,-74,-10,-173,14435,-21,4,-113,-32,35495,-21,35,127,0,0,3838,-27,0,1918,717,237,15360,-4,0,6,0,556239,0
556274,94,-2033,301,-85,-6,-145,14428,-25,-13,-240,-64,35504,-23,34,127,0,0,3830,-10,0,1918,717,237,15370,-4,0,6,0,556254,0
556284,103,-2035,303,-99,-8,-140,14419,-21,-8,-265,-64,35500,-7,34,127,0,0,3828,-49,0,1918,717,237,15380,-4,0,6,0,556254,0
556294,135,-2025,303,-105,-16,-113,14406,-44,-15,-323,-88,35503,-29,35,127,0,0,3827,32,0,1918,717,237,15390,-4,0,6,0,556285,0
556304,111,-2031,295,-110,-16,-91,14383,-53,-34,-236,-64,35504,-43,35,127,0,0,3825,10,0,1918,717,237,15400,-4,0,6,0,556285,0
556314,108,-2035,285,-109,-10,-63,14378,2,24,-241,-48,35498,-25,35,127,0,0,3822,-27,0,1918,717,237,15410,-4,0,6,0,556285,0
556324,140,-2022,281,-125,-10,-53,14378,0,49,-228,-56,35486,-15,34,127,0,0,3822,-43,0,1918,717,237,15420,-4,0,6,0,556285,0
556334,104,-2031,286,-126,-11,-14,14380,9,7,-225,-48,35484,-19,34,127,0,0,3822,-43,0,1918,717,237,15430,-4,0,6,0,556317,0
556344,122,-2029,279,-122,0,-7,14378,-4,-1,-238,-48,35495,-32,35,127,0,0,3822,-27,0,1918,717,237,15440,-4,0,6,0,556317,0
556354,119,-2031,275,-132,14,21,14378,5,2,-225,-48,35504,-30,34,127,0,0,3822,-43,0,1918,717,237,15450,-4,0,6,0,556332,0
556364,128,-2030,296,-141,5,41,14378,4,5,-219,-24,35487,-11,34,127,0,0,3827,27,0,1918,717,237,15460,-4,0,6,0,556332,0
556374,120,-2028,289,-144,6,76,14380,1,3,-201,-32,35489,-23,35,127,0,0,3830,82,0,1918,717,237,15470,-4,0,6,0,556364,0
556384,73,-2034,277,-146,3,98,14380,-5,0,-129,-8,35495,-21,34,127,0,0,3829,60,0,1918,717,237,15480,-4,0,6,0,556364,0
556394,100,-2024,268,-149,-26,159,14385,18,10,-22,0,35506,-27,35,127,0,0,3832,5,0,1918,717,237,15490,-4,0,6,0,556364,0
556404,111,-2043,269,-154,-36,154,14391,30,13,171,96,35493,-25,35,127,0,0,3844,93,0,1918,717,237,15500,-4,0,6,0,556379,0
556414,68,-2035,236,-140,-35,167,14414,52,42,229,88,35489,-11,35,127,0,0,3845,60,0,1918,717,237,15510,-4,0,6,0,556395,0
556424,33,-2031,239,-124,-25,156,14444,58,39,222,104,35494,-30,35,127,0,0,3855,49,0,1918,717,237,15520,-4,0,6,0,556395,0
556434,37,-2032,257,-113,-19,140,14445,-13,-51,403,136,35503,-28,35,127,0,0,3862,98,0,1918,717,237,15530,-4,0,6,0,556410,0
556444,22,-2040,246,-107,-17,141,14454,20,-36,529,168,35498,-27,35,127,0,0,3867,60,0,1918,717,237,15540,-4,0,6,0,556426,0
556454,27,-2032,245,-95,-22,121,14469,34,26,651,264,35486,-14,35,127,0,0,3871,71,0,1918,717,237,15550,-4,0,6,0,556457,0
556464,25,-2034,243,-83,-31,123,14507,94,57,495,216,35477,-31,35,127,0,0,3877,65,0,1918,717,237,15560,-4,0,6,0,556457,0
556474,34,-2036,233,-64,-21,103,14542,78,41,503,208,35485,-38,34,127,0,0,3886,87,0,1918,717,237,15570,-4,0,6,0,556457,0
556484,-9,-2037,231,-57,-19,96,14594,107,24,372,160,35487,-26,35,127,0,0,3884,43,0,1918,717,237,15580,-4,0,6,0,556473,0
556494,24,-2030,240,-43,-15,72,14635,81,3,301,120,35486,-15,35,127,0,0,3889,38,0,1918,717,237,15590,-4,0,6,0,556473,0
556504,42,-2035,245,-35,-21,72,14641,-9,-98,434,120,35475,6,35,127,0,0,3897,82,0,1918,717,237,15600,-4,0,6,0,556473,0
556514,4,-2033,227,-19,-20,66,14645,11,-62,554,136,35486,-2,35,127,0,0,3900,43,0,1918,717,237,15610,-4,0,6,0,556504,0
556524,46,-2046,238,-8,-20,47,14648,5,-4,618,208,35501,19,34,127,0,0,3900,76,0,1918,717,237,15620,-4,0,6,0,556504,0
556534,31,-2042,245,2,-18,46,14661,30,12,561,200,35490,23,34,127,0,0,3902,43,0,1918,717,237,15630,-4,0,6,0,556520,0
556544,17,-2033,252,9,-15,31,14680,64,33,525,192,35479,25,35,127,0,0,3901,5,0,1918,717,237,15640,-4,0,6,0,556520,0
556554,27,-2046,264,11,-12,24,14711,47,38,360,128,35470,15,34,127,0,0,3904,5,0,1918,717,237,15650,-4,0,6,0,556535,0
556564,15,-2037,277,16,-13,6,14714,2,-43,511,168,35483,-2,35,127,0,0,3908,10,0,1918,717,237,15660,-4,0,6,0,556535,0
556574,0,-2041,256,12,-6,-9,14722,23,-34,520,152,35484,-18,34,127,0,0,3908,-27,0,1918,717,237,15670,-4,0,6,0,556551,0
556584,1,-2029,236,30,1,-36,14732,29,21,511,160,35480,-5,34,127,0,0,3911,-10,0,1918,717,237,15680,-4,0,6,0,556567,0
556594,-7,-2035,250,44,-5,-47,14753,57,32,376,136,35480,-23,35,127,0,0,3906,-27,0,1918,717,237,15690,-4,0,6,0,556567,0
556604,29,-2029,265,43,-7,-65,14767,10,4,279,80,35486,-23,34,127,0,0,3911,-10,0,1918,717,237,15700,-4,0,6,0,556567,0
556614,-15,-2036,270,55,-6,-82,14766,0,-51,331,112,35483,-27,35,127,0,0,3906,-27,0,1918,717,237,15710,-4,0,6,0,556629,0
556624,55,-2036,265,58,-13,-92,14765,-14,-25,226,88,35477,-21,34,127,0,0,3911,38,0,1918,717,237,15720,-4,0,6,0,556629,0
556634,71,-2039,270,59,-16,-88,14766,2,4,244,80,35471,-29,34,127,0,0,3907,-10,0,1918,717,237,15730,-4,0,6,0,556629,0
556644,49,-2041,264,66,-16,-87,14767,12,7,271,64,35475,-39,34,127,0,0,3908,-43,0,1918,717,237,15740,-4,0,6,0,556629,0
556654,10,-2036,266,68,-19,-80,14765,3,-5,236,64,35480,-32,35,127,0,0,3905,-54,0,1918,717,237,15750,-4,0,6,0,556629,0
556664,25,-2040,281,68,-18,-94,14765,4,4,228,64,35471,-33,34,127,0,0,3908,-38,0,1918,717,237,15760,-4,0,6,0,556629,0
556674,14,-2032,298,67,-16,-96,14765,5,2,220,16,35465,-36,34,127,0,0,3904,-76,0,1918,717,237,15770,-4,0,6,0,556660,0
556684,0,-2039,323,57,-12,-125,14764,19,-4,233,0,35466,-43,35,127,0,0,3905,-104,0,1918,717,237,15780,-4,0,6,0,556660,0
556694,15,-2040,341,25,-3,-157,14757,-20,-8,101,-16,35473,-57,34,127,0,0,3903,-27,0,1918,717,237,15790,-4,0,6,0,556676,0
556704,-28,-2039,331,9,5,-164,14755,-6,-7,-31,-32,35463,-49,34,127,0,0,3901,5,0,1918,717,237,15800,-4,0,6,0,556676,0
556714,-4,-2034,327,-23,4,-209,14752,-6,11,-77,-48,35464,-50,35,127,0,0,3895,-54,0,1918,717,237,15810,-4,0,6,0,556707,0
556724,22,-2038,326,-39,-2,-217,14735,-52,-25,-256,-72,35474,-50,34,127,0,0,3888,-21,0,1918,717,237,15820,-4,0,6,0,556707,0
556734,28,-2032,328,-63,9,-245,14695,-105,-78,-173,-88,35484,-32,35,127,0,0,3885,-27,0,1918,717,237,15830,-4,0,6,0,556707,0
556744,-14,-2034,330,-78,19,-259,14675,-17,2,-199,-56,35486,-11,35,127,0,0,3873,-60,0,1918,717,237,15840,-4,0,6,0,556723,0
556754,124,-2031,344,-103,-10,-237,14658,-66,51,-407,-128,35478,23,35,127,0,0,3868,-38,0,1918,717,237,15850,-4,0,6,0,556723,0
556764,75,-2034,334,-125,-6,-230,14616,-82,-60,-260,-88,35486,8,35,127,0,0,3867,-5,0,1918,717,237,15860,-4,0,6,0,556754,0
556774,102,-2032,300,-141,-3,-202,14610,-4,17,-410,-144,35492,11,34,127,0,0,3860,-43,0,1918,717,237,15870,-4,0,6,0,556754,0
556784,135,-2031,294,-143,-3,-188,14601,-32,68,-458,-176,35482,25,35,127,0,0,3856,-49,0,1918,717,237,15880,-4,0,6,0,556754,0
556794,146,-2035,283,-150,-13,-136,14574,-85,-48,-415,-144,35470,26,34,127,0,0,3854,10,0,1918,717,237,15890,-4,0,6,0,556848,0
556804,114,-2024,259,-161,-4,-112,14553,-25,-29,-391,-144,35471,18,34,127,0,0,3849,-10,0,1918,717,237,15900,-4,0,6,0,556848,0
556814,143,-2033,267,-156,-17,-48,14550,-5,62,-465,-144,35483,-10,35,127,0,0,3846,-87,0,1918,717,237,15910,-4,0,6,0,556848,0
556824,166,-2031,267,-155,-24,-16,14546,-6,23,-457,-128,35486,-11,34,127,0,0,3846,-43,0,1918,717,237,15920,-4,0,6,0,556848,0
556834,116,-2035,243,-143,-4,13,14539,-14,-10,-433,-120,35467,-11,34,127,0,0,3849,-10,0,1918,717,237,15930,-4,0,6,0,556848,0
556844,106,-2029,226,-126,8,38,14528,-34,-12,-358,-96,35461,-8,35,127,0,0,3849,16,0,1918,717,237,15940,-4,0,6,0,556863,0
556854,113,-2036,237,-107,23,68,14510,-35,-27,-217,-32,35468,-13,35,127,0,0,3851,38,0,1918,717,237,15950,-4,0,6,0,556863,0
556864,89,-2035,257,-98,15,94,14510,24,29,-130,-32,35482,-27,34,127,0,0,3855,27,0,1918,717,237,15960,-4,0,6,0,556863,0
556874,100,-2031,282,-108,-18,164,14510,-4,40,-45,16,35476,-29,34,127,0,0,3856,60,0,1918,717,237,15970,-4,0,6,0,556863,0
556884,130,-2033,282,-110,-27,183,14520,33,12,137,64,35472,-19,35,127,0,0,3866,71,0,1918,717,237,15980,-4,0,6,0,556863,0
556894,66,-2040,242,-104,-30,196,14546,75,55,242,80,35491,-27,35,127,0,0,3872,38,0,1918,717,237,15990,-4,0,6,0,556863,0
556904,56,-2035,240,-89,-24,209,14591,84,63,113,88,35515,-25,35,127,0,0,3881,98,0,1918,717,237,16000,-4,0,6,0,556879,0
556914,-6,-2036,245,-79,-20,195,14614,59,-16,273,112,35519,-19,34,127,0,0,3884,32,0,1918,717,237,16010,-4,0,6,0,556879,0
556924,67,-2037,249,-77,-18,201,14642,39,-24,330,144,35501,13,34,127,0,0,3893,76,0,1918,717,237,16020,-4,0,6,0,556926,0
556934,18,-2035,243,-64,-19,186,14654,22,-34,557,216,35486,17,35,127,0,0,3899,43,0,1918,717,237,16030,-4,0,6,0,556926,0
556944,-4,-2033,245,-56,-19,171,14673,50,-7,545,248,35493,18,34,127,0,0,3908,120,0,1918,717,237,16040,-4,0,6,0,556926,0
556954,12,-2031,242,-38,-20,169,14724,105,76,406,192,35487,20,35,127,0,0,3913,27,0,1918,717,237,16050,-4,0,6,0,556926,0
556964,-3,-2039,253,-30,-14,139,14767,92,32,349,176,35475,0,34,127,0,0,3916,43,0,1918,717,237,16060,-4,0,6,0,556942,0
556974,11,-2048,257,-29,-6,112,14799,54,-39,451,136,35469,-8,34,127,0,0,3928,32,0,1918,717,237,16070,-4,0,6,0,556942,0
556984,-46,-2034,244,-20,-12,102,14839,97,-5,364,128,35486,-53,35,127,0,0,3928,16,0,1918,717,237,16080,-4,0,6,0,556973,0
556994,-4,-2039,239,-9,-13,67,14850,-2,-35,438,152,35500,-52,34,127,0,0,3939,120,0,1918,717,237,16090,-4,0,6,0,556973,0
557004,-64,-2035,240,4,-16,52,14858,28,-65,575,160,35486,-43,34,127,0,0,3938,49,0,1918,717,237,16100,-4,0,6,0,556973,0
557014,-30,-2041,242,8,-12,20,14880,53,30,443,160,35478,-38,35,127,0,0,3939,21,0,1918,717,237,16110,-4,0,6,0,557004,0
557024,-14,-2033,258,20,-4,-13,14901,33,17,424,120,35474,-24,34,127,0,0,3939,-43,0,1918,717,237,16120,-4,0,6,0,557020,0
557034,-56,-2043,266,27,-3,-43,14901,3,-48,514,144,35490,-23,35,127,0,0,3938,-43,0,1918,717,237,16130,-4,0,6,0,557020,0
557044,3,-2031,264,28,-1,-71,14901,-4,-32,477,144,35476,-13,35,127,0,0,3941,16,0,1918,717,237,16140,-4,0,6,0,557020,0
557054,-3,-2035,283,31,-11,-75,14903,1,4,504,136,35472,-10,35,127,0,0,3941,0,0,1918,717,237,16150,-4,0,6,0,557020,0
557064,9,-2041,294,31,-17,-83,14904,6,4,472,136,35469,-21,35,127,0,0,3945,38,0,1918,717,237,16160,-4,0,6,0,557035,0
557074,15,-2039,291,17,-19,-100,14903,-2,3,473,120,35485,-36,35,127,0,0,3942,5,0,1918,717,237,16170,-4,0,6,0,557051,0
557084,-20,-2030,287,15,-22,-123,14903,0,0,416,120,35494,-37,35,127,0,0,3939,10,0,1918,717,237,16180,-4,0,6,0,557066,0
557094,8,-2029,279,8,-21,-153,14900,-10,-7,431,144,35499,-29,35,127,0,0,3938,16,0,1918,717,237,16190,-4,0,6,0,557082,0
557104,7,-2037,282,2,-12,-200,14900,-14,-1,360,96,35492,-40,35,127,0,0,3930,-82,0,1918,717,237,16200,-4,0,6,0,557082,0
557114,-57,-2029,276,2,13,-246,14893,-19,-21,194,16,35493,-47,34,127,0,0,3928,-54,0,1918,717,237,16210,-4,0,6,0,557082,0
557124,22,-2038,295,-1,18,-275,14885,-20,-14,38,-32,35498,-36,35,127,0,0,3922,-65,0,1918,717,237,16220,-4,0,6,0,557113,0
557134,57,-2037,333,-31,0,-272,14870,-48,-19,-165,-72,35499,-30,35,127,0,0,3912,-93,0,1918,717,237,16230,-4,0,6,0,557113,0
557144,32,-2034,340,-51,-8,-272,14833,-95,-58,-139,-80,35493,-20,35,127,0,0,3908,-71,0,1918,717,237,16240,-4,0,6,0,557113,0
557154,7,-2036,319,-72,6,-283,14809,-22,-12,-275,-120,35494,-39,35,127,0,0,3900,-49,0,1918,717,237,16250,-4,0,6,0,557129,0
557164,113,-2043,328,-88,10,-278,14802,-25,70,-406,-128,35504,-55,34,127,0,0,3891,-82,0,1918,717,237,16260,-4,0,6,0,557207,0
557174,106,-2032,322,-113,-21,-230,14776,-89,-20,-436,-176,35498,-52,34,127,0,0,3885,-82,0,1918,717,237,16270,-4,0,6,0,557207,0
557184,67,-2042,289,-120,-9,-226,14729,-103,-80,-383,-128,35488,-54,35,127,0,0,3881,-21,0,1918,717,237,16280,-4,0,6,0,557207,0
557194,133,-2042,269,-118,-1,-206,14687,-91,-22,-266,-88,35482,-40,35,127,0,0,3877,-38,0,1918,717,237,16290,-4,0,6,0,557223,0
557204,105,-2028,259,-119,-7,-155,14669,-34,60,-406,-120,35490,-21,35,127,0,0,3870,-38,0,1918,717,237,16300,-4,0,6,0,557223,0
557214,131,-2028,257,-118,-18,-119,14640,-75,20,-290,-88,35490,-9,34,127,0,0,3871,-10,0,1918,717,237,16310,-4,0,6,0,557238,0
557224,77,-2035,244,-106,-7,-91,14627,6,12,-318,-80,35481,27,34,127,0,0,3866,-21,0,1918,717,237,16320,-4,0,6,0,557238,0
557234,147,-2030,246,-102,-19,-57,14627,-6,68,-343,-80,35480,9,35,127,0,0,3869,16,0,1918,717,237,16330,-4,0,6,0,557238,0
557244,130,-2030,257,-98,-13,-23,14626,-11,6,-362,-80,35490,14,35,127,0,0,3869,32,0,1918,717,237,16340,-4,0,6,0,557238,0
557254,114,-2024,257,-92,-8,6,14627,1,-4,-350,-80,35507,16,35,127,0,0,3866,-27,0,1918,717,237,16350,-4,0,6,0,557254,0
557264,97,-2039,237,-80,-2,24,14626,6,0,-345,-128,35517,33,35,127,0,0,3871,-5,0,1918,717,237,16360,-4,0,6,0,557254,0
557274,86,-2033,241,-69,10,42,14628,6,3,-293,-80,35510,35,35,127,0,0,3869,-5,0,1918,717,237,16370,-4,0,6,0,557254,0
557284,89,-2029,245,-58,4,56,14625,-14,-7,-324,-56,35500,28,34,127,0,0,3871,54,0,1918,717,237,16380,-4,0,6,0,557254,0
557294,82,-2024,244,-53,0,87,14628,0,-3,-259,-88,35503,32,35,127,0,0,3869,0,0,1918,717,237,16390,-4,0,6,0,557285,0
557304,70,-2031,253,-49,-11,131,14628,4,-2,-212,16,35504,37,35,127,0,0,3874,65,0,1918,717,237,16400,-4,0,6,0,557285,0
557314,83,-2036,268,-49,-29,157,14640,14,16,-4,32,35500,39,35,127,0,0,3885,49,0,1918,717,237,16410,-4,0,6,0,557285,0
557324,38,-2033,271,-50,-26,159,14643,3,-2,193,72,35491,26,35,127,0,0,3893,126,0,1918,717,237,16420,-4,0,6,0,557285,0
557334,27,-2030,260,-47,-18,156,14657,31,3,335,120,35503,13,34,127,0,0,3900,126,0,1918,717,237,16430,-4,0,6,0,557316,0
557344,26,-2033,262,-38,-5,130,14689,96,59,355,136,35499,29,34,127,0,0,3900,5,0,1918,717,237,16440,-4,0,6,0,557316,0
557354,62,-2040,274,-41,-27,130,14725,53,45,272,104,35489,17,35,127,0,0,3911,98,0,1918,717,237,16450,-4,0,6,0,557332,0
557364,-56,-2032,268,-38,-18,101,14745,62,-39,381,88,35477,7,34,127,0,0,3913,5,0,1918,717,237,16460,-4,0,6,0,557348,0
557374,-1,-2039,241,-36,-5,61,14776,61,4,310,120,35489,-28,35,127,0,0,3915,27,0,1918,717,237,16470,-4,0,6,0,557348,0
557384,-11,-2035,243,-29,-9,38,14785,9,-24,367,96,35498,-37,34,127,0,0,3918,32,0,1918,717,237,16480,-4,0,6,0,557348,0
557394,-13,-2041,257,-19,-3,10,14787,14,-49,423,120,35498,-34,34,127,0,0,3924,76,0,1918,717,237,16490,-4,0,6,0,557379,0
557404,-16,-2038,262,-13,1,-13,14797,29,13,396,96,35499,-58,35,127,0,0,3924,54,0,1918,717,237,16500,-4,0,6,0,557379,0
557414,28,-2029,252,-10,-2,-28,14821,48,41,283,72,35495,-56,34,127,0,0,3919,16,0,1918,717,237,16510,-4,0,6,0,557395,0
557424,40,-2038,257,-11,-7,-35,14829,-11,-17,242,56,35489,-48,35,127,0,0,3923,16,0,1918,717,237,16520,-4,0,6,0,557410,0
557434,10,-2038,257,-2,5,-47,14828,7,-55,277,56,35475,-29,35,127,0,0,3919,-32,0,1918,717,237,16530,-4,0,6,0,557410,0
557444,14,-2038,270,-2,3,-49,14828,-6,-3,276,80,35471,-28,35,127,0,0,3925,38,0,1918,717,237,16540,-4,0,6,0,557441,0
557454,73,-2035,291,-5,4,-59,14830,-4,-2,261,72,35478,-46,34,127,0,0,3922,43,0,1918,717,237,16550,-4,0,6,0,557441,0
557464,28,-2035,298,-12,-8,-52,14830,-2,-1,264,32,35488,-43,35,127,0,0,3924,16,0,1918,717,237,16560,-4,0,6,0,557441,0
557474,20,-2028,278,-25,-13,-59,14827,-3,-8,222,32,35474,-38,35,127,0,0,3917,0,0,1918,717,237,16570,-4,0,6,0,557441,0
557484,19,-2033,275,-26,-4,-76,14830,11,10,222,32,35471,-43,35,127,0,0,3917,-65,0,1918,717,237,16580,-4,0,6,0,557457,0
557494,-18,-2027,277,-32,-14,-67,14828,2,6,230,64,35477,-55,35,127,0,0,3923,32,0,1918,717,237,16590,-4,0,6,0,557473,0
557504,41,-2030,274,-30,-12,-77,14828,-8,0,239,80,35487,-68,34,127,0,0,3918,27,0,1918,717,237,16600,-4,0,6,0,557473,0
557514,41,-2034,238,-22,-12,-84,14827,-17,-3,190,32,35487,-57,34,127,0,0,3917,-21,0,1918,717,237,16610,-4,0,6,0,557504,0
557524,55,-2038,235,-19,-9,-78,14828,11,-7,193,32,35481,-39,35,127,0,0,3917,-21,0,1918,717,237,16620,-4,0,6,0,557504,0
557534,43,-2031,258,-5,2,-52,14826,0,-3,175,32,35481,-33,34,127,0,0,3917,-27,0,1918,717,237,16630,-4,0,6,0,557504,0
557544,87,-2036,276,0,-1,-40,14827,-11,0,178,40,35480,-35,35,127,0,0,3917,-5,0,1918,717,237,16640,-4,0,6,0,557520,0
557554,95,-2039,293,-12,11,-14,14829,10,2,217,32,35482,-46,35,127,0,0,3917,-38,0,1918,717,237,16650,-4,0,6,0,557535,0
557564,80,-2047,304,-20,10,10,14822,-23,-12,126,40,35480,-42,35,127,0,0,3914,10,0,1918,717,237,16660,-4,0,6,0,557566,0
557574,82,-2044,281,-28,18,32,14827,10,3,133,8,35480,-55,35,127,0,0,3918,-16,0,1918,717,237,16670,-4,0,6,0,557566,0
557584,28,-2048,272,-27,14,43,14825,11,7,147,64,35478,-57,34,127,0,0,3919,65,0,1918,717,237,16680,-4,0,6,0,557566,0
557594,92,-2027,273,-29,21,50,14826,-22,-1,158,40,35473,-45,35,127,0,0,3917,5,0,1918,717,237,16690,-4,0,6,0,557566,0
557604,58,-2028,297,-30,22,56,14827,3,-3,160,56,35469,-39,34,127,0,0,3919,38,0,1918,717,237,16700,-4,0,6,0,557598,0
557614,57,-2027,305,-47,13,53,14828,5,-1,222,80,35468,-29,34,127,0,0,3922,60,0,1918,717,237,16710,-4,0,6,0,557598,0
557624,33,-2031,317,-58,7,64,14828,-13,-4,241,56,35477,-48,35,127,0,0,3919,16,0,1918,717,237,16720,-4,0,6,0,557613,0
557634,19,-2044,330,-82,-12,70,14831,11,3,297,120,35486,-38,35,127,0,0,3926,65,0,1918,717,237,16730,-4,0,6,0,557613,0
557644,-10,-2033,336,-105,-18,61,14836,12,8,372,104,35487,-39,35,127,0,0,3926,0,0,1918,717,237,16740,-4,0,6,0,557613,0
557654,-8,-2018,299,-154,-18,37,14839,9,1,448,128,35486,-34,35,127,0,0,3928,0,0,1918,717,237,16750,-4,0,6,0,557644,0
557664,-4,-2052,301,-147,-15,20,14842,3,-7,464,168,35488,-32,35,127,0,0,3926,-5,0,1918,717,237,16760,-4,0,6,0,557644,0
557674,10,-2024,257,-154,-17,0,14844,-8,-2,405,144,35483,-19,34,127,0,0,3934,71,0,1918,717,237,16770,-4,0,6,0,557660,0
557684,-18,-2040,237,-147,-13,-4,14848,7,-1,481,160,35468,-10,34,127,0,0,3929,38,0,1918,717,237,16780,-4,0,6,0,557660,0
557694,-24,-2040,256,-142,-6,-31,14848,-8,-6,459,128,35461,-6,35,127,0,0,3930,10,0,1918,717,237,16790,-4,0,6,0,557691,0
557704,17,-2034,267,-144,-4,-43,14849,2,-13,462,104,35463,-27,35,127,0,0,3928,-27,0,1918,717,237,16800,-4,0,6,0,557691,0
557714,9,-2032,308,-157,-13,-25,14848,4,-2,445,128,35473,-36,35,127,0,0,3930,-16,0,1918,717,237,16810,-4,0,6,0,557691,0
557724,48,-2042,322,-168,-9,-26,14850,7,4,469,152,35469,-41,34,127,0,0,3929,-21,0,1918,717,237,16820,-4,0,6,0,557691,0
557734,26,-2041,302,-193,-11,-27,14852,0,2,443,120,35468,-28,34,127,0,0,3930,16,0,1918,717,237,16830,-4,0,6,0,557723,0
557744,17,-2045,302,-209,-11,-23,14851,-5,-11,414,144,35471,-37,35,127,0,0,3929,54,0,1918,717,237,16840,-4,0,6,0,557723,0
557754,16,-2049,321,-233,-7,-35,14853,-7,-5,418,152,35480,-55,34,127,0,0,3929,49,0,1918,717,237,16850,-4,0,6,0,557723,0
557764,2,-2041,330,-256,-7,-50,14857,13,3,455,96,35489,-58,35,127,0,0,3928,-82,0,1918,717,237,16860,-4,0,6,0,557769,0
557774,-78,-2037,357,-306,-27,-63,14854,-6,-8,388,120,35480,-55,35,127,0,0,3927,-21,0,1918,717,237,16870,-4,0,6,0,557769,0
557784,-105,-2029,396,-357,-38,-106,14855,-3,-10,352,96,35478,-43,35,127,0,0,3928,0,0,1918,717,237,16880,-4,0,6,0,557769,0
557794,-168,-2053,416,-445,-59,-195,14855,7,5,357,96,35468,-53,35,127,0,0,3928,0,0,1918,717,237,16890,-4,0,6,0,557769,0
557804,-155,-2034,424,-513,-65,-327,14852,-14,1,278,24,35473,-48,34,127,0,0,3922,-87,0,1918,717,237,16900,-4,0,6,0,557769,0
557814,-432,-2020,428,-617,-18,-566,14832,-63,-40,34,-48,35477,-51,34,127,0,0,3907,-126,0,1918,717,237,16910,-4,0,6,0,557801,0
557824,-378,-2043,457,-696,11,-784,14804,-61,-50,-317,-208,35480,-51,35,127,0,0,3884,-225,0,1918,717,237,16920,-4,0,6,0,557816,0
557834,-312,-2022,505,-860,-32,-1069,14744,-176,-71,-534,-376,35478,-46,34,127,0,0,3855,-296,0,1918,717,237,16930,-4,0,6,0,557816,0
557844,-461,-2007,544,-984,-69,-1272,14638,-259,-157,-533,-544,35485,-39,35,127,0,0,3819,-340,0,1918,717,237,16940,-4,0,6,0,557816,0
557854,-651,-2001,557,-1185,-83,-1711,14518,-295,-142,-615,-752,35480,-22,34,127,0,0,3772,-477,0,1918,717,237,16950,-4,0,6,0,557816,0
557864,-686,-2001,554,-1328,-102,-2104,14355,-384,-111,-649,-1040,35480,-14,34,127,0,0,3712,-576,0,1918,717,237,16960,-4,0,6,0,557845,0
557874,-849,-1961,516,-1543,-143,-2748,14153,-473,-143,-782,-1408,35480,-33,35,127,0,0,3636,-774,0,1918,717,237,16970,-4,0,6,0,557845,0
557884,-962,-1966,467,-1663,-184,-3220,13892,-615,-185,-856,-1776,35477,-37,35,127,0,0,3539,-966,0,1918,717,237,16980,-4,0,6,0,557970,0
557894,-975,-1943,344,-1802,-205,-3978,13559,-770,-251,-855,-2200,35477,-12,35,127,0,0,3422,-1203,0,1918,717,237,16990,-4,0,6,0,557970,0
557904,-817,-1954,167,-1803,-197,-4418,13147,-961,-286,-895,-2656,35464,21,35,127,0,0,3300,-1301,0,1918,717,237,17000,-4,0,6,0,557970,0
557914,-534,-2297,-26,-1660,-205,-4803,12651,-1158,-315,-886,-3128,35457,34,35,127,0,0,3161,-1378,0,1918,717,237,17010,-4,0,6,0,557970,0
557924,-66,-3546,-198,-1563,-402,-4847,12067,-1315,-330,-674,-3208,35455,33,34,127,0,0,3034,-1274,0,1918,717,237,17020,-4,0,6,0,557970,0
557934,-6,-4241,1000,-1375,-1455,-4086,11458,-1335,-193,-452,-2880,35459,52,35,127,0,0,2968,-609,0,1918,717,237,17030,-4,0,6,0,557986,0
557944,475,-4205,1304,-1417,-1770,-3791,10904,-1133,86,-102,-1880,35460,26,34,127,0,0,2973,49,0,1918,717,237,17040,-4,0,6,0,557986,0
557954,-514,-3880,1020,-1344,-2043,-3602,10496,-787,424,-56,-976,35470,15,34,127,0,0,2989,230,0,1918,717,237,17050,-4,0,6,0,557986,0
557964,221,-3770,631,-1361,-2151,-3585,10246,-431,594,137,56,35476,-37,35,127,0,0,3054,609,0,1918,717,237,17060,-4,0,2,0,557986,0
557974,-33,-3346,730,-1184,-2493,-3484,10269,245,851,750,688,35486,-34,34,127,0,0,3131,791,0,1918,717,237,17070,-4,0,6,0,557986,0
557984,386,-3393,892,-1076,-2669,-3344,10465,464,858,533,1200,35475,-41,34,127,0,0,3226,972,0,1918,717,237,17080,-4,0,8,0,557986,0
557994,144,-3222,1004,-859,-2680,-3067,10729,640,405,618,1600,35471,-21,35,127,0,0,3314,928,0,1918,717,237,17090,-4,0,10,0,557986,0
558004,612,-2843,601,-789,-2500,-3324,11062,760,268,524,1672,35465,-8,34,127,0,0,3351,296,0,1918,717,237,17100,-4,0,12,0,557986,0
558014,1016,-2571,224,-558,-2354,-3292,11395,683,105,155,888,35486,-22,35,127,0,0,3331,-263,0,1918,717,237,17110,-4,0,15,0,557986,0
558024,148,-2567,362,-275,-2396,-2963,11627,409,-239,-568,-288,35515,-24,35,127,0,0,3259,-752,0,1918,717,237,17120,-4,0,16,0,558002,0
558034,-220,-2463,772,-12,-2538,-2358,11538,-341,-850,-550,-712,35520,12,35,127,0,0,3195,-609,0,1918,717,237,17130,-4,0,19,0,558017,0
558044,-436,-2393,742,131,-2720,-1983,11357,-424,-767,-520,-912,35512,16,35,127,0,0,3154,-390,0,1918,717,237,17140,-4,0,21,0,558033,0
558054,-129,-2459,294,502,-2663,-1503,11154,-444,-148,-439,-888,35496,9,35,127,0,0,3117,-357,0,1918,717,237,17150,-4,0,25,0,558033,0
558064,3,-2319,92,808,-2446,-1100,10961,-409,-9,-425,-784,35474,-14,35,127,0,0,3086,-291,0,1918,717,237,17160,-4,0,28,0,558033,0
558074,-146,-2000,46,1157,-1956,-684,10783,-385,61,-504,-808,35480,-7,35,127,0,0,3039,-433,0,1918,717,237,17170,-4,0,32,0,558064,0
558084,-173,-1929,35,1300,-1536,-474,10609,-385,37,-652,-1016,35479,21,35,127,0,0,2982,-604,0,1918,717,237,17180,-4,0,35,0,558064,0
558094,-147,-2041,-17,1464,-902,-20,10406,-466,-62,-658,-1136,35482,11,34,127,0,0,2927,-532,0,1918,717,237,17190,-4,0,40,0,558080,0
558104,-170,-2095,-34,1582,-430,294,10181,-505,-104,-665,-1192,35486,6,35,127,0,0,2878,-483,0,1918,717,237,17200,-4,0,43,0,558080,0
558114,-165,-2060,-99,1710,327,626,9949,-519,-52,-584,-1152,35493,-10,34,127,0,0,2834,-401,0,1918,717,237,17210,-4,0,48,0,558111,0
558124,-94,-2045,-179,1763,828,814,9723,-497,-2,-558,-1128,35502,-1,34,127,0,0,2787,-472,0,1918,717,237,17220,-4,0,52,0,558111,0
558134,81,-1950,-270,1828,1514,1100,9502,-480,19,-565,-1080,35501,-8,35,127,0,0,2745,-477,0,1918,717,237,17230,-4,0,58,0,558111,0
558144,141,-1858,-299,1854,1888,1289,9287,-472,19,-610,-1096,35494,-22,34,127,0,0,2704,-373,0,1918,717,237,17240,-4,0,62,0,558111,0
558154,243,-1839,-180,1844,2305,1583,9066,-485,-3,-578,-1072,35495,-21,34,127,0,0,2660,-433,0,1918,717,237,17250,-4,0,68,0,558142,0
558164,329,-1820,-100,1801,2488,1797,8853,-463,6,-530,-984,35501,-10,35,127,0,0,2623,-379,0,1918,717,237,17260,-4,0,73,0,558142,0
558174,478,-1733,-36,1701,2638,2093,8657,-402,56,-570,-912,35501,-18,34,127,0,0,2591,-346,0,1918,717,237,17270,-4,0,79,0,558142,0
558184,570,-1628,-37,1620,2653,2276,8473,-386,66,-520,-808,35499,-29,35,127,0,0,2563,-346,0,1918,717,237,17280,-4,0,83,0,558173,0
558194,683,-1506,-68,1534,2591,2533,8303,-359,51,-526,-696,35496,-30,34,127,0,0,2535,-302,0,1918,717,237,17290,-4,0,89,0,558189,0
558204,761,-1467,-55,1483,2496,2707,8148,-344,53,-555,-632,35489,-6,34,127,0,0,2512,-263,0,1918,717,237,17300,-4,0,93,74,558189,0
558214,801,-1371,25,1397,2344,2924,8002,-315,41,-553,-584,35483,-22,35,127,0,0,2486,-285,0,1918,717,237,17310,-4,0,99,70,558189,0
558224,831,-1295,47,1331,2196,3045,7867,-287,42,-600,-560,35493,-40,35,127,0,0,2459,-225,0,1918,717,237,17320,-4,0,102,68,558189,0
558234,918,-1215,45,1257,1924,3206,7735,-290,26,-534,-560,35508,-49,35,127,0,0,2437,-258,0,1918,717,237,17330,-4,0,108,65,558220,0
558244,917,-1150,36,1223,1716,3316,7606,-286,7,-488,-512,35501,-36,35,127,0,0,2419,-214,0,1918,717,237,17340,-4,0,111,63,558220,0
558254,961,-1060,36,1169,1359,3393,7491,-227,32,-473,-376,35491,-6,35,127,0,0,2401,-131,0,1918,717,237,17350,-4,0,115,60,558220,0
558264,1028,-1033,24,1141,1144,3429,7396,-210,69,-497,-344,35498,-14,35,127,0,0,2384,-142,0,1918,717,237,17360,-4,0,118,59,558314,0
558274,956,-990,-50,1091,796,3429,7311,-179,53,-507,-288,35510,-18,35,127,0,0,2370,-126,0,1918,717,237,17370,-4,0,122,56,558314,0
558284,953,-1006,-90,1043,601,3389,7243,-155,52,-505,-248,35500,-40,35,127,0,0,2359,-98,0,1918,717,237,17380,-4,0,124,55,558314,0
558294,914,-1055,-148,969,367,3252,7182,-135,34,-445,-200,35485,-52,35,127,0,0,2357,-49,0,1918,717,237,17390,-4,0,128,53,558314,0
558304,893,-1069,-232,898,297,3096,7148,-70,65,-459,-152,35478,-64,35,127,0,0,2355,-16,0,1918,717,237,17400,-4,0,129,52,558314,0
558314,840,-1204,-310,753,421,2746,7129,-26,78,-351,-104,35490,-82,35,127,0,0,2358,10,0,1918,717,237,17410,-4,0,132,50,558330,0
558324,743,-1319,-358,625,582,2472,7131,10,69,-305,-56,35481,-80,35,127,0,0,2368,93,0,1918,717,237,17420,-4,0,133,49,558330,0
558334,900,-1493,-329,358,890,2180,7144,44,62,90,120,35475,-65,35,127,0,0,2397,307,0,1918,717,237,17430,-4,0,135,47,558330,0
558344,825,-1553,-274,148,1114,1898,7212,189,128,382,392,35475,-65,34,127,0,0,2435,444,0,1918,717,237,17440,-4,0,136,46,558330,0
558354,932,-1596,-308,-165,1470,1253,7327,280,198,555,640,35480,-66,35,127,0,0,2496,604,0,1918,717,237,17450,-4,0,137,45,558330,0
558364,1102,-1632,-270,-334,1679,819,7486,372,168,541,864,35495,-64,35,127,0,0,2556,609,0,1918,717,237,17460,-4,0,138,44,558345,0
558374,1160,-1506,-258,-589,1950,184,7684,448,157,509,984,35492,-22,35,127,0,0,2611,620,0,1918,717,237,17470,-4,0,139,43,558345,0
558384,1133,-1487,-157,-754,2031,-156,7903,507,108,504,1144,35490,-19,35,127,0,0,2671,653,0,1918,717,237,17480,-4,0,139,42,558361,0
558394,1408,-1498,-82,-900,2071,-739,8150,558,96,536,1272,35492,-28,34,127,0,0,2734,653,0,1918,717,237,17490,-4,0,139,41,558392,0
558404,1465,-1495,-22,-983,1993,-1182,8417,599,85,444,1232,35497,-28,35,127,0,0,2783,483,0,1918,717,237,17500,-4,0,138,41,558392,0
558414,1449,-1498,88,-1062,1624,-1765,8682,575,33,373,1160,35486,-19,34,127,0,0,2828,390,0,1918,717,237,17510,-4,0,137,40,558392,0
558424,1435,-1484,153,-1069,1242,-2078,8934,543,-31,356,1032,35474,-7,34,127,0,0,2871,433,0,1918,717,237,17520,-4,0,136,39,558392,0
558434,1444,-1418,200,-1051,600,-2447,9168,501,-62,346,944,35470,-14,35,127,0,0,2911,494,0,1918,717,237,17530,-4,0,135,38,558423,0
558444,1419,-1368,193,-1024,190,-2657,9385,475,-69,380,928,35485,-24,35,127,0,0,2955,483,0,1129,40,238,8,1,0,133,38,558423,0
558454,2290,-6558,1591,-333,2525,-5112,9600,465,-22,95,-184,35482,-19,35,127,0,0,2786,-2268,0,1129,40,238,18,1,0,131,37,558423,0
558464,726,-1636,1536,-37,775,-4616,9478,-616,-721,-1675,-1992,35468,-23,35,127,0,0,2605,-1719,0,1129,40,238,28,1,0,129,37,558455,0
558474,-96,-1717,419,-1311,-1835,-4039,9048,-1116,-1324,-1274,-3144,35458,2,34,127,0,0,2414,-1686,0,1129,40,238,38,1,0,125,37,558455,0
558484,1489,-4204,11,-1363,-2193,-3263,8454,-1342,-808,-583,-3128,35460,14,35,127,0,0,2297,-1197,0,1129,40,238,48,1,0,123,38,558455,0
558494,-730,-2610,-539,-1310,-2001,-2606,7869,-1240,-235,-297,-2480,35459,29,35,127,0,0,2257,-395,0,1129,40,238,58,1,0,120,38,558486,0
558504,-1148,-2357,-946,-1294,-825,-3015,7389,-975,258,-189,-1840,35465,19,35,127,0,0,2208,-516,0,1129,40,238,68,1,0,118,38,558486,0
558514,-740,-2598,-918,-952,466,-3420,7013,-770,411,-336,-1592,35472,-14,34,127,0,0,2154,-538,0,1129,40,238,78,1,0,116,39,558486,0
558524,394,-1783,-535,-702,627,-3504,6700,-655,308,-379,-1360,35477,-13,35,127,0,0,2110,-483,0,1129,40,238,88,1,0,115,39,558501,0
558534,1491,-1053,-16,-583,383,-3332,6429,-567,190,-475,-1288,35484,-25,35,127,0,0,2057,-532,0,1129,40,238,98,1,0,113,39,558548,0
558544,1721,-1059,195,-487,28,-3032,6177,-553,117,-513,-1264,35480,-15,35,127,0,0,2001,-576,0,1129,40,238,108,1,0,111,39,558548,0
558554,1628,-301,237,-275,-189,-2909,5932,-531,45,-607,-1368,35479,-6,35,127,0,0,1931,-785,0,1129,40,238,118,1,0,109,40,558564,0
558564,1807,-379,-70,-63,-260,-2939,5669,-606,-23,-833,-1720,35474,-19,34,127,0,0,1832,-1038,0,1129,40,238,128,1,0,108,40,558564,0
558574,1880,-1008,-402,228,-302,-2610,5341,-776,-175,-903,-2216,35471,-2,35,127,0,0,1709,-1246,0,1129,40,238,138,1,0,105,40,558564,0
558584,1504,-1483,-363,268,-400,-2237,4921,-990,-308,-950,-2712,35467,13,35,127,0,0,1591,-1153,0,1129,40,238,148,1,0,103,40,558564,0
558594,655,-2570,-202,329,-297,-1866,4423,-1128,-332,-771,-2928,35459,28,35,127,0,0,1477,-1093,0,1129,40,238,158,1,0,101,40,558564,0
558604,485,-2944,-9,376,-9,-1658,3881,-1213,-221,-536,-2848,35474,24,35,127,0,0,1389,-845,0,1129,40,238,168,1,0,99,40,558580,0
558614,871,-2841,91,411,298,-1389,3349,-1156,-56,-433,-2552,35491,-3,34,127,0,0,1324,-549,0,1129,40,238,178,1,0,97,40,558595,0
558624,1126,-2744,247,432,260,-1036,2862,-1028,123,-281,-2096,35489,2,34,127,0,0,1291,-335,0,1129,40,238,188,1,0,95,40,558595,0
558634,1196,-2121,446,374,14,-525,2455,-825,254,-184,-1440,35473,-22,35,127,0,0,1279,-104,0,1129,40,238,198,1,0,93,40,558611,0
558644,1028,-1785,405,350,-53,-412,2149,-603,359,-150,-808,35459,-8,34,127,0,0,1283,-16,0,1129,40,238,208,1,0,93,40,558689,0
558654,1034,-1701,115,409,0,-317,1953,-375,404,-265,-400,35469,-27,35,127,0,0,1283,-21,0,1129,40,238,218,1,0,93,40,558689,0
558664,1080,-1512,27,453,71,-272,1837,-207,352,-238,-176,35480,-29,34,127,0,0,1274,-104,0,1129,40,238,228,1,0,93,40,558704,0
558674,1076,-1636,75,427,140,-170,1777,-108,245,-314,-152,35486,-46,34,127,0,0,1272,-76,0,1129,40,238,238,1,0,93,40,558704,0
558684,1039,-1832,201,403,160,-18,1758,-50,167,-610,-240,35486,-76,35,127,0,0,1261,-32,0,1129,40,238,248,1,0,93,40,558704,0
558694,1027,-1815,382,395,196,143,1714,-88,14,-479,-232,35484,-74,35,127,0,0,1254,-87,0,1129,40,238,258,1,0,93,40,558704,0
558704,1102,-1903,354,390,225,247,1679,-85,-23,-487,-208,35472,-57,35,127,0,0,1250,-54,0,1129,40,238,268,1,0,93,40,558704,0
558714,1201,-1811,289,387,219,503,1642,-55,11,-381,-136,35466,-29,35,127,0,0,1250,0,0,1129,40,238,278,1,0,93,40,558704,0
558724,1148,-1730,260,359,206,649,1630,-26,55,-367,-104,35461,-34,35,127,0,0,1250,0,0,1129,40,238,288,1,0,93,40,558704,0
558734,1065,-1774,254,366,255,814,1618,-31,39,-308,-88,35471,-46,34,127,0,0,1250,0,0,1129,40,238,298,1,0,93,40,558704,0
558744,1039,-1780,263,380,264,933,1612,1,10,-224,-48,35497,-51,35,127,0,0,1252,21,0,1129,40,238,308,1,0,93,40,558720,0
558754,1123,-1933,384,334,173,1230,1617,25,36,-17,72,35512,-52,34,127,0,0,1263,115,0,1129,40,238,318,1,0,93,40,558736,0
558764,975,-1964,421,307,99,1387,1652,102,70,295,192,35504,-48,34,127,0,0,1285,214,0,1129,40,238,328,1,0,93,40,558736,0
558774,848,-2119,372,288,104,1526,1728,183,131,355,304,35489,-51,35,127,0,0,1310,269,0,1129,40,238,338,1,0,93,40,558736,0
558784,782,-2145,288,320,132,1617,1824,232,116,483,448,35488,-71,35,127,0,0,1339,324,0,1129,40,238,348,1,0,93,40,558783,0
558794,684,-2071,246,295,144,1762,1947,300,90,567,696,35483,-70,35,127,0,0,1377,395,0,1129,40,238,358,1,0,93,40,558783,0
558804,717,-2039,232,291,189,1816,2107,369,125,535,872,35476,-62,35,127,0,0,1421,411,0,1129,40,238,368,1,0,93,40,558783,0
558814,762,-2033,199,307,178,1935,2297,410,129,521,984,35466,-19,35,127,0,0,1480,532,0,1129,40,238,378,1,0,93,40,558783,0
558824,673,-2059,249,339,132,2039,2506,483,78,583,1152,35483,-12,35,127,0,0,1532,527,0,1129,40,238,388,1,0,93,40,558814,0
558834,565,-2064,303,382,82,2122,2748,547,103,617,1368,35493,-17,34,127,0,0,1598,620,0,1129,40,238,398,1,0,93,40,558814,0
558844,464,-2068,288,384,74,2137,3022,635,118,634,1536,35481,-8,34,127,0,0,1669,708,0,1129,40,238,408,1,0,93,40,558814,0
558854,308,-2097,289,356,105,2114,3293,672,127,566,1632,35468,-3,35,127,0,0,1738,681,0,1129,40,238,418,1,0,93,40,558845,0
558864,190,-2090,396,338,99,2040,3613,731,97,608,1760,35468,-1,34,127,0,0,1816,697,0,1129,40,238,428,1,0,93,40,558845,0
558874,124,-2064,448,341,98,1842,3947,733,66,611,1776,35473,-3,35,127,0,0,1885,708,0,1129,40,238,438,1,0,93,40,558845,0
558884,132,-2042,476,294,31,1729,4285,744,23,577,1784,35471,-8,34,127,0,0,1961,708,0,1129,40,238,448,1,0,93,40,558876,0
558894,28,-1974,565,190,-87,1506,4629,757,16,491,1752,35471,2,34,127,0,0,2028,708,0,1129,40,238,458,1,0,93,40,558876,0
558904,26,-1922,562,166,-53,1289,4962,725,-9,492,1712,35483,-24,35,127,0,0,2089,582,0,1129,40,238,468,1,0,93,40,558892,0
558914,146,-1814,403,100,-12,994,5282,689,-46,441,1576,35485,-9,35,127,0,0,2144,543,0,1129,40,238,478,1,0,93,40,558892,0
558924,225,-1758,414,16,-32,847,5577,631,-79,421,1368,35481,-16,34,127,0,0,2186,422,0,1129,40,238,488,1,0,93,40,558892,0
558934,160,-1793,495,-102,-79,642,5845,572,-105,404,1152,35483,-18,34,127,0,0,2218,280,0,1129,40,238,498,1,0,93,40,558923,0
558944,87,-1750,534,-99,-151,435,6078,502,-118,386,920,35486,-13,35,127,0,0,2244,236,0,1129,40,238,508,1,0,93,40,558939,0
558954,74,-1706,304,-7,-223,73,6272,403,-136,389,648,35490,-17,35,127,0,0,2247,98,0,1129,40,238,518,1,0,93,40,558939,0
558964,22,-1787,199,-60,-264,-53,6421,299,-159,329,352,35475,-11,35,127,0,0,2247,-27,0,1129,40,238,528,1,0,93,40,558939,0
558974,65,-1673,421,-117,-102,-376,6515,172,-193,289,104,35477,-30,35,127,0,0,2231,-208,0,1129,40,238,538,1,0,93,40,558939,0
558984,90,-1827,624,-164,-166,-625,6530,-69,-271,-284,-160,35489,-47,34,127,0,0,2201,-302,0,1129,40,238,548,1,0,93,40,558954,0
558994,213,-1965,818,-211,-356,-904,6448,-221,-355,-371,-352,35503,-68,35,127,0,0,2165,-340,0,1129,40,238,558,1,0,93,40,558970,0
559004,222,-1896,924,-281,-529,-1027,6334,-258,-224,-470,-568,35499,-78,35,127,0,0,2117,-488,0,1129,40,238,568,1,0,93,40,559017,0
559014,334,-2016,886,-438,-756,-1152,6193,-344,-105,-490,-688,35488,-45,35,127,0,0,2066,-477,0,1129,40,238,578,1,0,93,40,559033,0
559024,386,-2264,727,-510,-848,-1127,6031,-374,-98,-538,-848,35480,-39,35,127,0,0,2023,-384,0,1129,40,238,588,1,0,93,40,559033,0
559034,705,-2164,362,-568,-824,-946,5855,-391,-62,-502,-880,35482,-5,34,127,0,0,1978,-411,0,1129,40,238,598,1,0,93,40,559033,0
559044,827,-2066,104,-517,-802,-769,5672,-397,-33,-432,-824,35480,-1,35,127,0,0,1952,-313,0,1129,40,238,608,1,0,93,40,559033,0
559054,871,-2380,-284,-441,-819,-302,5499,-366,15,-397,-624,35469,-16,35,127,0,0,1936,-115,0,1129,40,238,618,1,0,93,40,559033,0
559064,779,-2435,-360,-317,-655,-88,5348,-301,74,-314,-320,35460,-22,35,127,0,0,1943,71,0,1129,40,238,628,1,0,93,40,559033,0
559074,506,-3093,-285,-318,-461,348,5244,-155,142,-9,48,35466,-13,35,127,0,0,1970,318,0,1129,40,238,638,1,0,93,40,559048,0
559084,184,-3259,152,-452,-381,773,5287,200,397,484,520,35484,8,35,127,0,0,2040,730,0,1129,40,238,648,1,0,93,40,559079,0
559094,-116,-3263,714,-559,-478,1074,5427,351,468,739,1128,35486,18,35,127,0,0,2150,1126,0,1129,40,238,658,1,0,93,40,559079,0
559104,-279,-3312,767,-627,-616,1169,5661,596,355,952,1888,35478,10,35,127,0,0,2296,1494,0,1129,40,238,668,1,0,93,40,559079,0
559114,-311,-3284,744,-680,-1108,1219,6021,877,441,1014,2584,35476,20,35,127,0,0,2454,1620,0,1129,40,238,678,1,0,93,40,559095,0
559124,-546,-3511,882,-835,-1564,1194,6507,1149,486,1076,3296,35478,20,34,127,0,0,2647,1873,0,1129,40,238,688,1,0,93,40,559095,0
559134,-1640,-3790,1082,-940,-2301,999,7129,1472,502,1159,4024,35481,43,34,127,0,0,2865,2197,0,1129,40,238,698,1,0,93,40,559126,0
559144,-1955,-3481,1103,-885,-2388,398,7900,1809,557,1206,4912,35468,85,35,127,0,0,3116,2576,0,1129,40,238,708,1,0,93,40,559126,0
559154,-2046,-4024,809,-741,-2759,-900,8845,2193,624,1066,5568,35460,108,34,127,0,0,3354,2329,0,1129,40,238,718,1,0,93,40,559126,0
559164,-2557,-4640,1150,-614,-3009,-1297,9890,2341,513,841,5912,35458,116,35,127,0,0,3599,2477,0,1129,40,238,728,1,0,93,40,559189,0
559174,-2287,-4574,1557,-207,-3744,-2225,11013,2540,325,838,6352,35459,117,34,127,0,0,3851,2576,0,1129,40,238,738,1,0,93,40,559189,0
559184,-1490,-4386,1330,-231,-4292,-2810,12219,2692,311,844,6568,35451,133,34,127,0,0,4086,2323,0,1129,40,238,748,1,0,93,40,559189,0
559194,-244,-3782,552,-664,-5404,-3120,13422,2611,129,689,6776,35441,134,35,127,0,0,4368,2878,0,1129,40,238,758,1,0,93,40,559189,0
559204,1459,-4060,209,-1273,-4863,-4310,14664,2820,59,870,7088,35431,129,34,127,0,0,4597,2230,0,1129,40,238,768,1,0,93,40,559189,0
559214,1683,-5541,920,-1517,-2193,-6085,15970,2851,229,212,6008,35443,89,35,127,0,0,4697,802,0,1129,40,238,778,1,0,93,40,559204,0
559224,850,-7430,1004,-1340,65,-7507,17134,2389,-212,-341,3368,35463,55,34,127,0,0,4624,-911,0,1129,40,238,788,1,0,93,40,559204,0
559234,154,-7093,1345,-631,2178,-8463,17890,1275,-1149,-1492,200,35504,-33,34,127,0,0,4465,-1604,0,1129,40,238,798,0,0,93,40,559204,0
559244,891,-5506,1676,-854,2334,-8267,17926,-449,-2291,-1844,-1488,35538,-87,35,127,0,0,4341,-1186,0,1129,40,238,808,0,0,93,40,559251,0
559254,788,-3930,1278,-1017,2333,-8337,17609,-782,-2035,-714,-2048,35540,-61,35,127,0,0,4242,-922,0,1129,40,238,818,0,0,93,40,559251,0
559264,1457,-3311,594,-1003,1905,-8273,17207,-907,-654,-482,-2104,35507,-20,35,127,0,0,4151,-829,0,1129,40,238,828,0,0,93,40,559251,0
559274,1910,-2445,278,-766,683,-7783,16783,-932,-178,-395,-2064,35482,14,35,127,0,0,4079,-730,0,1129,40,238,838,0,0,93,40,559251,0
559284,1900,-1964,410,-650,-189,-7435,16361,-921,-19,-375,-2056,35471,13,35,127,0,0,3992,-906,0,1129,40,238,848,0,0,93,40,559251,0
559294,1790,-1507,603,-628,-1489,-6725,15939,-935,6,-484,-2208,35475,10,35,127,0,0,3894,-999,0,1129,40,238,858,0,0,93,40,559267,0
559304,1711,-1337,517,-728,-2224,-6108,15495,-996,-54,-581,-2448,35475,-2,35,127,0,0,3782,-1137,0,1129,40,238,868,0,0,93,40,559282,0
559314,1438,-963,258,-734,-2950,-5245,15015,-1091,-121,-704,-2744,35466,20,35,127,0,0,3669,-1142,0,1129,40,238,878,0,3,135,38,559282,0
559324,1108,-713,54,-630,-3318,-4743,14490,-1191,-162,-788,-3144,35466,20,35,127,0,0,3516,-1406,0,1129,40,238,888,0,3,135,38,559298,0
559334,623,-316,-120,-421,-3697,-3918,13900,-1331,-212,-813,-3560,35461,49,35,127,0,0,3357,-1642,0,1129,40,238,898,0,3,135,38,559298,0
559344,434,-55,-184,-322,-3801,-3291,13238,-1508,-262,-777,-3952,35463,45,34,127,0,0,3204,-1593,0,1129,40,238,908,0,3,135,38,559329,0
559354,224,228,-268,-187,-3701,-2337,12507,-1658,-275,-676,-4048,35450,70,34,127,0,0,3041,-1499,0,1129,40,238,918,0,3,135,38,559329,0
559364,18,291,-318,-27,-3525,-1756,11735,-1708,-207,-582,-4000,35446,60,35,127,0,0,2893,-1444,0,1129,40,238,928,0,3,135,38,559345,0
559374,-116,522,-495,289,-2991,-1100,10969,-1667,-51,-485,-3872,35449,51,34,127,0,0,2749,-1483,0,1129,40,238,938,0,3,135,38,559345,0
559384,-281,663,-514,450,-2433,-754,10234,-1607,76,-671,-4016,35459,50,35,127,0,0,2566,-1807,0,1129,40,238,948,0,3,135,38,559423,0
559394,-778,584,-540,686,-1568,60,9479,-1692,7,-795,-4200,35457,52,34,127,0,0,2379,-1889,0,1129,40,238,958,0,3,135,38,559423,0
559404,-1099,501,-525,868,-1057,820,8689,-1746,-119,-621,-4112,35452,62,34,127,0,0,2231,-1411,0,1129,40,238,968,0,3,135,38,559423,0
559414,-1325,484,-462,1142,-120,1776,7912,-1667,-28,-394,-3656,35456,47,35,127,0,0,2121,-1032,0,1129,40,238,978,0,3,135,38,559439,0
559424,-1291,590,-537,1271,685,2232,7221,-1446,219,-220,-2976,35461,26,34,127,0,0,2052,-686,0,1129,40,238,988,0,3,135,38,559439,0
559434,-1068,761,-653,1494,2077,2806,6644,-1192,393,-151,-2320,35463,7,34,127,0,0,1995,-582,0,1129,40,238,998,0,3,135,38,559439,0
559444,-1061,980,-705,1571,2898,3218,6181,-949,439,-181,-1864,35467,-17,35,127,0,0,1948,-461,0,1129,40,238,1008,0,3,135,38,559439,0
559454,-933,955,-504,1665,3824,3842,5816,-744,397,-280,-1512,35471,-6,34,127,0,0,1910,-373,0,1129,40,238,1018,0,3,135,38,559439,0
559464,-788,892,-458,1626,4251,4195,5528,-591,327,-396,-1216,35475,-30,35,127,0,0,1876,-296,0,1129,40,238,1028,0,3,135,38,559439,0
559474,-457,694,-435,1642,4755,4607,5289,-498,231,-412,-1008,35477,-34,34,127,0,0,1848,-302,0,1129,40,238,1038,0,3,135,38,559439,0
559484,-170,544,-456,1601,4900,4956,5086,-425,158,-432,-808,35481,-21,35,127,0,0,1830,-175,0,1129,40,238,1048,0,3,135,38,559470,0
559494,637,392,-283,1475,4874,5362,4914,-353,128,-399,-520,35489,-28,35,127,0,0,1833,43,0,1129,40,238,1058,0,3,135,38,559470,0
559504,993,196,-188,1294,4602,5383,4788,-229,149,-305,-216,35494,-39,35,127,0,0,1834,82,0,1129,40,238,1068,0,3,135,38,559470,0
559514,2033,-238,-10,802,3690,5264,4722,-94,216,-83,16,35499,-59,35,127,0,0,1853,219,0,1129,40,238,1078,0,3,135,38,559501,0
559524,2546,-494,36,486,2804,4899,4758,134,317,250,192,35486,-59,35,127,0,0,1877,313,0,1129,40,238,1088,0,3,135,38,559517,0
559534,3052,-870,52,167,1416,3826,4847,212,289,307,352,35479,-44,35,127,0,0,1909,335,0,1129,40,238,1098,0,3,135,38,559517,0
559544,3173,-1119,-73,2,627,2946,4961,247,126,371,416,35477,-54,34,127,0,0,1936,236,0,1129,40,238,1108,0,3,135,38,559517,0
559554,3419,-934,-434,-436,-204,1876,5077,260,44,361,384,35483,-46,35,127,0,0,1968,318,0,1129,40,238,1118,0,3,135,38,559517,0
559564,3564,-932,-638,-698,-681,1226,5190,252,-2,435,472,35483,-53,34,127,0,0,1991,296,0,1129,40,238,1128,0,3,135,38,559548,0
559574,3202,-1066,-765,-954,-1265,204,5318,292,28,416,464,35475,-24,34,127,0,0,2024,291,0,1129,40,238,1138,0,3,135,38,559548,0
559584,3147,-1116,-599,-1082,-1386,-508,5437,265,14,482,488,35474,-16,35,127,0,0,2046,214,0,1129,40,238,1148,0,3,135,38,559564,0
559594,2637,-923,-470,-1315,-1288,-1386,5563,264,-2,379,352,35483,-20,34,127,0,0,2059,76,0,1129,40,238,1158,0,3,135,38,559564,0
559604,2352,-713,-533,-1521,-1054,-1734,5669,225,-33,292,272,35484,-48,34,127,0,0,2081,175,0,1129,40,238,1168,0,3,135,38,559579,0
559614,1581,-596,-613,-1552,-603,-2157,5751,166,-82,430,328,35480,-77,35,127,0,0,2102,296,0,1129,40,238,1178,0,3,135,38,559595,0
559624,1245,-259,-581,-1442,-296,-2331,5838,210,-33,589,544,35476,-62,34,127,0,0,2157,538,0,1129,40,238,1188,0,3,135,38,559595,0
559634,1719,71,-223,-1056,192,-2469,5966,314,108,702,864,35476,-42,35,127,0,0,2206,521,0,1560,498,239,2,1,3,204,96,559611,0
559644,-376,-511,-1443,-573,845,-3605,6108,210,89,-808,-920,35483,-25,34,127,0,0,1963,-2515,0,1560,498,239,12,1,3,204,96,559611,0
559654,3710,-1777,-191,-489,275,-2257,5855,-744,-814,-1285,-2136,35474,27,34,127,0,0,1830,-1098,0,1560,498,239,22,1,3,204,96,559626,0
559664,3232,-3750,519,52,412,-2686,5441,-997,-1060,-1058,-3008,35474,7,35,127,0,0,1638,-1983,0,1560,498,239,32,1,3,204,96,559657,0
559674,2685,-3126,856,267,-646,-1133,4876,-1309,-561,-800,-3264,35466,28,34,127,0,0,1532,-994,0,1560,498,239,42,1,3,204,96,559657,0
559684,601,-2955,568,133,-1113,-644,4279,-1300,-333,-495,-3048,35458,2,35,127,0,0,1453,-725,0,1560,498,239,52,1,3,204,96,559657,0
559694,808,-4297,-56,491,-422,-685,3720,-1189,49,-229,-2448,35446,14,35,127,0,0,1402,-521,0,1560,498,239,62,1,3,204,96,559657,0
559704,1061,-3465,-535,832,134,-547,3245,-978,249,-200,-1888,35463,-17,35,127,0,0,1375,-247,0,1560,498,239,72,1,3,204,96,559689,0
559714,1557,-1878,-233,661,453,-159,2866,-759,360,-140,-1216,35476,-34,35,127,0,0,1379,16,0,1560,498,239,82,1,3,204,96,559689,0
559724,1465,-1577,-81,396,545,49,2598,-526,400,-144,-608,35485,-33,34,127,0,0,1377,16,0,1560,498,239,92,1,3,204,96,559689,0
559734,1686,-1159,75,303,643,424,2430,-293,397,-15,8,35468,-47,34,127,0,0,1396,175,0,1560,498,239,102,1,3,204,96,559735,0
559744,1666,-516,184,403,692,497,2433,128,531,362,176,35469,-51,35,127,0,0,1412,38,0,1560,498,239,112,1,3,204,96,559751,0
559754,2198,-779,206,494,525,820,2507,141,455,-2,24,35471,-51,35,127,0,0,1412,0,0,1560,498,239,122,1,3,204,96,559767,0
559764,2316,-992,396,492,334,1212,2507,-55,-59,-58,-16,35474,-63,34,127,0,0,1410,0,0,1560,498,239,132,1,3,204,96,559767,0
559774,1810,-1355,517,386,147,1600,2506,5,-141,-141,-32,35464,-56,34,127,0,0,1405,-21,0,1560,498,239,142,1,3,204,96,559767,0
559784,1254,-1690,354,342,50,1723,2502,-7,-1,-246,-120,35455,-54,35,127,0,0,1402,-87,0,1560,498,239,152,1,3,204,96,559767,0
559794,908,-2116,170,437,133,1740,2489,-24,-27,-318,-96,35461,-59,34,127,0,0,1399,-5,0,1560,498,239,162,1,3,204,96,559767,0
559804,761,-2149,138,464,208,1660,2487,0,-1,-327,-64,35463,-62,35,127,0,0,1395,-54,0,1560,498,239,172,1,3,204,96,559767,0
559814,587,-2333,305,415,328,1548,2486,1,30,-302,-64,35486,-77,34,127,0,0,1405,49,0,1560,498,239,182,1,3,204,96,559845,0
559824,891,-2415,393,340,319,1592,2501,51,26,-8,80,35485,-53,34,127,0,0,1427,214,0,1560,498,239,192,1,3,204,96,559845,0
559834,869,-2155,403,286,232,1598,2539,89,87,365,256,35488,-69,35,127,0,0,1447,285,0,1560,498,239,202,1,3,204,96,559845,0
559844,819,-2045,388,260,210,1581,2615,192,111,504,392,35473,-76,35,127,0,0,1477,335,0,1560,498,239,212,1,3,204,96,559845,0
559854,889,-1847,296,257,230,1524,2723,253,130,548,552,35472,-73,35,127,0,0,1509,340,0,1560,498,239,222,1,3,204,96,559845,0
559864,937,-1773,186,207,259,1524,2845,299,110,481,592,35468,-64,34,127,0,0,1541,340,0,1560,498,239,232,1,3,204,96,559860,0
559874,988,-1678,265,121,289,1591,2994,354,80,491,616,35467,-24,34,127,0,0,1575,340,0,1560,498,239,242,1,3,204,96,559860,0
559884,1114,-1608,293,96,346,1584,3144,336,37,532,648,35474,-17,35,127,0,0,1602,302,0,1560,498,239,252,1,3,204,96,559860,0
559894,1181,-1647,303,47,300,1675,3298,324,0,473,632,35496,-12,35,127,0,0,1631,307,0,1560,498,239,262,1,3,204,96,559860,0
559904,1139,-1703,352,15,243,1780,3450,335,0,498,640,35498,-37,35,127,0,0,1655,296,0,1560,498,239,272,1,3,204,96,559892,0
559914,957,-1903,466,-47,197,1879,3598,311,-9,455,592,35495,-52,35,127,0,0,1686,291,0,1560,498,239,282,1,3,204,96,559923,0
559924,845,-2012,542,-92,171,1893,3740,328,-18,549,624,35482,-40,35,127,0,0,1717,280,0,1560,498,239,292,1,3,204,96,559923,0
559934,838,-2169,561,-175,91,1927,3886,312,0,571,672,35485,-22,35,127,0,0,1753,362,0,1560,498,239,302,1,3,204,96,559923,0
559944,776,-2248,534,-214,-2,1986,4042,342,24,547,808,35487,-21,35,127,0,0,1794,411,0,1560,498,239,312,1,3,204,96,559923,0
559954,594,-2270,518,-275,-154,2027,4206,379,42,615,928,35486,-26,35,127,0,0,1846,543,0,1560,498,239,322,1,3,204,96,559923,0
559964,454,-2201,515,-292,-241,1961,4395,438,72,581,1064,35495,-43,35,127,0,0,1905,576,0,1560,498,239,332,1,3,204,96,559939,0
559974,290,-2129,400,-284,-321,1747,4612,484,104,568,1152,35500,-19,35,127,0,0,1963,598,0,1560,498,239,342,1,3,204,96,559954,0
559984,283,-2146,267,-239,-229,1547,4842,513,75,546,1248,35498,3,35,127,0,0,2015,549,0,1560,498,239,352,1,3,204,96,559970,0
559994,297,-2040,203,-218,-193,1306,5085,533,48,518,1224,35483,8,35,127,0,0,2066,461,0,1560,498,239,362,1,3,204,96,559970,0
560004,277,-1931,268,-254,-203,1143,5322,520,4,499,1192,35476,12,35,127,0,0,2111,455,0,1560,498,239,372,1,3,204,96,559970,0
560014,222,-1826,245,-337,-151,858,5555,513,-20,510,1112,35484,-4,34,127,0,0,2153,384,0,1560,498,239,382,1,3,204,96,560001,0
560024,259,-1791,232,-378,-88,643,5778,476,-27,451,1008,35484,0,35,127,0,0,2184,329,0,1560,498,239,392,1,3,204,96,560001,0
560034,362,-1683,271,-387,-56,310,5979,415,-64,389,824,35475,-17,34,127,0,0,2204,269,0,1560,498,239,402,1,3,204,96,560017,0
560044,358,-1501,353,-414,-77,100,6154,358,-103,396,536,35474,-7,34,127,0,0,2208,71,0,1560,498,239,412,1,3,204,96,560032,0
560054,647,-1551,106,-484,-289,-46,6284,243,-137,321,272,35476,-13,35,127,0,0,2208,27,0,1560,498,239,422,1,3,204,96,560032,0
560064,773,-1597,16,-419,-361,-198,6354,127,-208,239,32,35477,-28,34,127,0,0,2193,-170,0,1560,498,239,432,1,3,204,96,560032,0
560074,338,-1410,-49,-364,-378,-541,6340,-105,-280,-148,-160,35475,-60,34,127,0,0,2163,-302,0,1560,498,239,442,1,3,204,96,560064,0
560084,79,-1661,36,-323,-281,-781,6266,-201,-281,-375,-376,35486,-63,35,127,0,0,2113,-543,0,1560,498,239,452,1,3,204,96,560064,0
560094,167,-1712,140,-282,-189,-1150,6151,-260,-181,-539,-648,35489,-46,34,127,0,0,2058,-615,0,1560,498,239,462,1,3,204,96,560064,0
560104,279,-1606,91,-320,-240,-1372,5998,-365,-146,-595,-944,35492,-26,35,127,0,0,1989,-730,0,1560,498,239,472,1,3,204,96,560157,0
560114,236,-1673,-6,-332,-283,-1721,5802,-471,-158,-709,-1272,35484,3,35,127,0,0,1909,-802,0,1560,498,239,482,1,3,204,96,560157,0
560124,197,-1643,83,-236,-197,-1997,5555,-581,-187,-718,-1560,35473,6,35,127,0,0,1816,-955,0,1560,498,239,492,1,3,204,96,560157,0
560134,632,-1622,67,-123,-53,-2301,5251,-716,-211,-777,-1992,35470,1,35,127,0,0,1717,-1043,0,1560,498,239,502,1,3,204,96,560157,0
560144,1112,-1676,110,-149,-30,-2226,4878,-867,-246,-799,-2408,35471,5,35,127,0,0,1611,-1049,0,1560,498,239,512,1,3,204,96,560157,0
560154,1687,-1610,144,-156,-121,-1787,4432,-1015,-276,-664,-2608,35469,21,35,127,0,0,1511,-1010,0,1560,498,239,522,1,3,204,96,560173,0
560164,1986,-1564,65,-177,-189,-1274,3946,-1087,-203,-497,-2592,35460,31,35,127,0,0,1428,-834,0,1560,498,239,532,1,3,204,96,560173,0
560174,2171,-1526,34,-177,-317,-423,3454,-1066,-76,-370,-2368,35461,17,35,127,0,0,1357,-637,0,1560,498,239,542,1,3,204,96,560173,0
560184,2082,-1814,50,-253,-451,144,2993,-995,58,-364,-2128,35473,1,34,127,0,0,1301,-466,0,1560,498,239,552,1,3,204,96,560173,0
560194,1651,-2977,389,-393,-531,968,2576,-878,148,-284,-1688,35480,-13,35,127,0,0,1279,-230,0,1560,498,239,562,1,3,204,96,560173,0
560204,1550,-3648,729,-422,-393,1269,2237,-680,252,-167,-1072,35493,-35,34,127,0,0,1283,32,0,1560,498,239,572,1,3,204,96,560173,0
560214,837,-4851,583,-615,-512,1947,1997,-458,347,-102,-136,35509,-30,34,127,0,0,1333,653,0,1560,498,239,582,1,3,204,96,560188,0
560224,203,-5165,926,-545,-370,2229,1983,246,665,1173,1048,35512,-36,35,127,0,0,1447,1192,0,1560,498,239,592,1,3,204,96,560204,0
560234,-65,-4884,858,-652,-471,2627,2232,684,996,1174,2328,35501,-5,34,127,0,0,1632,1856,0,1560,498,239,602,1,3,204,96,560204,0
560244,-217,-4708,635,-688,-656,2699,2707,1210,903,1397,3688,35476,13,34,127,0,0,1868,2411,0,1560,498,239,612,1,3,204,96,560220,0
560254,-951,-4678,262,-761,-854,2972,3424,1719,905,1381,4904,35454,55,35,127,0,0,2170,3109,0,1560,498,239,622,1,3,204,96,560220,0
560264,-1315,-4309,286,-716,-1082,2949,4368,2227,889,1561,6224,35435,130,34,127,0,0,2526,3438,0,1560,498,239,632,1,3,204,96,560235,0
560274,-1887,-4234,497,-849,-1434,2338,5512,2628,814,1375,7312,35426,182,35,127,0,0,2898,3751,0,1560,498,239,642,1,3,204,96,560267,0
560284,-1814,-4572,1210,-512,-1874,1045,6851,3103,756,1478,8408,35418,227,35,127,0,0,3278,3878,0,1560,498,239,652,1,3,204,96,560267,0
560294,-2024,-4820,1876,-393,-2689,-788,8428,3591,847,1131,8840,35405,269,35,127,0,0,3594,3076,0,1560,498,239,662,1,3,204,96,560267,0
560304,-957,-4963,1869,-979,-2800,-1844,10067,3594,538,432,8480,35409,227,35,127,0,0,3864,2697,0,1560,498,239,672,1,3,204,96,560282,0
560314,3376,-5879,1017,-1577,-2743,-4440,11678,3516,18,253,7768,35428,177,35,127,0,0,4071,1922,0,1560,498,239,682,1,3,204,96,560298,0
560324,1812,-7446,64,-1200,-579,-6571,13150,3047,-351,-543,4624,35458,58,35,127,0,0,3963,-1362,0,1560,498,239,692,1,3,204,96,560298,0
560334,26,-6791,2095,-492,452,-7517,14097,1589,-1394,-2096,936,35492,-63,34,127,0,0,3817,-1367,0,1560,498,239,702,0,3,204,96,560298,0
560344,510,-5243,2487,-924,168,-7890,14366,60,-2416,-2468,-792,35515,-115,34,127,0,0,3735,-791,0,1560,498,239,712,0,3,204,96,560329,0
560354,1805,-4423,1183,-1890,263,-7984,14175,-471,-2138,-579,-1288,35524,-142,35,127,0,0,3646,-917,0,1560,498,239,722,0,3,204,96,560329,0
560364,1749,-3864,392,-1778,-100,-7996,13907,-654,-868,-789,-1912,35499,-63,35,127,0,0,3532,-1181,0,1560,498,239,732,0,3,204,96,560329,0
560374,946,-2922,370,-1506,-1159,-8174,13537,-899,-345,-955,-2568,35480,-17,34,127,0,0,3389,-1422,0,1560,498,239,742,0,3,204,96,560360,0
560384,1159,-2567,543,-1526,-1727,-7815,13050,-1144,-425,-779,-2936,35471,23,34,127,0,0,3275,-1087,0,1560,498,239,752,0,3,204,96,560360,0
560394,1345,-2108,432,-1568,-2233,-6852,12498,-1224,-337,-481,-2840,35473,32,35,127,0,0,3190,-791,0,1560,498,239,762,0,3,204,96,560376,0
560404,1076,-1675,270,-1478,-2347,-6412,11960,-1155,-66,-335,-2520,35471,24,34,127,0,0,3106,-834,0,1560,498,239,772,0,3,204,96,560376,0
560414,733,-1131,93,-1325,-2244,-5984,11463,-1067,123,-391,-2456,35482,7,34,127,0,0,3003,-1060,0,1560,498,239,782,0,3,204,96,560407,0
560424,683,-941,96,-1308,-2039,-5514,10978,-1072,97,-537,-2528,35474,-9,35,127,0,0,2902,-1043,0,1560,498,239,792,0,3,204,96,560407,0
560434,376,-667,99,-1288,-1489,-4653,10492,-1065,11,-554,-2504,35471,-10,34,127,0,0,2800,-933,0,1560,498,239,802,0,3,204,96,560407,0
560444,89,-426,23,-1215,-1017,-4127,10014,-1053,17,-574,-2488,35462,-3,35,127,0,0,2708,-889,0,1560,498,239,812,0,3,204,96,560407,0
560454,-139,-82,-120,-1008,-272,-3482,9544,-1021,27,-524,-2416,35469,-1,35,127,0,0,2613,-955,0,1560,498,239,822,0,3,204,96,560517,0
560464,-195,162,-172,-823,251,-3061,9084,-1001,39,-500,-2376,35468,5,35,127,0,0,2515,-961,0,1560,498,239,832,0,3,204,96,560532,0
560474,-309,549,-192,-572,1053,-2332,8634,-991,39,-605,-2400,35468,-11,35,127,0,0,2407,-1082,0,1560,498,239,842,0,3,204,96,560532,0
560484,-349,738,-187,-422,1567,-1769,8168,-1035,-17,-581,-2416,35465,1,34,127,0,0,2307,-1065,0,1560,498,239,852,0,3,204,96,560532,0
560494,-529,832,-84,-118,2213,-831,7700,-1027,-27,-581,-2480,35465,0,35,127,0,0,2195,-1170,0,1560,498,239,862,0,3,204,96,560532,0
560504,-609,824,32,126,2557,-208,7220,-1061,-23,-576,-2496,35465,17,34,127,0,0,2087,-1087,0,1560,498,239,872,0,3,204,96,560532,0
560514,-721,832,105,430,2928,638,6741,-1051,-26,-537,-2480,35459,19,34,127,0,0,1984,-1060,0,1560,498,239,882,0,3,204,96,560532,0
560524,-761,743,150,644,3093,1228,6268,-1023,17,-492,-2384,35465,13,35,127,0,0,1900,-851,0,1560,498,239,892,0,3,204,96,560532,0
560534,-757,686,202,930,3301,2146,5824,-941,79,-425,-2144,35461,10,34,127,0,0,1836,-642,0,1560,498,239,902,0,3,204,96,560532,0
560544,-720,701,198,1074,3476,2697,5427,-843,150,-441,-1904,35459,-8,34,127,0,0,1780,-532,0,1560,498,239,912,0,3,204,96,560532,0
560554,-707,722,128,1297,3746,3491,5071,-751,167,-393,-1672,35460,-8,35,127,0,0,1732,-494,0,1560,498,239,922,0,3,204,96,560548,0
560564,-644,837,54,1421,3923,4009,4751,-678,150,-397,-1416,35461,-25,35,127,0,0,1701,-340,0,1560,498,239,932,0,3,204,96,560548,0
560574,-601,918,-67,1526,4237,4665,4474,-580,150,-318,-1072,35467,-10,34,127,0,0,1683,-230,0,1560,498,239,942,0,3,204,96,560548,0
560584,-504,855,-137,1539,4444,5035,4252,-460,186,-371,-776,35477,-29,34,127,0,0,1671,-76,0,1560,498,239,952,0,3,204,96,560579,0
560594,-325,715,-204,1563,5012,5275,4074,-365,184,-330,-432,35474,-23,35,127,0,0,1675,38,0,1560,498,239,962,0,3,204,96,560579,0
560604,-246,647,-386,1534,5438,5301,3945,-244,180,-170,-144,35481,-46,34,127,0,0,1680,65,0,1560,498,239,972,0,3,204,96,560579,0
560614,768,525,-365,1319,5903,5460,3923,60,321,258,184,35478,-63,35,127,0,0,1711,335,0,1560,498,239,982,0,3,204,96,560579,0
560624,1403,450,-46,1037,5898,5559,4016,224,441,412,480,35495,-61,35,127,0,0,1767,615,0,1560,498,239,992,0,3,204,96,560610,0
560634,2276,448,363,457,5425,5022,4155,340,279,606,896,35489,-42,35,127,0,0,1835,692,0,1560,498,239,1002,0,3,204,96,560610,0
560644,2985,167,323,154,5026,4502,4354,483,206,604,1168,35485,-43,35,127,0,0,1906,725,0,1560,498,239,1012,0,3,204,96,560610,0
560654,3539,-137,-34,-294,4460,3649,4600,568,210,608,1464,35470,-21,34,127,0,0,1990,823,0,1560,498,239,1022,0,3,204,96,560642,0
560664,3593,-203,-150,-556,4272,2868,4890,675,173,633,1776,35474,-9,35,127,0,0,2090,972,0,1560,498,239,1032,0,3,204,96,560657,0
560674,3678,-459,-144,-872,4126,1486,5235,792,195,661,2088,35469,-5,35,127,0,0,2204,1137,0,1560,498,239,1042,0,3,204,96,560657,0
560684,3724,-504,79,-981,4039,562,5632,909,198,701,2424,35458,10,35,127,0,0,2333,1334,0,1560,498,239,1052,0,3,204,96,560657,0
560694,3626,49,326,-1187,3745,-556,6085,1033,206,722,2696,35455,20,35,127,0,0,2469,1389,0,1560,498,239,1062,0,3,204,96,560688,0
560704,8732,-4338,1276,-1048,1558,-3439,6611,1206,253,510,2528,35459,31,34,127,0,0,2476,-252,0,1326,585,240,0,1,3,159,80,560688,0
560714,2391,-273,1832,-26,1977,-4121,7066,821,-27,-1098,-528,35461,4,34,127,0,0,2211,-2757,0,1326,585,240,10,1,3,159,80,560688,0
560724,2815,2294,43,-1869,589,-2302,6879,-675,-1494,-1142,-1944,35459,1,35,127,0,0,2053,-1538,0,1326,585,240,20,1,3,159,80,560688,0
560734,2006,-1584,437,-1866,-2526,-2123,6468,-1010,-1610,-1096,-2968,35457,27,35,127,0,0,1851,-2015,0,1326,585,240,30,1,3,159,80,560720,0
560744,2616,-5191,-834,-1414,-2010,-1870,5889,-1387,-654,-1142,-3864,35448,50,35,127,0,0,1647,-1944,0,1326,585,240,40,1,3,159,80,560720,0
560754,545,-4087,1334,-1212,-1802,-409,5168,-1629,-588,-676,-3928,35438,76,35,127,0,0,1534,-1021,0,1326,585,240,50,1,3,159,80,560720,0
560764,536,-3790,709,-2387,-1535,-136,4460,-1510,-135,-173,-3120,35436,36,35,127,0,0,1482,-450,0,1326,585,240,60,1,3,159,80,560751,0
560774,424,-3666,-763,-2800,-729,134,3853,-1256,154,-37,-2136,35454,-8,34,127,0,0,1471,-93,0,1326,585,240,70,1,3,159,80,560751,0
560784,588,-2270,-1399,-2372,-76,96,3386,-930,298,44,-1152,35471,-31,35,127,0,0,1479,87,0,1326,585,240,80,1,3,159,80,560751,0
560794,1622,-1108,-699,-1813,187,115,3074,-584,574,41,-312,35481,-39,35,127,0,0,1494,104,0,1326,585,240,90,1,3,159,80,560766,0
560804,1610,-761,-293,-1708,50,468,2927,-198,607,283,112,35478,-24,35,127,0,0,1506,186,0,1326,585,240,100,1,3,159,80,560782,0
560814,1807,-532,-73,-1765,-188,814,2985,210,717,261,120,35480,-8,35,127,0,0,1515,65,0,1326,585,240,110,1,3,159,80,560782,0
560824,1654,-756,-343,-1533,-212,944,3050,101,419,88,56,35483,11,34,127,0,0,1521,27,0,1326,585,240,120,1,3,159,80,560813,0
560834,1434,-1528,-576,-953,-227,1079,3046,-42,-135,158,24,35488,13,34,127,0,0,1512,-54,0,1326,585,240,130,1,3,159,80,560860,0
560844,1268,-1647,-471,-587,84,1002,3036,-25,-147,-52,-48,35480,-14,35,127,0,0,1500,-148,0,1326,585,240,140,1,3,159,80,560860,0
560854,1150,-2017,-424,-376,220,1144,3012,-68,-33,-357,-144,35467,-16,35,127,0,0,1490,-82,0,1326,585,240,150,1,3,159,80,560860,0
560864,979,-2188,-392,-170,329,1250,2972,-109,-73,-289,-104,35474,-13,35,127,0,0,1489,-16,0,1326,585,240,160,1,3,159,80,560860,0
560874,941,-2003,-214,180,550,1230,2956,20,26,-341,-48,35478,2,34,127,0,0,1491,60,0,1326,585,240,170,1,3,159,80,560876,0
560884,1010,-1905,-101,347,608,1256,2962,-12,106,-291,-64,35472,9,34,127,0,0,1495,87,0,1326,585,240,180,1,3,159,80,560876,0
560894,1394,-2054,102,428,456,1598,2972,47,30,50,80,35463,14,35,127,0,0,1513,170,0,1326,585,240,190,1,3,159,80,560876,0
560904,1363,-1940,224,473,298,1877,3004,81,68,503,344,35463,40,35,127,0,0,1547,351,0,1326,585,240,200,1,3,159,80,560876,0
560914,1108,-1767,217,565,302,1963,3098,245,163,583,576,35478,31,35,127,0,0,1590,417,0,1326,585,240,210,1,3,159,80,560923,0
560924,1024,-1769,201,632,347,1991,3238,324,211,566,728,35483,-3,34,127,0,0,1629,422,0,1326,585,240,220,1,3,159,80,560923,0
560934,1183,-1841,394,719,380,2121,3402,366,118,496,784,35475,-24,34,127,0,0,1669,384,0,1326,585,240,230,1,3,159,80,560923,0
560944,1190,-1731,403,693,344,2233,3574,388,53,532,888,35469,-51,35,127,0,0,1710,384,0,1326,585,240,240,1,3,159,80,560923,0
560954,1139,-1884,461,578,201,2442,3759,426,40,603,1016,35472,-28,35,127,0,0,1758,422,0,1326,585,240,250,1,3,159,80,560923,0
560964,1035,-2039,459,542,112,2611,3963,471,65,635,1144,35488,-21,35,127,0,0,1824,587,0,1326,585,240,260,1,3,159,80,560938,0
560974,837,-1934,450,539,155,2702,4187,507,82,660,1320,35491,-28,35,127,0,0,1887,708,0,1326,585,240,270,1,3,159,80,560954,0
560984,738,-1920,361,510,149,2714,4443,574,104,574,1424,35488,-35,35,127,0,0,1953,659,0,1326,585,240,280,1,3,159,80,560970,0
560994,649,-1998,416,476,49,2740,4719,613,93,586,1512,35476,-28,34,127,0,0,2021,708,0,1326,585,240,290,1,3,159,80,560970,0
561004,528,-2022,468,463,-19,2707,5007,634,55,581,1624,35474,-17,35,127,0,0,2102,785,0,1326,585,240,300,1,3,159,80,560970,0
561014,282,-1987,480,448,-72,2540,5311,685,53,598,1680,35471,-11,34,127,0,0,2175,774,0,1326,585,240,310,1,3,159,80,561001,0
561024,226,-1896,521,476,-196,2370,5627,703,62,573,1744,35468,-11,34,127,0,0,2248,763,0,1326,585,240,320,1,3,159,80,561001,0
561034,152,-1919,486,533,-365,2032,5950,705,31,495,1664,35468,-5,35,127,0,0,2312,637,0,1326,585,240,330,1,3,159,80,561001,0
561044,110,-1882,473,529,-491,1804,6266,678,-7,474,1520,35485,-5,35,127,0,0,2360,527,0,1326,585,240,340,1,3,159,80,561032,0
561054,58,-1868,555,412,-609,1438,6557,618,-72,454,1352,35492,-21,35,127,0,0,2400,455,0,1326,585,240,350,1,3,159,80,561032,0
561064,-47,-1972,693,300,-638,1181,6820,561,-104,416,1112,35488,-17,35,127,0,0,2431,296,0,1326,585,240,360,1,3,159,80,561048,0
561074,-106,-1831,864,171,-599,664,7048,481,-120,417,864,35479,-14,34,127,0,0,2446,120,0,1326,585,240,370,1,3,159,80,561048,0
561084,-74,-1739,841,19,-611,318,7234,381,-146,386,568,35477,-9,35,127,0,0,2448,5,0,1326,585,240,380,1,3,159,80,561095,0
561094,485,-1624,678,-51,-553,-118,7373,275,-175,313,272,35483,-27,35,127,0,0,2446,-32,0,1326,585,240,390,1,3,159,80,561110,0
561104,336,-1248,287,-80,-534,-360,7439,48,-235,-127,-144,35480,-35,35,127,0,0,2412,-307,0,1326,585,240,400,1,3,159,80,561110,0
561114,593,-1252,195,-171,-491,-563,7362,-232,-440,-323,-376,35481,-55,35,127,0,0,2364,-499,0,1326,585,240,410,1,3,159,80,561110,0
561124,764,-1420,55,-139,-462,-638,7237,-304,-350,-486,-632,35484,-41,34,127,0,0,2300,-609,0,1326,585,240,420,1,3,159,80,561110,0
561134,487,-1236,41,-244,-430,-723,7073,-381,-153,-511,-912,35486,-46,35,127,0,0,2229,-780,0,1326,585,240,430,1,3,159,80,561110,0
561144,180,-1254,37,-233,-353,-940,6870,-479,-145,-697,-1320,35485,-42,35,127,0,0,2136,-906,0,1326,585,240,440,1,3,159,80,561110,0
561154,280,-1460,-77,-90,-7,-1387,6600,-642,-208,-764,-1784,35491,-38,35,127,0,0,2025,-1104,0,1326,585,240,450,1,3,159,80,561141,0
561164,528,-1618,-77,-35,46,-1479,6252,-821,-286,-772,-2232,35502,-30,35,127,0,0,1905,-1170,0,1326,585,240,460,1,3,159,80,561157,0
561174,981,-1761,-49,155,6,-1326,5834,-959,-285,-758,-2520,35495,3,35,127,0,0,1783,-1164,0,1326,585,240,470,1,3,159,80,561157,0
561184,943,-1771,114,110,-105,-1103,5364,-1066,-231,-694,-2768,35477,3,35,127,0,0,1669,-1120,0,1326,585,240,480,1,3,159,80,561157,0
561194,1047,-2171,536,124,-198,-837,4856,-1139,-169,-593,-2816,35473,31,35,127,0,0,1569,-977,0,1326,585,240,490,1,3,159,80,561220,0
561204,1130,-2557,637,139,-203,-640,4333,-1162,-98,-535,-2792,35477,29,35,127,0,0,1469,-933,0,1326,585,240,500,1,3,159,80,561235,0
561214,1173,-3134,822,-66,-359,-16,3804,-1175,-35,-401,-2520,35486,29,35,127,0,0,1408,-620,0,1326,585,240,510,1,3,159,80,561235,0
561224,1065,-3393,986,-211,-541,510,3314,-1041,67,-215,-1936,35485,15,35,127,0,0,1387,-203,0,1326,585,240,520,1,3,159,80,561235,0
561234,366,-3587,938,-355,-595,794,2914,-810,264,-90,-1136,35493,-6,35,127,0,0,1388,71,0,1326,585,240,530,1,3,159,80,561235,0
561244,288,-4508,609,-536,-777,1176,2639,-524,420,-27,-152,35499,-26,35,127,0,0,1442,609,0,1326,585,240,540,1,3,159,80,561251,0
561254,-270,-4800,770,-466,-664,1463,2600,212,729,1193,904,35498,-51,35,127,0,0,1544,1071,0,1326,585,240,550,1,3,159,80,561251,0
561264,-178,-4790,856,-623,-823,1662,2821,599,1012,1049,2024,35489,-64,35,127,0,0,1711,1647,0,1326,585,240,560,1,3,159,80,561251,0
561274,-745,-4699,529,-613,-1200,1848,3241,1066,838,1358,3272,35473,-22,35,127,0,0,1939,2334,0,1326,585,240,570,1,3,159,80,561251,0
561284,-1307,-4463,422,-657,-1499,1943,3884,1553,824,1454,4560,35477,17,35,127,0,0,2231,3021,0,1326,585,240,580,1,3,159,80,561282,0
561294,-1924,-3932,583,-447,-1548,1604,4747,2040,844,1413,5752,35461,106,34,127,0,0,2546,3164,0,1326,585,240,590,1,3,159,80,561282,0
561304,-2217,-3482,381,-358,-2118,1073,5796,2420,771,1313,6704,35449,147,35,127,0,0,2879,3317,0,1326,585,240,600,1,3,159,80,561282,0
561314,-1659,-3809,953,-45,-3517,-221,7031,2866,707,1451,7792,35420,197,34,127,0,0,3257,3861,0,1326,585,240,610,1,3,159,80,561282,0
561324,-1767,-4662,1163,517,-4139,-1228,8505,3371,832,1203,8400,35405,212,34,127,0,0,3578,3175,0,1326,585,240,620,1,3,159,80,561313,0
561334,-1972,-4459,1810,31,-4899,-2185,10068,3457,594,659,8392,35417,194,35,127,0,0,3858,2823,0,1326,585,240,630,1,3,159,80,561313,0
561344,-97,-4145,1112,-876,-5376,-3349,11647,3478,158,474,8144,35428,175,35,127,0,0,4135,2713,0,1326,585,240,640,1,3,159,80,561313,0
561354,3760,-5771,952,-1165,-4274,-5497,13157,3231,-121,301,7560,35443,114,34,127,0,0,4338,1966,0,1326,585,240,650,1,3,159,80,561344,0
561364,1925,-7782,708,-493,-2557,-6967,14527,2910,-438,-220,4976,35456,49,34,127,0,0,4280,-834,0,1326,585,240,660,1,3,159,80,561344,0
561374,17,-7885,1655,392,-631,-8132,15563,1868,-957,-1903,1336,35492,-50,35,127,0,0,4133,-1499,0,1326,585,240,670,0,3,159,80,561344,0
561384,-28,-5922,2089,231,-450,-8590,15912,179,-2097,-2751,-936,35515,-105,35,127,0,0,4007,-1131,0,1326,585,240,680,0,3,159,80,561360,0
561394,950,-4430,1321,-405,-456,-8997,15683,-573,-2434,-644,-1496,35530,-122,35,127,0,0,3910,-972,0,1326,585,240,690,0,3,159,80,561396,0
561404,1695,-3758,562,-462,-717,-8838,15365,-743,-1087,-636,-1816,35514,-50,35,127,0,0,3822,-873,0,1326,585,240,700,0,3,159,80,561396,0
561414,1641,-2641,204,-123,-1460,-8397,15001,-825,-236,-654,-2120,35499,-18,35,127,0,0,3728,-955,0,1326,585,240,710,0,3,159,80,561396,0
561424,1372,-2037,315,-28,-1963,-8042,14592,-921,-168,-673,-2400,35486,-1,35,127,0,0,3621,-1071,0,1326,585,240,720,0,3,159,80,561396,0
561434,1059,-1566,492,-64,-2565,-7381,14136,-1039,-173,-735,-2696,35473,8,35,127,0,0,3506,-1120,0,1326,585,240,730,0,3,159,80,561396,0
561444,941,-1442,475,-131,-2803,-6806,13632,-1133,-188,-652,-2936,35466,24,35,127,0,0,3387,-1164,0,1326,585,240,740,0,3,159,80,561442,0
561454,672,-1187,422,-96,-2848,-5836,13089,-1223,-164,-615,-3168,35461,34,35,127,0,0,3255,-1290,0,1326,585,240,750,0,3,159,80,561442,0
561464,478,-840,380,-38,-2718,-5258,12494,-1358,-178,-742,-3464,35465,34,34,127,0,0,3092,-1576,0,1326,585,240,760,0,3,159,80,561442,0
561474,159,-269,224,-4,-2473,-4351,11820,-1543,-262,-847,-3920,35462,47,35,127,0,0,2911,-1840,0,1326,585,240,770,0,3,159,80,561442,0
561484,26,110,109,41,-2397,-3603,11067,-1693,-305,-691,-4152,35457,54,34,127,0,0,2731,-1845,0,1326,585,240,780,0,3,159,80,561458,0
561494,-196,578,-95,117,-2502,-2313,10276,-1739,-211,-581,-4176,35451,46,34,127,0,0,2563,-1702,0,1326,585,240,790,0,3,159,80,561458,0
561504,-325,735,-208,212,-2486,-1537,9494,-1707,-34,-510,-4080,35462,32,35,127,0,0,2401,-1642,0,1326,585,240,800,0,3,159,80,561474,0
561514,-604,674,-325,494,-2255,-496,8724,-1695,47,-534,-3920,35472,21,35,127,0,0,2253,-1560,0,1326,585,240,810,0,3,159,80,561505,0
561524,-741,579,-328,779,-1945,214,7978,-1630,61,-524,-3800,35476,29,35,127,0,0,2102,-1499,0,1326,585,240,820,0,3,159,80,561505,0
561534,-921,606,-230,1121,-1339,1275,7252,-1570,86,-467,-3552,35469,28,35,127,0,0,1984,-1192,0,1326,585,240,830,0,3,159,80,561505,0
561544,-997,747,-267,1283,-913,1975,6577,-1430,152,-305,-3136,35463,27,35,127,0,0,1892,-878,0,1326,585,240,840,0,3,159,80,561505,0
561554,-898,846,-468,1426,-186,2881,5991,-1228,283,-234,-2608,35476,2,35,127,0,0,1822,-659,0,1326,585,240,850,0,3,159,80,561521,0
561564,-923,767,-509,1546,356,3400,5505,-1004,361,-287,-2200,35486,-22,35,127,0,0,1774,-499,0,1326,585,240,860,0,3,159,80,561646,0
561574,-892,779,-561,1692,1315,4027,5093,-857,333,-302,-1864,35481,-17,35,127,0,0,1722,-411,0,1326,585,240,870,0,3,159,80,561646,0
561584,-1029,674,-548,1700,1972,4371,4738,-759,244,-378,-1616,35473,-22,34,127,0,0,1676,-401,0,1326,585,240,880,0,3,159,80,561646,0
561594,-894,568,-676,1701,2944,4849,4428,-656,188,-376,-1352,35468,-15,35,127,0,0,1651,-258,0,1326,585,240,890,0,3,159,80,561646,0
561604,-685,606,-727,1693,3559,5153,4166,-537,177,-351,-1000,35470,-15,34,127,0,0,1630,-120,0,1326,585,240,900,0,3,159,80,561661,0
561614,-111,664,-695,1569,4405,5460,3950,-437,180,-261,-600,35468,-15,34,127,0,0,1632,-10,0,1326,585,240,910,0,3,159,80,561661,0
561624,95,556,-649,1461,4711,5544,3792,-313,202,-249,-200,35466,-30,35,127,0,0,1639,115,0,1326,585,240,920,0,3,159,80,561661,0
561634,992,394,-379,1089,4680,5557,3735,0,316,270,208,35471,-38,34,127,0,0,1672,302,0,1326,585,240,930,0,3,159,80,561661,0
561644,1491,324,-293,753,4530,5520,3828,238,502,428,496,35471,-5,35,127,0,0,1729,560,0,1326,585,240,940,0,3,159,80,561661,0
561654,2327,395,-223,281,4328,4964,3970,362,348,622,896,35466,-8,35,127,0,0,1795,659,0,1326,585,240,950,0,3,159,80,561661,0
561664,3009,308,-160,-27,3941,4415,4167,462,205,573,1096,35463,-19,35,127,0,0,1857,620,0,1326,585,240,960,0,3,159,80,561661,0
561674,3587,36,-233,-505,3158,3581,4396,527,161,530,1256,35469,-46,35,127,0,0,1923,725,0,1326,585,240,970,0,3,159,80,561661,0
561684,3803,-22,-266,-799,2754,2923,4655,582,115,563,1448,35476,-25,34,127,0,0,1995,741,0,1326,585,240,980,0,3,159,80,561661,0
561694,3750,-216,-416,-1198,2390,1662,4941,644,101,532,1608,35480,-35,34,127,0,0,2084,829,0,1326,585,240,990,0,3,159,80,561661,0
561704,3697,-359,-394,-1362,2315,823,5254,718,106,626,1864,35487,-35,35,127,0,0,2178,1016,0,1326,585,240,1000,0,3,159,80,561692,0
561714,3469,273,-364,-1560,2425,-374,5608,815,134,654,2104,35489,-34,35,127,0,0,2280,1027,0,1326,585,240,1010,0,3,159,80,561692,0
561724,3257,520,-306,-1708,2546,-1006,6001,889,159,601,2208,35480,-25,35,127,0,0,2382,983,0,1326,585,240,1020,0,3,159,80,561692,0
561734,4079,241,-400,-1820,2420,-1915,6418,932,114,574,2304,35469,-9,35,127,0,0,2470,867,0,1326,585,240,1030,0,3,159,80,561724,0
561744,3330,-2259,-275,-1207,4347,-3780,6839,877,42,40,456,35461,0,35,127,0,0,2262,-2378,0,1495,609,241,0,1,3,137,104,561724,0
561754,1962,1547,-44,-1158,2760,-2947,6839,-544,-919,-2520,-2040,35464,-8,35,127,0,0,2017,-2263,0,1495,609,241,10,1,3,137,104,561739,0
561764,4072,-1655,841,-1306,1568,-3124,6393,-1156,-1672,-1460,-3648,35457,20,34,127,0,0,1732,-2988,0,1495,609,241,20,1,3,137,104,561739,0
561774,4205,-5081,1122,-238,-972,-1340,5662,-1779,-1270,-1443,-4888,35436,87,35,127,0,0,1496,-2318,0,1495,609,241,30,1,3,137,104,561739,0
561784,1134,-5631,2423,-42,-1799,-9,4751,-2064,-991,-688,-5000,35434,121,35,127,0,0,1349,-1301,0,1495,609,241,40,1,3,137,104,561771,0
561794,-396,-4386,1303,-755,-1702,-111,3844,-1940,-338,-209,-4224,35438,89,35,127,0,0,1262,-851,0,1495,609,241,50,1,3,137,104,561771,0
561804,406,-5538,-107,-1079,-1073,263,3034,-1698,209,-44,-3168,35456,26,34,127,0,0,1238,-230,0,1495,609,241,60,1,3,137,104,561786,0
561814,239,-2721,-1674,-1143,140,593,2383,-1316,487,135,-1776,35462,-24,35,127,0,0,1255,142,0,1495,609,241,70,1,3,137,104,561786,0
561824,1367,-1645,-1812,-1107,718,675,1941,-815,706,276,-408,35463,-28,34,127,0,0,1293,329,0,1495,609,241,80,1,3,137,104,561817,0
561834,1468,-715,-637,-797,1067,785,1788,-33,940,1251,432,35466,-47,34,127,0,0,1329,384,0,1495,609,241,90,1,3,137,104,561817,0
561844,1808,-500,299,-686,1061,853,1921,321,1156,382,472,35467,-58,35,127,0,0,1353,203,0,1495,609,241,100,1,3,137,104,561817,0
561854,2034,-639,631,-549,589,1121,2064,284,556,209,248,35471,-51,34,127,0,0,1356,71,0,1495,609,241,110,1,3,137,104,561817,0
561864,2034,-1122,479,-388,104,1418,2153,190,-80,89,24,35466,-34,34,127,0,0,1354,0,0,1495,609,241,120,1,3,137,104,561849,0
561874,1422,-1652,96,29,-296,1745,2175,-13,-249,-88,-24,35469,-11,35,127,0,0,1354,16,0,1495,609,241,130,1,3,137,104,561849,0
561884,879,-2108,-110,198,-266,1775,2171,18,-199,36,16,35469,15,34,127,0,0,1356,32,0,1495,609,241,140,1,3,137,104,561849,0
561894,536,-2569,-281,294,50,1878,2181,29,5,230,96,35480,16,35,127,0,0,1368,109,0,1495,609,241,150,1,3,137,104,561880,0
561904,571,-2570,-226,325,336,1864,2200,69,43,648,360,35481,11,34,127,0,0,1398,324,0,1495,609,241,160,1,3,137,104,561880,0
561914,603,-2523,144,410,595,1860,2281,245,154,758,624,35475,13,34,127,0,0,1441,422,0,1495,609,241,170,1,3,137,104,561895,0
561924,765,-2421,420,461,618,1885,2427,357,259,561,824,35479,-14,35,127,0,0,1490,499,0,1495,609,241,180,1,3,137,104,561895,0
561934,877,-1949,544,462,455,1960,2611,430,187,603,1104,35478,-29,35,127,0,0,1552,576,0,1495,609,241,190,1,3,137,104,561911,0
561944,1062,-1718,442,464,365,2001,2836,520,142,648,1376,35486,-36,35,127,0,0,1620,653,0,1495,609,241,200,1,3,137,104,561927,0
561954,1197,-1581,182,549,279,2116,3105,617,166,603,1448,35480,-16,35,127,0,0,1683,604,0,1495,609,241,210,1,3,137,104,561927,0
561964,1190,-1541,173,547,209,2265,3393,642,117,570,1520,35482,-16,35,127,0,0,1746,593,0,1495,609,241,220,1,3,137,104,561958,0
561974,1060,-1683,316,473,170,2449,3690,660,49,597,1608,35482,-17,35,127,0,0,1816,670,0,1495,609,241,230,1,3,137,104,561974,0
561984,900,-1852,399,410,178,2546,3998,679,41,594,1632,35480,-11,35,127,0,0,1884,708,0,1495,609,241,240,1,3,137,104,561974,0
561994,611,-2009,472,341,117,2585,4312,689,28,562,1688,35470,-10,35,127,0,0,1953,730,0,1495,609,241,250,1,3,137,104,561989,0
562004,442,-2122,427,323,142,2534,4630,696,14,568,1752,35468,16,35,127,0,0,2028,769,0,1495,609,241,260,1,3,137,104,561989,0
562014,298,-2154,376,345,157,2406,4959,726,22,571,1776,35478,-5,35,127,0,0,2112,807,0,1495,609,241,270,1,3,137,104,561989,0
562024,224,-2102,386,370,89,2296,5291,739,27,614,1880,35488,-8,34,127,0,0,2189,829,0,1495,609,241,280,1,3,137,104,561989,0
562034,131,-2036,526,414,-119,2046,5640,773,42,594,1952,35497,-29,34,127,0,0,2275,845,0,1495,609,241,290,1,3,137,104,562036,0
562044,10,-2028,538,463,-256,1809,5998,788,50,521,1880,35491,-21,35,127,0,0,2344,681,0,1495,609,241,300,1,3,137,104,562036,0
562054,-94,-2074,530,466,-430,1437,6350,759,-1,506,1784,35488,-12,35,127,0,0,2412,648,0,1495,609,241,310,1,3,137,104,562036,0
562064,-148,-2040,573,449,-508,1139,6687,725,-52,465,1648,35480,-19,35,127,0,0,2466,593,0,1495,609,241,320,1,3,137,104,562036,0
562074,-231,-1987,666,342,-560,640,7003,684,-67,492,1488,35477,-19,34,127,0,0,2510,428,0,1495,609,241,330,1,3,137,104,562052,0
562084,-177,-1964,719,281,-509,280,7289,604,-99,442,1240,35481,-23,34,127,0,0,2545,313,0,1495,609,241,340,1,3,137,104,562067,0
562094,-119,-1823,864,210,-462,-334,7538,517,-132,365,928,35491,-30,35,127,0,0,2555,126,0,1495,609,241,350,1,3,137,104,562067,0
562104,-164,-1716,923,129,-560,-670,7739,395,-169,346,528,35497,-21,35,127,0,0,2555,0,0,1495,609,241,360,1,3,137,104,562067,0
562114,19,-1534,889,-38,-589,-1253,7883,265,-215,159,72,35508,-27,35,127,0,0,2527,-252,0,1495,609,241,370,1,3,137,104,562099,0
562124,308,-1398,578,-171,-607,-1484,7896,-109,-385,-466,-280,35508,-45,34,127,0,0,2489,-379,0,1495,609,241,380,1,3,137,104,562099,0
562134,553,-1269,44,-283,-625,-1724,7787,-273,-505,-426,-576,35504,-54,34,127,0,0,2431,-560,0,1495,609,241,390,1,3,137,104,562114,0
562144,632,-1299,-32,-317,-622,-1823,7635,-352,-277,-544,-840,35493,-50,35,127,0,0,2364,-664,0,1495,609,241,400,1,3,137,104,562114,0
562154,277,-1342,235,-288,-514,-2129,7441,-442,-149,-645,-1144,35495,-26,35,127,0,0,2287,-823,0,1495,609,241,410,1,3,137,104,562145,0
562164,430,-1433,201,-256,-238,-2369,7199,-572,-172,-707,-1584,35491,-35,35,127,0,0,2184,-1087,0,1495,609,241,420,1,3,137,104,562145,0
562174,1115,-1441,-77,-171,32,-2361,6880,-757,-249,-770,-2016,35483,-24,35,127,0,0,2063,-1159,0,1495,609,241,430,1,3,137,104,562145,0
562184,1369,-1148,-195,-252,-2,-2133,6490,-900,-283,-688,-2296,35473,13,35,127,0,0,1945,-1192,0,1495,609,241,440,1,3,137,104,562145,0
562194,1484,-1447,-103,-157,117,-1780,6053,-982,-222,-651,-2504,35470,14,35,127,0,0,1838,-1120,0,1495,609,241,450,1,3,137,104,562177,0
562204,1682,-1612,70,-43,160,-1451,5589,-1045,-130,-638,-2672,35468,22,35,127,0,0,1722,-1076,0,1495,609,241,460,1,3,137,104,562177,0
562214,1722,-2097,620,-91,-119,-781,5095,-1104,-110,-567,-2704,35463,22,35,127,0,0,1630,-928,0,1495,609,241,470,1,3,137,104,562192,0
562224,1466,-2605,936,-245,-362,-311,4595,-1087,-61,-397,-2520,35474,7,35,127,0,0,1564,-670,0,1495,609,241,480,1,3,137,104,562192,0
562234,963,-3432,781,-383,-580,300,4126,-998,64,-308,-2032,35484,5,35,127,0,0,1520,-335,0,1495,609,241,490,1,3,137,104,562208,0
562244,899,-3743,525,-359,-591,585,3716,-845,182,-131,-1360,35500,-11,35,127,0,0,1518,5,0,1495,609,241,500,1,3,137,104,562224,0
562254,412,-4441,-49,-283,-606,961,3405,-612,315,-56,-488,35494,-7,35,127,0,0,1560,461,0,1495,609,241,510,1,3,137,104,562224,0
562264,-119,-4519,295,-266,-400,1242,3277,-31,565,1142,688,35493,-31,35,127,0,0,1657,1005,0,1495,609,241,520,1,3,137,104,562255,0
562274,-107,-4483,490,-420,-411,1614,3465,527,1014,979,1792,35485,-32,34,127,0,0,1814,1658,0,1495,609,241,530,1,3,137,104,562255,0
562284,-263,-4385,487,-384,-560,1858,3837,954,919,1311,3024,35476,4,35,127,0,0,2033,2296,0,1495,609,241,540,1,3,137,104,562255,0
562294,-560,-3941,219,-469,-840,2157,4422,1426,771,1406,4288,35460,50,34,127,0,0,2318,2911,0,1495,609,241,550,1,3,137,104,562270,0
562304,-823,-3456,74,-583,-1228,2266,5226,1914,829,1456,5544,35448,116,34,127,0,0,2631,3092,0,1495,609,241,560,1,3,137,104,562286,0
562314,-879,-3685,619,-178,-1736,1523,6241,2376,825,1435,6592,35438,156,35,127,0,0,2957,3257,0,1495,609,241,570,1,3,137,104,562286,0
562324,-1621,-4537,942,264,-2219,1074,7467,2830,810,1339,7528,35425,198,34,127,0,0,3309,3576,0,1495,609,241,580,1,3,137,104,562302,0
562334,-2657,-5088,1709,344,-2686,217,8895,3255,786,1223,8320,35406,238,34,127,0,0,3658,3537,0,1495,609,241,590,1,3,137,104,562317,0
562344,-2354,-5083,2032,283,-2791,-743,10462,3542,636,1001,8784,35399,246,35,127,0,0,3991,3246,0,1495,609,241,600,1,3,137,104,562333,0
562354,-1426,-4101,1529,-381,-2712,-1705,12125,3680,431,749,8888,35404,253,34,127,0,0,4319,3323,0,1495,609,241,610,1,3,137,104,562333,0
562364,415,-3137,418,-1015,-1761,-3232,13757,3546,87,520,8784,35418,206,35,127,0,0,4580,2554,0,1495,609,241,620,1,3,137,104,562349,0
562374,1806,-5477,378,-880,-1510,-6152,15351,3480,-149,25,6944,35431,129,34,127,0,0,4664,494,0,1495,609,241,630,1,3,137,104,562364,0
562384,2618,-6964,1162,-173,-680,-6790,16772,2889,-426,-698,4280,35457,39,34,127,0,0,4653,-230,0,1495,609,241,640,1,3,137,104,562364,0
562394,520,-6283,2339,-503,-668,-8412,17709,1657,-1373,-1537,1056,35489,-91,34,127,0,0,4523,-1384,0,1495,609,241,650,0,3,137,104,562380,0
562404,1262,-5402,2327,-740,-1416,-8596,17989,42,-2269,-2347,-928,35515,-115,35,127,0,0,4415,-1005,0,1495,609,241,660,0,3,137,104,562380,0
562414,1553,-4366,1284,-1097,-2611,-8632,17771,-557,-2222,-582,-1416,35505,-85,34,127,0,0,4323,-917,0,1495,609,241,670,0,3,137,104,562427,0
562424,1814,-3766,742,-1109,-2973,-8476,17470,-702,-948,-559,-1760,35492,-16,34,127,0,0,4229,-994,0,1495,609,241,680,0,3,137,104,562427,0
562434,1118,-2724,521,-1014,-3370,-8332,17106,-851,-261,-678,-2272,35469,6,35,127,0,0,4101,-1367,0,1495,609,241,690,0,3,137,104,562427,0
562444,1179,-2291,453,-1092,-3505,-7985,16646,-1068,-305,-699,-2696,35468,5,34,127,0,0,3971,-1345,0,1495,609,241,700,0,3,137,104,562427,0
562454,917,-1916,349,-1190,-3499,-7259,16112,-1226,-324,-662,-3048,35464,8,35,127,0,0,3840,-1362,0,1495,609,241,710,0,3,137,104,562442,0
562464,773,-1637,292,-1184,-3356,-6813,15515,-1339,-262,-614,-3240,35457,15,34,127,0,0,3711,-1290,0,1495,609,241,720,0,3,137,104,562442,0
562474,628,-1178,200,-1084,-3064,-6236,14887,-1406,-163,-710,-3520,35461,15,34,127,0,0,3558,-1499,0,1495,609,241,730,0,3,137,104,562442,0
562484,548,-855,138,-970,-2830,-5766,14222,-1503,-129,-855,-3976,35462,29,35,127,0,0,3384,-1785,0,1495,609,241,740,0,3,137,104,562473,0
562494,228,-241,0,-875,-2603,-4824,13488,-1661,-215,-838,-4472,35469,48,34,127,0,0,3184,-1972,0,1495,609,241,750,0,3,137,104,562473,0
562504,18,102,-71,-851,-2538,-4115,12657,-1895,-329,-783,-4792,35456,68,34,127,0,0,2990,-1972,0,1495,609,241,760,0,3,137,104,562489,0
562514,-177,515,-234,-693,-2465,-3165,11758,-2002,-316,-581,-4736,35456,55,35,127,0,0,2816,-1752,0,1495,609,241,770,0,3,137,104,562489,0
562524,-264,583,-341,-543,-2317,-2498,10854,-1965,-116,-432,-4552,35466,47,34,127,0,0,2645,-1730,0,1495,609,241,780,0,3,137,104,562489,0
562534,-587,625,-279,-123,-1999,-1305,9994,-1862,97,-525,-4400,35481,31,35,127,0,0,2482,-1593,0,1495,609,241,790,0,3,137,104,562520,0
562544,-776,728,-256,158,-1750,-545,9171,-1784,156,-457,-4160,35480,22,34,127,0,0,2334,-1422,0,1495,609,241,800,0,3,137,104,562520,0
562554,-961,743,-256,564,-1011,365,8390,-1690,145,-431,-3880,35467,25,34,127,0,0,2189,-1466,0,1495,609,241,810,0,3,137,104,562552,0
562564,-1109,618,-363,829,-353,1041,7651,-1600,162,-494,-3712,35465,8,35,127,0,0,2047,-1334,0,1495,609,241,820,0,3,137,104,562552,0
562574,-1390,695,-349,1201,665,2143,6949,-1505,150,-397,-3344,35469,8,34,127,0,0,1946,-933,0,1495,609,241,830,0,3,137,104,562567,0
562584,-1393,875,-378,1422,1480,2709,6320,-1310,224,-229,-2816,35472,5,34,127,0,0,1877,-692,0,1495,609,241,840,0,3,137,104,562567,0
562594,-1212,865,-575,1662,2981,3332,5793,-1091,353,-250,-2408,35460,-2,34,127,0,0,1800,-780,0,1495,609,241,850,0,3,137,104,562567,0
562604,-1090,855,-547,1772,3901,3932,5345,-958,343,-397,-2240,35466,-23,35,127,0,0,1732,-664,0,1495,609,241,860,0,3,137,104,562567,0
562614,-1180,977,-372,1730,4906,4885,4933,-880,205,-395,-1928,35481,-32,35,127,0,0,1688,-351,0,1495,609,241,870,0,3,137,104,562598,0
562624,-1015,782,-217,1625,5521,5307,4569,-748,158,-259,-1440,35485,-26,35,127,0,0,1667,-203,0,1495,609,241,880,0,3,137,104,562598,0
562634,-257,721,-302,1549,6313,5780,4284,-581,251,-258,-912,35473,-5,34,127,0,0,1667,-21,0,1495,609,241,890,0,3,137,104,562630,0
562644,-173,738,-373,1467,6589,5984,4076,-418,295,-245,-424,35464,-16,34,127,0,0,1677,142,0,1495,609,241,900,0,3,137,104,562630,0
562654,1248,1092,-200,1217,6344,6279,3949,-192,301,314,224,35471,-32,35,127,0,0,1722,466,0,1495,609,241,910,0,3,137,104,562630,0
562664,1824,1055,51,900,5711,6427,4027,260,573,567,616,35478,-47,34,127,0,0,1776,582,0,1495,609,241,920,0,3,137,104,562630,0
562674,3204,650,647,377,4569,6088,4188,385,537,549,936,35472,-51,34,127,0,0,1846,692,0,1495,609,241,930,0,3,137,104,562723,0
562684,3762,253,779,44,3769,5512,4394,480,218,519,1128,35465,-38,35,127,0,0,1907,582,0,1495,609,241,940,0,3,137,104,562723,0
562694,4519,-118,477,-471,2698,4280,4633,536,147,516,1240,35465,-23,34,127,0,0,1972,642,0,1495,609,241,950,0,3,137,104,562723,0
562704,4789,-220,150,-777,2138,3329,4893,577,91,469,1424,35459,-16,35,127,0,0,2043,791,0,1495,609,241,960,0,3,137,104,562739,0
562714,5004,-215,-204,-1107,1669,1654,5169,628,71,543,1560,35462,-21,34,127,0,0,2118,736,0,1495,609,241,970,0,3,137,104,562739,0
562724,4741,-149,-244,-1266,1462,671,5471,670,85,546,1680,35457,-19,34,127,0,0,2207,889,0,1495,609,241,980,0,3,137,104,562739,0
562734,4052,405,-214,-1644,1438,-738,5802,752,99,606,1936,35457,-35,35,127,0,0,2311,1087,0,1495,609,241,990,0,3,137,104,562739,0
562744,5615,-2021,-66,-2018,2229,-2230,6172,845,136,553,1808,35459,-23,34,127,0,0,2326,-10,0,1597,694,242,0,1,3,174,85,562739,0
562754,-99,214,776,-1915,2711,-2715,6505,642,-10,-288,-144,35461,-34,35,127,0,0,2146,-1878,0,1597,694,242,10,1,3,174,85,562739,0
562764,218,725,-126,-2822,1828,-1466,6418,-454,-926,-1145,-1224,35462,-34,34,127,0,0,2039,-1010,0,1597,694,242,20,1,3,174,85,562739,0
562774,2285,-2240,754,-1746,1035,-2387,6142,-707,-1117,-1070,-2288,35473,-34,34,127,0,0,1847,-1955,0,1597,694,242,30,1,3,174,85,562739,0
562784,3524,-3297,790,-982,494,-2008,5681,-1145,-655,-1223,-3392,35479,11,34,127,0,0,1652,-1961,0,1597,694,242,40,1,3,174,85,562755,0
562794,2515,-3137,2505,-1041,-1703,-282,5049,-1455,-705,-829,-3696,35478,49,35,127,0,0,1526,-1181,0,1597,694,242,50,1,3,174,85,562786,0
562804,1121,-3338,1485,-1580,-2393,110,4378,-1460,-406,-365,-3296,35464,61,35,127,0,0,1439,-780,0,1597,694,242,60,1,3,174,85,562786,0
562814,3,-3813,-486,-1349,-1700,14,3763,-1306,41,-213,-2688,35458,23,35,127,0,0,1389,-527,0,1597,694,242,70,1,3,174,85,562786,0
562824,309,-2923,-1932,-1063,-822,51,3242,-1079,286,-168,-1992,35468,3,34,127,0,0,1360,-214,0,1597,694,242,80,1,3,174,85,562786,0
562834,668,-1780,-1769,-682,317,-139,2835,-824,389,-173,-1488,35471,1,34,127,0,0,1334,-318,0,1597,694,242,90,1,3,174,85,562817,0
562844,1494,-1650,-953,-732,573,126,2522,-638,400,-244,-1080,35470,-15,34,127,0,0,1321,-87,0,1597,694,242,100,1,3,174,85,562817,0
562854,1758,-1331,151,-695,237,551,2286,-470,323,-242,-640,35467,-19,35,127,0,0,1317,-16,0,1597,694,242,110,1,3,174,85,562862,0
562864,1584,-1695,520,-515,-56,675,2135,-331,284,-268,-320,35471,-38,34,127,0,0,1318,-16,0,1597,694,242,120,1,3,174,85,562862,0
562874,1439,-2169,280,12,-234,744,2041,-170,284,-306,-136,35472,-27,35,127,0,0,1321,38,0,1597,694,242,130,1,3,174,85,562862,0
562884,1324,-2021,0,174,-175,828,2005,-44,258,-219,-40,35471,-12,34,127,0,0,1323,76,0,1597,694,242,140,1,3,174,85,562862,0
562894,1451,-2414,-519,169,-141,1281,2018,55,196,140,216,35465,-19,34,127,0,0,1354,373,0,1597,694,242,150,1,3,174,85,562862,0
562904,943,-2219,-459,260,61,1451,2102,230,231,447,480,35471,-40,35,127,0,0,1405,483,0,1597,694,242,160,1,3,174,85,562877,0
562914,883,-2234,-154,328,437,1482,2249,347,262,532,784,35478,-34,35,127,0,0,1456,554,0,1597,694,242,170,1,3,174,85,562893,0
562924,1088,-2280,175,429,587,1521,2432,423,171,573,1096,35480,-23,35,127,0,0,1520,648,0,1597,694,242,180,1,3,174,85,562909,0
562934,1361,-2137,454,397,462,1840,2658,526,145,646,1408,35477,-30,34,127,0,0,1599,856,0,1597,694,242,190,1,3,174,85,562909,0
562944,1401,-1965,506,347,267,2076,2939,650,191,724,1752,35476,-25,34,127,0,0,1690,922,0,1597,694,242,200,1,3,174,85,562940,0
562954,1202,-1900,344,349,61,2292,3282,789,215,758,2128,35478,-23,34,127,0,0,1794,1060,0,1597,694,242,210,1,3,174,85,562940,0
562964,1018,-1900,285,396,38,2357,3685,919,233,716,2400,35476,6,34,127,0,0,1906,1153,0,1597,694,242,220,1,3,174,85,562940,0
562974,983,-1824,249,400,111,2401,4133,990,198,658,2544,35466,19,34,127,0,0,2019,1142,0,1597,694,242,230,1,3,174,85,562940,0
562984,994,-1805,280,337,95,2464,4603,1048,111,634,2648,35469,16,35,127,0,0,2136,1148,0,1597,694,242,240,1,3,174,85,562971,0
562994,935,-1842,352,239,-8,2587,5091,1089,74,664,2832,35470,18,34,127,0,0,2267,1323,0,1597,694,242,250,1,3,174,85,562971,0
563004,793,-1836,335,251,-21,2582,5604,1141,84,639,2888,35471,15,35,127,0,0,2385,1186,0,1597,694,242,260,1,3,174,85,562971,0
563014,737,-1737,349,310,-31,2453,6130,1157,70,576,2840,35457,28,35,127,0,0,2491,1076,0,1597,694,242,270,1,3,174,85,563081,0
563024,704,-1730,351,308,-117,2368,6656,1154,16,600,2816,35452,34,35,127,0,0,2598,988,0,1597,694,242,280,1,3,174,85,563096,0
563034,594,-1805,467,308,-250,2255,7178,1138,-8,572,2736,35457,16,34,127,0,0,2701,994,0,1597,694,242,290,1,3,174,85,563096,0
563044,508,-1821,502,305,-294,2118,7694,1133,-18,526,2600,35460,14,35,127,0,0,2798,928,0,1597,694,242,300,1,3,174,85,563096,0
563054,386,-1787,497,261,-319,1872,8197,1099,-37,500,2496,35465,13,34,127,0,0,2889,895,0,1597,694,242,310,1,3,174,85,563096,0
563064,401,-1725,422,226,-288,1667,8678,1031,-67,392,2296,35462,7,34,127,0,0,2971,867,0,1597,694,242,320,1,3,174,85,563112,0
563074,427,-1620,361,173,-290,1387,9121,952,-115,428,2152,35461,-4,35,127,0,0,3042,785,0,1597,694,242,330,1,3,174,85,563112,0
563084,363,-1506,382,94,-313,1226,9537,902,-120,435,1984,35469,-12,34,127,0,0,3103,598,0,1597,694,242,340,1,3,174,85,563112,0
563094,434,-1280,390,80,-262,880,9921,818,-112,388,1768,35471,-10,35,127,0,0,3157,521,0,1597,694,242,350,1,3,174,85,563112,0
563104,577,-1123,189,90,-292,598,10270,753,-132,318,1368,35471,-8,35,127,0,0,3184,208,0,1597,694,242,360,1,3,174,85,563112,0
563114,550,-1165,140,28,-462,322,10565,604,-171,227,928,35470,-19,35,127,0,0,3197,98,0,1597,694,242,370,1,3,174,85,563112,0
563124,324,-1360,181,63,-529,178,10796,476,-234,221,520,35477,-17,35,127,0,0,3188,-49,0,1597,694,242,380,1,3,174,85,563112,0
563134,258,-1488,205,40,-424,-344,10952,296,-266,81,24,35492,-35,35,127,0,0,3170,-263,0,1597,694,242,390,1,3,174,85,563112,0
563144,88,-1544,173,-25,-471,-469,10945,-160,-475,-372,-304,35509,-43,35,127,0,0,3132,-351,0,1597,694,242,400,1,3,174,85,563112,0
563154,4,-1793,0,32,-162,-938,10828,-286,-535,-475,-584,35521,-53,35,127,0,0,3075,-549,0,1597,694,242,410,1,3,174,85,563143,0
563164,370,-1961,-53,0,27,-1160,10675,-353,-241,-583,-920,35519,-19,35,127,0,0,3002,-719,0,1597,694,242,420,1,3,174,85,563143,0
563174,639,-1820,93,19,248,-1284,10479,-481,-155,-751,-1248,35503,0,35,127,0,0,2933,-692,0,1597,694,242,430,1,3,174,85,563159,0
563184,860,-1792,118,39,294,-1325,10232,-558,-185,-652,-1408,35483,-4,34,127,0,0,2861,-752,0,1597,694,242,440,1,3,174,85,563159,0
563194,1223,-2004,197,89,242,-1106,9953,-631,-146,-617,-1496,35476,-2,35,127,0,0,2796,-708,0,1597,694,242,450,1,3,174,85,563174,0
563204,1256,-1992,376,133,126,-868,9653,-691,-97,-578,-1544,35480,-11,35,127,0,0,2737,-582,0,1597,694,242,460,1,3,174,85,563190,0
563214,1108,-2412,677,71,-125,-495,9352,-664,-48,-461,-1408,35483,-9,35,127,0,0,2687,-461,0,1597,694,242,470,1,3,174,85,563190,0
563224,906,-2737,747,-68,-227,-211,9071,-598,35,-380,-1168,35486,-11,34,127,0,0,2655,-329,0,1597,694,242,480,1,3,174,85,563205,0
563234,613,-2992,744,-258,-310,109,8826,-506,118,-316,-792,35489,-24,34,127,0,0,2652,-49,0,1597,694,242,490,1,3,174,85,563221,0
563244,199,-3042,548,-305,-275,180,8640,-365,188,-283,-368,35489,-36,35,127,0,0,2663,131,0,1597,694,242,500,1,3,174,85,563221,0
563254,512,-3369,314,-374,-319,455,8540,-100,294,380,256,35492,-39,35,127,0,0,2714,455,0,1597,694,242,510,1,3,174,85,563221,0
563264,111,-3384,147,-428,-517,824,8643,303,582,530,752,35496,-41,35,127,0,0,2800,906,0,1597,694,242,520,1,3,174,85,563252,0
563274,-192,-3523,375,-590,-608,1002,8834,472,538,724,1440,35492,-39,34,127,0,0,2916,1224,0,1597,694,242,530,1,3,174,85,563252,0
563284,-369,-3660,389,-583,-718,966,9140,766,386,973,2280,35481,-13,34,127,0,0,3080,1636,0,1597,694,242,540,1,3,174,85,563252,0
563294,-720,-3946,391,-546,-698,842,9598,1128,528,1147,3272,35478,31,35,127,0,0,3275,1933,0,1597,694,242,550,1,3,174,85,563268,0
563304,-870,-4262,616,-378,-718,626,10237,1525,650,1172,4168,35468,77,35,127,0,0,3492,2109,0,1597,694,242,560,1,3,174,85,563268,0
563314,-1231,-4527,883,-167,-1143,429,11046,1872,672,1030,4912,35457,106,34,127,0,0,3725,2395,0,1597,694,242,570,1,3,174,85,563299,0
563324,-1083,-4655,1228,-111,-1640,63,12003,2224,604,1225,5792,35440,127,35,127,0,0,3984,2559,0,1597,694,242,580,1,3,174,85,563299,0
563334,-1367,-4758,1376,-241,-2317,-200,13088,2439,529,1045,6440,35435,138,34,127,0,0,4270,2867,0,1597,694,242,590,1,3,174,85,563299,0
563344,-746,-4078,1382,-389,-2230,-1047,14270,2697,411,1155,7184,35429,174,35,127,0,0,4564,2905,0,1597,694,242,600,1,3,174,85,563330,0
563354,749,-3517,576,-690,-1820,-2559,15602,3003,488,652,7016,35435,167,35,127,0,0,4764,1944,0,1597,694,242,610,1,3,174,85,563346,0
563364,2247,-4241,961,-839,-2390,-4011,16919,2796,223,146,5696,35440,132,35,127,0,0,4853,708,0,1597,694,242,620,1,3,174,85,563346,0
563374,1219,-5313,1589,-366,-3268,-3374,18016,2238,-533,-96,4320,35456,41,35,127,0,0,4951,1104,0,1597,694,242,630,1,3,174,85,563346,0
563384,1067,-6114,762,-331,-2012,-5525,18908,1851,-833,-119,2872,35474,16,34,127,0,0,4920,-626,0,1597,694,242,640,1,3,174,85,563362,0
563394,1084,-5409,875,83,-972,-6788,19553,1169,-863,-978,160,35487,-17,35,127,0,0,4783,-1389,0,1597,694,242,650,0,3,174,85,563377,0
563404,1545,-4901,1130,-176,-859,-6562,19569,-453,-1791,-1779,-1528,35482,-23,35,127,0,0,4639,-1290,0,1597,694,242,660,0,3,174,85,563377,0
563414,571,-4056,1110,-373,-1117,-6667,19235,-820,-1895,-831,-2200,35471,-25,35,127,0,0,4529,-1082,0,1597,694,242,670,0,3,174,85,563455,0
563424,834,-3584,693,-446,-1318,-7096,18798,-1003,-698,-690,-2608,35479,-34,35,127,0,0,4402,-1263,0,1597,694,242,680,0,3,174,85,563471,0
563434,1498,-3171,201,-475,-1533,-6931,18291,-1156,-313,-640,-2904,35478,1,35,127,0,0,4279,-1219,0,1597,694,242,690,0,3,174,85,563471,0
563444,1466,-2872,250,-430,-1614,-6595,17734,-1250,-229,-543,-3072,35467,1,34,127,0,0,4152,-1263,0,1597,694,242,700,0,3,174,85,563471,0
563454,998,-2161,323,-415,-1731,-6320,17141,-1332,-155,-557,-3264,35463,9,34,127,0,0,4015,-1417,0,1597,694,242,710,0,3,174,85,563471,0
563464,977,-1915,353,-467,-1810,-6138,16512,-1413,-145,-577,-3456,35469,3,35,127,0,0,3878,-1422,0,1597,694,242,720,0,3,174,85,563487,0
563474,1035,-1716,278,-443,-1942,-5534,15832,-1524,-168,-605,-3712,35475,12,34,127,0,0,3722,-1488,0,1597,694,242,730,0,3,174,85,563487,0
563484,906,-1405,209,-375,-1976,-5067,15118,-1592,-156,-689,-3960,35464,25,34,127,0,0,3559,-1576,0,1597,694,242,740,0,3,174,85,563487,0
563494,625,-781,188,-246,-1901,-4468,14374,-1653,-129,-749,-4224,35453,41,35,127,0,0,3378,-1889,0,1597,694,242,750,0,3,174,85,563487,0
563504,606,-290,126,-168,-1817,-4056,13586,-1772,-148,-861,-4816,35454,68,35,127,0,0,3171,-2191,0,1597,694,242,760,0,3,174,85,563487,0
563514,392,371,-86,-78,-1769,-3184,12695,-2051,-300,-929,-5352,35462,105,35,127,0,0,2922,-2521,0,1597,694,242,770,0,3,174,85,563487,0
563524,1,531,-132,-26,-1955,-2361,11683,-2286,-447,-726,-5480,35471,110,34,127,0,0,2713,-2136,0,1597,694,242,780,0,3,174,85,563487,0
563534,-378,516,0,196,-2113,-1205,10645,-2255,-253,-474,-5264,35468,113,34,127,0,0,2530,-1884,0,1597,694,242,790,0,3,174,85,563534,0
563544,-689,308,29,399,-2076,-500,9664,-2108,102,-447,-4912,35460,55,34,127,0,0,2356,-1625,0,1597,694,242,800,0,3,174,85,563534,0
563554,-911,361,209,774,-1799,621,8749,-1966,245,-333,-4424,35449,42,34,127,0,0,2214,-1400,0,1597,694,242,810,0,3,174,85,563534,0
563564,-930,554,34,1047,-1394,1204,7913,-1775,278,-304,-3928,35453,28,35,127,0,0,2083,-1252,0,1597,694,242,820,0,3,174,85,563534,0
563574,-998,782,-332,1391,-614,2099,7166,-1587,329,-316,-3544,35465,-6,34,127,0,0,1969,-1142,0,1597,694,242,830,0,3,174,85,563565,0
563584,-1198,957,-500,1602,-64,2792,6497,-1430,315,-325,-3160,35472,-6,34,127,0,0,1866,-939,0,1597,694,242,840,0,3,174,85,563565,0
563594,-1351,992,-598,1853,999,3628,5910,-1234,302,-256,-2696,35474,-22,34,127,0,0,1802,-675,0,1597,694,242,850,0,3,174,85,563565,0
563604,-1201,877,-638,2002,1964,4048,5415,-1029,334,-280,-2248,35467,0,34,127,0,0,1745,-538,0,1597,694,242,860,0,3,174,85,563580,0
563614,-1257,888,-725,2098,3496,4531,4994,-874,316,-324,-1896,35461,13,34,127,0,0,1697,-483,0,1597,694,242,870,0,3,174,85,563596,0
563624,-1184,855,-703,2060,4417,4798,4632,-764,244,-346,-1568,35460,-3,35,127,0,0,1657,-390,0,1597,694,242,880,0,3,174,85,563596,0
563634,-569,641,-549,1882,5478,5272,4326,-632,210,-310,-1168,35468,2,35,127,0,0,1652,-109,0,1597,694,242,890,0,3,174,85,563612,0
563644,71,686,-460,1717,6030,5408,4091,-476,246,-260,-656,35470,-28,34,127,0,0,1657,27,0,1597,694,242,900,0,3,174,85,563612,0
563654,949,427,-318,1267,5939,5822,3916,-335,251,-85,-48,35472,-30,34,127,0,0,1695,455,0,1597,694,242,910,0,3,174,85,563643,0
563664,1623,233,13,957,5672,5886,3924,188,494,734,552,35465,-48,35,127,0,0,1756,692,0,1597,694,242,920,0,3,174,85,563643,0
563674,2979,376,325,327,4927,5591,4084,387,662,590,1048,35478,-59,34,127,0,0,1839,802,0,1597,694,242,930,0,3,174,85,563643,0
563684,3390,109,291,-206,4205,5109,4305,519,356,637,1352,35472,-47,35,127,0,0,1911,758,0,1597,694,242,940,0,3,174,85,563658,0
563694,3985,-280,-45,-746,3419,4119,4579,628,212,566,1560,35479,-37,34,127,0,0,1994,823,0,1597,694,242,950,0,3,174,85,563690,0
563704,4057,-373,-355,-994,3126,3343,4888,702,161,571,1784,35468,-33,34,127,0,0,2087,939,0,1597,694,242,960,0,3,174,85,563690,0
563714,4043,-466,-412,-1177,2932,1793,5231,773,133,598,1992,35471,-32,35,127,0,0,2180,933,0,1597,694,242,970,0,3,174,85,563690,0
563724,7225,-2400,-473,-1216,1275,-377,5616,893,148,495,2184,35462,-20,34,127,0,0,2269,851,0,1597,694,242,980,0,3,174,85,563705,0
563734,7947,-3431,1401,29,2216,-4152,6015,817,107,24,744,35473,-22,35,127,0,0,2136,-1433,0,1691,548,243,6,1,3,145,84,563705,0
563744,2608,-770,324,-1023,2045,-2250,6125,-202,-620,-1853,-808,35483,-27,34,127,0,0,2042,-752,0,1691,548,243,16,1,3,145,84,563830,0
563754,-2835,888,1318,-2230,-1010,-1070,5938,-407,-1223,-366,-816,35486,-24,35,127,0,0,1997,-593,0,1691,548,243,26,1,3,145,84,563830,0
563764,-910,-989,-748,-1923,-1246,-1471,5754,-404,-383,-542,-984,35483,-19,35,127,0,0,1933,-697,0,1691,548,243,36,1,3,145,84,563830,0
563774,850,-4126,146,642,-147,-2855,5537,-560,-21,-1089,-1984,35476,-20,34,127,0,0,1764,-1741,0,1691,548,243,46,1,3,145,84,563830,0
563784,3055,-1637,1300,795,-776,-1826,5152,-925,-441,-824,-2376,35462,-16,34,127,0,0,1672,-922,0,1691,548,243,56,1,3,145,84,563830,0
563794,2583,-1176,1228,-1420,-1967,-465,4710,-989,-445,-487,-2256,35469,-20,35,127,0,0,1610,-565,0,1691,548,243,66,1,3,145,84,563846,0
563804,997,-2576,-70,-1942,-2025,-38,4287,-891,-63,-335,-1904,35472,9,35,127,0,0,1568,-379,0,1691,548,243,76,1,3,145,84,563846,0
563814,270,-1960,-1553,-1082,-843,-436,3926,-746,158,-283,-1472,35475,-20,35,127,0,0,1533,-302,0,1691,548,243,86,1,3,145,84,563846,0
563824,590,-1684,-1622,-542,425,-1012,3627,-612,245,-385,-1400,35465,-12,35,127,0,0,1473,-675,0,1691,548,243,96,1,3,145,84,563846,0
563834,1992,-1928,-235,-278,1097,-754,3339,-653,144,-640,-1568,35456,-18,35,127,0,0,1409,-593,0,1691,548,243,106,1,3,145,84,563846,0
563844,2751,-1563,480,-592,436,58,3029,-678,-34,-425,-1360,35461,-21,34,127,0,0,1378,-291,0,1691,548,243,116,1,3,145,84,563862,0
563854,1903,-1728,597,-919,-588,862,2758,-556,29,-308,-928,35464,-24,35,127,0,0,1377,-5,0,1691,548,243,126,1,3,145,84,563862,0
563864,1137,-2145,484,-614,-615,895,2568,-427,205,-267,-504,35464,-34,34,127,0,0,1380,5,0,1691,548,243,136,1,3,145,84,563862,0
563874,988,-2134,-499,-171,-97,737,2426,-262,266,-220,-168,35468,-31,34,127,0,0,1385,49,0,1691,548,243,146,1,3,145,84,563862,0
563884,1086,-1935,-571,-93,100,925,2374,-35,313,128,64,35485,-55,35,127,0,0,1399,126,0,1691,548,243,156,1,3,145,84,563862,0
563894,1348,-1916,-394,-17,274,1188,2424,137,368,301,224,35507,-62,34,127,0,0,1423,252,0,1691,548,243,166,1,3,145,84,563862,0
563904,1127,-1900,-155,129,317,1296,2509,205,242,371,360,35519,-45,35,127,0,0,1455,307,0,1691,548,243,176,1,3,145,84,563908,0
563914,1126,-1929,296,274,353,1381,2622,268,116,470,504,35505,-58,35,127,0,0,1494,324,0,1691,548,243,186,1,3,145,84,563924,0
563924,1303,-1848,402,264,315,1491,2756,315,92,547,680,35493,-54,35,127,0,0,1539,455,0,1691,548,243,196,1,3,145,84,563924,0
563934,1433,-1816,250,247,193,1788,2917,365,97,564,888,35479,-56,35,127,0,0,1589,543,0,1691,548,243,206,1,3,145,84,563924,0
563944,1318,-1734,165,273,143,1998,3110,444,111,650,1120,35473,-19,34,127,0,0,1652,631,0,1691,548,243,216,1,3,145,84,563924,0
563954,1205,-1579,219,331,209,2120,3339,520,134,607,1312,35462,-6,34,127,0,0,1712,642,0,1691,548,243,226,1,3,145,84,563924,0
563964,1205,-1591,315,332,294,2156,3601,595,129,590,1400,35467,-20,35,127,0,0,1775,615,0,1691,548,243,236,1,3,145,84,563940,0
563974,1174,-2429,-39,95,364,2379,3878,610,88,588,1456,35481,-25,34,127,0,0,1833,631,0,1691,548,243,246,1,3,145,84,563955,0
563984,402,-1709,1247,-542,-76,3315,4157,628,31,770,1856,35489,-19,35,127,0,0,1957,1340,0,1691,548,243,256,1,3,145,84,563971,0
563994,274,-415,62,347,616,2280,4506,791,151,544,1696,35474,-4,34,127,0,0,1998,390,0,1691,548,243,266,1,3,145,84,563971,0
564004,2692,-2052,708,115,771,2300,4841,724,95,445,1632,35465,3,34,127,0,0,2054,532,0,1691,548,243,276,1,3,145,84,563971,0
564014,1762,-1905,478,134,-534,3056,5144,658,-104,519,1648,35473,-26,35,127,0,0,2135,862,0,1691,548,243,286,1,3,145,84,563987,0
564024,469,-1891,629,-96,-519,3302,5453,691,-37,700,1840,35486,-16,35,127,0,0,2230,994,0,1691,548,243,296,1,3,145,84,564002,0
564034,23,-2195,311,-173,-82,3010,5793,762,81,682,2016,35486,-24,35,127,0,0,2320,928,0,1691,548,243,306,1,3,145,84,564033,0
564044,95,-2296,168,-65,102,2775,6166,819,123,587,1992,35474,0,34,127,0,0,2398,802,0,1691,548,243,316,1,3,145,84,564033,0
564054,403,-1960,379,59,76,2587,6538,813,48,564,1960,35469,-22,35,127,0,0,2481,834,0,1691,548,243,326,1,3,145,84,564033,0
564064,530,-1645,154,187,-50,2443,6912,829,1,591,1976,35473,-11,35,127,0,0,2553,736,0,1691,548,243,336,1,3,145,84,564033,0
564074,232,-1617,-189,153,-308,2247,7283,809,-1,536,1872,35482,-15,35,127,0,0,2621,620,0,1691,548,243,346,1,3,145,84,564049,0
564084,-156,-1942,-18,185,-244,1968,7647,793,-30,481,1736,35483,-26,34,127,0,0,2681,609,0,1691,548,243,356,1,3,145,84,564065,0
564094,-381,-2205,341,110,251,1445,7986,735,-58,414,1544,35486,-39,34,127,0,0,2731,450,0,1691,548,243,366,1,3,145,84,564065,0
564104,-210,-2157,501,15,555,1114,8300,669,-94,346,1304,35481,-50,35,127,0,0,2772,433,0,1691,548,243,376,1,3,145,84,564096,0
564114,144,-1907,676,-116,361,758,8574,566,-134,333,1024,35484,-31,34,127,0,0,2798,291,0,1691,548,243,386,1,3,145,84,564112,0
564124,279,-1780,733,-219,174,579,8798,472,-174,334,856,35476,-42,34,127,0,0,2816,208,0,1691,548,243,396,1,3,145,84,564112,0
564134,107,-1734,740,-262,-104,176,8992,403,-147,337,592,35476,-47,35,127,0,0,2833,115,0,1691,548,243,406,1,3,145,84,564112,0
564144,-119,-1758,693,-290,-229,-91,9143,301,-140,306,328,35481,-47,34,127,0,0,2831,16,0,1691,548,243,416,1,3,145,84,564112,0
564154,40,-1751,622,-381,-228,-630,9248,183,-173,118,8,35500,-45,35,127,0,0,2811,-258,0,1691,548,243,426,1,3,145,84,564205,0
564164,188,-1713,467,-429,-344,-886,9218,-165,-367,-285,-232,35499,-18,34,127,0,0,2782,-329,0,1691,548,243,436,1,3,145,84,564205,0
564174,68,-1769,128,-429,-301,-1291,9118,-226,-390,-433,-472,35491,-1,34,127,0,0,2730,-510,0,1691,548,243,446,1,3,145,84,564205,0
564184,42,-1699,66,-482,-179,-1559,8992,-309,-146,-579,-720,35483,-16,35,127,0,0,2674,-604,0,1691,548,243,456,1,3,145,84,564205,0
564194,100,-1801,103,-487,-2,-1892,8823,-394,-140,-647,-1008,35492,-14,35,127,0,0,2601,-780,0,1691,548,243,466,1,3,145,84,564221,0
564204,405,-1938,134,-463,12,-2006,8608,-512,-167,-683,-1280,35490,-18,35,127,0,0,2533,-703,0,1691,548,243,476,1,3,145,84,564221,0
564214,872,-1875,49,-331,-49,-1948,8350,-595,-180,-654,-1448,35483,-16,35,127,0,0,2454,-719,0,1691,548,243,486,1,3,145,84,564221,0
564224,1243,-1844,-86,-267,-72,-1784,8061,-655,-137,-610,-1512,35476,-11,35,127,0,0,2389,-648,0,1691,548,243,496,1,3,145,84,564221,0
564234,1128,-2121,156,-221,-139,-1389,7756,-669,-80,-517,-1520,35480,-21,34,127,0,0,2328,-598,0,1691,548,243,506,1,3,145,84,564221,0
564244,1087,-2337,409,-260,-109,-1117,7449,-661,-28,-434,-1376,35480,-2,35,127,0,0,2278,-466,0,1691,548,243,516,1,3,145,84,564221,0
564254,1126,-2679,504,-309,-168,-644,7165,-606,45,-362,-1112,35485,-24,35,127,0,0,2250,-263,0,1691,548,243,526,1,3,145,84,564221,0
564264,1200,-2765,465,-416,-328,-250,6917,-509,113,-244,-704,35497,-23,35,127,0,0,2248,60,0,1691,548,243,536,1,3,145,84,564252,0
564274,326,-3211,330,-436,-540,173,6729,-363,194,-139,-160,35504,-22,35,127,0,0,2273,302,0,1691,548,243,546,1,3,145,84,564252,0
564284,410,-3639,417,-526,-365,400,6674,29,387,681,440,35500,-9,34,127,0,0,2336,686,0,1691,548,243,556,1,3,145,84,564252,0
564294,187,-3722,404,-693,-455,863,6809,357,648,633,1048,35489,-6,34,127,0,0,2441,1060,0,1691,548,243,566,1,3,145,84,564283,0
564304,-49,-3630,395,-713,-572,1049,7040,591,520,1022,1864,35491,-9,35,127,0,0,2588,1516,0,1691,548,243,576,1,3,145,84,564283,0
564314,-372,-3669,-38,-790,-660,1240,7416,924,475,1102,2720,35487,-6,35,127,0,0,2770,1867,0,1691,548,243,586,1,3,145,84,564299,0
564324,-646,-3610,83,-812,-724,1211,7954,1296,601,1177,3640,35474,36,35,127,0,0,2987,2208,0,1691,548,243,596,1,3,145,84,564299,0
564334,-1181,-3754,513,-688,-732,770,8668,1689,654,1189,4600,35448,76,35,127,0,0,3244,2620,0,1691,548,243,606,1,3,145,84,564330,0
564344,-1459,-3847,915,-655,-959,518,9559,2076,680,1238,5552,35432,125,35,127,0,0,3506,2686,0,1691,548,243,616,1,3,145,84,564330,0
564354,-1506,-4551,1339,-669,-1363,-318,10617,2424,653,1062,6312,35424,130,35,127,0,0,3774,2746,0,1691,548,243,626,1,3,145,84,564330,0
564364,-1804,-4894,1572,-484,-1546,-701,11818,2700,583,931,6768,35418,156,34,127,0,0,4047,2713,0,1691,548,243,636,1,3,145,84,564330,0
564374,-830,-4558,1315,-614,-1745,-1374,13081,2796,367,937,7200,35428,163,35,127,0,0,4335,2883,0,1691,548,243,646,1,3,145,84,564361,0
564384,-36,-4315,1017,-822,-1840,-2318,14386,2912,186,754,7384,35433,153,35,127,0,0,4578,2416,0,1691,548,243,656,1,3,145,84,564361,0
564394,1512,-4477,772,-910,-1458,-3264,15736,2970,169,327,6600,35442,129,35,127,0,0,4735,1455,0,1691,548,243,666,1,3,145,84,564361,0
564404,694,-4306,974,-803,-1247,-3608,16987,2621,-143,25,5360,35456,68,35,127,0,0,4842,1159,0,1691,548,243,676,1,3,145,84,564408,0
564414,1165,-5077,641,-723,321,-5969,18034,2151,-640,-172,3408,35468,34,34,127,0,0,4807,-554,0,1691,548,243,686,1,3,145,84,564408,0
564424,1003,-5145,1041,-557,578,-6535,18790,1387,-984,-978,816,35479,-14,34,127,0,0,4713,-999,0,1691,548,243,696,0,3,145,84,564408,0
564434,1015,-4421,1314,-744,226,-6505,19024,-18,-1644,-2124,-760,35477,-39,35,127,0,0,4629,-725,0,1691,548,243,706,0,3,145,84,564408,0
564444,826,-3939,1064,-825,103,-6966,18833,-465,-1858,-500,-1080,35486,-64,34,127,0,0,4565,-670,0,1691,548,243,716,0,3,145,84,564408,0
564454,1643,-3526,275,-757,-70,-7118,18591,-553,-754,-439,-1280,35491,-41,35,127,0,0,4505,-653,0,1691,548,243,726,0,3,145,84,564440,0
564464,1707,-3271,199,-618,-213,-6918,18319,-629,-137,-524,-1504,35482,-11,35,127,0,0,4419,-785,0,1691,548,243,736,0,3,145,84,564440,0
564474,1393,-2698,414,-463,-323,-6656,18004,-715,-142,-558,-1760,35474,-2,35,127,0,0,4336,-900,0,1691,548,243,746,0,3,145,84,564440,0
564484,1295,-2341,463,-441,-429,-6539,17648,-815,-162,-613,-2064,35475,-8,34,127,0,0,4233,-1038,0,1691,548,243,756,0,3,145,84,564471,0
564494,1394,-2059,278,-426,-624,-6133,17236,-951,-195,-668,-2408,35480,-9,35,127,0,0,4124,-1120,0,1691,548,243,766,0,3,145,84,564471,0
564504,1426,-1817,181,-353,-687,-5758,16758,-1094,-240,-640,-2696,35473,19,34,127,0,0,4000,-1219,0,1691,548,243,776,0,3,145,84,564486,0
564514,1158,-1313,137,-204,-842,-5131,16223,-1218,-232,-671,-3056,35459,25,34,127,0,0,3854,-1422,0,1691,548,243,786,0,3,145,84,564486,0
564524,1060,-995,109,-156,-945,-4720,15614,-1384,-256,-749,-3520,35451,30,35,127,0,0,3688,-1686,0,1691,548,243,796,0,3,145,84,564486,0
564534,1005,-518,45,-110,-1166,-4059,14930,-1563,-291,-902,-4064,35459,51,35,127,0,0,3506,-1840,0,1691,548,243,806,0,3,145,84,564533,0
564544,834,-322,12,-73,-1353,-3522,14170,-1715,-291,-904,-4584,35457,66,35,127,0,0,3300,-2109,0,1691,548,243,816,0,3,145,84,564533,0
564554,462,-57,13,36,-1842,-2447,13317,-1938,-322,-908,-5056,35445,89,34,127,0,0,3097,-2043,0,1691,548,243,826,0,3,145,84,564549,0
564564,186,111,0,154,-2174,-1721,12382,-2094,-337,-618,-5088,35432,80,34,127,0,0,2911,-1878,0,1691,548,243,836,0,3,145,84,564549,0
564574,-66,321,14,372,-2521,-701,11427,-2080,-174,-362,-4720,35442,61,35,127,0,0,2757,-1576,0,1691,548,243,846,0,3,145,84,564549,0
564584,-194,435,2,550,-2625,23,10536,-1894,114,-270,-4256,35460,41,34,127,0,0,2621,-1411,0,1691,548,243,856,0,3,145,84,564549,0
564594,-500,640,-60,870,-2638,1130,9741,-1697,324,-342,-3816,35463,15,34,127,0,0,2499,-1115,0,1691,548,243,866,0,3,145,84,564580,0
564604,-699,800,-105,1075,-2576,1819,9023,-1527,326,-318,-3424,35467,-8,35,127,0,0,2391,-1032,0,1691,548,243,876,0,3,145,84,564580,0
564614,-826,911,-168,1359,-2214,2700,8381,-1360,294,-313,-2960,35463,-10,34,127,0,0,2302,-939,0,1691,548,243,886,0,3,145,84,564580,0
564624,-984,824,-248,1541,-1760,3232,7813,-1195,293,-380,-2656,35468,-19,34,127,0,0,2204,-966,0,1691,548,243,896,0,3,145,84,564596,0
564634,-1213,747,-310,1848,-869,4066,7300,-1088,249,-396,-2400,35470,-8,34,127,0,0,2129,-725,0,1691,548,243,906,0,3,145,84,564611,0
564644,-1280,830,-347,2028,-134,4527,6842,-968,210,-339,-2016,35464,1,34,127,0,0,2076,-494,0,1691,548,243,916,0,3,145,84,564611,0
564654,-1266,834,-502,2211,1107,5061,6452,-805,240,-280,-1600,35470,-3,34,127,0,0,2041,-335,0,1691,548,243,926,0,3,145,84,564627,0
564664,-1097,891,-592,2319,2018,5347,6137,-647,277,-264,-1176,35476,-14,35,127,0,0,2013,-236,0,1691,548,243,936,0,3,145,84,564658,0
564674,-1025,742,-688,2413,3337,5635,5895,-474,286,-317,-880,35482,-13,34,127,0,0,1998,-175,0,1691,548,243,946,0,3,145,84,564658,0
564684,-736,584,-605,2370,4072,5783,5715,-357,261,-399,-592,35477,-16,34,127,0,0,1996,-10,0,1691,548,243,956,0,3,145,84,564658,0
564694,-45,173,-333,2177,5143,5826,5587,-247,214,-389,-280,35465,-31,35,127,0,0,1994,49,0,1691,548,243,966,0,3,145,84,564658,0
564704,567,-15,-167,1928,5567,5831,5515,-127,205,-279,-112,35471,-61,35,127,0,0,2009,148,0,1691,548,243,976,0,3,145,84,564689,0
564714,1465,-233,223,1401,5548,5717,5518,69,255,48,64,35475,-64,35,127,0,0,2026,181,0,1691,548,243,986,0,3,145,84,564689,0
564724,2258,-401,396,1011,5172,5490,5576,142,249,278,240,35471,-62,35,127,0,0,2064,384,0,1691,548,243,996,0,3,145,84,564689,0
564734,3217,-688,301,510,4355,4800,5677,246,168,391,432,35473,-54,35,127,0,0,2106,444,0,1691,548,243,1006,0,3,145,84,564721,0
564744,3703,-779,237,254,3693,4108,5807,309,138,475,616,35479,-52,35,127,0,0,2154,466,0,1691,548,243,1016,0,3,145,84,564721,0
564754,4125,-961,188,-162,2585,2828,5961,346,106,488,712,35481,-30,34,127,0,0,2201,494,0,1691,548,243,1026,0,3,145,84,564752,0
564764,4212,-1043,228,-355,1927,1881,6132,379,31,463,792,35468,-15,34,127,0,0,2244,483,0,1691,548,243,1036,0,3,145,84,564752,0
564774,4048,-942,276,-601,1131,459,6308,395,16,483,832,35460,-17,35,127,0,0,2291,532,0,1691,548,243,1046,0,3,145,84,564768,0
564784,3567,-452,163,-805,663,-313,6493,418,67,489,912,35465,-29,34,127,0,0,2342,571,0,1691,548,243,1056,0,3,145,84,564768,0
564794,2943,76,-109,-846,413,-1220,6691,449,43,599,1160,35468,-42,35,127,0,0,2414,725,0,1691,548,243,1066,0,3,145,84,564768,0
564804,2369,726,-355,-874,439,-1519,6932,558,98,758,1576,35480,-37,34,127,0,0,2522,1104,0,1691,548,243,1076,0,3,145,84,564783,0
564814,3111,-2807,-309,8,4209,-4395,7255,744,248,392,576,35484,-37,34,127,0,0,2357,-2411,0,1691,548,243,1086,0,3,145,84,564783,0
564824,-1028,2618,461,-171,1762,-4010,7232,-637,-449,-2817,-2496,35482,-31,35,127,0,0,2044,-2894,0,1488,510,244,8,1,3,188,72,564799,0
564834,4533,-2937,-357,-1230,-384,-3997,6693,-1392,-1790,-1674,-4416,35470,23,35,127,0,0,1680,-3911,0,1488,510,244,18,1,3,188,72,564814,0
564844,2719,-6756,1214,-655,-2246,-1283,5786,-2212,-1673,-1676,-5704,35439,117,35,127,0,0,1449,-2103,0,1488,510,244,28,1,3,188,72,564814,0
564854,-1321,-5043,1593,-1188,-1831,-1081,4736,-2313,-1008,-585,-5688,35430,148,35,127,0,0,1286,-1543,0,1488,510,244,38,1,3,188,72,564861,0
564864,-911,-6343,962,-2321,-790,-965,3810,-2239,-202,-247,-4896,35430,128,34,127,0,0,1189,-911,0,1488,510,244,48,1,3,188,72,564924,0
