state_time,accelx,accely,accelz,gyrox,gyroy,gyroz,mot_ang,mot_vel,mot_acc,mot_cur,mot_volt,batt_volt,batt_curr,temperature,status_mn,status_ex,status_re,ank_ang,ank_vel,ank_torque,peak_ank_torque,step_energy,step_count,step_time,gait_state,movement,speed,incline,sys_time,eventFlags
361505,59,-2040,242,17,2,45,11558,18,-42,456,152,35576,31,34,127,0,0,3304,21,0,1164,6,169,28473,-4,0,91,0,361539,0
361515,57,-2048,255,16,2,42,11566,24,23,486,120,35581,9,34,127,0,0,3306,43,0,1164,6,169,28483,-4,0,91,0,361539,0
361525,48,-2044,260,8,-7,38,11584,45,23,433,192,35582,23,34,127,0,0,3309,32,0,1164,6,169,28493,-4,0,91,0,361539,0
361535,51,-2033,256,5,-13,39,11615,65,48,290,72,35580,22,34,127,0,0,3311,32,0,1164,6,169,28503,-4,0,91,0,361539,0
361545,38,-2030,244,1,-2,16,11617,-9,-32,399,160,35583,12,34,127,0,0,3313,43,0,1164,6,169,28513,-4,0,91,0,361555,0
361555,38,-2020,243,-6,4,18,11622,4,-51,429,136,35590,0,34,127,0,0,3315,21,0,1164,6,169,28523,-4,0,91,0,361555,0
361565,36,-2018,256,-4,-5,0,11623,-1,-3,499,192,35588,-5,34,127,0,0,3317,21,0,1164,6,169,28533,-4,0,91,0,361555,0
361575,34,-2030,260,-5,-6,-4,11637,42,14,473,168,35584,8,34,127,0,0,3320,0,0,1164,6,169,28543,-4,0,91,0,361555,0
361585,16,-2040,269,-18,-10,-16,11655,56,32,386,152,35571,10,34,127,0,0,3322,32,0,1164,6,169,28553,-4,0,91,0,361555,0
361595,30,-2037,254,-20,-5,-28,11689,69,44,201,80,35576,-13,34,127,0,0,3322,0,0,1164,6,169,28563,-4,0,91,0,361586,0
361605,1,-2051,250,-23,-13,-38,11692,-4,-41,246,40,35570,-15,34,127,0,0,3324,10,0,1164,6,169,28573,-4,0,91,0,361586,0
361615,2,-2061,250,-21,-7,-56,11693,24,-55,275,32,35566,-34,34,127,0,0,3324,10,0,1164,6,169,28583,-4,0,91,0,361601,0
361625,64,-2054,263,-24,-8,-56,11695,7,11,296,56,35565,-33,34,127,0,0,3322,-10,0,1164,6,169,28593,-4,0,91,0,361601,0
361635,72,-2041,257,-35,-10,-60,11692,-3,-6,237,64,35578,-55,34,127,0,0,3320,-10,0,1164,6,169,28603,-4,0,91,0,361633,0
361645,40,-2029,258,-32,-10,-72,11692,-10,-4,198,64,35589,-73,34,127,0,0,3320,10,0,1164,6,169,28613,-4,0,91,0,361633,0
361655,74,-2036,247,-33,-10,-70,11692,-7,0,188,32,35588,-54,34,127,0,0,3320,10,0,1164,6,169,28623,-4,0,91,0,361633,0
361665,40,-2037,262,-34,-9,-72,11693,0,3,211,64,35579,-47,34,127,0,0,3320,-32,0,1164,6,169,28633,-4,0,91,0,361679,0
361675,32,-2037,262,-34,-14,-73,11689,-13,-8,200,80,35579,-50,34,127,0,0,3322,21,0,1164,6,169,28643,-4,0,91,0,361679,0
361685,46,-2048,247,-41,-17,-77,11694,7,6,209,40,35582,-72,34,127,0,0,3322,10,0,1164,6,169,28653,-4,0,91,0,361679,0
361695,52,-2056,247,-45,-13,-74,11692,0,6,199,80,35583,-45,34,127,0,0,3320,21,0,1164,6,169,28663,-4,0,91,0,361695,0
361705,59,-2040,252,-43,-17,-91,11691,-11,-3,165,48,35569,-34,34,127,0,0,3322,32,0,1164,6,169,28673,-4,0,91,0,361695,0
361715,54,-2047,254,-40,-21,-81,11692,12,-1,188,40,35559,-41,34,127,0,0,3320,0,0,1164,6,169,28683,-4,0,91,0,361695,0
361725,60,-2033,254,-41,-16,-80,11690,-8,1,191,80,35571,-46,34,127,0,0,3320,0,0,1164,6,169,28693,-4,0,91,0,361695,0
361735,71,-2028,247,-46,-16,-80,11689,-12,-8,169,48,35587,-48,34,127,0,0,3320,0,0,1164,6,169,28703,-4,0,91,0,361742,0
361745,59,-2023,234,-40,-16,-76,11690,4,0,161,48,35593,-53,34,127,0,0,3317,-21,0,1164,6,169,28713,-4,0,91,0,361742,0
361755,67,-2031,236,-33,-10,-80,11689,-8,3,151,48,35579,-46,34,127,0,0,3320,-21,0,1164,6,169,28723,-4,0,91,0,361742,0
361765,47,-2040,241,-29,-10,-70,11689,8,-3,190,48,35574,-62,34,127,0,0,3315,-43,0,1164,6,169,28733,-4,0,91,0,361742,0
361775,89,-2035,252,-26,-11,-78,11688,-9,1,101,24,35581,-51,34,127,0,0,3315,-54,0,1164,6,169,28743,-4,0,91,0,361758,0
361785,62,-2042,248,-25,-13,-78,11684,-10,-4,24,56,35591,-57,34,127,0,0,3315,10,0,1164,6,169,28753,-4,0,91,0,361773,0
361795,73,-2032,259,-26,-6,-82,11685,6,12,46,48,35591,-50,34,127,0,0,3313,-32,0,1164,6,169,28763,-4,0,91,0,361773,0
361805,54,-2032,256,-29,-2,-84,11680,-19,-2,-36,40,35586,-47,34,127,0,0,3313,0,0,1164,6,169,28773,-4,0,91,0,361789,0
361815,56,-2040,250,-32,-1,-72,11679,1,-10,-105,-56,35588,-52,34,127,0,0,3311,0,0,1164,6,169,28783,-4,0,91,0,361804,0
361825,48,-2033,254,-31,-11,-70,11678,7,16,-68,-24,35589,-34,34,127,0,0,3309,-54,0,1164,6,169,28793,-4,0,91,0,361804,0
361835,55,-2037,262,-36,-13,-76,11674,-11,-5,-85,-16,35583,-41,33,127,0,0,3309,-32,0,1164,6,169,28803,-4,0,91,0,361820,0
361845,55,-2041,260,-42,-11,-74,11674,-14,-2,-169,-40,35571,-32,33,127,0,0,3309,0,0,1164,6,169,28813,-4,0,91,0,361836,0
361855,57,-2034,260,-36,-9,-81,11673,10,5,-98,-8,35573,-40,34,127,0,0,3309,-43,0,1164,6,169,28823,-4,0,91,0,361836,0
361865,48,-2037,264,-43,-10,-76,11671,-19,4,-156,-32,35579,-29,34,127,0,0,3309,0,0,1164,6,169,28833,-4,0,91,0,361851,0
361875,44,-2039,264,-44,-6,-77,11671,0,-5,-177,-32,35574,-22,34,127,0,0,3304,-43,0,1164,6,169,28843,-4,0,91,0,361851,0
361885,49,-2031,252,-43,-9,-81,11666,-2,-4,-202,-8,35580,-35,34,127,0,0,3309,54,0,1164,6,169,28853,-4,0,91,0,361883,0
361895,60,-2038,252,-38,-6,-84,11670,3,8,-170,-64,35585,-39,34,127,0,0,3304,-43,0,1164,6,169,28863,-4,0,91,0,361883,0
361905,47,-2041,261,-48,-6,-90,11660,-22,-15,-271,-48,35589,-35,34,127,0,0,3302,-32,0,1164,6,169,28873,-4,0,91,0,361883,0
361915,59,-2034,256,-43,-2,-93,11656,1,-16,-261,-32,35578,-34,34,127,0,0,3300,-43,0,1164,6,169,28883,-4,0,91,0,361883,0
361925,67,-2045,251,-47,-5,-88,11652,-16,10,-329,-88,35584,-31,34,127,0,0,3300,-21,0,1164,6,169,28893,-4,0,91,0,361914,0
361935,66,-2033,250,-47,-5,-85,11641,-32,-22,-304,-88,35586,-44,34,127,0,0,3298,-21,0,1164,6,169,28903,-4,0,91,0,361929,0
361945,39,-2031,242,-49,-3,-88,11612,-60,-51,-101,-40,35588,-34,34,127,0,0,3295,-43,0,1164,6,169,28913,-4,0,91,0,361929,0
361955,64,-2039,245,-40,3,-94,11608,7,27,-135,-56,35582,-13,34,127,0,0,3295,-32,0,1164,6,169,28923,-4,0,91,0,361929,0
361965,76,-2035,255,-36,-7,-85,11605,-19,51,-198,-40,35580,10,34,127,0,0,3295,21,0,1164,6,169,28933,-4,0,91,0,361945,0
361975,67,-2043,254,-44,-12,-78,11606,-4,2,-245,-56,35586,6,34,127,0,0,3291,0,0,1164,6,169,28943,-4,0,91,0,361961,0
361985,72,-2032,257,-38,-5,-78,11603,-8,5,-247,-72,35600,2,34,127,0,0,3293,-10,0,1164,6,169,28953,-4,0,91,0,361976,0
361995,75,-2039,255,-39,-7,-72,11602,-7,-3,-261,-48,35601,4,34,127,0,0,3291,-21,0,1164,6,169,28963,-4,0,91,0,361976,0
362005,83,-2036,254,-43,-2,-63,11596,-25,-11,-320,-16,35589,23,33,127,0,0,3291,32,0,1164,6,169,28973,-4,0,91,0,362008,0
362015,81,-2035,250,-47,-5,-58,11595,4,1,-237,-40,35584,15,33,127,0,0,3289,-43,0,1164,6,169,28983,-4,0,91,0,362008,0
362025,58,-2028,255,-39,-8,-54,11593,-15,6,-306,-96,35583,5,34,127,0,0,3289,-21,0,1164,6,169,28993,-4,0,91,0,362008,0
362035,61,-2040,255,-44,-13,-48,11587,-6,-17,-307,-72,35586,13,34,127,0,0,3289,-10,0,1164,6,169,29003,-4,0,91,0,362070,0
362045,66,-2046,236,-36,-7,-42,11587,0,13,-287,-72,35586,6,34,127,0,0,3289,0,0,1164,6,169,29013,-4,0,91,0,362086,0
362055,67,-2045,247,-30,-9,-40,11587,-3,4,-302,-72,35585,-6,34,127,0,0,3291,43,0,1164,6,169,29023,-4,0,91,0,362086,0
362065,72,-2034,250,-35,-4,-41,11589,1,0,-265,-88,35587,-4,34,127,0,0,3289,-10,0,1164,6,169,29033,-4,0,91,0,362086,0
362075,57,-2042,259,-33,-4,-46,11588,2,-2,-280,-64,35591,15,34,127,0,0,3289,0,0,1164,6,169,29043,-4,0,91,0,362086,0
362085,62,-2032,262,-42,-13,-43,11588,0,0,-286,-72,35587,18,34,127,0,0,3289,0,0,1164,6,169,29053,-4,0,91,0,362086,0
362095,56,-2036,253,-41,-12,-45,11588,3,5,-286,-72,35590,25,34,127,0,0,3287,-21,0,1164,6,169,29063,-4,0,91,0,362086,0
362105,53,-2038,261,-43,-9,-44,11586,-9,-6,-322,-56,35595,10,34,127,0,0,3289,-10,0,1164,6,169,29073,-4,0,91,0,362086,0
362115,55,-2038,252,-41,-1,-54,11581,0,-15,-266,-96,35598,4,34,127,0,0,3289,-21,0,1164,6,169,29083,-4,0,91,0,362101,0
362125,76,-2028,253,-43,-4,-51,11577,-7,-2,-241,-80,35603,10,34,127,0,0,3284,-43,0,1164,6,169,29093,-4,0,91,0,362101,0
362135,69,-2045,262,-36,-6,-53,11565,-26,-13,-234,-40,35600,6,34,127,0,0,3287,-21,0,1164,6,169,29103,-4,0,91,0,362148,0
362145,84,-2038,256,-43,-4,-43,11553,-21,-10,-156,-24,35601,12,34,127,0,0,3287,10,0,1164,6,169,29113,-4,0,91,0,362148,0
362155,70,-2036,259,-45,-9,-34,11555,3,34,-175,-56,35596,4,34,127,0,0,3289,32,0,1164,6,169,29123,-4,0,91,0,362148,0
362165,111,-2041,254,-48,-4,-29,11555,2,16,-145,-16,35589,34,34,127,0,0,3287,0,0,1164,6,169,29133,-4,0,91,0,362148,0
362175,52,-2049,244,-43,0,-37,11555,12,1,-97,-32,35581,29,34,127,0,0,3289,0,0,1164,6,169,29143,-4,0,91,0,362148,0
362185,98,-2032,242,-43,-3,-32,11553,-7,-5,-143,-16,35592,17,34,127,0,0,3289,32,0,1164,6,169,29153,-4,0,91,0,362195,0
362195,91,-2038,254,-49,5,-34,11556,14,4,-144,-56,35603,2,34,127,0,0,3287,-21,0,1164,6,169,29163,-4,0,91,0,362195,0
362205,80,-2024,256,-45,-6,-32,11553,8,7,-156,-48,35609,7,34,127,0,0,3287,10,0,1164,6,169,29173,-4,0,91,0,362195,0
362215,92,-2039,247,-43,-1,-31,11553,4,2,-121,-32,35591,22,34,127,0,0,3289,43,0,1164,6,169,29183,-4,0,91,0,362195,0
362225,72,-2037,255,-47,-19,-38,11554,0,7,-85,-40,35582,20,34,127,0,0,3289,0,0,1164,6,169,29193,-4,0,91,0,362195,0
362235,26,-2041,252,-40,-12,-32,11555,14,2,-65,-80,35600,2,34,127,0,0,3289,0,0,1164,6,169,29203,-4,0,91,0,362226,0
362245,109,-2037,245,-42,8,-44,11553,-3,-1,-61,-8,35601,6,34,127,0,0,3287,-10,0,1164,6,169,29213,-4,0,91,0,362226,0
362255,83,-2042,259,-45,-1,-49,11553,-1,-6,-132,-24,35597,6,34,127,0,0,3287,0,0,1164,6,169,29223,-4,0,91,0,362226,0
362265,64,-2037,262,-47,-1,-34,11554,5,6,-113,-24,35579,22,34,127,0,0,3287,-32,0,1164,6,169,29233,-4,0,91,0,362257,0
362275,42,-2037,264,-44,1,-43,11552,0,2,-89,16,35583,3,34,127,0,0,3287,0,0,1164,6,169,29243,-4,0,91,0,362257,0
362285,55,-2029,256,-56,-15,-52,11551,-12,-2,-119,8,35587,6,34,127,0,0,3289,54,0,1164,6,169,29253,-4,0,91,0,362273,0
362295,76,-2036,256,-50,-13,-42,11555,-9,8,-127,16,35582,28,34,127,0,0,3287,10,0,1164,6,169,29263,-4,0,91,0,362273,0
362305,36,-2048,255,-50,-9,-47,11553,8,-2,-92,8,35587,21,34,127,0,0,3289,0,0,1164,6,169,29273,-4,0,91,0,362289,0
362315,45,-2041,254,-49,-19,-47,11553,-15,-5,-68,8,35589,32,34,127,0,0,3287,-32,0,1164,6,169,29283,-4,0,91,0,362289,0
362325,42,-2044,247,-52,-12,-47,11554,7,-5,-95,-32,35597,6,34,127,0,0,3284,-54,0,1164,6,169,29293,-4,0,91,0,362320,0
362335,54,-2037,249,-46,-12,-55,11552,7,6,-104,-32,35596,23,34,127,0,0,3284,-43,0,1164,6,169,29303,-4,0,91,0,362320,0
362345,45,-2037,254,-49,-18,-41,11552,-3,2,-156,-16,35582,13,34,127,0,0,3287,0,0,1164,6,169,29313,-4,0,91,0,362320,0
362355,59,-2040,250,-43,-15,-49,11554,16,7,-109,-32,35586,7,34,127,0,0,3289,-10,0,1164,6,169,29323,-4,0,91,0,362336,0
362365,56,-2047,243,-47,-10,-49,11552,2,4,-93,-16,35587,17,34,127,0,0,3284,-21,0,1164,6,169,29333,-4,0,91,0,362336,0
362375,116,-2033,243,-51,-8,-64,11554,3,-2,-99,0,35594,18,34,127,0,0,3284,-32,0,1164,6,169,29343,-4,0,91,0,362351,0
362385,45,-2039,256,-50,-31,-53,11549,-21,-11,-187,-8,35587,23,34,127,0,0,3289,54,0,1164,6,169,29353,-4,0,91,0,362367,0
362395,79,-2034,257,-46,-16,-53,11552,0,1,-166,-48,35577,12,34,127,0,0,3289,21,0,1164,6,169,29363,-4,0,91,0,362414,0
362405,87,-2041,242,-47,-11,-59,11553,17,13,-98,-72,35574,10,34,127,0,0,3287,10,0,1164,6,169,29373,-4,0,91,0,362414,0
362415,58,-2040,240,-47,-12,-55,11552,3,-4,-84,-32,35575,14,34,127,0,0,3284,-32,0,1164,6,169,29383,-4,0,91,0,362429,0
362425,58,-2039,244,-42,-8,-53,11552,-3,1,-136,-64,35577,25,34,127,0,0,3284,-21,0,1164,6,169,29393,-4,0,91,0,362429,0
362435,45,-2032,247,-32,-12,-55,11549,-3,-7,-195,-40,35571,28,34,127,0,0,3284,0,0,1164,6,169,29403,-4,0,91,0,362429,0
362445,61,-2038,244,-30,-5,-49,11552,10,11,-166,-56,35575,21,34,127,0,0,3289,32,0,1164,6,169,29413,-4,0,91,0,362429,0
362455,53,-2043,255,-26,-6,-40,11551,-9,1,-138,-16,35586,11,34,127,0,0,3284,10,0,1164,6,169,29423,-4,0,91,0,362429,0
362465,73,-2037,257,-31,-3,-49,11550,-3,-8,-208,-40,35598,29,34,127,0,0,3284,21,0,1164,6,169,29433,-4,0,91,0,362461,0
362475,81,-2042,246,-30,-12,-49,11551,-3,1,-188,-48,35594,13,34,127,0,0,3284,-32,0,1164,6,169,29443,-4,0,91,0,362461,0
362485,51,-2040,257,-28,4,-45,11547,-3,-5,-196,-80,35586,12,34,127,0,0,3284,10,0,1164,6,169,29453,-4,0,91,0,362476,0
362495,69,-2036,252,-34,-7,-45,11548,-7,5,-197,-40,35579,-10,34,127,0,0,3284,0,0,1164,6,169,29463,-4,0,91,0,362476,0
362505,58,-2038,260,-27,-1,-56,11548,-3,2,-195,-40,35588,13,34,127,0,0,3282,-21,0,1164,6,169,29473,-4,0,91,0,362492,0
362515,72,-2047,259,-37,-3,-50,11548,-3,-3,-216,-40,35590,26,34,127,0,0,3282,-32,0,1164,6,169,29483,-4,0,91,0,362507,0
362525,57,-2044,269,-32,-6,-45,11550,5,-6,-210,-72,35592,15,34,127,0,0,3282,-21,0,1164,6,169,29493,-4,0,91,0,362507,0
362535,68,-2037,262,-32,-5,-44,11548,-3,6,-231,-64,35589,19,34,127,0,0,3282,-10,0,1164,6,169,29503,-4,0,91,0,362507,0
362545,74,-2032,256,-38,-7,-42,11547,0,-4,-240,-64,35587,18,34,127,0,0,3284,32,0,1164,6,169,29513,-4,0,91,0,362539,0
362555,62,-2042,249,-40,-8,-35,11549,-2,0,-226,-72,35582,26,34,127,0,0,3284,10,0,1164,6,169,29523,-4,0,91,0,362539,0
362565,73,-2030,254,-30,-3,-40,11548,3,-7,-199,-40,35570,38,34,127,0,0,3282,-10,0,1164,6,169,29533,-4,0,91,0,362539,0
362575,53,-2038,246,-37,0,-41,11546,-3,-7,-212,-32,35574,23,34,127,0,0,3284,21,0,1164,6,169,29543,-4,0,91,0,362554,0
362585,77,-2033,255,-33,2,-41,11546,-21,2,-235,-56,35589,22,34,127,0,0,3282,0,0,1164,6,169,29553,-4,0,91,0,362586,0
362595,87,-2033,256,-34,1,-36,11547,2,4,-246,-24,35587,28,34,127,0,0,3284,43,0,1164,6,169,29563,-4,0,91,0,362586,0
362605,79,-2038,259,-33,-12,-32,11549,-5,8,-187,-88,35579,37,34,127,0,0,3282,-21,0,1164,6,169,29573,-4,0,91,0,362586,0
362615,54,-2042,267,-32,-9,-25,11546,-6,-11,-209,-32,35568,15,34,127,0,0,3284,10,0,1164,6,169,29583,-4,0,91,0,362586,0
362625,68,-2038,251,-25,-6,-25,11548,9,-1,-170,-8,35587,-8,34,127,0,0,3284,-10,0,1164,6,169,29593,-4,0,91,0,362601,0
362635,61,-2034,246,-28,-2,-27,11549,7,6,-189,-40,35591,10,34,127,0,0,3284,-10,0,1164,6,169,29603,-4,0,91,0,362632,0
362645,72,-2036,260,-26,-2,-17,11548,7,-2,-187,-40,35582,16,34,127,0,0,3282,-32,0,1164,6,169,29613,-4,0,91,0,362632,0
362655,59,-2034,252,-31,0,-22,11547,8,-2,-173,0,35568,20,33,127,0,0,3284,0,0,1164,6,169,29623,-4,0,91,0,362632,0
362665,47,-2044,262,-31,-5,-25,11547,-4,0,-167,0,35571,2,34,127,0,0,3289,43,0,1164,6,169,29633,-4,0,91,0,362648,0
362675,46,-2032,266,-32,-4,-18,11548,0,-1,-167,-40,35581,24,34,127,0,0,3284,21,0,1164,6,169,29643,-4,0,91,0,362671,0
362685,58,-2035,265,-38,-1,-26,11548,6,-1,-206,-24,35580,37,34,127,0,0,3282,-21,0,1164,6,169,29653,-4,0,91,0,362690,0
362695,63,-2040,262,-33,-5,-30,11547,-4,-4,-197,-40,35577,24,34,127,0,0,3284,0,0,1164,6,169,29663,-4,0,91,0,362690,0
362705,56,-2035,266,-38,-3,-26,11548,0,-1,-192,-40,35577,19,34,127,0,0,3284,0,0,1164,6,169,29673,-4,0,91,0,362705,0
362715,64,-2041,256,-42,-5,-32,11547,-1,0,-203,-24,35580,14,34,127,0,0,3284,10,0,1164,6,169,29683,-4,0,91,0,362705,0
362725,67,-2031,256,-38,-1,-39,11547,-13,1,-203,-40,35578,18,34,127,0,0,3287,43,0,1164,6,169,29693,-4,0,91,0,362705,0
362735,40,-2043,260,-43,-12,-33,11549,0,0,-103,16,35581,34,34,127,0,0,3287,10,0,1164,6,169,29703,-4,0,91,0,362721,0
362745,42,-2034,266,-43,-7,-40,11550,-3,2,-71,0,35581,28,34,127,0,0,3287,0,0,1164,6,169,29713,-4,0,91,0,362721,0
362755,40,-2040,270,-43,-8,-40,11548,-9,-8,-119,-16,35587,28,34,127,0,0,3287,10,0,1164,6,169,29723,-4,0,91,0,362815,0
362765,56,-2039,261,-53,-9,-46,11548,-12,1,-143,-8,35575,37,34,127,0,0,3284,0,0,1164,6,169,29733,-4,0,91,0,362815,0
362775,55,-2041,262,-51,-6,-53,11548,-7,-3,-163,-8,35572,34,34,127,0,0,3289,43,0,1164,6,169,29743,-4,0,91,0,362815,0
362785,81,-2031,253,-53,-18,-54,11551,0,5,-98,-24,35571,24,34,127,0,0,3289,43,0,1164,6,169,29753,-4,0,91,0,362815,0
362795,59,-2041,261,-50,-10,-54,11550,3,0,-110,24,35579,8,34,127,0,0,3284,0,0,1164,6,169,29763,-4,0,91,0,362830,0
362805,29,-2047,269,-53,-20,-52,11549,-1,0,-155,24,35577,22,34,127,0,0,3284,0,0,1164,6,169,29773,-4,0,91,0,362830,0
362815,72,-2036,265,-49,-17,-61,11548,-14,2,-165,-40,35578,27,34,127,0,0,3284,-21,0,1164,6,169,29783,-4,0,91,0,362830,0
362825,71,-2050,256,-59,-7,-58,11549,7,1,-164,-56,35577,24,34,127,0,0,3284,-10,0,1164,6,169,29793,-4,0,91,0,362830,0
362835,52,-2041,261,-54,-12,-54,11546,-15,-5,-159,0,35579,21,34,127,0,0,3284,10,0,1164,6,169,29803,-4,0,91,0,362830,0
362845,50,-2035,263,-49,-6,-49,11551,3,6,-155,-48,35584,26,34,127,0,0,3284,-43,0,1164,6,169,29813,-4,0,91,0,362830,0
362855,52,-2036,256,-50,-14,-50,11550,18,4,-158,-40,35580,31,34,127,0,0,3284,-10,0,1164,6,169,29823,-4,0,91,0,362830,0
362865,63,-2030,255,-53,-7,-51,11547,-19,-3,-159,-48,35601,10,34,127,0,0,3284,-10,0,1164,6,169,29833,-4,0,91,0,362846,0
362875,25,-2040,265,-50,-8,-46,11550,7,-3,-135,-8,35606,1,34,127,0,0,3284,-21,0,1164,6,169,29843,-4,0,91,0,362861,0
362885,51,-2028,260,-55,-5,-52,11546,-6,-3,-183,-40,35609,14,34,127,0,0,3284,0,0,1164,6,169,29853,-4,0,91,0,362861,0
362895,66,-2030,260,-54,-6,-47,11551,16,11,-127,-56,35593,21,33,127,0,0,3287,-10,0,1164,6,169,29863,-4,0,91,0,362893,0
362905,69,-2039,256,-60,-10,-43,11547,-11,-2,-126,32,35576,30,34,127,0,0,3284,0,0,1164,6,169,29873,-4,0,91,0,362893,0
362915,111,-2038,250,-55,-2,-57,11547,-14,-6,-160,-8,35580,1,34,127,0,0,3284,0,0,1164,6,169,29883,-4,0,91,0,362893,0
362925,50,-2033,251,-52,-9,-48,11548,-5,2,-192,-40,35584,-4,34,127,0,0,3284,0,0,1164,6,169,29893,-4,0,91,0,362893,0
362935,64,-2039,262,-58,-2,-48,11548,0,0,-171,-8,35586,12,34,127,0,0,3284,-10,0,1164,6,169,29903,-4,0,91,0,362924,0
362945,26,-2038,259,-54,-21,-48,11547,3,-4,-156,-8,35585,13,34,127,0,0,3282,-21,0,1164,6,169,29913,-4,0,91,0,362924,0
362955,76,-2037,252,-57,-12,-54,11547,-4,-3,-203,-40,35582,21,34,127,0,0,3284,0,0,1164,6,169,29923,-4,0,91,0,362924,0
362965,66,-2039,251,-58,-9,-51,11548,-4,3,-197,-40,35585,14,34,127,0,0,3282,-21,0,1164,6,169,29933,-4,0,91,0,362955,0
362975,64,-2040,257,-53,-10,-48,11547,6,0,-176,-8,35587,28,34,127,0,0,3284,0,0,1164,6,169,29943,-4,0,91,0,362955,0
362985,35,-2036,257,-53,-16,-51,11548,-4,-2,-164,-40,35580,28,34,127,0,0,3284,-21,0,1164,6,169,29953,-4,0,91,0,362955,0
362995,56,-2039,260,-53,-16,-54,11549,12,3,-161,-48,35584,13,34,127,0,0,3284,-21,0,1164,6,169,29963,-4,0,91,0,362986,0
363005,58,-2041,252,-50,-13,-49,11550,9,5,-107,-16,35589,8,34,127,0,0,3284,-32,0,1164,6,169,29973,-4,0,91,0,363002,0
363015,56,-2029,254,-54,-14,-57,11546,-18,-12,-180,-32,35594,10,34,127,0,0,3287,10,0,1164,6,169,29983,-4,0,91,0,363002,0
363025,88,-2036,254,-53,-6,-49,11549,9,1,-167,-40,35583,17,34,127,0,0,3284,0,0,1164,6,169,29993,-4,0,91,0,363002,0
363035,73,-2041,259,-51,-11,-53,11549,7,10,-189,-40,35581,50,34,127,0,0,3284,0,0,1164,6,169,30003,-4,0,91,0,363018,0
363045,52,-2041,249,-50,-17,-52,11549,14,1,-173,-80,35586,38,34,127,0,0,3287,0,0,1164,6,169,30013,-4,0,91,0,363018,0
363055,46,-2040,248,-48,-20,-41,11548,9,2,-108,-24,35591,54,34,127,0,0,3284,-10,0,1164,6,169,30023,-4,0,91,0,363033,0
363065,29,-2037,248,-43,-20,-53,11547,-6,-4,-147,-48,35585,44,34,127,0,0,3284,-21,0,1164,6,169,30033,-4,0,91,0,363049,0
363075,26,-2038,254,-44,-20,-53,11548,1,-5,-155,0,35587,46,34,127,0,0,3284,0,0,1164,6,169,30043,-4,0,91,0,363049,0
363085,43,-2038,256,-40,-11,-56,11548,1,7,-186,-40,35586,16,34,127,0,0,3284,0,0,1164,6,169,30053,-4,0,91,0,363064,0
363095,52,-2045,258,-41,-13,-51,11548,-3,2,-205,-40,35595,3,34,127,0,0,3284,21,0,1164,6,169,30063,-4,0,91,0,363096,0
363105,47,-2040,255,-44,-15,-45,11550,10,4,-145,-40,35593,16,34,127,0,0,3284,-43,0,1164,6,169,30073,-4,0,91,0,363096,0
363115,51,-2036,258,-42,-7,-50,11545,-9,-8,-184,-40,35589,23,34,127,0,0,3284,0,0,1164,6,169,30083,-4,0,91,0,363096,0
363125,42,-2044,257,-42,-17,-48,11549,7,-3,-126,24,35582,24,34,127,0,0,3284,-21,0,1164,6,169,30093,-4,0,91,0,363096,0
363135,79,-2033,265,-43,-11,-52,11547,-10,-1,-155,-48,35596,-11,34,127,0,0,3284,-10,0,1164,6,169,30103,-4,0,91,0,363189,0
363145,56,-2033,263,-48,-16,-48,11548,-3,-3,-193,-40,35608,-1,34,127,0,0,3284,0,0,1164,6,169,30113,-4,0,91,0,363189,0
363155,71,-2038,255,-54,-11,-54,11548,4,6,-193,-40,35601,5,34,127,0,0,3284,0,0,1164,6,169,30123,-4,0,91,0,363205,0
363165,56,-2039,256,-49,-15,-52,11547,-5,1,-194,-40,35589,7,34,127,0,0,3284,-10,0,1164,6,169,30133,-4,0,91,0,363205,0
363175,51,-2041,252,-42,-11,-53,11549,-3,4,-185,-32,35589,21,34,127,0,0,3282,-21,0,1164,6,169,30143,-4,0,91,0,363205,0
363185,68,-2034,255,-42,-4,-58,11546,1,-7,-207,-40,35597,20,34,127,0,0,3284,21,0,1164,6,169,30153,-4,0,91,0,363221,0
363195,63,-2032,262,-44,-10,-48,11547,0,5,-193,-40,35594,25,34,127,0,0,3284,0,0,1164,6,169,30163,-4,0,91,0,363221,0
363205,67,-2037,260,-49,-8,-49,11547,6,-5,-192,-40,35587,23,34,127,0,0,3282,-10,0,1164,6,169,30173,-4,0,91,0,363221,0
363215,100,-2038,256,-50,-5,-49,11547,-13,0,-214,-32,35586,15,34,127,0,0,3284,21,0,1164,6,169,30183,-4,0,91,0,363221,0
363225,57,-2038,256,-45,-16,-44,11547,-10,-6,-208,-72,35587,18,34,127,0,0,3282,-32,0,1164,6,169,30193,-4,0,91,0,363221,0
363235,62,-2036,252,-50,-11,-47,11548,11,1,-201,-40,35594,26,34,127,0,0,3284,0,0,1164,6,169,30203,-4,0,91,0,363221,0
363245,64,-2043,253,-48,-7,-50,11547,-2,-1,-210,-64,35592,16,34,127,0,0,3284,0,0,1164,6,169,30213,-4,0,91,0,363221,0
363255,58,-2047,255,-49,-9,-42,11549,12,5,-192,-40,35609,11,34,127,0,0,3284,0,0,1164,6,169,30223,-4,0,91,0,363252,0
363265,55,-2038,263,-48,-12,-47,11547,-6,0,-191,-40,35613,-9,34,127,0,0,3284,-10,0,1164,6,169,30233,-4,0,91,0,363252,0
363275,54,-2033,262,-46,-8,-45,11545,-7,-11,-194,-24,35609,13,34,127,0,0,3284,10,0,1164,6,169,30243,-4,0,91,0,363252,0
363285,60,-2035,266,-50,-6,-47,11548,-1,4,-168,0,35592,33,34,127,0,0,3284,0,0,1164,6,169,30253,-4,0,91,0,363283,0
363295,56,-2025,254,-54,-10,-47,11546,-8,-6,-197,-72,35586,41,34,127,0,0,3282,-21,0,1164,6,169,30263,-4,0,91,0,363283,0
363305,74,-2043,244,-53,-4,-44,11549,11,3,-204,-40,35586,31,34,127,0,0,3284,10,0,1164,6,169,30273,-4,0,91,0,363283,0
363315,81,-2042,253,-50,-4,-43,11547,-5,3,-189,-32,35589,46,34,127,0,0,3284,-10,0,1164,6,169,30283,-4,0,91,0,363346,0
363325,57,-2043,254,-48,-17,-45,11548,6,0,-162,-88,35586,39,34,127,0,0,3287,10,0,1164,6,169,30293,-4,0,91,0,363346,0
363335,28,-2044,254,-43,-14,-39,11546,-2,-2,-159,-40,35584,28,34,127,0,0,3282,-21,0,1164,6,169,30303,-4,0,91,0,363346,0
363345,53,-2043,244,-45,-10,-44,11548,0,-2,-205,-72,35582,33,34,127,0,0,3284,0,0,1164,6,169,30313,-4,0,91,0,363346,0
363355,56,-2045,257,-40,-18,-36,11547,-9,0,-204,-24,35581,25,34,127,0,0,3284,10,0,1164,6,169,30323,-4,0,91,0,363346,0
363365,66,-2034,261,-43,-6,-43,11546,-4,-3,-195,-40,35580,40,34,127,0,0,3284,-10,0,1164,6,169,30333,-4,0,91,0,363361,0
363375,42,-2033,265,-43,-16,-42,11547,0,-2,-200,-24,35577,38,34,127,0,0,3284,10,0,1164,6,169,30343,-4,0,91,0,363361,0
363385,46,-2036,265,-45,-7,-39,11549,8,0,-189,-64,35577,33,34,127,0,0,3284,-10,0,1164,6,169,30353,-4,0,91,0,363361,0
363395,52,-2029,254,-54,-6,-38,11549,12,6,-169,0,35583,27,34,127,0,0,3284,-10,0,1164,6,169,30363,-4,0,91,0,363393,0
363405,38,-2038,264,-52,-18,-45,11547,-5,1,-177,-40,35581,33,34,127,0,0,3284,0,0,1164,6,169,30373,-4,0,91,0,363393,0
363415,58,-2039,256,-55,-13,-45,11549,3,2,-202,-72,35577,27,34,127,0,0,3284,0,0,1164,6,169,30383,-4,0,91,0,363393,0
363425,65,-2033,255,-58,-10,-46,11549,0,4,-195,-40,35578,11,34,127,0,0,3284,10,0,1164,6,169,30393,-4,0,91,0,363393,0
363435,76,-2027,253,-56,-10,-47,11548,0,-3,-189,-40,35589,-14,34,127,0,0,3282,-21,0,1164,6,169,30403,-4,0,91,0,363408,0
363445,43,-2034,261,-60,-10,-44,11549,8,2,-210,-72,35591,13,34,127,0,0,3284,0,0,1164,6,169,30413,-4,0,91,0,363439,0
363455,56,-2042,258,-64,-11,-44,11548,3,3,-200,-24,35580,16,34,127,0,0,3284,0,0,1164,6,169,30423,-4,0,91,0,363439,0
363465,56,-2042,256,-60,-16,-47,11547,2,3,-195,-40,35568,24,34,127,0,0,3282,0,0,1164,6,169,30433,-4,0,91,0,363455,0
363475,57,-2042,259,-60,-12,-55,11546,-4,3,-206,-24,35577,17,34,127,0,0,3284,21,0,1164,6,169,30443,-4,0,91,0,363455,0
363485,69,-2038,265,-64,-7,-53,11547,-3,4,-187,-40,35593,19,34,127,0,0,3284,0,0,1164,6,169,30453,-4,0,91,0,363471,0
363495,56,-2041,265,-64,-10,-55,11547,2,-3,-198,-40,35585,27,34,127,0,0,3282,-21,0,1164,6,169,30463,-4,0,91,0,363471,0
363505,51,-2037,257,-64,-11,-52,11546,3,-8,-197,-32,35583,10,34,127,0,0,3284,0,0,1164,6,169,30473,-4,0,91,0,363549,0
363515,59,-2050,266,-71,-14,-46,11547,-1,-5,-192,-32,35576,14,34,127,0,0,3284,0,0,1164,6,169,30483,-4,0,91,0,363564,0
363525,58,-2032,249,-66,-13,-50,11548,4,-1,-195,-40,35584,16,34,127,0,0,3284,0,0,1164,6,169,30493,-4,0,91,0,363564,0
363535,62,-2043,245,-66,-13,-55,11548,-7,-3,-197,-72,35574,16,34,127,0,0,3282,-21,0,1164,6,169,30503,-4,0,91,0,363564,0
363545,62,-2038,245,-67,-10,-53,11548,4,-5,-200,-40,35566,24,34,127,0,0,3284,0,0,1164,6,169,30513,-4,0,91,0,363564,0
363555,62,-2038,247,-64,-13,-57,11549,7,-5,-132,-16,35566,8,34,127,0,0,3287,10,0,1164,6,169,30523,-4,0,91,0,363564,0
363565,59,-2039,247,-56,-15,-49,11548,-9,0,-156,-40,35570,11,34,127,0,0,3284,0,0,1164,6,169,30533,-4,0,91,0,363564,0
363575,84,-2047,253,-60,-10,-50,11547,5,-6,-161,32,35569,19,34,127,0,0,3284,0,0,1164,6,169,30543,-4,0,91,0,363564,0
363585,38,-2038,255,-60,-19,-51,11547,-22,7,-186,-40,35570,23,34,127,0,0,3284,0,0,1164,6,169,30553,-4,0,91,0,363564,0
363595,58,-2044,257,-56,-12,-49,11547,-6,-10,-190,8,35579,18,34,127,0,0,3284,10,0,1164,6,169,30563,-4,0,91,0,363564,0
363605,43,-2035,255,-55,-8,-43,11548,1,4,-189,-40,35600,-18,34,127,0,0,3282,-21,0,1164,6,169,30573,-4,0,91,0,363596,0
363615,61,-2037,248,-64,-17,-47,11547,7,-1,-206,-24,35603,-4,34,127,0,0,3282,-10,0,1164,6,169,30583,-4,0,91,0,363596,0
363625,53,-2036,249,-61,-7,-50,11546,-1,3,-203,-32,35588,3,34,127,0,0,3282,-21,0,1164,6,169,30593,-4,0,91,0,363596,0
363635,62,-2039,251,-54,-12,-50,11546,-2,-5,-216,-56,35570,45,34,127,0,0,3282,-21,0,1164,6,169,30603,-4,0,91,0,363627,0
363645,72,-2041,253,-57,-7,-48,11548,5,-1,-211,-24,35571,52,34,127,0,0,3284,10,0,1164,6,169,30613,-4,0,91,0,363627,0
363655,80,-2041,251,-57,-9,-52,11547,-5,2,-207,-72,35577,54,34,127,0,0,3284,10,0,1164,6,169,30623,-4,0,91,0,363627,0
363665,75,-2039,250,-61,-19,-45,11549,2,2,-202,-80,35573,43,34,127,0,0,3284,-10,0,1164,6,169,30633,-4,0,91,0,363642,0
363675,48,-2041,246,-56,-17,-39,11546,4,-2,-216,-56,35576,26,34,127,0,0,3282,10,0,1164,6,169,30643,-4,0,91,0,363658,0
363685,55,-2043,252,-55,-15,-50,11547,-4,0,-208,-72,35580,26,34,127,0,0,3282,-10,0,1164,6,169,30653,-4,0,91,0,363674,0
363695,48,-2046,247,-54,-11,-50,11546,0,-3,-212,-72,35581,37,34,127,0,0,3282,0,0,1164,6,169,30663,-4,0,91,0,363674,0
363705,69,-2034,249,-51,-8,-52,11547,0,1,-213,-72,35578,29,34,127,0,0,3284,21,0,1164,6,169,30673,-4,0,91,0,363689,0
363715,61,-2040,250,-54,-6,-46,11548,3,5,-203,-72,35580,27,34,127,0,0,3282,-32,0,1164,6,169,30683,-4,0,91,0,363689,0
363725,61,-2040,255,-49,-4,-46,11548,4,4,-206,-72,35582,-6,34,127,0,0,3284,0,0,1164,6,169,30693,-4,0,91,0,363721,0
363735,63,-2036,249,-60,-11,-47,11547,0,-2,-190,-40,35593,-14,34,127,0,0,3282,0,0,1164,6,169,30703,-4,0,91,0,363721,0
363745,41,-2038,245,-57,-10,-44,11547,1,3,-214,-64,35591,0,34,127,0,0,3282,-10,0,1164,6,169,30713,-4,0,91,0,363721,0
363755,80,-2032,244,-55,-17,-42,11546,-5,2,-225,-24,35585,1,34,127,0,0,3282,0,0,1164,6,169,30723,-4,0,91,0,363752,0
363765,36,-2039,253,-50,-18,-44,11549,-3,4,-211,-32,35575,9,34,127,0,0,3284,0,0,1164,6,169,30733,-4,0,91,0,363752,0
363775,46,-2039,252,-54,-15,-48,11547,-1,-6,-195,-40,35580,-6,34,127,0,0,3282,0,0,1164,6,169,30743,-4,0,91,0,363752,0
363785,43,-2039,247,-51,-12,-51,11546,-1,0,-204,-32,35586,22,34,127,0,0,3284,21,0,1164,6,169,30753,-4,0,91,0,363767,0
363795,53,-2026,255,-50,-11,-47,11547,-2,5,-202,-72,35587,26,34,127,0,0,3284,21,0,1164,6,169,30763,-4,0,91,0,363783,0
363805,81,-2038,256,-54,-8,-50,11548,5,2,-217,-112,35589,24,34,127,0,0,3282,-32,0,1164,6,169,30773,-4,0,91,0,363799,0
363815,48,-2036,253,-51,-15,-53,11548,17,-1,-171,-88,35587,23,34,127,0,0,3284,-10,0,1164,6,169,30783,-4,0,91,0,363799,0
363825,67,-2043,248,-57,-13,-49,11547,3,-3,-177,-40,35586,32,34,127,0,0,3284,10,0,1164,6,169,30793,-4,0,91,0,363799,0
363835,96,-2040,246,-58,-14,-49,11548,-7,6,-195,-40,35584,39,34,127,0,0,3282,-21,0,1164,6,169,30803,-4,0,91,0,363830,0
363845,58,-2042,249,-50,-8,-53,11546,4,-2,-238,-56,35586,46,33,127,0,0,3282,0,0,1164,6,169,30813,-4,0,91,0,363830,0
363855,69,-2043,249,-52,-3,-50,11547,9,-1,-219,-64,35583,24,34,127,0,0,3284,0,0,1164,6,169,30823,-4,0,91,0,363830,0
363865,89,-2048,256,-53,-10,-54,11547,0,3,-165,0,35586,15,34,127,0,0,3282,0,0,1164,6,169,30833,-4,0,91,0,363908,0
363875,80,-2031,254,-49,-16,-57,11548,-6,-1,-166,-48,35580,8,34,127,0,0,3284,-10,0,1164,6,169,30843,-4,0,91,0,363924,0
363885,78,-2032,251,-54,-11,-48,11547,-1,-6,-187,-32,35577,17,33,127,0,0,3282,-21,0,1164,6,169,30853,-4,0,91,0,363924,0
363895,84,-2032,255,-56,-3,-51,11546,-6,-2,-230,-64,35579,13,34,127,0,0,3284,21,0,1164,6,169,30863,-4,0,91,0,363924,0
363905,84,-2036,248,-54,-9,-49,11547,-5,0,-226,-64,35579,8,34,127,0,0,3282,0,0,1164,6,169,30873,-4,0,91,0,363924,0
363915,81,-2029,250,-57,-9,-53,11547,12,-1,-242,-48,35581,16,34,127,0,0,3284,10,0,1164,6,169,30883,-4,0,91,0,363924,0
363925,87,-2039,249,-56,-12,-55,11546,-8,-2,-211,-24,35575,14,34,127,0,0,3280,-10,0,1164,6,169,30893,-4,0,91,0,363924,0
363935,86,-2038,247,-55,-8,-56,11545,-4,-7,-244,-24,35576,-2,34,127,0,0,3282,0,0,1164,6,169,30903,-4,0,91,0,363924,0
363945,64,-2030,250,-60,-9,-46,11547,0,-1,-205,-72,35583,-15,34,127,0,0,3282,-21,0,1164,6,169,30913,-4,0,91,0,363924,0
363955,81,-2037,253,-52,-10,-41,11546,3,-3,-219,-24,35591,6,34,127,0,0,3284,32,0,1164,6,169,30923,-4,0,91,0,363939,0
363965,51,-2036,252,-56,-16,-47,11545,-11,-3,-193,-32,35597,34,34,127,0,0,3282,0,0,1164,6,169,30933,-4,0,91,0,363939,0
363975,54,-2044,252,-49,-12,-50,11546,-7,-1,-218,-56,35597,33,34,127,0,0,3282,-21,0,1164,6,169,30943,-4,0,91,0,363971,0
363985,69,-2035,252,-53,-9,-51,11547,5,-1,-228,-56,35598,41,34,127,0,0,3282,0,0,1164,6,169,30953,-4,0,91,0,363971,0
363995,64,-2040,252,-54,-9,-53,11547,13,5,-183,-32,35591,42,34,127,0,0,3282,-32,0,1164,6,169,30963,-4,0,91,0,363971,0
364005,85,-2042,250,-60,-7,-52,11546,-12,-4,-219,-24,35595,49,34,127,0,0,3284,32,0,1164,6,169,30973,-4,0,91,0,364002,0
364015,75,-2043,243,-57,-10,-51,11546,-13,-11,-247,-56,35597,47,34,127,0,0,3282,21,0,1164,6,169,30983,-4,0,91,0,364002,0
364025,60,-2040,251,-58,-12,-47,11546,3,-3,-236,-16,35595,30,34,127,0,0,3282,0,0,1164,6,169,30993,-4,0,91,0,364017,0
364035,94,-2032,254,-59,-4,-51,11545,0,-2,-225,-56,35592,36,34,127,0,0,3282,0,0,1164,6,169,31003,-4,0,91,0,364017,0
364045,69,-2044,248,-54,-14,-46,11546,-2,-5,-225,-56,35590,34,34,127,0,0,3282,0,0,1164,6,169,31013,-4,0,91,0,364049,0
364055,71,-2037,249,-58,-15,-51,11549,12,6,-216,-56,35592,53,34,127,0,0,3284,0,0,1164,6,169,31023,-4,0,91,0,364049,0
364065,67,-2038,241,-58,-9,-45,11547,6,5,-205,-64,35591,41,34,127,0,0,3284,0,0,1164,6,169,31033,-4,0,91,0,364049,0
364075,65,-2038,240,-50,-15,-48,11547,5,-2,-206,-56,35593,23,34,127,0,0,3282,-21,0,1164,6,169,31043,-4,0,91,0,364049,0
364085,69,-2033,246,-52,-11,-47,11546,2,0,-203,-32,35595,27,34,127,0,0,3282,0,0,1164,6,169,31053,-4,0,91,0,364080,0
364095,74,-2033,240,-45,-14,-48,11544,-14,-1,-234,-24,35599,31,34,127,0,0,3282,21,0,1164,6,169,31063,-4,0,91,0,364080,0
364105,62,-2036,250,-44,-9,-46,11547,3,1,-232,-56,35604,31,34,127,0,0,3282,0,0,1164,6,169,31073,-4,0,91,0,364080,0
364115,67,-2040,251,-46,-10,-39,11544,0,0,-252,-56,35603,25,34,127,0,0,3282,21,0,1164,6,169,31083,-4,0,91,0,364095,0
364125,51,-2040,248,-50,-12,-40,11546,-1,3,-206,-72,35605,31,34,127,0,0,3280,-65,0,1164,6,169,31093,-4,0,91,0,364127,0
364135,43,-2030,249,-41,-15,-44,11543,4,-10,-228,-56,35600,45,34,127,0,0,3284,0,0,1164,6,169,31103,-4,0,91,0,364127,0
364145,73,-2045,239,-48,-11,-39,11544,-16,0,-207,-56,35589,30,34,127,0,0,3282,0,0,1164,6,169,31113,-4,0,91,0,364127,0
364155,60,-2040,243,-45,-4,-47,11545,4,-1,-218,-64,35592,29,34,127,0,0,3282,-21,0,1164,6,169,31123,-4,0,91,0,364127,0
364165,74,-2037,243,-47,-5,-49,11543,-8,-4,-241,-56,35590,24,34,127,0,0,3280,10,0,1164,6,169,31133,-4,0,91,0,364142,0
364175,91,-2041,250,-50,-5,-52,11545,-9,0,-250,-56,35593,30,34,127,0,0,3282,10,0,1164,6,169,31143,-4,0,91,0,364142,0
364185,74,-2041,257,-44,-7,-48,11544,-9,-3,-246,-56,35596,54,34,127,0,0,3282,32,0,1164,6,169,31153,-4,0,91,0,364174,0
364195,75,-2031,255,-47,-6,-48,11546,-6,-4,-228,-56,35598,37,34,127,0,0,3282,10,0,1164,6,169,31163,-4,0,91,0,364174,0
364205,76,-2043,247,-44,-11,-52,11545,-7,-6,-241,-88,35597,43,34,127,0,0,3282,0,0,1164,6,169,31173,-4,0,91,0,364205,0
364215,55,-2036,251,-49,-14,-43,11545,4,-3,-247,-56,35591,31,34,127,0,0,3284,43,0,1164,6,169,31183,-4,0,91,0,364205,0
364225,59,-2032,241,-45,-10,-47,11545,0,5,-212,-56,35587,41,34,127,0,0,3282,0,0,1164,6,169,31193,-4,0,91,0,364220,0
364235,67,-2044,250,-42,-10,-49,11546,3,5,-245,-96,35577,28,34,127,0,0,3282,0,0,1164,6,169,31203,-4,0,91,0,364236,0
364245,67,-2044,243,-44,-5,-44,11547,12,3,-225,-56,35587,16,34,127,0,0,3282,-21,0,1164,6,169,31213,-4,0,91,0,364236,0
364255,65,-2031,246,-48,-7,-47,11545,0,-2,-237,-88,35595,31,34,127,0,0,3282,0,0,1164,6,169,31223,-4,0,91,0,364252,0
364265,75,-2032,244,-44,-12,-47,11546,10,0,-229,-56,35588,33,34,127,0,0,3282,-10,0,1164,6,169,31233,-4,0,91,0,364267,0
364275,54,-2035,246,-43,-12,-43,11543,-6,-1,-286,-80,35587,16,34,127,0,0,3280,10,0,1164,6,169,31243,-4,0,91,0,364283,0
364285,67,-2041,247,-46,-9,-47,11545,4,2,-269,-88,35588,5,34,127,0,0,3282,0,0,1164,6,169,31253,-4,0,91,0,364283,0
364295,52,-2036,243,-42,-11,-43,11545,6,7,-227,-56,35596,7,34,127,0,0,3282,-10,0,1164,6,169,31263,-4,0,91,0,364283,0
364305,59,-2039,246,-36,-12,-45,11545,6,4,-224,-56,35584,16,34,127,0,0,3282,10,0,1164,6,169,31273,-4,0,91,0,364283,0
364315,81,-2035,250,-39,-9,-42,11544,-6,-1,-244,-48,35585,24,34,127,0,0,3282,10,0,1164,6,169,31283,-4,0,91,0,364283,0
364325,70,-2039,249,-42,-5,-45,11546,8,4,-245,-88,35587,34,34,127,0,0,3282,-10,0,1164,6,169,31293,-4,0,91,0,364330,0
364335,36,-2045,250,-36,-13,-41,11543,4,3,-258,-40,35592,32,34,127,0,0,3282,32,0,1164,6,169,31303,-4,0,91,0,364330,0
364345,67,-2042,246,-39,-11,-46,11543,-10,-4,-250,-56,35582,41,34,127,0,0,3282,21,0,1164,6,169,31313,-4,0,91,0,364330,0
364355,64,-2039,247,-41,-6,-45,11544,-5,-3,-245,-56,35572,25,34,127,0,0,3282,21,0,1164,6,169,31323,-4,0,91,0,364330,0
364365,67,-2038,249,-35,-7,-48,11545,-2,1,-245,-88,35581,8,34,127,0,0,3282,0,0,1164,6,169,31333,-4,0,91,0,364345,0
364375,63,-2043,246,-41,-8,-45,11545,6,1,-244,-88,35592,-2,34,127,0,0,3282,-10,0,1164,6,169,31343,-4,0,91,0,364377,0
364385,72,-2041,237,-42,-11,-45,11544,0,0,-280,-72,35593,5,34,127,0,0,3280,10,0,1164,6,169,31353,-4,0,91,0,364377,0
364395,91,-2043,237,-35,-6,-47,11545,3,3,-271,-56,35579,11,34,127,0,0,3280,0,0,1164,6,169,31363,-4,0,91,0,364377,0
364405,55,-2041,248,-33,-11,-55,11543,-12,-2,-286,-72,35567,19,34,127,0,0,3280,-10,0,1164,6,169,31373,-4,0,91,0,364392,0
364415,78,-2041,249,-33,-5,-53,11546,8,3,-261,-88,35578,-7,34,127,0,0,3280,-32,0,1164,6,169,31383,-4,0,91,0,364392,0
364425,57,-2042,246,-29,-4,-57,11542,0,-1,-296,-112,35590,-1,34,127,0,0,3280,0,0,1164,6,169,31393,-4,0,91,0,364408,0
364435,65,-2030,252,-32,-8,-52,11543,0,-3,-268,-72,35588,5,34,127,0,0,3280,-43,0,1164,6,169,31403,-4,0,91,0,364424,0
364445,46,-2037,258,-44,-12,-44,11541,-1,0,-296,-64,35577,19,33,127,0,0,3280,0,0,1164,6,169,31413,-4,0,91,0,364424,0
364455,69,-2036,257,-45,-2,-50,11541,1,4,-270,-72,35581,18,34,127,0,0,3280,-10,0,1164,6,169,31423,-4,0,91,0,364439,0
364465,60,-2037,244,-46,-10,-40,11543,7,7,-264,-72,35585,7,34,127,0,0,3280,-21,0,1164,6,169,31433,-4,0,91,0,364439,0
364475,43,-2038,244,-42,-7,-45,11544,10,0,-260,-72,35586,19,34,127,0,0,3280,0,0,1164,6,169,31443,-4,0,91,0,364470,0
364485,62,-2037,238,-42,-5,-48,11542,0,-1,-262,-72,35575,22,34,127,0,0,3280,0,0,1164,6,169,31453,-4,0,91,0,364470,0
364495,64,-2035,246,-42,0,-44,11544,-5,0,-265,-72,35576,16,33,127,0,0,3278,-21,0,1164,6,169,31463,-4,0,91,0,364470,0
364505,44,-2041,252,-46,-8,-44,11542,1,-3,-308,-112,35579,12,34,127,0,0,3278,-32,0,1164,6,169,31473,-4,0,91,0,364517,0
364515,46,-2042,243,-43,-17,-44,11540,3,5,-317,-72,35583,14,34,127,0,0,3280,21,0,1164,6,169,31483,-4,0,91,0,364517,0
364525,53,-2041,246,-39,-14,-43,11541,-13,8,-273,-72,35580,26,33,127,0,0,3278,-32,0,1164,6,169,31493,-4,0,91,0,364517,0
364535,58,-2044,251,-37,-11,-44,11541,8,-3,-333,-56,35578,16,34,127,0,0,3278,10,0,1164,6,169,31503,-4,0,91,0,364533,0
364545,70,-2036,252,-40,-5,-43,11539,-11,-4,-364,-48,35573,14,34,127,0,0,3280,32,0,1164,6,169,31513,-4,0,91,0,364533,0
364555,73,-2040,244,-37,-2,-44,11540,1,0,-331,-48,35576,21,34,127,0,0,3278,-10,0,1164,6,169,31523,-4,0,91,0,364533,0
364565,43,-2037,250,-37,0,-38,11541,8,4,-298,-72,35582,19,34,127,0,0,3273,-76,0,1164,6,169,31533,-4,0,91,0,364564,0
364575,46,-2032,257,-31,-8,-46,11538,-5,-8,-322,-64,35583,32,34,127,0,0,3280,-10,0,1164,6,169,31543,-4,0,0,0,364564,0
364585,89,-2039,249,-33,6,-42,11541,-2,4,-292,-144,35582,18,34,127,0,0,3280,-21,0,1164,6,169,31553,-4,0,0,0,364564,0
364595,38,-2044,248,-36,-2,-37,11537,0,-5,-300,-56,35582,36,34,127,0,0,3276,-10,0,1164,6,169,31563,-4,0,0,0,364564,0
364605,22,-2042,258,-37,-6,-39,11538,-14,-4,-352,-136,35577,28,34,127,0,0,3278,0,0,1164,6,169,31573,-4,0,0,0,364673,0
364615,62,-2042,257,-39,-16,-30,11540,2,4,-325,-104,35576,19,34,127,0,0,3280,21,0,1164,6,169,31583,-4,0,0,0,364689,0
364625,67,-2035,256,-39,4,-41,11540,3,6,-266,-72,35579,17,34,127,0,0,3280,0,0,1164,6,169,31593,-4,0,0,0,364689,0
364635,62,-2036,254,-43,-5,-35,11540,4,-5,-262,-72,35584,14,34,127,0,0,3278,-43,0,1164,6,169,31603,-4,0,0,0,364689,0
364645,31,-2041,247,-44,-7,-28,11538,-4,-3,-354,-64,35579,18,34,127,0,0,3280,32,0,1164,6,169,31613,-4,0,0,0,364689,0
364655,91,-2033,252,-44,3,-37,11540,-1,10,-347,-80,35574,12,34,127,0,0,3280,21,0,1164,6,169,31623,-4,0,0,0,364705,0
364665,71,-2040,253,-42,-10,-38,11541,16,7,-291,-104,35578,7,34,127,0,0,3280,-10,0,1164,6,169,31633,-4,0,0,0,364705,0
364675,32,-2037,249,-39,-9,-35,11539,2,-8,-262,-64,35581,19,34,127,0,0,3278,-32,0,1164,6,169,31643,-4,0,0,0,364705,0
364685,53,-2045,242,-43,-6,-33,11540,2,3,-274,-72,35580,26,34,127,0,0,3278,-21,0,1164,6,169,31653,-4,0,0,0,364705,0
364695,70,-2033,249,-39,-11,-30,11539,-4,4,-280,-64,35574,33,34,127,0,0,3276,-43,0,1164,6,169,31663,-4,0,0,0,364705,0
364705,33,-2035,254,-44,-4,-33,11538,-10,-5,-333,-56,35572,25,34,127,0,0,3280,10,0,1164,6,169,31673,-4,0,0,0,364705,0
364715,67,-2041,260,-40,-15,-37,11541,0,1,-294,-64,35574,7,33,127,0,0,3282,10,0,1164,6,169,31683,-4,0,0,0,364705,0
364725,84,-2041,253,-43,-8,-37,11540,5,2,-287,-56,35581,8,34,127,0,0,3280,10,0,1164,6,169,31693,-4,0,0,0,364705,0
364735,71,-2038,256,-48,-8,-35,11540,9,-1,-268,-72,35593,6,34,127,0,0,3280,0,0,1164,6,169,31703,-4,0,0,0,364705,0
364745,71,-2037,257,-47,-4,-41,11539,-3,-3,-297,-56,35599,36,34,127,0,0,3278,10,0,1164,6,169,31713,-4,0,0,0,364736,0
364755,83,-2040,263,-51,-3,-44,11539,-4,-2,-279,-32,35597,30,34,127,0,0,3280,10,0,1164,6,169,31723,-4,0,0,0,364736,0
364765,49,-2033,254,-50,-12,-43,11538,-11,-1,-287,-56,35588,43,34,127,0,0,3280,10,0,1164,6,169,31733,-4,0,0,0,364752,0
364775,75,-2038,257,-53,-5,-45,11540,1,-1,-297,-56,35572,31,34,127,0,0,3282,32,0,1164,6,169,31743,-4,0,0,0,364752,0
364785,68,-2036,253,-51,-10,-50,11541,10,5,-252,-80,35579,26,34,127,0,0,3280,-10,0,1164,6,169,31753,-4,0,0,0,364767,0
364795,51,-2034,258,-51,-12,-47,11541,7,-2,-281,-104,35583,34,34,127,0,0,3278,-32,0,1164,6,169,31763,-4,0,0,0,364767,0
364805,72,-2047,256,-55,-5,-49,11538,0,-6,-360,-112,35589,37,34,127,0,0,3280,54,0,1164,6,169,31773,-4,0,0,0,364783,0
364815,107,-2037,252,-57,-8,-50,11541,0,6,-320,-96,35583,36,34,127,0,0,3280,10,0,1164,6,169,31783,-4,0,0,0,364814,0
364825,58,-2038,256,-65,-14,-55,11541,14,2,-276,-72,35579,37,34,127,0,0,3278,-32,0,1164,6,169,31793,-4,0,0,0,364814,0
364835,49,-2033,251,-68,-16,-52,11537,-12,-5,-304,-64,35584,16,34,127,0,0,3280,54,0,1164,6,169,31803,-4,0,0,0,364814,0
364845,61,-2035,244,-53,-15,-52,11541,-5,3,-268,-72,35583,25,34,127,0,0,3280,-10,0,1164,6,169,31813,-4,0,0,0,364814,0
364855,43,-2031,244,-53,-11,-54,11539,10,-4,-268,-72,35582,23,34,127,0,0,3282,10,0,1164,6,169,31823,-4,0,0,0,364845,0
364865,69,-2039,245,-62,-5,-45,11538,-8,-5,-251,-72,35583,33,34,127,0,0,3280,0,0,1164,6,169,31833,-4,0,0,0,364845,0
364875,77,-2041,246,-53,-5,-51,11539,-5,-4,-296,-56,35581,18,34,127,0,0,3282,54,0,1164,6,169,31843,-4,0,0,0,364877,0
364885,84,-2042,245,-56,-11,-48,11542,5,4,-256,-72,35598,8,34,127,0,0,3280,0,0,1164,6,169,31853,-4,0,0,0,364877,0
364895,74,-2046,249,-54,-11,-42,11543,20,7,-260,-72,35594,18,34,127,0,0,3280,-21,0,1164,6,169,31863,-4,0,0,0,364877,0
364905,65,-2041,247,-52,-3,-39,11539,-4,-4,-262,-72,35586,20,34,127,0,0,3276,-43,0,1164,6,169,31873,-4,0,0,0,364877,0
364915,86,-2031,246,-52,-8,-46,11539,1,-3,-320,-64,35584,51,34,127,0,0,3280,0,0,1164,6,169,31883,-4,0,0,0,364892,0
364925,74,-2032,255,-55,-11,-44,11539,-12,2,-288,-72,35586,54,34,127,0,0,3280,21,0,1164,6,169,31893,-4,0,0,0,364908,0
364935,69,-2034,247,-60,-7,-49,11542,9,4,-257,-80,35596,60,34,127,0,0,3278,-32,0,1164,6,169,31903,-4,0,0,0,364923,0
364945,40,-2036,248,-46,-8,-42,11540,3,-1,-282,-104,35578,57,34,127,0,0,3280,-21,0,1164,6,169,31913,-4,0,0,0,364923,0
364955,63,-2036,251,-51,-12,-47,11541,5,4,-254,-32,35581,13,34,127,0,0,3282,21,0,1164,6,169,31923,-4,0,0,0,364939,0
364965,55,-2039,258,-58,-20,-48,11539,2,1,-256,-72,35584,21,34,127,0,0,3278,-21,0,1164,6,169,31933,-4,0,0,0,364939,0
364975,75,-2041,259,-58,-14,-57,11542,6,5,-255,-80,35590,24,34,127,0,0,3280,-43,0,1164,6,169,31943,-4,0,0,0,364955,0
364985,61,-2034,246,-64,-13,-48,11540,6,-3,-251,-72,35591,39,34,127,0,0,3280,-21,0,1164,6,169,31953,-4,0,0,0,364955,0
364995,88,-2036,247,-58,-6,-50,11541,1,6,-248,-80,35584,39,34,127,0,0,3278,-32,0,1164,6,169,31963,-4,0,0,0,364970,0
365005,51,-2046,243,-60,-21,-48,11541,0,2,-278,-64,35583,22,34,127,0,0,3280,0,0,1164,6,169,31973,-4,0,0,0,365002,0
365015,70,-2041,248,-60,-12,-54,11540,0,1,-246,-88,35586,23,34,127,0,0,3282,21,0,1164,6,169,31983,-4,0,0,0,365017,0
365025,68,-2033,250,-64,-7,-51,11541,-4,1,-254,-72,35585,25,34,127,0,0,3278,-21,0,1164,6,169,31993,-4,0,0,0,365017,0
365035,76,-2036,249,-57,-5,-52,11538,-5,-4,-301,-56,35586,28,34,127,0,0,3280,10,0,1164,6,169,32003,-4,0,0,0,365017,0
365045,82,-2040,239,-58,-10,-48,11539,-7,-1,-291,-56,35588,12,34,127,0,0,3280,10,0,1164,6,169,32013,-4,0,0,0,365017,0
365055,82,-2041,241,-62,-9,-48,11540,6,-1,-266,-72,35600,-4,34,127,0,0,3282,21,0,1164,6,169,32023,-4,0,0,0,365064,0
365065,86,-2037,251,-61,-8,-51,11540,-3,0,-252,-72,35601,7,34,127,0,0,3280,0,0,1164,6,169,32033,-4,0,0,0,365080,0
365075,76,-2035,246,-56,-6,-45,11541,3,-2,-282,-104,35586,24,34,127,0,0,3280,0,0,1164,6,169,32043,-4,0,0,0,365080,0
365085,84,-2038,242,-54,-6,-49,11539,-3,-4,-288,-72,35578,22,34,127,0,0,3280,32,0,1164,6,169,32053,-4,0,0,0,365080,0
365095,89,-2040,243,-59,-8,-49,11539,-9,-5,-268,-64,35583,18,34,127,0,0,3280,0,0,1164,6,169,32063,-4,0,0,0,365080,0
365105,67,-2042,249,-56,-8,-51,11542,1,-3,-260,-72,35589,27,34,127,0,0,3282,21,0,1164,6,169,32073,-4,0,0,0,365080,0
365115,57,-2041,254,-55,-3,-43,11540,-5,-4,-254,-64,35597,52,34,127,0,0,3280,0,0,1164,6,169,32083,-4,0,0,0,365126,0
365125,62,-2039,250,-53,-11,-47,11539,1,-6,-261,-72,35599,48,34,127,0,0,3280,0,0,1164,6,169,32093,-4,0,0,0,365126,0
365135,60,-2045,241,-54,-14,-48,11540,6,2,-262,-72,35602,44,34,127,0,0,3280,0,0,1164,6,169,32103,-4,0,0,0,365126,0
365145,66,-2040,247,-53,-3,-44,11539,-5,-4,-264,-72,35595,38,34,127,0,0,3276,-54,0,1164,6,169,32113,-4,0,0,0,365126,0
365155,71,-2034,247,-52,-3,-53,11539,2,-4,-308,-64,35592,21,34,127,0,0,3278,-21,0,1164,6,169,32123,-4,0,0,0,365126,0
365165,79,-2046,246,-50,-8,-47,11538,-11,-5,-303,-64,35598,23,34,127,0,0,3280,10,0,1164,6,169,32133,-4,0,0,0,365158,0
365175,57,-2038,250,-45,-7,-40,11540,0,3,-268,-72,35603,15,34,127,0,0,3278,-32,0,1164,6,169,32143,-4,0,0,0,365158,0
365185,46,-2044,250,-52,-1,-39,11540,12,1,-267,-72,35601,17,34,127,0,0,3280,-21,0,1164,6,169,32153,-4,0,0,0,365158,0
365195,73,-2038,245,-52,-12,-42,11539,-8,2,-258,-72,35594,41,34,127,0,0,3278,-21,0,1164,6,169,32163,-4,0,0,0,365189,0
365205,44,-2033,245,-55,-18,-34,11540,0,-2,-280,-64,35586,33,34,127,0,0,3280,0,0,1164,6,169,32173,-4,0,0,0,365189,0
365215,59,-2034,250,-52,-12,-38,11540,-1,2,-255,-72,35583,32,34,127,0,0,3280,-21,0,1164,6,169,32183,-4,0,0,0,365189,0
365225,77,-2034,235,-50,-8,-45,11539,-6,-1,-304,-56,35585,0,34,127,0,0,3280,32,0,1164,6,169,32193,-4,0,0,0,365205,0
365235,71,-2047,239,-55,-7,-37,11540,3,4,-271,-72,35588,-5,34,127,0,0,3278,-21,0,1164,6,169,32203,-4,0,0,0,365267,0
365245,60,-2037,242,-47,-4,-40,11538,-3,-2,-316,-104,35588,7,34,127,0,0,3276,-32,0,1164,6,169,32213,-4,0,0,0,365267,0
365255,52,-2037,241,-49,-6,-40,11537,-13,-6,-366,-88,35588,10,34,127,0,0,3280,43,0,1164,6,169,32223,-4,0,0,0,365267,0
365265,82,-2040,244,-48,-4,-38,11540,-2,6,-305,-56,35586,25,34,127,0,0,3278,10,0,1164,6,169,32233,-4,0,0,0,365267,0
365275,90,-2038,241,-47,-6,-42,11539,-1,2,-317,-56,35588,22,34,127,0,0,3280,21,0,1164,6,169,32243,-4,0,0,0,365267,0
365285,52,-2039,250,-45,-18,-35,11539,-5,1,-309,-48,35583,30,34,127,0,0,3276,-21,0,1164,6,169,32253,-4,0,0,0,365267,0
365295,103,-2034,251,-53,-3,-44,11539,5,2,-313,-72,35581,22,34,127,0,0,3280,0,0,1164,6,169,32263,-4,0,0,0,365267,0
365305,50,-2044,243,-49,-18,-38,11539,-3,3,-290,-96,35597,4,34,127,0,0,3278,-10,0,1164,6,169,32273,-4,0,0,0,365283,0
365315,81,-2038,246,-47,-5,-44,11539,7,-3,-296,-64,35597,-1,34,127,0,0,3280,0,0,1164,6,169,32283,-4,0,0,0,365298,0
365325,64,-2038,249,-52,-10,-44,11539,-7,0,-256,-32,35597,-2,34,127,0,0,3278,-10,0,1164,6,169,32293,-4,0,0,0,365298,0
365335,79,-2044,247,-47,-9,-54,11539,0,-8,-291,-64,35582,14,33,127,0,0,3282,32,0,1164,6,169,32303,-4,0,0,0,365314,0
365345,89,-2035,258,-50,-5,-49,11540,-15,4,-260,-72,35590,13,34,127,0,0,3282,32,0,1164,6,169,32313,-4,0,0,0,365330,0
365355,74,-2037,246,-52,-3,-44,11540,0,3,-256,-72,35597,5,34,127,0,0,3280,-10,0,1164,6,169,32323,-4,0,0,0,365345,0
365365,75,-2032,241,-48,-11,-52,11538,-4,-7,-303,-64,35593,25,34,127,0,0,3278,10,0,1164,6,169,32333,-4,0,0,0,365361,0
365375,72,-2031,244,-44,-10,-54,11539,-1,-1,-278,-64,35592,27,33,127,0,0,3280,-21,0,1164,6,169,32343,-4,0,0,0,365361,0
365385,59,-2047,236,-49,-8,-45,11539,2,2,-278,-104,35590,33,33,127,0,0,3280,-10,0,1164,6,169,32353,-4,0,0,0,365376,0
365395,52,-2035,244,-50,-11,-45,11540,-1,0,-291,-104,35597,11,34,127,0,0,3280,10,0,1164,6,169,32363,-4,0,0,0,365376,0
365405,75,-2038,239,-50,-17,-47,11538,-6,0,-309,-96,35597,15,34,127,0,0,3280,32,0,1164,6,169,32373,-4,0,0,0,365408,0
365415,73,-2044,240,-45,-13,-49,11541,11,4,-272,-120,35586,22,34,127,0,0,3280,-21,0,1164,6,169,32383,-4,0,0,0,365408,0
365425,75,-2046,240,-46,-7,-49,11539,7,-5,-295,-56,35576,8,34,127,0,0,3280,21,0,1164,6,169,32393,-4,0,0,0,365408,0
365435,79,-2038,258,-41,-10,-51,11539,-5,0,-295,-56,35575,23,34,127,0,0,3280,32,0,1164,6,169,32403,-4,0,0,0,365423,0
365445,66,-2033,255,-48,-12,-55,11539,-5,-3,-302,-56,35582,15,34,127,0,0,3278,0,0,1164,6,169,32413,-4,0,0,0,365423,0
365455,58,-2035,247,-51,-10,-62,11540,8,1,-281,-72,35587,36,34,127,0,0,3280,0,0,1164,6,169,32423,-4,0,0,0,365439,0
365465,79,-2040,239,-48,-13,-58,11538,-16,-4,-338,-72,35585,38,34,127,0,0,3280,32,0,1164,6,169,32433,-4,0,0,0,365439,0
365475,80,-2032,241,-48,0,-58,11540,3,-1,-320,-56,35584,35,34,127,0,0,3278,-10,0,1164,6,169,32443,-4,0,0,0,365486,0
365485,55,-2040,241,-44,-12,-52,11538,11,2,-300,-16,35581,31,34,127,0,0,3278,10,0,1164,6,169,32453,-4,0,0,0,365486,0
365495,91,-2033,249,-44,-13,-60,11537,-17,-2,-306,-64,35575,29,34,127,0,0,3278,-10,0,1164,6,169,32463,-4,0,0,0,365486,0
365505,52,-2037,244,-45,-18,-50,11539,0,1,-311,-104,35568,39,34,127,0,0,3280,0,0,1164,6,169,32473,-4,0,0,0,365486,0
365515,40,-2044,241,-43,-14,-51,11539,14,6,-289,-64,35566,19,34,127,0,0,3280,0,0,1164,6,169,32483,-4,0,0,0,365501,0
365525,66,-2043,243,-40,-13,-52,11539,-4,-3,-323,-120,35572,16,34,127,0,0,3276,-10,0,1164,6,169,32493,-4,0,0,0,365501,0
365535,66,-2043,239,-42,-8,-51,11540,8,0,-337,-136,35576,21,34,127,0,0,3276,-54,0,1164,6,169,32503,-4,0,0,0,365517,0
365545,57,-2042,240,-40,-1,-48,11539,9,7,-325,-136,35573,18,34,127,0,0,3278,-32,0,1164,6,169,32513,-4,0,0,0,365533,0
365555,47,-2038,241,-38,-11,-53,11539,3,0,-332,-120,35568,10,33,127,0,0,3276,-21,0,1164,6,169,32523,-4,0,0,0,365533,0
365565,53,-2044,245,-34,-12,-49,11537,1,8,-335,-104,35574,25,34,127,0,0,3278,0,0,1164,6,169,32533,-4,0,0,0,365548,0
365575,62,-2033,245,-37,-14,-49,11539,7,5,-321,-88,35571,32,33,127,0,0,3280,-10,0,1164,6,169,32543,-4,0,0,0,365548,0
365585,82,-2035,241,-35,-5,-45,11540,19,6,-271,-72,35567,49,33,127,0,0,3276,-65,0,1164,6,169,32553,-4,0,0,0,365564,0
365595,67,-2046,247,-35,-9,-49,11537,-1,0,-319,-136,35568,27,34,127,0,0,3276,-43,0,1164,6,169,32563,-4,0,0,0,365595,0
365605,88,-2035,243,-33,-2,-52,11539,-5,2,-372,-80,35579,34,33,127,0,0,3276,-10,0,1164,6,169,32573,-4,0,0,0,365595,0
365615,90,-2035,248,-40,4,-51,11537,-1,4,-364,-40,35583,29,34,127,0,0,3276,-21,0,1164,6,169,32583,-4,0,0,0,365595,0
365625,56,-2041,247,-26,-6,-42,11538,-1,-2,-332,-56,35576,27,34,127,0,0,3278,21,0,1164,6,169,32593,-4,0,0,0,365595,0
365635,71,-2031,254,-33,-4,-44,11538,-7,-2,-311,-56,35576,28,34,127,0,0,3278,10,0,1164,6,169,32603,-4,0,0,0,365642,0
365645,63,-2041,249,-29,0,-45,11539,-5,-2,-317,-56,35582,20,34,127,0,0,3280,32,0,1164,6,169,32613,-4,0,0,0,365642,0
365655,67,-2039,251,-28,-2,-37,11539,-7,-4,-315,-48,35582,21,34,127,0,0,3280,21,0,1164,6,169,32623,-4,0,0,0,365642,0
365665,80,-2034,253,-38,-8,-43,11540,3,-3,-311,-56,35574,28,34,127,0,0,3276,-10,0,1164,6,169,32633,-4,0,0,0,365642,0
365675,76,-2040,254,-39,-7,-43,11537,-4,-6,-362,-40,35571,41,34,127,0,0,3280,43,0,1164,6,169,32643,-4,0,0,0,365658,0
365685,78,-2038,249,-42,-7,-45,11540,3,0,-352,-128,35578,21,34,127,0,0,3280,21,0,1164,6,169,32653,-4,0,0,0,365689,0
365695,55,-2043,238,-35,2,-32,11539,15,4,-323,-56,35584,11,34,127,0,0,3276,0,0,1164,6,169,32663,-4,0,0,0,365720,0
365705,30,-2036,255,-41,-20,-39,11537,-17,-6,-367,-72,35583,18,34,127,0,0,3280,32,0,1164,6,169,32673,-4,0,0,0,365736,0
365715,69,-2040,243,-32,-5,-39,11541,7,4,-293,-64,35572,27,34,127,0,0,3280,10,0,1164,6,169,32683,-4,0,0,0,365736,0
365725,72,-2038,253,-38,-10,-44,11540,6,5,-280,-72,35567,27,34,127,0,0,3276,-21,0,1164,6,169,32693,-4,0,0,0,365736,0
365735,82,-2037,247,-35,-6,-47,11538,2,-10,-318,-104,35571,16,34,127,0,0,3278,-21,0,1164,6,169,32703,-4,0,0,0,365751,0
365745,91,-2038,250,-36,-4,-45,11539,-3,3,-327,-88,35579,16,33,127,0,0,3278,10,0,1164,6,169,32713,-4,0,0,0,365751,0
365755,92,-2035,244,-39,2,-43,11539,-1,1,-298,-64,35577,27,33,127,0,0,3280,21,0,1164,6,169,32723,-4,0,0,0,365751,0
365765,55,-2035,247,-42,-8,-40,11538,-5,-1,-263,-64,35572,9,34,127,0,0,3278,-32,0,1164,6,169,32733,-4,0,0,0,365751,0
365775,68,-2037,249,-38,-5,-45,11538,-5,-6,-302,-104,35579,24,34,127,0,0,3278,-10,0,1164,6,169,32743,-4,0,0,0,365751,0
365785,68,-2041,248,-36,-15,-43,11538,-1,2,-355,-80,35591,38,34,127,0,0,3280,65,0,1164,6,169,32753,-4,0,0,0,365767,0
365795,76,-2032,247,-41,-7,-38,11540,3,11,-296,-72,35592,58,34,127,0,0,3280,21,0,1164,6,169,32763,-4,0,0,0,365798,0
365805,60,-2036,255,-45,-15,-50,11539,-7,0,-281,-64,35588,59,34,127,0,0,3280,21,0,1164,6,169,32773,-4,0,0,0,365798,0
365815,68,-2038,257,-38,-10,-43,11540,-3,-2,-295,-96,35582,33,34,127,0,0,3278,-10,0,1164,6,169,32783,-4,0,0,0,365798,0
365825,60,-2036,256,-48,-13,-49,11541,8,7,-292,-72,35581,16,34,127,0,0,3276,-43,0,1164,6,169,32793,-4,0,0,0,365798,0
365835,65,-2036,248,-47,-15,-48,11537,-9,-1,-342,-136,35583,12,34,127,0,0,3280,21,0,1164,6,169,32803,-4,0,0,0,365829,0
365845,93,-2035,248,-48,-7,-47,11540,1,0,-274,-72,35588,17,34,127,0,0,3280,0,0,1164,6,169,32813,-4,0,0,0,365829,0
365855,64,-2042,250,-43,-6,-49,11539,-2,3,-277,-64,35587,17,34,127,0,0,3278,-10,0,1164,6,169,32823,-4,0,0,0,365829,0
365865,47,-2034,251,-42,-15,-44,11540,0,-6,-299,-56,35585,5,34,127,0,0,3280,10,0,1164,6,169,32833,-4,0,0,0,365845,0
365875,86,-2037,251,-44,-8,-47,11538,-10,1,-282,-64,35584,18,34,127,0,0,3276,-21,0,1164,6,169,32843,-4,0,0,0,365892,0
365885,15,-2039,258,-41,-21,-46,11538,-3,-6,-330,-56,35587,25,34,127,0,0,3280,0,0,1164,6,169,32853,-4,0,0,0,365892,0
365895,52,-2026,258,-47,-20,-46,11539,0,-2,-284,-56,35582,24,34,127,0,0,3280,0,0,1164,6,169,32863,-4,0,0,0,365892,0
365905,49,-2030,252,-44,-11,-45,11541,7,4,-269,-104,35583,17,34,127,0,0,3280,-32,0,1164,6,169,32873,-4,0,0,0,365892,0
365915,37,-2037,246,-43,-17,-45,11539,3,-6,-286,-56,35580,13,34,127,0,0,3280,10,0,1164,6,169,32883,-4,0,0,0,365892,0
365925,56,-2043,250,-45,-10,-48,11539,0,0,-263,-72,35583,20,34,127,0,0,3280,0,0,1164,6,169,32893,-4,0,0,0,365908,0
365935,56,-2047,252,-47,-12,-45,11540,1,2,-284,-56,35592,12,34,127,0,0,3280,0,0,1164,6,169,32903,-4,0,0,0,365923,0
365945,62,-2047,249,-45,-7,-44,11540,-1,-2,-283,-104,35600,19,34,127,0,0,3278,-32,0,1164,6,169,32913,-4,0,0,0,365923,0
365955,47,-2047,250,-51,-11,-48,11538,-9,-5,-308,-56,35597,27,34,127,0,0,3276,-21,0,1164,6,169,32923,-4,0,0,0,365939,0
365965,47,-2039,238,-46,-9,-51,11537,-13,-8,-326,-104,35588,32,34,127,0,0,3280,10,0,1164,6,169,32933,-4,0,0,0,365954,0
365975,35,-2043,249,-40,-13,-41,11539,-1,-3,-266,-64,35591,30,34,127,0,0,3278,-21,0,1164,6,169,32943,-4,0,0,0,365954,0
365985,60,-2034,253,-46,-6,-47,11537,-12,-6,-341,-72,35597,3,34,127,0,0,3278,21,0,1164,6,169,32953,-4,0,0,0,365954,0
365995,69,-2048,254,-49,-7,-47,11539,0,-1,-304,-24,35599,17,34,127,0,0,3278,-10,0,1164,6,169,32963,-4,0,0,0,365986,0
366005,46,-2034,253,-50,-6,-49,11537,-7,2,-296,-64,35588,29,34,127,0,0,3280,10,0,1164,6,169,32973,-4,0,0,0,365986,0
366015,43,-2029,252,-46,-6,-49,11539,3,-3,-300,-96,35591,31,34,127,0,0,3273,-65,0,1164,6,169,32983,-4,0,0,0,366001,0
366025,30,-2044,254,-50,-4,-52,11539,10,1,-338,-48,35581,13,34,127,0,0,3276,-43,0,1164,6,169,32993,-4,0,0,0,366001,0
366035,68,-2037,256,-48,-6,-53,11537,-9,-1,-313,-104,35600,-15,34,127,0,0,3280,-10,0,1164,6,169,33003,-4,0,0,0,366017,0
366045,91,-2033,246,-49,-1,-41,11539,-2,3,-290,-56,35598,6,34,127,0,0,3278,-21,0,1164,6,169,33013,-4,0,0,0,366033,0
366055,82,-2034,239,-56,-1,-49,11540,12,-1,-266,-80,35594,16,34,127,0,0,3280,-10,0,1164,6,169,33023,-4,0,0,0,366033,0
366065,77,-2041,246,-50,-10,-41,11539,-9,-2,-270,-104,35593,15,34,127,0,0,3280,0,0,1164,6,169,33033,-4,0,0,0,366111,0
366075,79,-2043,243,-51,-8,-46,11539,1,-6,-288,-56,35599,12,34,127,0,0,3280,10,0,1164,6,169,33043,-4,0,0,0,366111,0
366085,58,-2037,246,-51,-12,-50,11540,-2,0,-295,-56,35602,12,34,127,0,0,3278,10,0,1164,6,169,33053,-4,0,0,0,366111,0
366095,81,-2033,243,-52,-12,-49,11537,-11,-2,-314,-16,35594,20,34,127,0,0,3280,54,0,1164,6,169,33063,-4,0,0,0,366111,0
366105,51,-2040,254,-43,-9,-45,11539,-6,3,-264,-72,35588,37,34,127,0,0,3278,-21,0,1164,6,169,33073,-4,0,0,0,366126,0
366115,72,-2036,260,-44,-12,-49,11538,-5,-4,-336,-40,35589,32,34,127,0,0,3276,0,0,1164,6,169,33083,-4,0,0,0,366126,0
366125,31,-2036,258,-47,-6,-49,11539,-4,-3,-331,-56,35584,38,34,127,0,0,3278,-10,0,1164,6,169,33093,-4,0,0,0,366126,0
366135,72,-2038,257,-50,-15,-47,11539,1,3,-315,-56,35581,29,33,127,0,0,3276,-32,0,1164,6,169,33103,-4,0,0,0,366126,0
366145,33,-2039,251,-47,-6,-44,11538,7,-1,-278,-72,35582,32,33,127,0,0,3278,-21,0,1164,6,169,33113,-4,0,0,0,366126,0
366155,36,-2039,251,-48,-17,-46,11537,-11,-1,-310,-96,35595,11,34,127,0,0,3280,21,0,1164,6,169,33123,-4,0,0,0,366126,0
366165,93,-2036,242,-52,-4,-46,11539,4,2,-314,-64,35605,3,34,127,0,0,3280,32,0,1164,6,169,33133,-4,0,0,0,366173,0
366175,82,-2033,245,-48,-4,-50,11539,-7,8,-286,-56,35598,18,34,127,0,0,3278,-10,0,1164,6,169,33143,-4,0,0,0,366173,0
366185,64,-2034,251,-50,-11,-49,11540,2,-6,-303,-56,35588,16,33,127,0,0,3280,10,0,1164,6,169,33153,-4,0,0,0,366173,0
366195,76,-2039,248,-49,-2,-41,11539,-2,1,-284,-56,35578,8,33,127,0,0,3280,0,0,1164,6,169,33163,-4,0,0,0,366173,0
366205,62,-2037,256,-51,-10,-46,11539,9,4,-288,-56,35593,18,34,127,0,0,3280,10,0,1164,6,169,33173,-4,0,0,0,366173,0
366215,75,-2042,247,-50,-6,-44,11539,3,4,-270,-64,35594,39,34,127,0,0,3278,-21,0,1164,6,169,33183,-4,0,0,0,366204,0
366225,44,-2041,245,-48,-11,-44,11540,3,2,-303,-56,35588,44,34,127,0,0,3278,-21,0,1164,6,169,33193,-4,0,0,0,366204,0
366235,64,-2034,248,-42,-10,-43,11539,0,1,-321,-88,35577,13,34,127,0,0,3280,32,0,1164,6,169,33203,-4,0,0,0,366220,0
366245,87,-2039,240,-48,-1,-48,11539,-9,3,-282,-64,35585,10,34,127,0,0,3278,-10,0,1164,6,169,33213,-4,0,0,0,366236,0
366255,52,-2036,245,-49,-12,-48,11538,8,1,-308,-56,35591,18,34,127,0,0,3280,21,0,1164,6,169,33223,-4,0,0,0,366236,0
366265,81,-2036,252,-44,0,-44,11540,3,6,-287,-64,35590,31,34,127,0,0,3280,21,0,1164,6,169,33233,-4,0,0,0,366251,0
366275,62,-2039,251,-50,-9,-45,11538,-7,-1,-285,-56,35585,34,34,127,0,0,3280,0,0,1164,6,169,33243,-4,0,0,0,366251,0
366285,60,-2044,249,-47,-2,-46,11540,9,3,-257,-80,35591,18,34,127,0,0,3278,-32,0,1164,6,169,33253,-4,0,0,0,366267,0
366295,55,-2031,255,-42,-6,-45,11539,-1,-4,-277,-64,35592,15,34,127,0,0,3280,0,0,1164,6,169,33263,-4,0,0,0,366282,0
366305,78,-2041,250,-50,-6,-47,11538,-5,-1,-283,-64,35590,11,34,127,0,0,3278,0,0,1164,6,169,33273,-4,0,0,0,366298,0
366315,67,-2039,252,-49,-11,-47,11538,1,-1,-276,-32,35583,18,34,127,0,0,3280,-10,0,1164,6,169,33283,-4,0,0,0,366298,0
366325,74,-2037,244,-49,-6,-46,11540,3,5,-277,-64,35578,5,34,127,0,0,3280,21,0,1164,6,169,33293,-4,0,0,0,366298,0
366335,63,-2037,241,-41,-4,-42,11539,0,-2,-283,-56,35588,1,34,127,0,0,3280,0,0,1164,6,169,33303,-4,0,0,0,366329,0
366345,67,-2036,256,-52,-8,-45,11540,3,7,-270,-72,35583,18,34,127,0,0,3280,0,0,1164,6,169,33313,-4,0,0,0,366329,0
366355,67,-2041,247,-48,-11,-44,11539,1,-5,-287,-104,35578,22,34,127,0,0,3278,0,0,1164,6,169,33323,-4,0,0,0,366329,0
366365,57,-2038,253,-39,-9,-44,11538,2,0,-307,-64,35573,12,34,127,0,0,3280,10,0,1164,6,169,33333,-4,0,0,0,366345,0
366375,67,-2036,254,-43,-11,-44,11539,4,7,-321,-128,35583,6,34,127,0,0,3280,21,0,1164,6,169,33343,-4,0,0,0,366345,0
366385,97,-2045,245,-49,-7,-47,11541,14,1,-248,-88,35592,13,34,127,0,0,3278,-54,0,1164,6,169,33353,-4,0,0,0,366365,0
366395,62,-2036,246,-45,-11,-49,11536,-16,-12,-311,-64,35588,37,34,127,0,0,3278,21,0,1164,6,169,33363,-4,0,0,0,366396,0
366405,65,-2032,247,-53,-14,-49,11539,-11,-2,-314,-72,35583,22,34,127,0,0,3278,0,0,1164,6,169,33373,-4,0,0,0,366396,0
366415,73,-2040,248,-50,-3,-47,11540,7,7,-290,-64,35584,29,34,127,0,0,3280,0,0,1164,6,169,33383,-4,0,0,0,366396,0
366425,80,-2037,254,-48,-14,-51,11540,3,2,-296,-56,35582,16,34,127,0,0,3280,32,0,1164,6,169,33393,-4,0,0,0,366396,0
366435,84,-2040,254,-48,-10,-45,11541,3,3,-270,-64,35582,13,34,127,0,0,3280,0,0,1164,6,169,33403,-4,0,0,0,366490,0
366445,75,-2035,244,-52,-4,-44,11537,-4,2,-284,-56,35579,23,34,127,0,0,3280,0,0,1164,6,169,33413,-4,0,0,0,366490,0
366455,75,-2043,252,-50,0,-43,11539,-5,-2,-285,-64,35582,14,34,127,0,0,3278,-10,0,1164,6,169,33423,-4,0,0,0,366490,0
366465,53,-2048,256,-50,-11,-41,11539,-1,0,-308,-56,35577,21,34,127,0,0,3280,32,0,1164,6,169,33433,-4,0,0,0,366490,0
366475,80,-2034,249,-50,-13,-45,11538,-6,3,-285,-56,35570,20,34,127,0,0,3278,0,0,1164,6,169,33443,-4,0,0,0,366490,0
366485,64,-2044,251,-50,-10,-47,11540,-3,1,-295,-64,35569,24,34,127,0,0,3280,21,0,1164,6,169,33453,-4,0,0,0,366505,0
366495,48,-2044,241,-49,-12,-46,11540,0,-3,-290,-136,35568,18,34,127,0,0,3278,-21,0,1164,6,169,33463,-4,0,0,0,366505,0
366505,76,-2044,245,-49,-1,-49,11539,1,-3,-311,-56,35574,7,34,127,0,0,3278,-10,0,1164,6,169,33473,-4,0,0,0,366505,0
366515,89,-2044,252,-49,0,-48,11536,-15,1,-317,-64,35582,17,34,127,0,0,3276,0,0,1164,6,169,33483,-4,0,0,0,366505,0
366525,34,-2022,257,-49,-17,-43,11538,-7,-3,-328,-56,35582,14,34,127,0,0,3280,0,0,1164,6,169,33493,-4,0,0,0,366505,0
366535,57,-2031,256,-52,-9,-40,11538,2,10,-293,-56,35595,12,34,127,0,0,3280,10,0,1164,6,169,33503,-4,0,0,0,366521,0
366545,59,-2034,249,-51,-10,-54,11538,-2,-4,-282,-64,35593,0,34,127,0,0,3278,-10,0,1164,6,169,33513,-4,0,0,0,366537,0
366555,37,-2031,249,-50,-10,-53,11539,0,-4,-319,-88,35594,13,34,127,0,0,3278,0,0,1164,6,169,33523,-4,0,0,0,366537,0
366565,70,-2027,245,-53,-7,-49,11538,0,-1,-312,-56,35581,20,34,127,0,0,3278,10,0,1164,6,169,33533,-4,0,0,0,366568,0
366575,70,-2031,248,-53,1,-52,11538,-2,0,-282,-64,35580,13,34,127,0,0,3280,-21,0,1164,6,169,33543,-4,0,0,0,366568,0
366585,82,-2046,250,-50,-7,-49,11538,10,-5,-288,-64,35582,20,34,127,0,0,3276,-21,0,1164,6,169,33553,-4,0,0,0,366568,0
366595,115,-2034,250,-54,-8,-51,11537,-12,-4,-369,-40,35580,24,34,127,0,0,3280,32,0,1164,6,169,33563,-4,0,0,0,366568,0
366605,78,-2034,245,-52,-16,-46,11540,4,6,-312,-104,35574,20,34,127,0,0,3280,21,0,1164,6,169,33573,-4,0,0,0,366584,0
366615,63,-2043,244,-49,-8,-47,11540,8,0,-284,-104,35579,26,34,127,0,0,3280,0,0,1164,6,169,33583,-4,0,0,0,366662,0
366625,75,-2045,247,-48,-13,-53,11539,-4,-8,-284,-64,35588,-3,34,127,0,0,3280,21,0,1164,6,169,33593,-4,0,0,0,366662,0
366635,71,-2035,247,-53,-5,-50,11539,-3,1,-292,-88,35589,6,33,127,0,0,3278,-32,0,1164,6,169,33603,-4,0,0,0,366662,0
366645,68,-2043,248,-49,-9,-50,11539,17,0,-342,-128,35577,18,34,127,0,0,3280,21,0,1164,6,169,33613,-4,0,0,0,366662,0
366655,51,-2043,247,-52,-11,-41,11539,8,5,-298,-104,35572,29,34,127,0,0,3280,21,0,1164,6,169,33623,-4,0,0,0,366677,0
366665,59,-2049,242,-50,-9,-44,11538,0,-2,-286,-56,35577,25,34,127,0,0,3278,-10,0,1164,6,169,33633,-4,0,0,0,366677,0
366675,88,-2043,245,-50,-16,-54,11539,8,3,-287,-64,35589,7,34,127,0,0,3278,-21,0,1164,6,169,33643,-4,0,0,0,366677,0
366685,49,-2040,246,-46,-13,-44,11538,-12,0,-301,-56,35587,15,34,127,0,0,3280,0,0,1164,6,169,33653,-4,0,0,0,366677,0
366695,59,-2033,242,-46,-11,-49,11540,11,-6,-284,-56,35578,16,33,127,0,0,3280,10,0,1164,6,169,33663,-4,0,0,0,366677,0
366705,70,-2037,241,-53,-6,-43,11540,-4,5,-285,-56,35576,5,34,127,0,0,3280,10,0,1164,6,169,33673,-4,0,0,0,366677,0
366715,78,-2039,250,-46,-2,-44,11540,3,-1,-301,-104,35594,-4,34,127,0,0,3280,21,0,1164,6,169,33683,-4,0,0,0,366709,0
366725,80,-2032,253,-49,-5,-48,11539,1,-1,-287,-64,35599,1,34,127,0,0,3280,21,0,1164,6,169,33693,-4,0,0,0,366709,0
366735,64,-2038,255,-50,-8,-49,11539,6,3,-277,-104,35592,12,34,127,0,0,3280,-32,0,1164,6,169,33703,-4,0,0,0,366709,0
366745,87,-2039,247,-46,-4,-38,11539,9,3,-314,-128,35583,20,34,127,0,0,3280,10,0,1164,6,169,33713,-4,0,0,0,366740,0
366755,77,-2039,242,-43,-6,-41,11539,1,0,-290,-64,35591,16,34,127,0,0,3278,0,0,1164,6,169,33723,-4,0,0,0,366740,0
366765,44,-2036,252,-47,-13,-46,11538,-8,-1,-321,-88,35592,23,34,127,0,0,3276,-21,0,1164,6,169,33733,-4,0,0,0,366740,0
366775,76,-2035,250,-43,-6,-47,11538,4,1,-323,-64,35582,23,34,127,0,0,3280,10,0,1164,6,169,33743,-4,0,0,0,366755,0
366785,68,-2033,252,-49,-10,-42,11537,-6,0,-282,-64,35581,37,34,127,0,0,3278,0,0,1164,6,169,33753,-4,0,0,0,366771,0
366795,79,-2040,252,-49,-11,-49,11537,-10,-8,-314,-56,35584,23,34,127,0,0,3278,0,0,1164,6,169,33763,-4,0,0,0,366787,0
366805,58,-2038,250,-52,-9,-43,11539,5,2,-286,-64,35590,24,33,127,0,0,3280,0,0,1164,6,169,33773,-4,0,0,0,366802,0
366815,60,-2040,248,-51,-16,-45,11539,0,2,-293,-136,35584,29,34,127,0,0,3280,-10,0,1164,6,169,33783,-4,0,0,0,366818,0
366825,70,-2053,246,-54,-9,-47,11538,10,-4,-318,-40,35575,22,34,127,0,0,3280,10,0,1164,6,169,33793,-4,0,0,0,366818,0
366835,79,-2044,245,-53,-1,-52,11537,-7,1,-323,-56,35574,16,34,127,0,0,3280,43,0,1164,6,169,33803,-4,0,0,0,366834,0
366845,61,-2048,246,-53,-21,-47,11539,2,3,-303,-56,35579,35,34,127,0,0,3278,10,0,1164,6,169,33813,-4,0,0,0,366834,0
366855,87,-2040,251,-50,-15,-55,11538,-2,0,-318,-88,35585,53,34,127,0,0,3280,10,0,1164,6,169,33823,-4,0,0,0,366834,0
366865,90,-2034,248,-51,-13,-53,11539,0,-1,-315,-88,35582,55,34,127,0,0,3276,-10,0,1164,6,169,33833,-4,0,0,0,366849,0
366875,92,-2042,245,-56,-9,-52,11537,-6,-3,-352,-88,35579,32,34,127,0,0,3282,54,0,1164,6,169,33843,-4,0,0,0,366880,0
366885,92,-2030,251,-53,-11,-47,11539,4,1,-304,-48,35588,33,34,127,0,0,3280,21,0,1164,6,169,33853,-4,0,0,0,366896,0
366895,95,-2036,245,-54,-3,-54,11539,-6,4,-331,-56,35594,26,34,127,0,0,3280,43,0,1164,6,169,33863,-4,0,0,0,366896,0
366905,62,-2030,242,-51,-20,-43,11539,1,-1,-318,-40,35587,32,34,127,0,0,3278,32,0,1164,6,169,33873,-4,0,0,0,366896,0
366915,121,-2027,244,-48,-7,-50,11540,0,0,-305,-24,35572,18,34,127,0,0,3278,0,0,1164,6,169,33883,-4,0,0,0,366896,0
366925,33,-2041,251,-49,-15,-38,11537,-14,-6,-330,-40,35577,2,34,127,0,0,3278,21,0,1164,6,169,33893,-4,0,0,0,366896,0
366935,99,-2030,241,-53,-13,-47,11539,3,-1,-288,-64,35590,4,34,127,0,0,3280,0,0,1164,6,169,33903,-4,0,0,0,366927,0
366945,59,-2040,249,-46,-14,-44,11540,3,1,-257,-32,35593,11,34,127,0,0,3278,-21,0,1164,6,169,33913,-4,0,0,0,366927,0
366955,75,-2046,249,-54,-12,-53,11537,-11,-7,-311,-64,35584,25,33,127,0,0,3278,21,0,1164,6,169,33923,-4,0,0,0,366958,0
366965,49,-2028,255,-50,-12,-47,11538,-3,-6,-285,-72,35581,16,34,127,0,0,3278,-32,0,1164,6,169,33933,-4,0,0,0,366958,0
366975,63,-2036,252,-50,-13,-47,11539,6,3,-282,-64,35588,11,34,127,0,0,3280,10,0,1164,6,169,33943,-4,0,0,0,366958,0
366985,60,-2036,239,-45,-13,-50,11539,-11,0,-250,-32,35591,25,34,127,0,0,3280,-21,0,1164,6,169,33953,-4,0,0,0,366958,0
366995,54,-2045,243,-52,-9,-46,11539,1,-10,-280,-64,35587,31,34,127,0,0,3276,-21,0,1164,6,169,33963,-4,0,0,0,366990,0
367005,34,-2049,242,-45,-7,-45,11538,-5,-3,-309,-64,35586,19,34,127,0,0,3280,0,0,1164,6,169,33973,-4,0,0,0,366990,0
367015,55,-2044,253,-43,-16,-45,11540,0,1,-262,-72,35590,4,34,127,0,0,3280,0,0,1164,6,169,33983,-4,0,0,0,366990,0
367025,71,-2045,244,-50,-8,-51,11539,-2,-2,-283,-64,35588,4,34,127,0,0,3280,21,0,1164,6,169,33993,-4,0,0,0,367005,0
367035,71,-2042,244,-50,-14,-47,11540,4,-1,-261,-72,35588,11,34,127,0,0,3280,-21,0,1164,6,169,34003,-4,0,0,0,367021,0
367045,76,-2049,253,-50,-5,-49,11539,2,-2,-267,-72,35597,8,34,127,0,0,3280,0,0,1164,6,169,34013,-4,0,0,0,367021,0
367055,54,-2044,255,-46,-4,-45,11538,-6,-3,-282,-56,35604,14,34,127,0,0,3278,-21,0,1164,6,169,34023,-4,0,0,0,367068,0
367065,42,-2037,250,-53,-14,-45,11539,11,-1,-305,-56,35600,25,34,127,0,0,3280,21,0,1164,6,169,34033,-4,0,0,0,367083,0
367075,78,-2037,253,-52,-9,-53,11539,-2,7,-258,-80,35588,28,34,127,0,0,3278,-43,0,1164,6,169,34043,-4,0,0,0,367083,0
367085,26,-2043,256,-58,-16,-48,11540,15,-2,-256,-72,35581,32,34,127,0,0,3278,-43,0,1164,6,169,34053,-4,0,0,0,367083,0
367095,67,-2037,246,-56,-18,-57,11537,-12,-3,-315,-120,35582,15,34,127,0,0,3280,0,0,1164,6,169,34063,-4,0,0,0,367083,0
367105,77,-2036,240,-53,-14,-51,11539,12,-2,-297,-104,35590,19,34,127,0,0,3280,0,0,1164,6,169,34073,-4,0,0,0,367099,0
367115,68,-2038,236,-59,-12,-51,11539,1,5,-284,-56,35600,29,34,127,0,0,3280,10,0,1164,6,169,34083,-4,0,0,0,367099,0
367125,60,-2030,243,-56,-8,-55,11540,5,-1,-285,-56,35603,26,34,127,0,0,3278,-21,0,1164,6,169,34093,-4,0,0,0,367099,0
367135,60,-2033,244,-53,-12,-51,11538,4,1,-304,-56,35603,21,34,127,0,0,3276,-43,0,1164,6,169,34103,-4,0,0,0,367130,0
367145,55,-2039,243,-52,-10,-51,11536,-2,-6,-317,-64,35600,15,34,127,0,0,3280,21,0,1164,6,169,34113,-4,0,0,0,367130,0
367155,63,-2037,250,-52,-6,-49,11540,0,7,-281,-56,35598,29,34,127,0,0,3278,-10,0,1164,6,169,34123,-4,0,0,0,367130,0
367165,52,-2042,242,-46,-8,-53,11539,-3,3,-338,-120,35593,26,34,127,0,0,3276,-10,0,1164,6,169,34133,-4,0,0,0,367146,0
367175,79,-2040,250,-48,-10,-50,11537,-7,-4,-379,-80,35597,18,34,127,0,0,3278,32,0,1164,6,169,34143,-4,0,0,0,367240,0
367185,64,-2038,245,-48,-9,-47,11539,6,1,-321,-88,35597,13,34,127,0,0,3278,-10,0,1164,6,169,34153,-4,0,0,0,367240,0
367195,82,-2039,249,-47,-14,-51,11537,0,1,-324,-96,35601,20,34,127,0,0,3278,-10,0,1164,6,169,34163,-4,0,0,0,367240,0
367205,64,-2045,244,-47,-16,-47,11538,2,-2,-309,-56,35589,25,34,127,0,0,3278,0,0,1164,6,169,34173,-4,0,0,0,367240,0
367215,75,-2038,246,-45,-18,-54,11539,1,2,-310,-56,35582,7,34,127,0,0,3280,10,0,1164,6,169,34183,-4,0,0,0,367255,0
367225,76,-2040,235,-47,-20,-48,11538,-5,-3,-342,-112,35582,13,33,127,0,0,3280,32,0,1164,6,169,34193,-4,0,0,0,367255,0
367235,90,-2038,239,-42,-11,-44,11539,9,6,-327,-48,35583,16,34,127,0,0,3276,-21,0,1164,6,169,34203,-4,0,0,0,367255,0
367245,25,-2037,238,-43,-17,-46,11537,4,-5,-368,-112,35584,13,34,127,0,0,3278,21,0,1164,6,169,34213,-4,0,0,0,367255,0
367255,64,-2042,242,-40,-14,-49,11539,-4,-1,-311,-56,35582,21,34,127,0,0,3278,-32,0,1164,6,169,34223,-4,0,0,0,367255,0
367265,26,-2041,245,-44,-22,-48,11538,9,-4,-315,-56,35584,10,34,127,0,0,3278,0,0,1164,6,169,34233,-4,0,0,0,367255,0
367275,59,-2037,251,-45,-20,-55,11537,-7,-3,-308,-88,35583,13,34,127,0,0,3278,-21,0,1164,6,169,34243,-4,0,0,0,367255,0
367285,78,-2036,253,-43,-3,-48,11540,15,1,-287,-64,35585,21,34,127,0,0,3278,-21,0,1164,6,169,34253,-4,0,0,0,367255,0
367295,76,-2029,247,-42,-6,-52,11536,-6,-6,-296,-104,35599,29,34,127,0,0,3276,-43,0,1164,6,169,34263,-4,0,0,0,367287,0
367305,72,-2046,241,-40,0,-50,11538,-1,-1,-368,-72,35603,34,34,127,0,0,3278,10,0,1164,6,169,34273,-4,0,0,0,367287,0
367315,76,-2036,246,-47,-1,-44,11541,8,11,-343,-40,35600,18,34,127,0,0,3278,10,0,1164,6,169,34283,-4,0,0,0,367287,0
367325,61,-2041,255,-43,-9,-44,11538,0,2,-339,-120,35585,20,34,127,0,0,3276,-21,0,1164,6,169,34293,-4,0,0,0,367302,0
367335,63,-2041,250,-44,-13,-40,11537,3,-3,-360,-40,35583,13,34,127,0,0,3278,21,0,1164,6,169,34303,-4,0,0,0,367318,0
367345,57,-2039,256,-44,-9,-47,11536,-11,3,-367,-72,35587,15,34,127,0,0,3278,43,0,1164,6,169,34313,-4,0,0,0,367318,0
367355,78,-2035,248,-47,-13,-50,11538,-4,2,-377,-80,35597,22,34,127,0,0,3276,10,0,1164,6,169,34323,-4,0,0,0,367365,0
367365,45,-2030,256,-43,-8,-46,11539,13,1,-316,-64,35591,39,34,127,0,0,3278,-10,0,1164,6,169,34333,-4,0,0,0,367380,0
367375,43,-2031,254,-45,-14,-54,11537,-1,-7,-304,-96,35580,40,34,127,0,0,3276,-32,0,1164,6,169,34343,-4,0,0,0,367380,0
367385,50,-2043,246,-47,-10,-54,11538,5,-2,-329,-56,35569,36,34,127,0,0,3280,10,0,1164,6,169,34353,-4,0,0,0,367380,0
367395,74,-2035,248,-47,-3,-48,11538,-9,8,-284,-64,35574,17,33,127,0,0,3276,-32,0,1164,6,169,34363,-4,0,0,0,367380,0
367405,54,-2038,241,-53,-21,-57,11535,-15,-13,-377,-80,35574,34,34,127,0,0,3278,43,0,1164,6,169,34373,-4,0,0,0,367380,0
367415,77,-2045,244,-52,-11,-51,11538,0,-1,-313,-104,35582,35,34,127,0,0,3280,21,0,1164,6,169,34383,-4,0,0,0,367396,0
367425,94,-2036,244,-47,-5,-49,11538,-3,5,-335,-80,35581,41,34,127,0,0,3280,32,0,1164,6,169,34393,-4,0,0,0,367412,0
367435,79,-2046,241,-50,-6,-52,11538,-2,-3,-307,-88,35590,21,34,127,0,0,3278,-32,0,1164,6,169,34403,-4,0,0,0,367412,0
367445,67,-2036,244,-50,-7,-41,11537,8,-4,-353,-112,35590,10,34,127,0,0,3280,32,0,1164,6,169,34413,-4,0,0,0,367412,0
367455,83,-2043,243,-49,-1,-42,11536,-8,-3,-361,-112,35592,15,34,127,0,0,3280,54,0,1164,6,169,34423,-4,0,0,0,367443,0
367465,88,-2037,247,-49,-12,-46,11539,1,10,-348,-120,35590,13,34,127,0,0,3278,21,0,1164,6,169,34433,-4,0,0,0,367443,0
367475,56,-2038,243,-49,-17,-47,11539,5,-3,-345,-88,35585,16,34,127,0,0,3273,-32,0,1164,6,169,34443,-4,0,0,0,367474,0
367485,32,-2044,250,-42,-11,-47,11535,-11,-5,-392,-120,35594,35,34,127,0,0,3276,-10,0,1164,6,169,34453,-4,0,0,0,367490,0
367495,48,-2031,251,-47,-16,-47,11538,9,0,-356,-120,35593,57,34,127,0,0,3276,-21,0,1164,6,169,34463,-4,0,0,0,367490,0
367505,83,-2042,242,-48,-11,-52,11538,5,-2,-373,-120,35585,62,34,127,0,0,3278,10,0,1164,6,169,34473,-4,0,0,0,367490,0
367515,43,-2043,241,-48,-14,-45,11536,-5,2,-344,-80,35568,32,34,127,0,0,3278,0,0,1164,6,169,34483,-4,0,0,0,367490,0
367525,72,-2033,244,-49,-6,-43,11537,5,-1,-343,-72,35577,25,34,127,0,0,3276,0,0,1164,6,169,34493,-4,0,0,0,367505,0
367535,93,-2044,241,-49,-6,-45,11537,-2,3,-366,-120,35578,27,34,127,0,0,3276,0,0,1164,6,169,34503,-4,0,0,0,367583,0
367545,62,-2040,247,-43,-11,-42,11537,5,-3,-346,-88,35574,37,34,127,0,0,3276,-21,0,1164,6,169,34513,-4,0,0,0,367599,0
367555,75,-2041,241,-40,-7,-43,11535,-8,2,-360,-40,35560,37,34,127,0,0,3280,54,0,1164,6,169,34523,-4,0,0,0,367599,0
367565,78,-2039,252,-44,-13,-46,11537,-14,0,-356,-72,35570,26,34,127,0,0,3276,0,0,1164,6,169,34533,-4,0,0,0,367599,0
367575,77,-2037,250,-44,-9,-49,11536,7,-5,-366,-72,35574,24,34,127,0,0,3278,10,0,1164,6,169,34543,-4,0,0,0,367599,0
367585,79,-2035,255,-47,-6,-49,11537,-4,-2,-353,-120,35574,25,33,127,0,0,3276,0,0,1164,6,169,34553,-4,0,0,0,367615,0
367595,60,-2034,243,-41,-10,-46,11537,3,1,-353,-56,35566,29,33,127,0,0,3278,10,0,1164,6,169,34563,-4,0,0,0,367615,0
367605,49,-2039,244,-49,-12,-44,11537,6,1,-342,-72,35568,11,34,127,0,0,3280,43,0,1164,6,169,34573,-4,0,0,0,367615,0
367615,99,-2031,246,-48,-7,-49,11539,-9,11,-344,-80,35570,14,33,127,0,0,3278,21,0,1164,6,169,34583,-4,0,0,0,367615,0
367625,64,-2036,251,-48,-17,-56,11538,10,-3,-357,-120,35568,24,34,127,0,0,3276,-21,0,1164,6,169,34593,-4,0,0,0,367615,0
367635,67,-2043,247,-53,-17,-46,11536,-6,-7,-389,-104,35570,19,34,127,0,0,3280,54,0,1164,6,169,34603,-4,0,0,0,367615,0
367645,85,-2036,245,-54,-7,-50,11539,0,-1,-299,-104,35576,31,34,127,0,0,3276,-32,0,1164,6,169,34613,-4,0,0,0,367615,0
367655,58,-2033,250,-47,-17,-49,11535,-11,-1,-379,-104,35590,20,34,127,0,0,3278,32,0,1164,6,169,34623,-4,0,0,0,367646,0
367665,83,-2033,243,-53,-4,-50,11539,9,0,-328,-88,35588,53,34,127,0,0,3276,-32,0,1164,6,169,34633,-4,0,0,0,367646,0
367675,53,-2036,250,-56,-5,-51,11536,0,2,-346,-88,35577,49,34,127,0,0,3276,-10,0,1164,6,169,34643,-4,0,0,0,367661,0
367685,47,-2046,249,-50,-10,-46,11536,-7,-11,-370,-104,35569,21,34,127,0,0,3278,0,0,1164,6,169,34653,-4,0,0,0,367661,0
367695,60,-2045,251,-52,-8,-47,11538,5,2,-353,-80,35584,22,34,127,0,0,3276,-10,0,1164,6,169,34663,-4,0,0,0,367693,0
367705,48,-2037,251,-57,-8,-49,11537,3,-2,-354,-120,35587,38,34,127,0,0,3276,-32,0,1164,6,169,34673,-4,0,0,0,367693,0
367715,47,-2045,248,-53,-21,-47,11537,0,-1,-365,-120,35585,36,34,127,0,0,3276,0,0,1164,6,169,34683,-4,0,0,0,367693,0
367725,55,-2044,243,-56,-12,-45,11538,7,5,-342,-120,35573,33,34,127,0,0,3276,-43,0,1164,6,169,34693,-4,0,0,0,367708,0
367735,61,-2045,242,-58,-14,-51,11535,-1,-2,-363,-72,35580,17,34,127,0,0,3278,0,0,1164,6,169,34703,-4,0,0,0,367724,0
367745,67,-2033,245,-56,-12,-42,11537,3,1,-358,-72,35587,37,34,127,0,0,3278,32,0,1164,6,169,34713,-4,0,0,0,367724,0
367755,78,-2035,243,-55,-4,-46,11537,3,3,-362,-112,35588,36,33,127,0,0,3278,10,0,1164,6,169,34723,-4,0,0,0,367724,0
367765,76,-2033,252,-62,-9,-50,11539,18,2,-346,-128,35585,40,33,127,0,0,3273,-43,0,1164,6,169,34733,-4,0,0,0,367755,0
367775,73,-2040,246,-57,-10,-48,11535,-8,-4,-400,-104,35583,22,34,127,0,0,3276,0,0,1164,6,169,34743,-4,0,0,0,367755,0
367785,71,-2032,244,-61,-18,-45,11536,-5,-6,-372,-72,35588,11,33,127,0,0,3273,-10,0,1164,6,169,34753,-4,0,0,0,367755,0
367795,93,-2038,248,-61,-11,-54,11536,1,2,-385,-120,35581,41,34,127,0,0,3276,0,0,1164,6,169,34763,-4,0,0,0,367818,0
367805,75,-2037,244,-55,-5,-47,11538,1,0,-346,-136,35571,35,34,127,0,0,3273,-76,0,1164,6,169,34773,-4,0,0,0,367818,0
367815,49,-2039,240,-61,-8,-48,11532,-5,-12,-391,-96,35570,36,33,127,0,0,3276,0,0,1164,6,169,34783,-4,0,0,0,367818,0
367825,72,-2045,238,-54,-8,-46,11535,-8,3,-369,-72,35574,9,34,127,0,0,3278,32,0,1164,6,169,34793,-4,0,0,0,367818,0
367835,81,-2033,240,-49,-6,-42,11536,0,7,-387,-104,35580,14,34,127,0,0,3276,21,0,1164,6,169,34803,-4,0,0,0,367818,0
367845,65,-2032,245,-46,-11,-37,11537,9,5,-393,-96,35574,24,34,127,0,0,3278,0,0,1164,6,169,34813,-4,0,0,0,367818,0
367855,53,-2039,244,-49,-9,-33,11535,-2,-1,-366,-104,35583,16,34,127,0,0,3276,10,0,1164,6,169,34823,-4,0,0,0,367833,0
367865,49,-2041,245,-53,-10,-43,11536,8,0,-368,-72,35592,27,34,127,0,0,3276,-10,0,1164,6,169,34833,-4,0,0,0,367865,0
367875,77,-2043,237,-49,-13,-42,11535,-9,0,-385,-104,35598,37,34,127,0,0,3276,-10,0,1164,6,169,34843,-4,0,0,0,367880,0
367885,76,-2036,240,-49,-13,-41,11535,0,-4,-389,-104,35587,35,34,127,0,0,3276,10,0,1164,6,169,34853,-4,0,0,0,367880,0
367895,97,-2038,239,-52,-8,-41,11535,-5,-1,-368,-120,35578,35,34,127,0,0,3276,0,0,1164,6,169,34863,-4,0,0,0,367880,0
367905,55,-2041,241,-50,-10,-37,11534,-9,-5,-394,-96,35579,13,34,127,0,0,3276,0,0,1164,6,169,34873,-4,0,0,0,367880,0
367915,82,-2034,243,-43,-6,-46,11535,2,-4,-392,-104,35591,50,34,127,0,0,3278,21,0,1164,6,169,34883,-4,0,0,0,367958,0
367925,71,-2036,235,-51,-16,-43,11535,-5,-1,-393,-96,35579,70,34,127,0,0,3276,10,0,1164,6,169,34893,-4,0,0,0,367958,0
367935,81,-2040,236,-48,-2,-43,11535,6,-1,-391,-104,35586,71,34,127,0,0,3276,0,0,1164,6,169,34903,-4,0,0,0,367958,0
367945,60,-2050,248,-46,-11,-44,11535,-9,2,-400,-88,35577,54,34,127,0,0,3273,-10,0,1164,6,169,34913,-4,0,0,0,367958,0
367955,93,-2034,244,-49,-10,-54,11536,15,4,-398,-112,35587,8,34,127,0,0,3278,0,0,1164,6,169,34923,-4,0,0,0,367958,0
367965,87,-2047,245,-47,-7,-42,11535,0,4,-392,-96,35584,19,34,127,0,0,3276,21,0,1164,6,169,34933,-4,0,0,0,367974,0
367975,101,-2040,240,-45,-3,-47,11535,-2,0,-355,-88,35579,20,33,127,0,0,3276,0,0,1164,6,169,34943,-4,0,0,0,367974,0
367985,57,-2040,242,-47,-15,-50,11533,-20,-10,-396,-104,35583,16,33,127,0,0,3276,32,0,1164,6,169,34953,-4,0,0,0,367974,0
367995,86,-2036,246,-41,-10,-51,11536,-3,-2,-379,-120,35589,7,34,127,0,0,3276,10,0,1164,6,169,34963,-4,0,0,0,367974,0
368005,53,-2045,250,-43,-13,-45,11537,-2,10,-323,-88,35605,14,34,127,0,0,3276,-43,0,1164,6,169,34973,-4,0,0,0,367989,0
368015,66,-2043,232,-50,-10,-47,11535,0,-10,-364,-112,35592,27,34,127,0,0,3278,10,0,1164,6,169,34983,-4,0,0,0,368005,0
368025,79,-2035,238,-57,-15,-46,11535,-7,2,-371,-104,35585,16,34,127,0,0,3276,-10,0,1164,6,169,34993,-4,0,0,0,368005,0
368035,65,-2035,241,-39,-3,-46,11535,-3,6,-381,-104,35583,27,34,127,0,0,3276,10,0,1164,6,169,35003,-4,0,0,0,368036,0
368045,69,-2039,244,-43,-13,-54,11535,-7,-2,-359,-88,35593,32,34,127,0,0,3280,43,0,1164,6,169,35013,-4,0,0,0,368036,0
368055,56,-2039,245,-46,-6,-42,11537,-1,3,-336,-120,35591,39,34,127,0,0,3276,-10,0,1164,6,169,35023,-4,0,0,0,368036,0
368065,62,-2038,245,-47,-11,-47,11536,3,-1,-405,-96,35580,39,34,127,0,0,3273,-10,0,1164,6,169,35033,-4,0,0,0,368036,0
368075,79,-2046,239,-43,-7,-50,11536,4,0,-393,-112,35589,15,34,127,0,0,3276,-21,0,1164,6,169,35043,-4,0,0,0,368068,0
368085,72,-2037,240,-53,-16,-42,11535,-3,-2,-376,-120,35600,15,34,127,0,0,3276,-10,0,1164,6,169,35053,-4,0,0,0,368068,0
368095,75,-2040,243,-49,-9,-49,11534,-15,-11,-405,-96,35600,28,34,127,0,0,3276,10,0,1164,6,169,35063,-4,0,0,0,368068,0
368105,66,-2043,237,-45,-11,-52,11535,1,-2,-404,-144,35595,26,34,127,0,0,3273,-21,0,1164,6,169,35073,-4,0,0,0,368099,0
368115,62,-2035,246,-42,-14,-51,11534,4,-1,-420,-96,35589,20,34,127,0,0,3278,43,0,1164,6,169,35083,-4,0,0,0,368099,0
368125,89,-2034,245,-45,-9,-52,11535,-8,1,-376,-104,35597,1,34,127,0,0,3276,0,0,1164,6,169,35093,-4,0,0,0,368099,0
368135,64,-2034,248,-50,-8,-50,11536,0,0,-361,-72,35596,38,34,127,0,0,3278,10,0,1164,6,169,35103,-4,0,0,0,368130,0
368145,77,-2032,248,-53,-4,-50,11536,-4,-1,-328,-120,35580,42,33,127,0,0,3276,-21,0,1164,6,169,35113,-4,0,0,0,368130,0
368155,70,-2032,244,-53,-5,-52,11533,-5,-5,-407,-96,35576,35,34,127,0,0,3276,10,0,1164,6,169,35123,-4,0,0,0,368130,0
368165,68,-2035,242,-47,-4,-48,11534,-5,5,-398,-144,35585,11,34,127,0,0,3276,10,0,1164,6,169,35133,-4,0,0,0,368146,0
368175,73,-2032,239,-52,-8,-51,11536,-1,2,-385,-104,35602,3,34,127,0,0,3278,10,0,1164,6,169,35143,-4,0,0,0,368161,0
368185,69,-2038,244,-56,-14,-49,11536,1,0,-368,-104,35599,0,34,127,0,0,3276,0,0,1164,6,169,35153,-4,0,0,0,368161,0
368195,79,-2038,241,-50,-13,-49,11535,-1,3,-398,-144,35599,11,34,127,0,0,3276,0,0,1164,6,169,35163,-4,0,0,0,368193,0
368205,64,-2035,240,-50,-12,-48,11537,10,3,-378,-104,35602,8,34,127,0,0,3276,-21,0,1164,6,169,35173,-4,0,0,0,368193,0
368215,68,-2040,238,-52,-6,-50,11536,12,3,-383,-112,35601,23,34,127,0,0,3276,-10,0,1164,6,169,35183,-4,0,0,0,368193,0
368225,52,-2040,246,-47,-10,-46,11536,1,5,-379,-104,35593,22,33,127,0,0,3273,-32,0,1164,6,169,35193,-4,0,0,0,368193,0
368235,84,-2046,243,-49,-13,-49,11533,-9,-4,-425,-96,35591,24,34,127,0,0,3273,10,0,1164,6,169,35203,-4,0,0,0,368224,0
368245,56,-2033,240,-50,-13,-52,11535,3,2,-393,-72,35594,8,34,127,0,0,3276,-10,0,1164,6,169,35213,-4,0,0,0,368224,0
368255,60,-2038,249,-46,-4,-54,11535,3,-2,-398,-96,35597,6,33,127,0,0,3278,21,0,1164,6,169,35223,-4,0,0,0,368239,0
368265,80,-2034,242,-56,-6,-51,11535,-2,0,-386,-104,35589,28,34,127,0,0,3271,-32,0,1164,6,169,35233,-4,0,0,0,368239,0
368275,68,-2040,248,-58,-12,-56,11534,5,-1,-400,-64,35589,33,34,127,0,0,3278,32,0,1164,6,169,35243,-4,0,0,0,368318,0
368285,82,-2041,248,-54,-10,-52,11534,-19,-3,-394,-96,35591,18,34,127,0,0,3276,0,0,1164,6,169,35253,-4,0,0,0,368333,0
368295,64,-2037,238,-50,0,-51,11533,0,-6,-412,-136,35598,-7,34,127,0,0,3273,-10,0,1164,6,169,35263,-4,0,0,0,368333,0
368305,73,-2043,251,-55,-10,-58,11532,0,0,-425,-88,35593,5,34,127,0,0,3273,0,0,1164,6,169,35273,-4,0,0,0,368333,0
368315,79,-2036,243,-56,-3,-55,11534,0,2,-423,-104,35584,14,34,127,0,0,3273,0,0,1164,6,169,35283,-4,0,0,0,368349,0
368325,52,-2032,241,-51,-9,-52,11533,-5,3,-429,-128,35573,16,34,127,0,0,3273,-10,0,1164,6,169,35293,-4,0,0,0,368349,0
368335,77,-2034,240,-58,-12,-56,11532,1,-5,-426,-136,35574,5,34,127,0,0,3271,-32,0,1164,6,169,35303,-4,0,0,0,368349,0
368345,66,-2037,236,-53,-10,-53,11531,-2,-2,-471,-144,35577,11,34,127,0,0,3271,-10,0,1164,6,169,35313,-4,0,0,0,368349,0
368355,82,-2038,241,-47,-13,-47,11532,-8,-2,-472,-112,35580,22,34,127,0,0,3269,-10,0,1164,6,169,35323,-4,0,0,0,368349,0
368365,63,-2033,239,-52,-12,-45,11528,-14,-5,-527,-144,35583,26,34,127,0,0,3271,43,0,1164,6,169,35333,-4,0,0,0,368349,0
368375,90,-2038,237,-47,-14,-44,11530,-8,4,-512,-176,35589,20,34,127,0,0,3271,10,0,1164,6,169,35343,-4,0,0,0,368349,0
368385,114,-2032,244,-46,-5,-46,11528,-6,-5,-514,-136,35602,14,34,127,0,0,3271,43,0,1164,6,169,35353,-4,0,0,0,368364,0
368395,81,-2036,240,-38,1,-41,11529,2,0,-491,-144,35599,15,34,127,0,0,3271,10,0,1164,6,169,35363,-4,0,0,0,368396,0
368405,80,-2040,240,-42,-2,-39,11529,-5,7,-450,-112,35593,20,34,127,0,0,3271,-21,0,1164,6,169,35373,-4,0,0,0,368396,0
368415,66,-2043,240,-42,-1,-39,11530,12,-3,-457,-152,35580,11,34,127,0,0,3271,-10,0,1164,6,169,35383,-4,0,0,0,368396,0
368425,53,-2042,244,-44,-10,-34,11530,7,5,-436,-120,35580,6,34,127,0,0,3271,-32,0,1164,6,169,35393,-4,0,0,0,368396,0
368435,68,-2035,240,-40,-11,-37,11528,-9,-2,-491,-128,35577,40,34,127,0,0,3271,10,0,1164,6,169,35403,-4,0,0,0,368458,0
368445,55,-2040,242,-48,-16,-44,11531,14,3,-447,-120,35584,38,34,127,0,0,3271,-10,0,1164,6,169,35413,-4,0,0,0,368458,0
368455,48,-2036,244,-36,-9,-41,11529,-1,6,-423,-128,35584,39,34,127,0,0,3271,-21,0,1164,6,169,35423,-4,0,0,0,368458,0
368465,62,-2041,243,-45,-6,-43,11529,-5,-5,-475,-144,35581,10,34,127,0,0,3271,0,0,1164,6,169,35433,-4,0,0,0,368458,0
368475,71,-2036,243,-49,-9,-45,11528,-1,-3,-487,-136,35575,13,34,127,0,0,3271,10,0,1164,6,169,35443,-4,0,0,0,368458,0
368485,71,-2039,240,-45,-10,-44,11530,0,5,-460,-144,35569,14,34,127,0,0,3271,-21,0,1164,6,169,35453,-4,0,0,0,368458,0
368495,56,-2037,242,-44,-12,-42,11530,9,7,-461,-152,35578,10,34,127,0,0,3271,-10,0,1164,6,169,35463,-4,0,0,0,368489,0
368505,57,-2038,241,-49,-5,-50,11528,-4,-2,-452,-104,35594,28,34,127,0,0,3271,10,0,1164,6,169,35473,-4,0,0,0,368489,0
368515,76,-2040,251,-49,-5,-52,11530,-4,-3,-442,-120,35597,40,34,127,0,0,3267,-76,0,1164,6,169,35483,-4,0,0,0,368505,0
368525,30,-2038,248,-45,-12,-52,11529,13,1,-453,-112,35584,39,34,127,0,0,3271,-32,0,1164,6,169,35493,-4,0,0,0,368505,0
368535,57,-2042,247,-56,-17,-49,11528,-9,-1,-464,-104,35578,34,34,127,0,0,3273,32,0,1164,6,169,35503,-4,0,0,0,368521,0
368545,49,-2051,246,-58,-9,-61,11531,1,6,-448,-152,35587,19,34,127,0,0,3271,-10,0,1164,6,169,35513,-4,0,0,0,368536,0
368555,49,-2037,248,-56,-13,-61,11529,5,-3,-456,-104,35590,19,34,127,0,0,3271,10,0,1164,6,169,35523,-4,0,0,0,368536,0
368565,73,-2039,243,-53,-6,-60,11529,-7,-4,-436,-120,35583,26,34,127,0,0,3271,-32,0,1164,6,169,35533,-4,0,0,0,368552,0
368575,70,-2029,247,-54,-12,-55,11529,5,-2,-464,-104,35579,25,34,127,0,0,3273,21,0,1164,6,169,35543,-4,0,0,0,368552,0
368585,77,-2031,239,-54,-9,-49,11529,-5,2,-448,-144,35576,13,34,127,0,0,3271,-10,0,1164,6,169,35553,-4,0,0,0,368552,0
368595,86,-2026,239,-55,-9,-51,11530,9,3,-437,-120,35581,2,34,127,0,0,3273,-10,0,1164,6,169,35563,-4,0,0,0,368583,0
368605,86,-2028,241,-59,-15,-41,11528,0,-3,-449,-136,35580,27,34,127,0,0,3273,32,0,1164,6,169,35573,-4,0,0,0,368599,0
368615,87,-2025,235,-51,-8,-38,11531,6,7,-417,-152,35575,24,34,127,0,0,3273,-32,0,1164,6,169,35583,-4,0,0,0,368599,0
368625,82,-2039,239,-58,-5,-33,11527,-7,-2,-439,-104,35570,31,33,127,0,0,3271,10,0,1164,6,169,35593,-4,0,0,0,368599,0
368635,109,-2053,237,-55,5,-34,11529,1,-5,-444,-104,35580,15,34,127,0,0,3271,-10,0,1164,6,169,35603,-4,0,0,0,368692,0
368645,93,-2055,233,-50,2,-23,11530,0,3,-442,-168,35587,34,33,127,0,0,3276,21,0,1164,6,169,35613,-4,0,0,0,368692,0
368655,61,-2066,239,-49,-6,-10,11529,-6,-6,-446,-144,35580,34,33,127,0,0,3271,10,0,1164,6,169,35623,-4,0,0,0,368708,0
368665,83,-2069,241,-46,11,-6,11529,5,-3,-439,-120,35567,7,34,127,0,0,3273,0,0,1164,6,169,35633,-4,0,0,0,368708,0
368675,61,-2057,240,-45,3,2,11530,0,1,-425,-120,35570,10,34,127,0,0,3273,21,0,1164,6,169,35643,-4,0,0,0,368708,0
368685,74,-2037,238,-43,14,2,11529,1,-4,-411,-80,35575,9,34,127,0,0,3273,0,0,1164,6,169,35653,-4,0,0,0,368708,0
368695,71,-2042,246,-44,11,4,11531,5,5,-425,-120,35572,14,34,127,0,0,3273,0,0,1164,6,169,35663,-4,0,0,0,368708,0
368705,56,-2027,243,-44,9,3,11531,2,6,-413,-136,35567,22,34,127,0,0,3276,10,0,1164,6,169,35673,-4,0,0,0,368708,0
368715,30,-2031,246,-50,-2,5,11530,0,1,-399,-88,35575,15,34,127,0,0,3273,0,0,1164,6,169,35683,-4,0,0,0,368708,0
368725,41,-2029,246,-55,4,-2,11531,0,0,-377,-96,35576,21,34,127,0,0,3276,0,0,1164,6,169,35693,-4,0,0,0,368708,0
368735,46,-2018,258,-61,-2,-5,11531,-2,1,-303,-48,35584,41,34,127,0,0,3276,-10,0,1164,6,169,35703,-4,0,0,0,368708,0
368745,33,-2024,254,-60,-10,-12,11532,-19,-3,-328,-80,35591,40,34,127,0,0,3280,10,0,1164,6,169,35713,-4,0,0,0,368724,0
368755,27,-2031,250,-66,-4,-16,11535,8,-2,-258,-56,35599,34,34,127,0,0,3280,21,0,1164,6,169,35723,-4,0,0,0,368739,0
368765,43,-2025,253,-74,-8,-25,11535,0,1,-212,-24,35603,10,34,127,0,0,3282,21,0,1164,6,169,35733,-4,0,0,0,368755,0
368775,40,-2020,247,-75,-9,-36,11535,-6,-3,-226,-56,35592,19,34,127,0,0,3280,10,0,1164,6,169,35743,-4,0,0,0,368755,0
368785,51,-2011,242,-76,-17,-58,11536,4,-3,-203,-40,35584,18,34,127,0,0,3282,21,0,1164,6,169,35753,-4,0,0,0,368755,0
368795,39,-2023,245,-84,-7,-58,11536,-7,3,-215,-72,35582,15,34,127,0,0,3282,21,0,1164,6,169,35763,-4,0,0,0,368786,0
368805,69,-2027,247,-84,-12,-63,11537,-3,-5,-246,-64,35586,12,34,127,0,0,3280,0,0,1164,6,169,35773,-4,0,0,0,368786,0
368815,60,-2032,241,-83,-12,-67,11538,18,3,-232,-32,35586,22,34,127,0,0,3280,0,0,1164,6,169,35783,-4,0,0,0,368802,0
368825,41,-2042,236,-85,-24,-65,11537,0,3,-238,-56,35577,23,34,127,0,0,3278,-32,0,1164,6,169,35793,-4,0,0,0,368802,0
368835,69,-2034,232,-80,-19,-69,11536,5,-5,-261,-64,35580,1,34,127,0,0,3280,0,0,1164,6,169,35803,-4,0,0,0,368817,0
368845,55,-2052,227,-71,-19,-70,11536,1,2,-216,-72,35585,4,34,127,0,0,3280,-10,0,1164,6,169,35813,-4,0,0,0,368833,0
368855,57,-2080,227,-73,-28,-74,11536,-9,0,-238,-64,35588,10,34,127,0,0,3278,-21,0,1164,6,169,35823,-4,0,0,0,368833,0
368865,57,-2082,234,-62,-19,-79,11534,-6,-4,-278,-56,35583,24,34,127,0,0,3280,21,0,1164,6,169,35833,-4,0,0,0,368864,0
368875,74,-2090,232,-64,-21,-74,11535,-13,2,-269,-64,35577,29,34,127,0,0,3280,10,0,1164,6,169,35843,-4,0,0,0,368864,0
368885,73,-2080,234,-62,-15,-79,11535,0,1,-267,-56,35578,10,34,127,0,0,3280,21,0,1164,6,169,35853,-4,0,0,0,368864,0
368895,79,-2073,239,-64,-23,-74,11536,-2,0,-246,-64,35582,16,34,127,0,0,3278,-32,0,1164,6,169,35863,-4,0,0,0,368880,0
368905,62,-2047,235,-62,-21,-74,11535,-2,-3,-277,-56,35586,35,34,127,0,0,3278,0,0,1164,6,169,35873,-4,0,0,0,368880,0
368915,82,-2023,236,-59,-22,-75,11534,-12,-3,-314,-80,35599,29,34,127,0,0,3280,21,0,1164,6,169,35883,-4,0,0,0,368911,0
368925,92,-2021,235,-65,-18,-66,11534,0,5,-295,-48,35603,15,34,127,0,0,3278,10,0,1164,6,169,35893,-4,0,0,0,368911,0
368935,59,-2005,225,-61,-10,-62,11532,-1,0,-357,-96,35603,-6,34,127,0,0,3276,0,0,1164,6,169,35903,-4,0,0,0,368911,0
368945,75,-2007,234,-57,-16,-65,11533,8,4,-355,-128,35600,26,34,127,0,0,3276,10,0,1164,6,169,35913,-4,0,0,0,368927,0
368955,67,-2018,238,-47,-16,-57,11532,-17,5,-325,-80,35598,44,34,127,0,0,3278,-10,0,1164,6,169,35923,-4,0,0,0,368942,0
368965,86,-2025,239,-59,-13,-47,11532,-6,-11,-333,-32,35596,39,34,127,0,0,3276,10,0,1164,6,169,35933,-4,0,0,0,368958,0
368975,104,-2031,233,-58,-15,-45,11531,-27,-5,-388,-48,35591,51,34,127,0,0,3280,76,0,1164,6,169,35943,-4,0,0,0,368958,0
368985,112,-2032,229,-58,-17,-35,11535,1,4,-340,-72,35587,29,34,127,0,0,3278,32,0,1164,6,169,35953,-4,0,0,0,368958,0
368995,94,-2033,226,-54,-9,-34,11533,3,-4,-340,-112,35584,36,34,127,0,0,3278,10,0,1164,6,169,35963,-4,0,0,0,369005,0
369005,67,-2024,232,-49,-15,-31,11533,-8,-5,-372,-96,35583,36,34,127,0,0,3276,32,0,1164,6,169,35973,-4,0,0,0,369021,0
369015,81,-2031,222,-50,-9,-40,11535,11,3,-327,-112,35583,31,34,127,0,0,3278,-21,0,1164,6,169,35983,-4,0,0,0,369021,0
369025,60,-2042,233,-42,-1,-33,11532,4,1,-327,-104,35582,33,34,127,0,0,3276,-32,0,1164,6,169,35993,-4,0,0,0,369036,0
369035,70,-2044,233,-41,-8,-43,11533,-3,-1,-358,-96,35585,23,34,127,0,0,3276,-10,0,1164,6,169,36003,-4,0,0,0,369036,0
369045,42,-2042,237,-40,-17,-47,11536,11,12,-272,-56,35581,24,34,127,0,0,3276,-54,0,1164,6,169,36013,-4,0,0,0,369036,0
369055,57,-2034,235,-41,-20,-51,11531,-14,-10,-285,-56,35592,11,34,127,0,0,3278,-21,0,1164,6,169,36023,-4,0,0,0,369052,0
369065,44,-2040,228,-38,-14,-48,11533,-5,-8,-304,-48,35591,14,34,127,0,0,3278,0,0,1164,6,169,36033,-4,0,0,0,369052,0
369075,80,-2054,228,-32,-8,-58,11535,4,5,-304,-80,35597,26,34,127,0,0,3278,-21,0,1164,6,169,36043,-4,0,0,0,369052,0
369085,86,-2049,228,-34,-9,-53,11533,-1,0,-341,-112,35597,26,34,127,0,0,3280,43,0,1164,6,169,36053,-4,0,0,0,369114,0
369095,67,-2053,233,-29,-8,-50,11535,4,6,-271,-48,35600,21,34,127,0,0,3278,-32,0,1164,6,169,36063,-4,0,0,0,369114,0
369105,56,-2065,228,-28,-9,-44,11533,-1,-6,-276,-48,35600,11,34,127,0,0,3280,0,0,1164,6,169,36073,-4,0,0,0,369114,0
369115,74,-2061,231,-25,-7,-36,11533,-9,-1,-295,-48,35592,18,34,127,0,0,3276,-10,0,1164,6,169,36083,-4,0,0,0,369130,0
369125,43,-2062,225,-18,-12,-35,11532,-6,-4,-353,-112,35581,23,34,127,0,0,3278,0,0,1164,6,169,36093,-4,0,0,0,369130,0
369135,79,-2065,224,-16,-7,-27,11533,0,3,-350,-104,35583,4,34,127,0,0,3276,-10,0,1164,6,169,36103,-4,0,0,0,369130,0
369145,65,-2045,224,-9,-5,-26,11534,6,0,-358,-112,35586,8,34,127,0,0,3278,10,0,1164,6,169,36113,-4,0,0,0,369130,0
369155,86,-2038,222,-8,-5,-17,11535,-1,11,-281,-64,35597,20,34,127,0,0,3280,10,0,1164,6,169,36123,-4,0,0,0,369130,0
369165,75,-2034,230,6,6,-7,11535,4,-3,-253,-56,35608,32,34,127,0,0,3278,0,0,1164,6,169,36133,-4,0,0,0,369161,0
369175,99,-2015,226,9,13,-3,11533,-9,-4,-277,-56,35606,27,34,127,0,0,3280,21,0,1164,6,169,36143,-4,0,0,0,369161,0
369185,90,-2016,234,9,10,15,11536,-6,1,-257,-64,35604,16,34,127,0,0,3280,-10,0,1164,6,169,36153,-4,0,0,0,369161,0
369195,72,-2015,238,11,9,22,11535,13,-1,-240,-64,35600,26,34,127,0,0,3280,-10,0,1164,6,169,36163,-4,0,0,0,369208,0
369205,57,-2022,239,21,15,36,11536,9,1,-198,-72,35592,50,34,127,0,0,3280,-21,0,1164,6,169,36173,-4,0,0,0,369224,0
369215,87,-2030,256,16,11,53,11537,1,4,-190,8,35595,58,34,127,0,0,3282,10,0,1164,6,169,36183,-4,0,0,0,369224,0
369225,130,-2021,267,8,-15,108,11541,16,10,-89,16,35597,42,34,127,0,0,3289,32,0,1164,6,169,36193,-4,0,0,0,369224,0
369235,86,-2040,250,7,-20,114,11547,13,13,80,32,35601,19,34,127,0,0,3293,54,0,1164,6,169,36203,-4,0,0,0,369224,0
369245,66,-2028,221,18,-10,128,11553,3,-1,193,112,35591,27,34,127,0,0,3300,87,0,1164,6,169,36213,-4,0,0,0,369224,0
369255,48,-2040,212,27,4,131,11565,22,4,280,72,35582,19,34,127,0,0,3302,76,0,1164,6,169,36223,-4,0,0,0,369224,0
369265,76,-2032,216,44,1,136,11577,29,14,309,128,35586,16,34,127,0,0,3306,98,0,1164,6,169,36233,-4,0,0,0,369255,0
369275,58,-2037,230,52,-8,148,11610,80,48,292,136,35598,-3,34,127,0,0,3313,43,0,1164,6,169,36243,-4,0,0,0,369255,0
369285,74,-2033,247,50,0,153,11630,23,5,443,176,35597,-5,34,127,0,0,3320,65,0,1164,6,169,36253,-4,0,0,0,369270,0
369295,41,-2056,250,42,6,174,11650,51,-26,450,176,35579,-12,34,127,0,0,3324,65,0,1164,6,169,36263,-4,0,0,0,369270,0
369305,76,-2061,269,45,-5,184,11699,116,67,348,152,35581,-38,34,127,0,0,3333,54,0,1164,6,169,36273,-4,0,0,0,369302,0
369315,62,-2054,288,36,-7,192,11751,107,52,256,96,35593,-42,34,127,0,0,3339,54,0,1164,6,169,36283,-4,0,0,0,369302,0
369325,30,-2051,288,18,-9,185,11764,7,-83,494,192,35600,-48,34,127,0,0,3346,54,0,1164,6,169,36293,-4,0,0,0,369302,0
369335,17,-2050,273,4,-5,191,11780,44,-65,544,208,35592,-23,34,127,0,0,3355,76,0,1164,6,169,36303,-4,0,0,0,369333,0
369345,10,-2041,263,2,-2,181,11817,93,63,490,216,35582,-14,34,127,0,0,3361,65,0,1164,6,169,36313,-4,0,0,0,369333,0
369355,24,-2032,273,-1,-10,166,11863,111,58,435,200,35584,-28,34,127,0,0,3366,43,0,1164,6,169,36323,-4,0,0,0,369333,0
369365,27,-2052,269,-12,-3,146,11913,91,19,333,160,35586,-52,34,127,0,0,3372,54,0,1164,6,169,36333,-4,0,0,0,369427,0
369375,-39,-2038,280,-12,-8,140,11954,56,-21,293,136,35585,-78,34,127,0,0,3379,54,0,1164,6,169,36343,-4,0,0,0,369427,0
369385,-9,-2067,251,-28,4,105,11955,-7,-109,505,192,35583,-90,34,127,0,0,3385,87,0,1164,6,169,36353,-4,0,0,0,369427,0
369395,8,-2063,262,-29,4,107,11970,35,-39,556,216,35574,-99,34,127,0,0,3388,54,0,1164,6,169,36363,-4,0,0,0,369427,0
369405,-18,-2046,271,-29,-5,85,12006,100,72,430,240,35577,-108,34,127,0,0,3394,76,0,1164,6,169,36373,-4,0,0,0,369427,0
369415,4,-2031,270,-35,-8,68,12042,67,38,425,152,35577,-77,34,127,0,0,3396,10,0,1164,6,169,36383,-4,0,0,0,369442,0
369425,-19,-2026,264,-45,-3,47,12073,66,-21,288,128,35571,-68,34,127,0,0,3399,21,0,1164,6,169,36393,-4,0,0,0,369442,0
369435,-6,-2008,253,-48,0,31,12082,5,-49,353,144,35568,-58,34,127,0,0,3403,54,0,1164,6,169,36403,-4,0,0,0,369442,0
369445,-5,-2017,264,-49,0,17,12083,-5,-55,392,144,35573,-60,34,127,0,0,3403,32,0,1164,6,169,36413,-4,0,0,0,369442,0
369455,-6,-2023,266,-53,1,-4,12085,5,-10,415,160,35578,-34,34,127,0,0,3405,43,0,1164,6,169,36423,-4,0,0,0,369442,0
369465,17,-2039,259,-63,-10,-15,12090,5,6,417,184,35584,-15,34,127,0,0,3403,-10,0,1164,6,169,36433,-4,0,0,0,369442,0
369475,27,-2035,259,-59,-7,-13,12093,-2,-6,410,176,35590,-31,34,127,0,0,3405,10,0,1164,6,169,36443,-4,0,0,0,369442,0
369485,19,-2044,232,-51,-8,-14,12096,7,-4,407,160,35603,-26,34,127,0,0,3403,-21,0,1164,6,169,36453,-4,0,0,0,369474,0
369495,42,-2033,229,-49,-8,-11,12099,14,1,449,176,35597,-40,34,127,0,0,3407,0,0,1164,6,169,36463,-4,0,0,0,369474,0
369505,43,-2036,240,-34,-8,6,12120,52,36,340,144,35585,-41,34,127,0,0,3412,54,0,1164,6,169,36473,-4,0,0,0,369489,0
369515,36,-2048,252,-35,-14,25,12144,32,40,255,120,35574,-43,34,127,0,0,3412,43,0,1164,6,169,36483,-4,0,0,0,369489,0
369525,19,-2043,238,-37,-15,33,12144,0,-44,377,88,35581,-52,34,127,0,0,3414,0,0,1164,6,169,36493,-4,0,0,0,369505,0
369535,33,-2047,223,-20,-13,43,12149,21,-40,428,104,35588,-42,34,127,0,0,3418,21,0,1164,6,169,36503,-4,0,0,0,369520,0
369545,32,-2044,225,-10,-8,59,12151,8,7,478,152,35586,-13,34,127,0,0,3418,0,0,1164,6,169,36513,-4,0,0,0,369536,0
369555,39,-2044,240,0,-12,69,12157,21,7,523,200,35579,-11,33,127,0,0,3421,-10,0,1164,6,169,36523,-4,0,0,0,369536,0
369565,36,-2045,263,2,-14,84,12169,27,19,517,184,35579,-22,34,127,0,0,3427,65,0,1164,6,169,36533,-4,0,0,0,369567,0
369575,0,-2037,266,7,-28,92,12196,75,49,418,184,35585,-47,34,127,0,0,3434,65,0,1164,6,169,36543,-4,0,0,0,369567,0
369585,-3,-2043,253,6,-19,89,12224,45,31,471,192,35587,-39,34,127,0,0,3436,32,0,1164,6,169,36553,-4,0,0,0,369567,0
369595,-34,-2028,253,12,-19,62,12247,59,-18,474,128,35574,-29,33,127,0,0,3438,-10,0,1164,6,169,36563,-4,0,0,0,369567,0
369605,-16,-2024,259,2,-9,49,12283,73,22,352,176,35579,-29,34,127,0,0,3443,43,0,1164,6,169,36573,-4,0,0,0,369614,0
369615,-19,-2026,264,3,-6,35,12304,38,-7,332,120,35585,-14,34,127,0,0,3447,65,0,1164,6,169,36583,-4,0,0,0,369614,0
369625,-32,-2028,276,-4,-11,24,12330,65,-21,246,64,35589,-1,34,127,0,0,3449,21,0,1164,6,169,36593,-4,0,0,0,369614,0
369635,-17,-2027,277,-9,-14,6,12338,0,-30,345,120,35572,10,34,127,0,0,3451,10,0,1164,6,169,36603,-4,0,0,0,369614,0
369645,-29,-2041,277,-21,-4,-16,12337,-7,-61,373,112,35572,4,34,127,0,0,3451,21,0,1164,6,169,36613,-4,0,0,0,369614,0
369655,-26,-2045,265,-23,-15,-29,12339,-2,-13,377,72,35590,10,34,127,0,0,3454,21,0,1164,6,169,36623,-4,0,0,0,369645,0
369665,-18,-2055,268,-35,-11,-54,12341,15,3,424,96,35604,10,34,127,0,0,3454,10,0,1164,6,169,36633,-4,0,0,0,369645,0
369675,-45,-2058,271,-35,-8,-61,12342,4,3,445,128,35600,19,34,127,0,0,3454,10,0,1164,6,169,36643,-4,0,0,0,369661,0
369685,-28,-2043,287,-45,-12,-80,12341,-2,-4,419,136,35590,26,34,127,0,0,3451,0,0,1164,6,169,36653,-4,0,0,0,369661,0
369695,9,-2046,283,-52,-16,-88,12342,-4,0,410,88,35581,14,34,127,0,0,3449,-32,0,1164,6,169,36663,-4,0,0,0,369677,0
369705,-16,-2044,274,-62,-20,-86,12340,-5,-2,373,104,35591,15,34,127,0,0,3451,10,0,1164,6,169,36673,-4,0,0,0,369692,0
369715,-5,-2044,272,-59,-22,-91,12342,-1,1,358,112,35585,29,34,127,0,0,3451,0,0,1164,6,169,36683,-4,0,0,0,369692,0
369725,-33,-2042,261,-66,-25,-101,12342,14,2,390,136,35583,31,34,127,0,0,3451,-10,0,1164,6,169,36693,-4,0,0,0,369802,0
369735,-19,-2048,252,-66,-20,-115,12343,3,6,417,120,35582,27,34,127,0,0,3451,-10,0,1164,6,169,36703,-4,0,0,0,369817,0
369745,20,-2034,250,-62,-16,-120,12342,-5,-3,352,72,35582,-1,34,127,0,0,3449,0,0,1164,6,169,36713,-4,0,0,0,369817,0
369755,28,-2038,252,-61,1,-121,12340,-4,1,273,96,35583,24,34,127,0,0,3445,-21,0,1164,6,169,36723,-4,0,0,0,369817,0
369765,13,-2035,256,-60,3,-128,12338,-1,0,224,64,35570,28,34,127,0,0,3443,-65,0,1164,6,169,36733,-4,0,0,0,369817,0
369775,50,-2020,267,-59,2,-114,12334,-10,-6,137,32,35568,12,34,127,0,0,3440,-43,0,1164,6,169,36743,-4,0,0,0,369833,0
369785,43,-2015,265,-66,-3,-80,12335,-2,7,50,8,35574,18,34,127,0,0,3440,-32,0,1164,6,169,36753,-4,0,0,0,369833,0
369795,21,-2030,245,-63,-11,-63,12330,-10,-4,1,24,35579,18,34,127,0,0,3438,10,0,1164,6,169,36763,-4,0,0,0,369833,0
369805,21,-2031,233,-49,2,-61,12331,0,4,-14,-16,35573,26,34,127,0,0,3438,0,0,1164,6,169,36773,-4,0,0,0,369833,0
369815,29,-2040,235,-42,2,-51,12329,-1,2,-9,-24,35567,15,34,127,0,0,3438,10,0,1164,6,169,36783,-4,0,0,0,369833,0
369825,22,-2050,260,-36,-1,-40,12329,-10,-1,-23,32,35573,9,34,127,0,0,3438,21,0,1164,6,169,36793,-4,0,0,0,369833,0
369835,88,-2036,258,-45,3,-42,12333,0,2,23,8,35575,17,34,127,0,0,3440,-10,0,1164,6,169,36803,-4,0,0,0,369833,0
369845,53,-2042,251,-39,2,-24,12329,-4,-6,19,32,35576,27,34,127,0,0,3438,-21,0,1164,6,169,36813,-4,0,0,0,369833,0
369855,23,-2036,253,-38,13,-20,12330,3,-5,40,48,35575,34,34,127,0,0,3440,0,0,1164,6,169,36823,-4,0,0,0,369833,0
369865,-6,-2035,260,-36,5,-7,12331,-7,1,66,8,35599,40,34,127,0,0,3436,-65,0,1164,6,169,36833,-4,0,0,0,369864,0
369875,32,-2032,266,-37,-4,-8,12327,-19,-14,-40,32,35609,37,34,127,0,0,3440,21,0,1164,6,169,36843,-4,0,0,0,369864,0
369885,-37,-2038,271,-42,-7,1,12333,13,4,25,24,35602,42,34,127,0,0,3443,0,0,1164,6,169,36853,-4,0,0,0,369864,0
369895,-54,-2043,272,-47,-12,-5,12331,6,3,28,24,35585,11,33,127,0,0,3440,21,0,1164,6,169,36863,-4,0,0,0,369864,0
369905,3,-2035,265,-44,2,-23,12330,-4,-2,40,16,35586,6,34,127,0,0,3440,32,0,1164,6,169,36873,-4,0,0,0,369895,0
369915,10,-2045,264,-43,-9,-23,12332,0,4,71,0,35595,-10,34,127,0,0,3436,-65,0,1164,6,169,36883,-4,0,0,0,369911,0
369925,-53,-2039,260,-48,-7,-17,12329,1,-8,39,8,35598,7,34,127,0,0,3443,21,0,1164,6,169,36893,-4,0,0,0,369911,0
369935,-5,-2035,248,-45,-18,-14,12333,-12,3,38,16,35579,13,34,127,0,0,3440,-21,0,1164,6,169,36903,-4,0,0,0,369911,0
369945,-14,-2052,239,-34,-2,-17,12333,37,2,131,72,35580,3,34,127,0,0,3443,0,0,1164,6,169,36913,-4,0,0,0,369942,0
369955,19,-2044,251,-42,-18,-26,12334,-19,10,193,48,35589,19,34,127,0,0,3443,-32,0,1164,6,169,36923,-4,0,0,0,369942,0
369965,-8,-2041,255,-29,-9,-17,12333,-4,-16,89,88,35593,23,34,127,0,0,3445,54,0,1164,6,169,36933,-4,0,0,0,369942,0
369975,14,-2047,259,-32,-3,-15,12336,5,8,186,80,35579,31,34,127,0,0,3443,-10,0,1164,6,169,36943,-4,0,0,0,369942,0
369985,-23,-2038,282,-37,-11,-22,12334,0,0,204,48,35580,25,34,127,0,0,3443,-21,0,1164,6,169,36953,-4,0,0,0,369973,0
369995,14,-2038,284,-44,-22,-21,12334,-7,-12,210,40,35587,21,34,127,0,0,3447,0,0,1164,6,169,36963,-4,0,0,0,369973,0
370005,-23,-2029,278,-51,-24,-33,12338,9,5,298,96,35594,27,34,127,0,0,3449,0,0,1164,6,169,36973,-4,0,0,0,369973,0
370015,-41,-2025,270,-51,-18,-45,12339,1,3,338,88,35588,48,34,127,0,0,3449,-10,0,1164,6,169,36983,-4,0,0,0,370020,0
370025,-41,-2035,252,-55,-15,-62,12339,3,-3,332,88,35586,57,34,127,0,0,3447,-21,0,1164,6,169,36993,-4,0,0,0,370020,0
370035,-22,-2036,248,-51,-20,-73,12337,-2,-1,310,88,35587,40,34,127,0,0,3447,-32,0,1164,6,169,37003,-4,0,0,0,370020,0
370045,-41,-2040,258,-56,-20,-74,12339,1,6,305,88,35588,26,33,127,0,0,3449,0,0,1164,6,169,37013,-4,0,0,0,370020,0
370055,-11,-2039,266,-53,-26,-82,12337,-11,3,296,56,35586,32,34,127,0,0,3449,10,0,1164,6,169,37023,-4,0,0,0,370052,0
370065,2,-2036,268,-57,-23,-94,12341,18,2,340,72,35589,35,34,127,0,0,3447,-32,0,1164,6,169,37033,-4,0,0,0,370052,0
370075,-3,-2049,261,-66,-27,-95,12339,1,0,307,40,35589,22,34,127,0,0,3449,-21,0,1164,6,169,37043,-4,0,0,0,370052,0
370085,-13,-2048,262,-65,-28,-97,12340,1,-3,275,24,35595,19,34,127,0,0,3447,-10,0,1164,6,169,37053,-4,0,0,0,370067,0
370095,-32,-2038,262,-73,-27,-106,12338,9,4,236,32,35600,28,34,127,0,0,3447,-10,0,1164,6,169,37063,-4,0,0,0,370067,0
370105,-1,-2048,249,-66,-24,-114,12337,-1,2,217,48,35601,52,34,127,0,0,3445,-21,0,1164,6,169,37073,-4,0,0,0,370098,0
370115,1,-2043,254,-65,-34,-124,12335,-9,-2,169,48,35602,23,34,127,0,0,3443,-10,0,1164,6,169,37083,-4,0,0,0,370130,0
370125,5,-2042,251,-61,-21,-146,12335,-8,-3,92,-8,35596,27,34,127,0,0,3438,-43,0,1164,6,169,37093,-4,0,0,0,370145,0
370135,-3,-2034,249,-59,-9,-161,12331,-11,-3,3,16,35590,11,34,127,0,0,3438,-21,0,1164,6,169,37103,-4,0,0,0,370145,0
370145,25,-2035,256,-59,-4,-160,12327,-14,-3,-99,-24,35581,19,34,127,0,0,3434,0,0,1164,6,169,37113,-4,0,0,0,370145,0
370155,20,-2042,250,-59,-13,-161,12324,-5,2,-194,-80,35575,21,34,127,0,0,3432,-32,0,1164,6,169,37123,-4,0,0,0,370145,0
370165,12,-2033,249,-59,-14,-159,12315,-27,-13,-256,-40,35580,5,34,127,0,0,3427,-43,0,1164,6,169,37133,-4,0,0,0,370145,0
370175,24,-2042,253,-53,-14,-158,12306,-27,-23,-322,-96,35588,15,34,127,0,0,3425,0,0,1164,6,169,37143,-4,0,0,0,370145,0
370185,34,-2045,254,-57,-16,-147,12289,-53,-16,-271,-88,35597,16,34,127,0,0,3421,-43,0,1164,6,169,37153,-4,0,0,0,370192,0
370195,34,-2034,252,-54,-10,-149,12264,-39,-27,-181,-88,35599,18,34,127,0,0,3418,-43,0,1164,6,169,37163,-4,0,0,0,370192,0
370205,54,-2036,242,-53,-9,-125,12262,7,44,-256,-80,35597,0,34,127,0,0,3416,-43,0,1164,6,169,37173,-4,0,0,0,370192,0
370215,46,-2042,243,-52,-18,-117,12256,-21,34,-352,-144,35591,-17,34,127,0,0,3414,0,0,1164,6,169,37183,-4,0,0,0,370192,0
370225,35,-2032,239,-39,-5,-111,12246,-20,-23,-345,-72,35589,-7,34,127,0,0,3412,10,0,1164,6,169,37193,-4,0,0,0,370208,0
370235,43,-2023,239,-35,-2,-107,12238,-25,-4,-344,-88,35592,1,34,127,0,0,3410,-21,0,1164,6,169,37203,-4,0,0,0,370223,0
370245,46,-2030,250,-38,-14,-85,12215,-67,-35,-226,-48,35597,-11,34,127,0,0,3407,-43,0,1164,6,169,37213,-4,0,0,0,370239,0
370255,20,-2035,260,-36,-9,-81,12194,-30,-27,-162,-16,35597,-25,34,127,0,0,3407,10,0,1164,6,169,37223,-4,0,0,0,370239,0
370265,46,-2045,261,-35,-11,-73,12197,0,52,-233,-56,35589,-35,34,127,0,0,3407,0,0,1164,6,169,37233,-4,0,0,0,370239,0
370275,21,-2047,270,-31,-17,-75,12197,10,32,-155,-32,35586,-19,34,127,0,0,3403,-87,0,1164,6,169,37243,-4,0,0,0,370270,0
370285,-2,-2046,263,-43,-16,-80,12193,-26,-16,-250,-32,35590,-38,34,127,0,0,3405,0,0,1164,6,169,37253,-4,0,0,0,370270,0
370295,31,-2051,249,-39,-13,-81,12194,4,-2,-272,-64,35592,-36,34,127,0,0,3405,0,0,1164,6,169,37263,-4,0,0,0,370286,0
370305,9,-2047,258,-37,-10,-85,12192,-1,12,-297,-96,35586,-49,34,127,0,0,3405,0,0,1164,6,169,37273,-4,0,0,0,370286,0
370315,7,-2045,258,-39,-14,-86,12190,-3,-4,-303,-88,35592,-36,34,127,0,0,3403,0,0,1164,6,169,37283,-4,0,0,0,370301,0
370325,18,-2029,265,-42,-11,-91,12187,-8,-3,-320,-72,35592,-29,34,127,0,0,3401,-10,0,1164,6,169,37293,-4,0,0,0,370301,0
370335,16,-2036,272,-47,-14,-91,12179,-21,-13,-364,-72,35591,-46,34,127,0,0,3399,-10,0,1164,6,169,37303,-4,0,0,0,370317,0
370345,5,-2038,266,-55,-12,-109,12160,-46,-29,-267,-72,35593,-33,34,127,0,0,3396,-10,0,1164,6,169,37313,-4,0,0,0,370333,0
370355,6,-2029,262,-54,-1,-116,12142,-23,-14,-178,-32,35586,-38,34,127,0,0,3396,-32,0,1164,6,169,37323,-4,0,0,0,370348,0
370365,22,-2042,272,-65,-12,-130,12143,3,45,-239,-8,35585,-40,34,127,0,0,3396,10,0,1164,6,169,37333,-4,0,0,0,370348,0
370375,5,-2031,273,-65,-11,-136,12140,-19,20,-290,-56,35576,-50,34,127,0,0,3390,-76,0,1164,6,169,37343,-4,0,0,0,370380,0
370385,-8,-2030,256,-67,-4,-162,12130,-14,-26,-371,-96,35587,-57,34,127,0,0,3385,-43,0,1164,6,169,37353,-4,0,0,0,370380,0
370395,29,-2024,252,-68,-10,-161,12125,-5,4,-461,-128,35591,-42,34,127,0,0,3385,-21,0,1164,6,169,37363,-4,0,0,0,370380,0
370405,36,-2015,261,-70,-6,-163,12120,-3,16,-475,-144,35584,-37,34,127,0,0,3381,-54,0,1164,6,169,37373,-4,0,0,0,370380,0
370415,33,-2028,264,-79,-11,-164,12103,-51,-23,-520,-152,35582,-44,34,127,0,0,3377,-43,0,1164,6,169,37383,-4,0,0,0,370395,0
370425,27,-2023,246,-74,0,-177,12064,-94,-74,-354,-144,35597,-41,34,127,0,0,3372,-21,0,1164,6,169,37393,-4,0,0,0,370442,0
370435,12,-2035,226,-71,-1,-168,12046,-23,-1,-421,-144,35600,-33,34,127,0,0,3370,-10,0,1164,6,169,37403,-4,0,0,0,370442,0
370445,64,-2031,240,-61,-2,-166,12030,-41,50,-385,-176,35585,-25,34,127,0,0,3366,-65,0,1164,6,169,37413,-4,0,0,0,370442,0
370455,44,-2042,248,-62,-8,-173,12000,-50,-29,-317,-160,35575,-44,34,127,0,0,3361,-87,0,1164,6,169,37423,-4,0,0,0,370442,0
370465,50,-2068,253,-51,6,-165,11981,-29,10,-397,-120,35573,-61,34,127,0,0,3355,-65,0,1164,6,169,37433,-4,0,0,0,370442,0
370475,81,-2046,247,-54,-4,-160,11954,-81,6,-386,-104,35585,-76,34,127,0,0,3353,-10,0,1164,6,169,37443,-4,0,0,0,370442,0
370485,23,-2069,238,-41,-5,-145,11926,-31,-24,-318,-112,35584,-70,34,127,0,0,3348,-54,0,1164,6,169,37453,-4,0,0,0,370489,0
370495,72,-2051,229,-39,-5,-132,11926,0,62,-454,-128,35580,-60,34,127,0,0,3350,0,0,1164,6,169,37463,-4,0,0,0,370489,0
370505,58,-2045,241,-32,-12,-123,11925,-7,41,-462,-112,35581,-79,34,127,0,0,3344,-32,0,1164,6,169,37473,-4,0,0,0,370505,0
370515,59,-2052,243,-33,-12,-120,11916,-29,-25,-540,-152,35579,-82,34,127,0,0,3339,-32,0,1164,6,169,37483,-4,0,0,0,370505,0
370525,74,-2044,256,-23,-5,-112,11894,-67,-43,-512,-120,35574,-76,34,127,0,0,3339,-21,0,1164,6,169,37493,-4,0,0,0,370505,0
370535,57,-2042,251,-27,-9,-110,11866,-51,-48,-348,-96,35569,-74,34,127,0,0,3337,-32,0,1164,6,169,37503,-4,0,0,0,370520,0
370545,66,-2044,260,-18,-14,-96,11863,6,37,-434,-112,35567,-83,34,127,0,0,3339,10,0,1164,6,169,37513,-4,0,0,0,370520,0
370555,50,-2025,261,-25,-17,-88,11861,-11,54,-473,-136,35573,-91,34,127,0,0,3333,-21,0,1164,6,169,37523,-4,0,0,0,370567,0
370565,22,-2025,258,-30,-14,-90,11857,-3,-11,-475,-128,35584,-64,34,127,0,0,3335,0,0,1164,6,169,37533,-4,0,0,0,370567,0
370575,24,-2022,246,-23,-4,-92,11856,-8,2,-515,-144,35578,-59,34,127,0,0,3333,0,0,1164,6,169,37543,-4,0,0,0,370567,0
370585,41,-2024,249,-28,-11,-102,11848,-18,-5,-510,-152,35575,-64,34,127,0,0,3331,0,0,1164,6,169,37553,-4,0,0,0,370567,0
370595,33,-2023,258,-34,-16,-100,11830,-46,-31,-427,-120,35568,-64,34,127,0,0,3328,-10,0,1164,6,169,37563,-4,0,0,0,370583,0
370605,38,-2027,280,-40,-4,-125,11797,-72,-46,-301,-96,35577,-54,34,127,0,0,3324,-21,0,1164,6,169,37573,-4,0,0,0,370583,0
370615,36,-2036,283,-43,-11,-122,11781,-21,13,-293,-104,35588,-35,34,127,0,0,3322,-32,0,1164,6,169,37583,-4,0,0,0,370583,0
370625,59,-2028,286,-55,-14,-123,11776,-22,58,-369,-136,35590,-35,34,127,0,0,3320,-32,0,1164,6,169,37593,-4,0,0,0,370629,0
370635,32,-2028,267,-61,-21,-121,11754,-58,-21,-265,-112,35591,-44,34,127,0,0,3320,-10,0,1164,6,169,37603,-4,0,0,0,370629,0
370645,6,-2050,238,-55,-11,-138,11738,1,-11,-272,-96,35586,-47,34,127,0,0,3313,-32,0,1164,6,169,37613,-4,0,0,0,370645,0
370655,69,-2035,244,-45,-9,-149,11740,9,63,-361,-120,35574,-40,34,127,0,0,3311,-87,0,1164,6,169,37623,-4,0,0,0,370645,0
370665,46,-2047,251,-56,-16,-148,11730,-25,0,-444,-112,35566,-28,34,127,0,0,3311,10,0,1164,6,169,37633,-4,0,0,0,370645,0
370675,44,-2053,244,-52,-8,-148,11729,0,-4,-506,-216,35579,-37,34,127,0,0,3304,-43,0,1164,6,169,37643,-4,0,0,0,370645,0
370685,73,-2055,219,-42,-9,-150,11717,-34,-5,-555,-168,35596,-45,34,127,0,0,3300,-32,0,1164,6,169,37653,-4,0,0,0,370676,0
370695,79,-2051,227,-23,-6,-135,11697,-51,-42,-509,-208,35599,-29,34,127,0,0,3295,-76,0,1164,6,169,37663,-4,0,0,0,370676,0
370705,70,-2045,256,-28,3,-128,11663,-66,-43,-418,-128,35582,-37,33,127,0,0,3298,0,0,1164,6,169,37673,-4,0,0,0,370692,0
370715,91,-2044,269,-29,-4,-106,11658,1,42,-496,-176,35568,-48,34,127,0,0,3293,-32,0,1164,6,169,37683,-4,0,0,0,370692,0
370725,105,-2047,279,-35,-21,-84,11651,-26,48,-517,-168,35581,-75,34,127,0,0,3291,-21,0,1164,6,169,37693,-4,0,0,0,370723,0
370735,89,-2038,267,-42,-26,-65,11636,-42,-31,-454,-112,35590,-54,34,127,0,0,3289,-32,0,1164,6,169,37703,-4,0,0,0,370723,0
370745,60,-2038,246,-33,-6,-66,11598,-79,-55,-274,-72,35581,-34,34,127,0,0,3289,0,0,1164,6,169,37713,-4,0,0,0,370723,0
370755,88,-2037,249,-36,-4,-57,11596,6,36,-315,-64,35582,-16,34,127,0,0,3291,-10,0,1164,6,169,37723,-4,0,0,0,370739,0
370765,80,-2028,258,-24,-12,-36,11595,-9,71,-322,-88,35586,-2,34,127,0,0,3289,0,0,1164,6,169,37733,-4,0,0,0,370739,0
370775,66,-2025,258,-25,-11,-34,11594,-4,-5,-370,-88,35592,5,34,127,0,0,3291,43,0,1164,6,169,37743,-4,0,0,0,370770,0
370785,53,-2029,232,-22,-10,-31,11596,8,6,-294,-64,35584,12,34,127,0,0,3289,-32,0,1164,6,169,37753,-4,0,0,0,370770,0
370795,49,-2038,242,-13,-6,-32,11594,-6,-1,-342,-88,35573,10,34,127,0,0,3289,0,0,1164,6,169,37763,-4,0,0,0,370770,0
370805,52,-2045,256,-3,-8,-35,11594,-5,-3,-321,-16,35579,-14,34,127,0,0,3291,21,0,1164,6,169,37773,-4,0,0,0,370786,0
370815,57,-2046,257,-3,2,-49,11597,-9,11,-249,-48,35584,-15,34,127,0,0,3289,-10,0,1164,6,169,37783,-4,0,0,0,370801,0
370825,17,-2056,274,-5,-13,-50,11595,-3,-16,-308,-64,35579,-17,34,127,0,0,3289,-21,0,1164,6,169,37793,-4,0,0,0,370801,0
370835,65,-2036,273,-2,-7,-57,11594,-11,-7,-359,-40,35585,8,34,127,0,0,3289,10,0,1164,6,169,37803,-4,0,0,0,370895,0
370845,18,-2030,240,3,-23,-63,11596,5,2,-330,-56,35582,-6,34,127,0,0,3291,10,0,1164,6,169,37813,-4,0,0,0,370895,0
370855,32,-2024,235,11,-19,-58,11596,0,3,-301,-104,35591,-14,33,127,0,0,3291,0,0,1164,6,169,37823,-4,0,0,0,370895,0
370865,54,-2019,249,21,-1,-77,11595,0,-4,-337,-88,35579,2,34,127,0,0,3289,10,0,1164,6,169,37833,-4,0,0,0,370895,0
370875,64,-2011,248,30,-5,-78,11594,-7,-2,-355,-72,35571,5,34,127,0,0,3291,0,0,1164,6,169,37843,-4,0,0,0,370911,0
370885,67,-2021,248,30,-11,-84,11595,8,2,-330,-88,35568,3,34,127,0,0,3287,-21,0,1164,6,169,37853,-4,0,0,0,370911,0
370895,66,-2033,266,29,-2,-99,11593,-2,1,-376,-72,35572,-6,34,127,0,0,3289,10,0,1164,6,169,37863,-4,0,0,0,370911,0
370905,43,-2047,275,36,13,-119,11594,3,4,-370,-120,35577,-6,34,127,0,0,3287,-43,0,1164,6,169,37873,-4,0,0,0,370911,0
370915,71,-2037,285,23,5,-113,11588,-20,-8,-435,-160,35572,-3,34,127,0,0,3284,0,0,1164,6,169,37883,-4,0,0,0,370911,0
370925,91,-2030,284,17,-2,-97,11575,-33,-30,-424,-120,35573,-19,34,127,0,0,3282,10,0,1164,6,169,37893,-4,0,0,0,370911,0
370935,67,-2024,293,11,-12,-85,11556,-51,-26,-325,-88,35580,-11,34,127,0,0,3282,21,0,1164,6,169,37903,-4,0,0,0,370911,0
370945,47,-2031,282,5,5,-97,11544,-6,4,-307,-112,35606,2,34,127,0,0,3278,-32,0,1164,6,169,37913,-4,0,0,0,370942,0
370955,66,-2024,287,-3,0,-95,11542,-14,35,-414,-120,35612,36,34,127,0,0,3276,-10,0,1164,6,169,37923,-4,0,0,0,370942,0
370965,80,-2031,275,-12,-10,-93,11538,-11,0,-459,-104,35604,54,34,127,0,0,3276,32,0,1164,6,169,37933,-4,0,0,0,370942,0
370975,57,-2050,269,-14,-7,-93,11538,-8,4,-485,-136,35592,36,34,127,0,0,3276,32,0,1164,6,169,37943,-4,0,0,0,370942,0
370985,69,-2056,286,-20,1,-99,11536,-7,-2,-476,-168,35591,20,34,127,0,0,3273,10,0,1164,6,169,37953,-4,0,0,0,370973,0
370995,75,-2056,284,-24,-4,-100,11535,-6,0,-468,-128,35591,23,34,127,0,0,3271,-32,0,1164,6,169,37963,-4,0,0,0,370973,0
371005,84,-2059,269,-27,-20,-89,11532,-18,-8,-539,-168,35588,31,34,127,0,0,3269,10,0,1164,6,169,37973,-4,0,0,0,370989,0
371015,56,-2056,285,-32,-8,-94,11533,7,1,-497,-144,35582,20,34,127,0,0,3271,-32,0,1164,6,169,37983,-4,0,0,0,371004,0
371025,51,-2062,288,-38,-6,-93,11530,-3,0,-534,-120,35590,1,34,127,0,0,3267,-32,0,1164,6,169,37993,-4,0,0,0,371004,0
371035,82,-2054,289,-44,-6,-95,11524,-16,-10,-578,-152,35598,3,34,127,0,0,3267,-10,0,1164,6,169,38003,-4,0,0,0,371020,0
371045,58,-2037,288,-49,-14,-99,11522,-5,-2,-561,-176,35591,11,34,127,0,0,3265,-21,0,1164,6,169,38013,-4,0,0,0,371051,0
371055,64,-2034,285,-60,-9,-109,11521,-2,6,-593,-208,35600,18,34,127,0,0,3267,-10,0,1164,6,169,38023,-4,0,0,0,371051,0
371065,57,-2038,283,-58,-9,-119,11517,-7,-7,-557,-200,35599,25,34,127,0,0,3260,-65,0,1164,6,169,38033,-4,0,0,0,371051,0
371075,56,-2020,280,-70,-8,-124,11501,-49,-26,-549,-240,35597,28,34,127,0,0,3260,-32,0,1164,6,169,38043,-4,0,0,0,371051,0
371085,61,-2013,283,-65,-1,-147,11465,-82,-61,-399,-168,35586,36,34,127,0,0,3260,10,0,1164,6,169,38053,-4,0,0,0,371067,0
371095,51,-2021,273,-77,0,-146,11451,-16,13,-441,-112,35594,11,34,127,0,0,3256,0,0,1164,6,169,38063,-4,0,0,0,371083,0
371105,103,-2024,285,-80,-9,-144,11445,-29,56,-537,-160,35604,3,34,127,0,0,3251,10,0,1164,6,169,38073,-4,0,0,0,371098,0
371115,72,-2028,287,-89,-10,-143,11418,-76,-40,-425,-120,35601,-8,34,127,0,0,3249,-10,0,1164,6,169,38083,-4,0,0,0,371098,0
371125,60,-2029,257,-94,3,-152,11389,-51,-42,-370,-120,35585,-21,34,127,0,0,3247,-21,0,1164,6,169,38093,-4,0,0,0,371098,0
371135,97,-2032,251,-92,-1,-150,11378,-27,35,-403,-80,35581,-16,34,127,0,0,3243,-10,0,1164,6,169,38103,-4,0,0,0,371114,0
371145,90,-2033,274,-98,-12,-147,11360,-51,11,-361,-184,35595,-48,34,127,0,0,3238,-87,0,1164,6,169,38113,-4,0,0,0,371145,0
371155,70,-2024,275,-96,-7,-154,11327,-60,-39,-338,-120,35608,-35,34,127,0,0,3236,-32,0,1164,6,169,38123,-4,0,0,0,371145,0
371165,91,-2040,278,-101,-5,-145,11324,7,37,-424,-136,35598,-32,34,127,0,0,3234,-43,0,1164,6,169,38133,-4,0,0,0,371145,0
371175,103,-2026,288,-104,-13,-134,11317,-30,51,-495,-136,35586,-31,34,127,0,0,3232,21,0,1164,6,169,38143,-4,0,0,0,371161,0
371185,71,-2038,286,-115,-17,-129,11304,-32,-26,-453,-136,35593,-34,34,127,0,0,3227,-43,0,1164,6,169,38153,-4,0,0,0,371161,0
371195,88,-2043,277,-116,-14,-138,11283,-54,-32,-373,-80,35611,-44,34,127,0,0,3223,-54,0,1164,6,169,38163,-4,0,0,0,371192,0
371205,79,-2042,271,-124,-16,-143,11267,-20,-6,-414,-128,35616,-25,34,127,0,0,3223,-43,0,1164,6,169,38173,-4,0,0,0,371192,0
371215,105,-2039,268,-130,-22,-131,11268,2,51,-486,-152,35599,-20,34,127,0,0,3221,-21,0,1164,6,169,38183,-4,0,0,0,371223,0
371225,77,-2033,257,-132,-28,-120,11261,-19,7,-568,-192,35582,-29,34,127,0,0,3216,-32,0,1164,6,169,38193,-4,0,0,0,371223,0
371235,72,-2035,255,-133,-18,-122,11250,-23,-29,-515,-160,35585,-32,34,127,0,0,3214,-54,0,1164,6,169,38203,-4,0,0,0,371223,0
371245,96,-2024,253,-128,-16,-124,11230,-61,-23,-452,-160,35592,-31,34,127,0,0,3212,-32,0,1164,6,169,38213,-4,0,0,0,371239,0
371255,96,-2026,247,-125,-21,-123,11201,-60,-33,-385,-152,35581,-45,34,127,0,0,3210,-32,0,1164,6,169,38223,-4,0,0,0,371254,0
371265,92,-2038,253,-130,-19,-119,11193,0,31,-442,-104,35579,-62,34,127,0,0,3208,-21,0,1164,6,169,38233,-4,0,0,0,371254,0
371275,98,-2037,262,-123,-15,-124,11187,-25,45,-546,-192,35584,-82,34,127,0,0,3205,0,0,1164,6,169,38243,-4,0,0,0,371254,0
371285,96,-2045,251,-130,-13,-126,11169,-59,-27,-462,-144,35597,-80,34,127,0,0,3201,-21,0,1164,6,169,38253,-4,0,0,0,371286,0
371295,101,-2036,247,-125,-5,-134,11138,-62,-53,-321,-152,35589,-84,34,127,0,0,3199,-54,0,1164,6,169,38263,-4,0,0,0,371286,0
371305,97,-2031,249,-123,-17,-126,11136,0,41,-461,-112,35580,-90,34,127,0,0,3197,-32,0,1164,6,169,38273,-4,0,0,0,371286,0
371315,117,-2022,263,-117,-24,-125,11134,-2,53,-481,-136,35582,-101,34,127,0,0,3194,-54,0,1164,6,169,38283,-4,0,0,0,371286,0
371325,98,-2027,254,-126,-21,-130,11128,-26,-12,-554,-120,35592,-111,34,127,0,0,3194,21,0,1164,6,169,38293,-4,0,0,0,371317,0
371335,92,-2050,238,-120,-17,-128,11128,-3,-4,-586,-208,35593,-96,34,127,0,0,3190,-43,0,1164,6,169,38303,-4,0,0,0,371317,0
371345,105,-2037,238,-113,-12,-131,11116,-31,-13,-605,-176,35582,-103,34,127,0,0,3188,-32,0,1164,6,169,38313,-4,0,0,0,371332,0
371355,114,-2049,241,-108,-18,-128,11102,-49,-29,-564,-168,35574,-92,34,127,0,0,3186,-43,0,1164,6,169,38323,-4,0,0,0,371332,0
371365,96,-2046,255,-107,-13,-138,11073,-60,-36,-443,-136,35588,-99,34,127,0,0,3186,0,0,1164,6,169,38333,-4,0,0,0,371364,0
371375,94,-2044,243,-104,-16,-126,11069,7,33,-516,-176,35595,-75,34,127,0,0,3181,-32,0,1164,6,169,38343,-4,0,0,0,371364,0
371385,123,-2037,239,-100,-15,-128,11065,-5,55,-575,-160,35591,-66,34,127,0,0,3181,-21,0,1164,6,169,38353,-4,0,0,0,371364,0
371395,100,-2037,240,-101,-26,-119,11058,-15,-7,-547,-144,35573,-78,34,127,0,0,3179,0,0,1164,6,169,38363,-4,0,0,0,371364,0
371405,101,-2030,245,-98,-16,-111,11054,-3,3,-592,-208,35582,-79,34,127,0,0,3175,-32,0,1164,6,169,38373,-4,0,0,0,371395,0
371415,117,-2040,237,-97,-18,-101,11039,-50,-12,-589,-168,35591,-71,34,127,0,0,3172,-32,0,1164,6,169,38383,-4,0,0,0,371395,0
371425,101,-2028,241,-90,-17,-108,11004,-78,-62,-350,-128,35585,-65,34,127,0,0,3172,-21,0,1164,6,169,38393,-4,0,0,0,371411,0
371435,97,-2041,236,-84,-8,-105,10990,-4,13,-351,-112,35579,-52,34,127,0,0,3170,-10,0,1164,6,169,38403,-4,0,0,0,371411,0
371445,145,-2032,247,-85,-15,-103,10991,-3,79,-422,-144,35578,-54,34,127,0,0,3172,43,0,1164,6,169,38413,-4,0,0,0,371426,0
371455,108,-2044,252,-83,-14,-92,10990,0,11,-400,-104,35591,-43,34,127,0,0,3168,-21,0,1164,6,169,38423,-4,0,0,0,371442,0
371465,124,-2031,245,-88,-18,-82,10986,-10,-6,-438,-160,35586,-40,34,127,0,0,3166,-10,0,1164,6,169,38433,-4,0,0,0,371442,0
371475,117,-2030,245,-85,-16,-78,10975,-24,-23,-421,-128,35580,-41,34,127,0,0,3166,-10,0,1164,6,169,38443,-4,0,0,0,371457,0
371485,127,-2043,239,-90,-12,-76,10955,-45,-23,-335,-120,35583,-55,34,127,0,0,3164,-10,0,1164,6,169,38453,-4,0,0,0,371473,0
371495,101,-2039,239,-85,-13,-73,10945,1,-1,-296,-80,35589,-56,34,127,0,0,3164,0,0,1164,6,169,38463,-4,0,0,0,371473,0
371505,126,-2037,233,-87,-19,-67,10946,-5,43,-315,-88,35589,-38,34,127,0,0,3164,0,0,1164,6,169,38473,-4,0,0,0,371489,0
371515,107,-2041,237,-80,-7,-62,10946,5,16,-312,-88,35582,-43,34,127,0,0,3161,-21,0,1164,6,169,38483,-4,0,0,0,371504,0
371525,115,-2033,233,-77,-11,-65,10945,0,-7,-332,-88,35579,-51,34,127,0,0,3164,21,0,1164,6,169,38493,-4,0,0,0,371504,0
371535,131,-2029,240,-82,-17,-53,10947,1,-1,-335,-120,35591,-60,34,127,0,0,3161,-10,0,1164,6,169,38503,-4,0,0,0,371536,0
371545,122,-2038,245,-74,-10,-46,10945,3,6,-338,-88,35591,-50,34,127,0,0,3164,10,0,1164,6,169,38513,-4,0,0,0,371536,0
371555,110,-2030,247,-73,-8,-37,10946,-1,0,-336,-104,35568,-49,34,127,0,0,3164,0,0,1164,6,169,38523,-4,0,0,0,371536,0
371565,141,-2042,230,-68,-8,-33,10943,-8,-1,-329,-88,35564,-67,34,127,0,0,3161,-10,0,1164,6,169,38533,-4,0,0,0,371536,0
371575,111,-2043,233,-67,-10,-36,10945,10,0,-332,-80,35577,-61,34,127,0,0,3161,-10,0,1164,6,169,38543,-4,0,0,0,371661,0
371585,116,-2035,232,-61,-7,-26,10942,-18,-10,-353,-104,35592,-58,34,127,0,0,3164,10,0,1164,6,169,38553,-4,0,0,0,371676,0
371595,140,-2038,237,-58,3,-20,10946,7,4,-317,-88,35585,-55,34,127,0,0,3164,0,0,1164,6,169,38563,-4,0,0,0,371676,0
