state_time,accelx,accely,accelz,gyrox,gyroy,gyroz,mot_ang,mot_vel,mot_acc,mot_cur,mot_volt,batt_volt,batt_curr,temperature,status_mn,status_ex,status_re,ank_ang,ank_vel,ank_torque,peak_ank_torque,step_energy,step_count,step_time,gait_state,movement,speed,incline,sys_time,eventFlags
150545,55,-2034,267,-40,-9,-54,14557,-5,-8,-490,-152,35592,-18,34,127,0,0,3849,0,0,4234,166,66,2393,1,0,111,0,150573,0
150555,55,-2041,263,-34,-6,-52,14557,-9,3,-488,-128,35598,-17,33,127,0,0,3851,32,0,4234,166,66,2403,1,0,111,0,150573,0
150565,53,-2036,266,-34,-15,-48,14556,-7,2,-510,-144,35614,-23,34,127,0,0,3849,0,0,4234,166,66,2413,1,0,111,0,150573,0
150575,57,-2030,266,-27,-12,-55,14552,2,-6,-495,-144,35608,-18,34,127,0,0,3849,0,0,4234,166,66,2423,1,0,111,0,150573,0
150585,67,-2036,266,-33,-12,-46,14551,-4,2,-517,-192,35598,-5,33,127,0,0,3851,32,0,4234,166,66,2433,1,0,111,0,150573,0
150595,24,-2037,262,-35,-16,-38,14549,-12,-1,-533,-160,35602,-19,34,127,0,0,3849,21,0,4234,166,66,2443,1,0,111,0,150573,0
150605,35,-2043,261,-29,-6,-47,14542,-16,-12,-421,-88,35613,-17,34,127,0,0,3854,32,0,4234,166,66,2453,1,0,111,0,150604,0
150615,29,-2045,272,-34,-6,-45,14541,-2,0,-422,-144,35620,-12,34,127,0,0,3847,-10,0,4234,166,66,2463,1,0,111,0,150604,0
150625,50,-2037,266,-34,-5,-52,14531,-25,-8,-377,-104,35611,-11,34,127,0,0,3849,0,0,4234,166,66,2473,1,0,111,0,150620,0
150635,42,-2047,267,-29,-10,-46,14517,-34,-31,-314,-128,35604,-11,34,127,0,0,3849,10,0,4234,166,66,2483,1,0,111,0,150620,0
150645,68,-2026,267,-28,1,-51,14505,-6,1,-208,-80,35608,-37,34,127,0,0,3847,-32,0,4234,166,66,2493,1,0,111,0,150635,0
150655,61,-2036,272,-31,-11,-51,14505,-1,37,-248,-40,35617,-26,34,127,0,0,3847,0,0,4234,166,66,2503,1,0,111,0,150651,0
150665,34,-2034,269,-30,-9,-48,14505,-5,12,-227,-48,35610,-27,34,127,0,0,3849,-10,0,4234,166,66,2513,-4,0,111,0,150651,0
150675,36,-2031,268,-30,-10,-47,14503,-12,-8,-236,-32,35606,-24,34,127,0,0,3847,0,0,4234,166,66,2523,-4,0,111,0,150667,0
150685,47,-2039,274,-30,-11,-50,14505,3,0,-258,-72,35607,-24,34,127,0,0,3847,10,0,4234,166,66,2533,-4,0,111,0,150682,0
150695,67,-2034,272,-37,-7,-46,14505,-6,1,-254,-32,35612,-21,34,127,0,0,3845,-21,0,4234,166,66,2543,-4,0,111,0,150682,0
150705,31,-2043,268,-35,-14,-54,14503,-1,-8,-296,-112,35609,-13,34,127,0,0,3849,32,0,4234,166,66,2553,-4,0,111,0,150682,0
150715,29,-2036,262,-33,-9,-53,14505,6,7,-222,-32,35606,-25,34,127,0,0,3847,-21,0,4234,166,66,2563,-4,0,111,0,150776,0
150725,35,-2039,264,-35,-10,-55,14503,0,7,-241,-112,35613,-27,34,127,0,0,3847,-21,0,4234,166,66,2573,-4,0,111,0,150776,0
150735,31,-2033,270,-31,-11,-55,14503,-1,-4,-255,-64,35616,-33,34,127,0,0,3847,10,0,4234,166,66,2583,-4,0,111,0,150776,0
150745,58,-2038,257,-35,0,-60,14503,-1,3,-259,-64,35604,-37,33,127,0,0,3845,-10,0,4234,166,66,2593,-4,0,111,0,150776,0
150755,73,-2039,265,-32,-4,-58,14504,6,2,-290,-96,35592,-34,33,127,0,0,3845,-32,0,4234,166,66,2603,-4,0,111,0,150776,0
150765,59,-2032,262,-32,-2,-51,14501,2,-3,-325,-32,35598,-53,34,127,0,0,3845,10,0,4234,166,66,2613,-4,0,111,0,150792,0
150775,70,-2036,268,-34,-4,-52,14499,-6,-1,-321,-48,35609,-51,34,127,0,0,3845,21,0,4234,166,66,2623,-4,0,111,0,150792,0
150785,58,-2036,267,-31,-11,-57,14497,-9,4,-341,-80,35611,-45,34,127,0,0,3845,21,0,4234,166,66,2633,-4,0,111,0,150792,0
150795,52,-2035,268,-32,-17,-53,14496,-2,-3,-362,-96,35610,-43,34,127,0,0,3843,-10,0,4234,166,66,2643,-4,0,111,0,150792,0
150805,50,-2030,268,-31,-6,-49,14495,4,2,-359,-64,35615,-40,34,127,0,0,3845,0,0,4234,166,66,2653,-4,0,111,0,150792,0
150815,47,-2034,265,-30,-9,-52,14495,0,4,-320,-112,35632,-56,34,127,0,0,3843,-10,0,4234,166,66,2663,-4,0,111,0,150792,0
150825,51,-2035,278,-29,-6,-54,14495,-10,1,-327,-24,35646,-44,34,127,0,0,3843,-21,0,4234,166,66,2673,-4,0,111,0,150823,0
150835,64,-2035,275,-35,-9,-61,14492,-2,-13,-356,-64,35637,-30,34,127,0,0,3843,10,0,4234,166,66,2683,-4,0,111,0,150823,0
150845,69,-2031,271,-28,-9,-55,14492,-4,-1,-356,-56,35624,-32,34,127,0,0,3843,0,0,4234,166,66,2693,-4,0,111,0,150823,0
150855,67,-2032,272,-32,-15,-54,14492,-4,-5,-365,-88,35618,-24,34,127,0,0,3845,21,0,4234,166,66,2703,-4,0,111,0,150854,0
150865,64,-2039,274,-27,-7,-52,14492,0,-1,-327,-56,35618,-33,34,127,0,0,3845,21,0,4234,166,66,2713,-4,0,111,0,150854,0
150875,62,-2034,271,-32,-3,-53,14491,0,0,-315,-104,35614,-26,33,127,0,0,3843,0,0,4234,166,66,2723,-4,0,111,0,150854,0
150885,57,-2031,272,-35,-13,-44,14491,0,-5,-345,-56,35610,-21,34,127,0,0,3843,0,0,4234,166,66,2733,-4,0,111,0,150885,0
150895,63,-2035,270,-34,-17,-49,14491,2,0,-344,-136,35621,-23,34,127,0,0,3843,-10,0,4234,166,66,2743,-4,0,111,0,150901,0
150905,56,-2040,269,-35,-11,-45,14491,0,1,-330,-96,35626,-24,34,127,0,0,3843,-10,0,4234,166,66,2753,-4,0,111,0,150901,0
150915,54,-2028,276,-33,-8,-44,14490,4,3,-361,-120,35620,-29,33,127,0,0,3843,-10,0,4234,166,66,2763,-4,0,111,0,150901,0
150925,65,-2034,267,-34,-11,-43,14488,4,3,-343,-80,35603,-21,33,127,0,0,3843,0,0,4234,166,66,2773,-4,0,111,0,150917,0
150935,57,-2032,265,-31,-9,-40,14486,-5,5,-370,-120,35614,-37,34,127,0,0,3840,-21,0,4234,166,66,2783,-4,0,111,0,150917,0
150945,52,-2041,267,-26,-8,-38,14485,0,-1,-349,-104,35638,-34,34,127,0,0,3843,0,0,4234,166,66,2793,-4,0,111,0,150948,0
150955,53,-2035,274,-30,-13,-34,14483,-1,2,-324,-72,35638,-30,34,127,0,0,3840,-10,0,4234,166,66,2803,-4,0,111,0,150948,0
150965,27,-2031,269,-26,-10,-35,14481,-5,2,-310,-72,35626,-29,34,127,0,0,3843,0,0,4234,166,66,2813,-4,0,111,0,150948,0
150975,33,-2036,265,-25,-12,-34,14481,-2,4,-301,-64,35611,-27,34,127,0,0,3843,0,0,4234,166,66,2823,-4,0,111,0,150963,0
150985,54,-2040,269,-24,-5,-40,14481,-3,3,-300,-64,35619,-51,34,127,0,0,3840,-21,0,4234,166,66,2833,-4,0,111,0,150979,0
150995,59,-2040,271,-23,-3,-47,14479,-10,-7,-287,-80,35623,-38,34,127,0,0,3840,-32,0,4234,166,66,2843,-4,0,111,0,150979,0
151005,31,-2032,275,-26,-7,-39,14478,-9,-5,-297,-24,35626,-27,34,127,0,0,3843,10,0,4234,166,66,2853,-4,0,111,0,151010,0
151015,70,-2034,277,-34,-11,-48,14479,-2,1,-310,-48,35607,-32,34,127,0,0,3845,32,0,4234,166,66,2863,-4,0,111,0,151010,0
151025,63,-2038,275,-28,-10,-39,14478,7,2,-258,-48,35613,-45,34,127,0,0,3843,21,0,4234,166,66,2873,-4,0,111,0,151010,0
151035,89,-2027,262,-32,-9,-45,14477,-5,2,-262,-64,35617,-49,34,127,0,0,3845,21,0,4234,166,66,2883,-4,0,111,0,151026,0
151045,55,-2032,269,-31,-18,-33,14477,0,-5,-246,-56,35616,-41,34,127,0,0,3840,-21,0,4234,166,66,2893,-4,0,111,0,151042,0
151055,73,-2032,273,-29,-9,-47,14472,-9,-10,-259,-56,35615,-24,34,127,0,0,3843,0,0,4234,166,66,2903,-4,0,111,0,151042,0
151065,61,-2038,263,-27,-6,-43,14470,-11,-4,-241,-48,35612,-39,34,127,0,0,3843,21,0,4234,166,66,2913,-4,0,111,0,151042,0
151075,60,-2033,270,-27,-9,-41,14466,-12,-3,-229,-32,35619,-38,34,127,0,0,3843,10,0,4234,166,66,2923,-4,0,111,0,151135,0
151085,71,-2032,275,-27,-2,-42,14460,-16,-11,-201,-56,35615,-48,34,127,0,0,3843,32,0,4234,166,66,2933,-4,0,111,0,151135,0
151095,59,-2033,266,-24,-7,-39,14460,7,6,-134,-24,35609,-37,34,127,0,0,3843,21,0,4234,166,66,2943,-4,0,111,0,151151,0
151105,42,-2027,273,-21,-12,-39,14458,-5,8,-130,-64,35601,-50,34,127,0,0,3843,10,0,4234,166,66,2953,-4,0,111,0,151151,0
151115,56,-2033,271,-24,-12,-33,14460,4,0,-116,-24,35597,-43,34,127,0,0,3843,-10,0,4234,166,66,2963,-4,0,111,0,151151,0
151125,45,-2041,276,-23,-8,-40,14456,-14,-7,-126,-24,35598,-21,34,127,0,0,3840,-10,0,4234,166,66,2973,-4,0,111,0,151151,0
151135,50,-2026,273,-25,-11,-40,14456,-2,-4,-173,-40,35604,-27,34,127,0,0,3843,0,0,4234,166,66,2983,-4,0,111,0,151151,0
151145,64,-2037,274,-27,-2,-35,14458,9,16,-110,-56,35597,-30,34,127,0,0,3840,-21,0,4234,166,66,2993,-4,0,111,0,151151,0
151155,62,-2032,278,-26,-2,-40,14453,-10,-6,-144,0,35603,-53,34,127,0,0,3840,0,0,4234,166,66,3003,-4,0,111,0,151151,0
151165,14,-2039,280,-22,-11,-48,14455,-2,-4,-145,-48,35608,-43,33,127,0,0,3843,21,0,4234,166,66,3013,-4,0,111,0,151151,0
151175,49,-2034,283,-32,-19,-40,14455,0,7,-96,-24,35611,-33,34,127,0,0,3843,10,0,4234,166,66,3023,-4,0,111,0,151151,0
151185,43,-2035,278,-30,-15,-39,14455,6,-4,-86,-8,35619,-39,34,127,0,0,3843,10,0,4234,166,66,3033,-4,0,111,0,151182,0
151195,54,-2040,269,-36,-10,-39,14452,-14,-8,-151,-40,35622,-25,34,127,0,0,3843,32,0,4234,166,66,3043,-4,0,111,0,151182,0
151205,47,-2040,275,-33,-19,-45,14459,23,10,-71,-24,35629,-28,34,127,0,0,3840,-21,0,4234,166,66,3053,-4,0,111,0,151182,0
151215,51,-2045,282,-30,-15,-57,14451,-17,-7,-123,-48,35624,-19,34,127,0,0,3843,21,0,4234,166,66,3063,-4,0,111,0,151198,0
151225,70,-2039,284,-36,-16,-46,14456,8,7,-125,-48,35617,-16,34,127,0,0,3843,0,0,4234,166,66,3073,-4,0,111,0,151213,0
151235,34,-2036,279,-37,-11,-49,14455,17,13,-57,-64,35613,-29,34,127,0,0,3843,-10,0,4234,166,66,3083,-4,0,111,0,151213,0
151245,55,-2042,272,-38,-16,-53,14454,-4,5,-31,-32,35609,-32,34,127,0,0,3843,0,0,4234,166,66,3093,-4,0,111,0,151229,0
151255,63,-2040,275,-39,-12,-53,14454,-10,-4,-133,-40,35606,-39,33,127,0,0,3840,-21,0,4234,166,66,3103,-4,0,111,0,151245,0
151265,39,-2028,279,-43,-12,-53,14453,19,3,-86,-16,35612,-31,33,127,0,0,3840,-21,0,4234,166,66,3113,-4,0,111,0,151245,0
151275,72,-2033,275,-40,-13,-58,14452,-22,5,-90,-8,35610,-45,34,127,0,0,3843,21,0,4234,166,66,3123,-4,0,111,0,151260,0
151285,58,-2034,269,-35,-15,-58,14454,-7,-6,-112,0,35623,-47,34,127,0,0,3843,21,0,4234,166,66,3133,-4,0,111,0,151276,0
151295,50,-2035,266,-31,-9,-54,14452,1,0,-115,0,35619,-38,34,127,0,0,3840,10,0,4234,166,66,3143,-4,0,111,0,151276,0
151305,59,-2032,265,-26,-12,-63,14451,-13,0,-107,-8,35615,-37,34,127,0,0,3843,21,0,4234,166,66,3153,-4,0,111,0,151291,0
151315,64,-2027,266,-32,-15,-55,14456,5,3,-41,-16,35612,-43,34,127,0,0,3840,-21,0,4234,166,66,3163,-4,0,111,0,151307,0
151325,55,-2032,270,-25,-9,-57,14450,-11,-12,-131,8,35615,-46,34,127,0,0,3840,10,0,4234,166,66,3173,-4,0,111,0,151307,0
151335,79,-2035,279,-22,1,-50,14453,-3,2,-133,-48,35624,-35,34,127,0,0,3840,-10,0,4234,166,66,3183,-4,0,111,0,151323,0
151345,71,-2026,277,-21,-5,-46,14450,-3,1,-141,8,35618,-24,34,127,0,0,3840,0,0,4234,166,66,3193,-4,0,111,0,151338,0
151355,72,-2036,280,-25,-5,-50,14452,-3,-1,-122,-80,35607,-42,34,127,0,0,3840,-32,0,4234,166,66,3203,-4,0,111,0,151338,0
151365,80,-2030,275,-21,-6,-38,14448,-11,-6,-165,-24,35611,-42,33,127,0,0,3840,10,0,4234,166,66,3213,-4,0,111,0,151354,0
151375,54,-2037,274,-20,-1,-36,14449,1,-5,-175,-64,35615,-45,34,127,0,0,3838,0,0,4234,166,66,3223,-4,0,111,0,151370,0
151385,69,-2028,274,-27,-7,-37,14450,-3,6,-181,-32,35606,-35,33,127,0,0,3840,21,0,4234,166,66,3233,-4,0,111,0,151370,0
151395,54,-2029,284,-28,-11,-34,14449,-2,-2,-147,-40,35595,-23,33,127,0,0,3840,0,0,4234,166,66,3243,-4,0,111,0,151370,0
151405,27,-2039,279,-25,-18,-31,14450,2,0,-119,8,35601,-43,34,127,0,0,3838,-21,0,4234,166,66,3253,-4,0,111,0,151401,0
151415,70,-2039,272,-28,-11,-43,14449,-8,-3,-145,8,35611,-43,34,127,0,0,3840,0,0,4234,166,66,3263,-4,0,111,0,151416,0
151425,34,-2047,269,-20,-13,-42,14451,-1,5,-133,-48,35609,-35,34,127,0,0,3840,-10,0,4234,166,66,3273,-4,0,111,0,151416,0
151435,27,-2053,280,-19,-13,-36,14450,4,-2,-140,8,35604,-21,34,127,0,0,3840,-10,0,4234,166,66,3283,-4,0,111,0,151416,0
151445,45,-2048,283,-26,-8,-45,14448,-13,-2,-172,-64,35595,-25,34,127,0,0,3840,21,0,4234,166,66,3293,-4,0,111,0,151526,0
151455,37,-2050,287,-29,-15,-38,14448,-13,0,-167,-24,35609,-40,34,127,0,0,3838,0,0,4234,166,66,3303,-4,0,111,0,151526,0
151465,25,-2049,290,-30,-9,-49,14449,4,-2,-133,-8,35616,-29,34,127,0,0,3840,10,0,4234,166,66,3313,-4,0,111,0,151541,0
151475,38,-2051,296,-35,-18,-51,14450,-12,-4,-120,-40,35604,-27,34,127,0,0,3840,0,0,4234,166,66,3323,-4,0,111,0,151541,0
151485,72,-2037,296,-49,-4,-54,14449,-9,-6,-140,8,35589,-34,34,127,0,0,3840,0,0,4234,166,66,3333,-4,0,111,0,151541,0
151495,73,-2037,288,-44,-7,-58,14448,-9,-2,-173,-16,35592,-46,34,127,0,0,3840,10,0,4234,166,66,3343,-4,0,111,0,151541,0
151505,66,-2036,276,-40,-15,-54,14450,0,0,-144,-32,35603,-50,33,127,0,0,3843,21,0,4234,166,66,3353,-4,0,111,0,151541,0
151515,37,-2031,273,-40,-1,-49,14449,-2,-4,-139,16,35598,-35,33,127,0,0,3840,32,0,4234,166,66,3363,-4,0,111,0,151541,0
151525,50,-2028,276,-41,-6,-57,14449,-4,-5,-167,-32,35594,-35,34,127,0,0,3838,-21,0,4234,166,66,3373,-4,0,111,0,151541,0
151535,74,-2024,275,-45,-11,-52,14448,-5,-2,-197,-64,35593,-50,33,127,0,0,3838,0,0,4234,166,66,3383,-4,0,111,0,151541,0
151545,69,-2021,280,-40,-4,-32,14449,0,0,-197,-56,35600,-56,34,127,0,0,3840,10,0,4234,166,66,3393,-4,0,111,0,151541,0
151555,81,-2021,271,-43,-2,-28,14450,-2,7,-163,-24,35606,-52,33,127,0,0,3840,0,0,4234,166,66,3403,-4,0,111,0,151541,0
151565,99,-2019,274,-37,-2,-18,14446,-11,-8,-179,-16,35610,-31,34,127,0,0,3840,43,0,4234,166,66,3413,-4,0,111,0,151557,0
151575,77,-2032,268,-31,4,-13,14448,2,-3,-166,-16,35622,-51,34,127,0,0,3840,32,0,4234,166,66,3423,-4,0,111,0,151557,0
151585,71,-2037,274,-25,6,-1,14449,1,5,-131,-32,35639,-46,34,127,0,0,3838,-32,0,4234,166,66,3433,-4,0,111,0,151604,0
151595,47,-2043,278,-22,7,-7,14447,4,-12,-135,-24,35643,-37,34,127,0,0,3840,0,0,4234,166,66,3443,-4,0,111,0,151604,0
151605,63,-2043,274,-22,2,2,14448,-15,-4,-141,-32,35630,-25,34,127,0,0,3840,0,0,4234,166,66,3453,-4,0,111,0,151604,0
151615,59,-2043,285,-24,4,6,14451,11,5,-139,-32,35613,-18,34,127,0,0,3840,-10,0,4234,166,66,3463,-4,0,111,0,151620,0
151625,17,-2040,290,-27,-3,9,14448,2,-4,-121,-24,35615,-29,34,127,0,0,3840,0,0,4234,166,66,3473,-4,0,111,0,151620,0
151635,39,-2051,287,-33,-2,2,14448,-8,-5,-134,-24,35624,-11,34,127,0,0,3843,32,0,4234,166,66,3483,-4,0,111,0,151620,0
151645,46,-2044,292,-39,2,2,14453,9,10,-74,-48,35625,-2,34,127,0,0,3840,-32,0,4234,166,66,3493,-4,0,111,0,151620,0
151655,24,-2038,297,-44,-5,-16,14450,20,-5,-53,-40,35614,-17,34,127,0,0,3843,-32,0,4234,166,66,3503,-4,0,111,0,151651,0
151665,17,-2035,297,-54,-4,-13,14451,8,3,-27,-8,35609,-31,34,127,0,0,3845,21,0,4234,166,66,3513,-4,0,111,0,151651,0
151675,17,-2034,301,-58,-5,-21,14451,-1,11,-4,-24,35609,-33,34,127,0,0,3843,-10,0,4234,166,66,3523,-4,0,111,0,151651,0
151685,2,-2037,298,-68,-10,-30,14454,13,5,38,8,35610,-30,34,127,0,0,3843,-32,0,4234,166,66,3533,-4,0,111,0,151682,0
151695,32,-2024,292,-75,-11,-48,14453,-14,0,-2,8,35604,-28,34,127,0,0,3845,0,0,4234,166,66,3543,-4,0,111,0,151682,0
151705,28,-2027,287,-82,-7,-60,14454,4,-5,36,32,35603,-44,34,127,0,0,3847,21,0,4234,166,66,3553,-4,0,111,0,151682,0
151715,32,-2021,290,-88,-16,-62,14456,-5,6,58,-8,35614,-45,34,127,0,0,3845,-10,0,4234,166,66,3563,-4,0,111,0,151698,0
151725,33,-2019,283,-89,-18,-69,14454,4,-7,23,40,35620,-45,34,127,0,0,3845,-10,0,4234,166,66,3573,-4,0,111,0,151698,0
151735,46,-2032,277,-89,-10,-81,14454,0,3,25,-40,35621,-34,34,127,0,0,3845,-10,0,4234,166,66,3583,-4,0,111,0,151745,0
151745,56,-2023,274,-91,-16,-73,14454,-2,3,-6,-24,35611,-37,34,127,0,0,3847,21,0,4234,166,66,3593,-4,0,111,0,151745,0
151755,44,-2030,280,-86,-17,-73,14454,-3,1,7,-16,35603,-42,34,127,0,0,3843,-10,0,4234,166,66,3603,-4,0,111,0,151745,0
151765,58,-2043,267,-86,-13,-77,14454,5,2,-16,8,35602,-32,34,127,0,0,3843,-21,0,4234,166,66,3613,-4,0,111,0,151745,0
151775,69,-2040,271,-87,-18,-78,14454,0,1,-7,8,35605,-43,34,127,0,0,3843,-43,0,4234,166,66,3623,-4,0,111,0,151760,0
151785,38,-2027,267,-78,-13,-61,14453,-1,2,-29,-8,35613,-40,34,127,0,0,3843,0,0,4234,166,66,3633,-4,0,111,0,151776,0
151795,69,-2028,259,-73,-12,-63,14453,-1,6,-9,8,35622,-48,34,127,0,0,3843,0,0,4234,166,66,3643,-4,0,111,0,151791,0
151805,55,-2032,256,-67,-8,-54,14453,-1,0,-21,24,35625,-31,34,127,0,0,3843,0,0,4234,166,66,3653,-4,0,111,0,151791,0
151815,72,-2035,260,-66,-12,-52,14453,0,-1,-29,-16,35612,-20,34,127,0,0,3843,0,0,4234,166,66,3663,-4,0,111,0,151869,0
151825,72,-2038,270,-68,-4,-43,14453,-2,1,-32,-8,35607,-25,34,127,0,0,3843,0,0,4234,166,66,3673,-4,0,111,0,151885,0
151835,65,-2040,269,-62,-4,-39,14453,-7,0,-56,-48,35609,-29,34,127,0,0,3843,0,0,4234,166,66,3683,-4,0,111,0,151885,0
151845,76,-2039,267,-58,-3,-31,14452,4,-6,-39,-16,35612,-35,34,127,0,0,3843,10,0,4234,166,66,3693,-4,0,111,0,151885,0
151855,79,-2041,276,-61,-5,-31,14453,-2,4,-26,16,35603,-39,34,127,0,0,3843,0,0,4234,166,66,3703,-4,0,111,0,151885,0
151865,20,-2039,268,-56,-12,-26,14454,5,-5,-19,-16,35598,-41,34,127,0,0,3843,-21,0,4234,166,66,3713,-4,0,111,0,151885,0
151875,38,-2023,269,-54,-2,-35,14453,2,1,-31,-16,35598,-41,34,127,0,0,3845,21,0,4234,166,66,3723,-4,0,111,0,151885,0
151885,38,-2035,263,-53,-9,-38,14453,2,4,-25,-16,35605,-43,34,127,0,0,3843,0,0,4234,166,66,3733,-4,0,111,0,151885,0
151895,47,-2030,269,-51,-9,-36,14453,-6,0,-27,-8,35608,-34,34,127,0,0,3845,10,0,4234,166,66,3743,-4,0,111,0,151885,0
151905,65,-2031,269,-54,-6,-41,14454,0,2,-28,-16,35614,-32,34,127,0,0,3843,0,0,4234,166,66,3753,-4,0,111,0,151901,0
151915,55,-2043,274,-58,-8,-45,14452,-9,-6,-69,0,35617,-36,34,127,0,0,3843,10,0,4234,166,66,3763,-4,0,111,0,151901,0
151925,54,-2034,283,-57,-4,-50,14452,0,-1,-79,0,35632,-46,34,127,0,0,3845,32,0,4234,166,66,3773,-4,0,111,0,151916,0
151935,54,-2042,282,-58,-9,-45,14453,4,2,-24,-16,35638,-26,34,127,0,0,3845,21,0,4234,166,66,3783,-4,0,111,0,151916,0
151945,41,-2035,280,-60,-12,-41,14455,10,3,2,-24,35625,-23,34,127,0,0,3843,-21,0,4234,166,66,3793,-4,0,111,0,151948,0
151955,52,-2027,278,-61,-13,-45,14454,1,2,-32,-16,35611,-22,34,127,0,0,3845,32,0,4234,166,66,3803,-4,0,111,0,151948,0
151965,35,-2042,272,-62,-13,-43,14454,4,2,-9,-16,35608,-40,34,127,0,0,3843,-32,0,4234,166,66,3813,-4,0,111,0,151948,0
151975,56,-2033,272,-62,-13,-43,14453,1,3,-19,16,35618,-37,34,127,0,0,3843,-10,0,4234,166,66,3823,-4,0,111,0,151948,0
151985,31,-2033,275,-61,-10,-46,14452,-10,-6,-18,24,35623,-22,34,127,0,0,3843,0,0,4234,166,66,3833,-4,0,111,0,151979,0
151995,43,-2036,267,-63,-11,-49,14453,-3,-1,-21,24,35620,-27,34,127,0,0,3843,10,0,4234,166,66,3843,-4,0,111,0,151979,0
152005,43,-2035,272,-63,-8,-51,14452,-7,-3,-35,-8,35621,-25,34,127,0,0,3840,-10,0,4234,166,66,3853,-4,0,111,0,152010,0
152015,60,-2038,271,-66,-8,-57,14452,1,2,-60,-16,35617,-33,34,127,0,0,3843,-10,0,4234,166,66,3863,-4,0,111,0,152010,0
152025,61,-2038,265,-65,-9,-50,14453,-7,4,-34,-16,35611,-42,33,127,0,0,3843,-21,0,4234,166,66,3873,-4,0,111,0,152026,0
152035,58,-2029,272,-69,-10,-51,14454,3,-2,-32,-16,35606,-32,33,127,0,0,3843,10,0,4234,166,66,3883,-4,0,111,0,152026,0
152045,44,-2034,267,-65,-11,-56,14452,-1,-3,-36,-16,35601,-43,34,127,0,0,3843,21,0,4234,166,66,3893,-4,0,111,0,152026,0
152055,86,-2031,268,-63,-11,-46,14453,-5,-1,-27,-24,35625,-36,34,127,0,0,3843,0,0,4234,166,66,3903,-4,0,111,0,152057,0
152065,48,-2033,268,-65,-10,-51,14453,-1,-1,-38,-16,35630,-43,34,127,0,0,3843,0,0,4234,166,66,3913,-4,0,111,0,152057,0
152075,47,-2036,270,-63,-6,-48,14454,3,2,-29,-16,35633,-39,34,127,0,0,3845,32,0,4234,166,66,3923,-4,0,111,0,152057,0
152085,70,-2030,263,-60,-7,-51,14453,-5,0,-21,-8,35618,-46,34,127,0,0,3843,0,0,4234,166,66,3933,-4,0,111,0,152104,0
152095,59,-2038,268,-61,-9,-49,14453,-3,-3,-63,32,35620,-50,34,127,0,0,3843,21,0,4234,166,66,3943,-4,0,111,0,152104,0
152105,68,-2035,267,-61,-5,-50,14454,-3,1,-42,-8,35620,-35,34,127,0,0,3843,0,0,4234,166,66,3953,-4,0,111,0,152104,0
152115,43,-2034,266,-58,-8,-50,14454,1,2,-43,-56,35611,-38,33,127,0,0,3843,-10,0,4234,166,66,3963,-4,0,111,0,152104,0
152125,91,-2032,261,-52,2,-48,14452,-3,-1,-66,-8,35595,-30,33,127,0,0,3840,0,0,4234,166,66,3973,-4,0,111,0,152104,0
152135,98,-2036,260,-56,-1,-50,14452,-2,0,-72,-8,35611,-35,34,127,0,0,3843,0,0,4234,166,66,3983,-4,0,111,0,152135,0
152145,66,-2039,264,-52,-9,-38,14452,-7,-1,-28,-8,35623,-29,34,127,0,0,3840,-21,0,4234,166,66,3993,-4,0,111,0,152135,0
152155,89,-2025,264,-52,2,-45,14453,7,-3,-65,-8,35618,-27,34,127,0,0,3843,-21,0,4234,166,66,4003,-4,0,111,0,152135,0
152165,76,-2034,260,-46,-7,-40,14451,-11,2,-62,-8,35607,-32,34,127,0,0,3845,43,0,4234,166,66,4013,-4,0,111,0,152229,0
152175,58,-2049,267,-45,-6,-32,14453,-7,6,-22,-16,35611,-17,34,127,0,0,3843,0,0,4234,166,66,4023,-4,0,111,0,152244,0
152185,51,-2060,266,-45,-2,-33,14452,2,-6,-28,-8,35624,-4,34,127,0,0,3845,32,0,4234,166,66,4033,-4,0,111,0,152244,0
152195,72,-2041,275,-46,-7,-27,14453,-3,-3,-27,-16,35620,-7,34,127,0,0,3843,0,0,4234,166,66,4043,-4,0,111,0,152244,0
152205,49,-2044,273,-45,-11,-30,14452,-2,2,-28,24,35601,-16,34,127,0,0,3843,0,0,4234,166,66,4053,-4,0,111,0,152244,0
152215,38,-2049,269,-44,-8,-23,14452,-3,-6,-44,24,35591,-45,34,127,0,0,3843,32,0,4234,166,66,4063,-4,0,111,0,152244,0
152225,20,-2029,267,-42,-3,-38,14454,4,2,-29,-32,35597,-47,33,127,0,0,3847,32,0,4234,166,66,4073,-4,0,111,0,152244,0
152235,7,-2037,269,-43,-11,-31,14454,-1,-2,3,-24,35597,-37,34,127,0,0,3847,43,0,4234,166,66,4083,-4,0,111,0,152244,0
152245,71,-2027,282,-49,-6,-38,14455,1,-5,7,-16,35597,-36,34,127,0,0,3845,21,0,4234,166,66,4093,-4,0,111,0,152244,0
152255,73,-2026,279,-52,-5,-40,14455,0,2,23,8,35588,-39,34,127,0,0,3843,-54,0,4234,166,66,4103,-4,0,111,0,152244,0
152265,31,-2031,279,-52,-16,-34,14452,-4,-6,2,24,35600,-64,34,127,0,0,3843,-10,0,4234,166,66,4113,-4,0,111,0,152260,0
152275,78,-2015,278,-56,-13,-44,14454,-3,1,14,0,35623,-52,34,127,0,0,3845,10,0,4234,166,66,4123,-4,0,111,0,152260,0
152285,8,-2017,266,-61,-21,-37,14454,2,4,66,32,35640,-60,34,127,0,0,3845,-32,0,4234,166,66,4133,-4,0,111,0,152291,0
152295,36,-2014,262,-58,-16,-45,14453,-3,-7,-1,-16,35639,-49,34,127,0,0,3845,0,0,4234,166,66,4143,-4,0,111,0,152291,0
152305,59,-2021,253,-60,-5,-49,14455,12,6,-24,-16,35626,-52,34,127,0,0,3843,10,0,4234,166,66,4153,-4,0,111,0,152291,0
152315,74,-2043,266,-54,-10,-45,14455,0,11,-33,-16,35621,-43,34,127,0,0,3845,0,0,4234,166,66,4163,-4,0,111,0,152291,0
152325,75,-2053,275,-51,-7,-42,14453,1,-1,-25,-16,35621,-24,34,127,0,0,3843,10,0,4234,166,66,4173,-4,0,111,0,152322,0
152335,86,-2052,271,-55,-7,-40,14452,-4,3,-30,24,35623,-17,34,127,0,0,3843,10,0,4234,166,66,4183,-4,0,111,0,152322,0
152345,47,-2066,273,-49,-13,-37,14454,1,0,-11,8,35617,-20,34,127,0,0,3843,-32,0,4234,166,66,4193,-4,0,111,0,152322,0
152355,47,-2055,265,-54,-6,-34,14453,4,-1,-25,-16,35611,-27,34,127,0,0,3845,0,0,4234,166,66,4203,-4,0,111,0,152354,0
152365,64,-2042,262,-53,-2,-28,14453,0,2,-55,32,35612,-37,34,127,0,0,3843,10,0,4234,166,66,4213,-4,0,111,0,152354,0
152375,65,-2056,267,-59,-1,-30,14451,-2,-1,-72,-8,35609,-23,34,127,0,0,3843,21,0,4234,166,66,4223,-4,0,111,0,152369,0
152385,25,-2037,272,-58,-12,-36,14453,-4,5,-11,8,35603,-50,34,127,0,0,3847,54,0,4234,166,66,4233,-4,0,111,0,152369,0
152395,34,-2037,271,-58,-11,-30,14455,-6,1,-8,16,35603,-51,34,127,0,0,3843,-21,0,4234,166,66,4243,-4,0,111,0,152401,0
152405,29,-2040,278,-63,-4,-55,14453,7,-4,-17,-24,35611,-48,34,127,0,0,3843,0,0,4234,166,66,4253,-4,0,111,0,152401,0
152415,33,-2025,278,-70,-12,-51,14452,-4,1,-5,56,35609,-44,34,127,0,0,3845,10,0,4234,166,66,4263,-4,0,111,0,152401,0
152425,30,-2024,277,-77,-4,-56,14454,-9,3,-20,16,35609,-40,34,127,0,0,3845,0,0,4234,166,66,4273,-4,0,111,0,152416,0
152435,30,-2014,268,-80,-14,-51,14453,12,1,-20,24,35609,-62,34,127,0,0,3847,54,0,4234,166,66,4283,-4,0,111,0,152416,0
152445,51,-2007,267,-88,-12,-67,14454,-7,4,11,8,35620,-39,34,127,0,0,3845,21,0,4234,166,66,4293,-4,0,111,0,152432,0
152455,38,-2021,265,-86,-14,-69,14453,-8,-7,-15,24,35621,-38,34,127,0,0,3845,0,0,4234,166,66,4303,-4,0,111,0,152447,0
152465,39,-2023,267,-87,-16,-77,14454,8,-2,4,8,35611,-43,34,127,0,0,3847,10,0,4234,166,66,4313,-4,0,111,0,152447,0
152475,11,-2028,270,-90,-25,-76,14454,5,-1,19,16,35606,-49,34,127,0,0,3845,0,0,4234,166,66,4323,-4,0,111,0,152479,0
152485,49,-2033,271,-88,-18,-91,14452,-1,0,-15,24,35621,-39,34,127,0,0,3845,32,0,4234,166,66,4333,-4,0,111,0,152479,0
152495,57,-2032,255,-84,-17,-92,14452,-5,-2,-19,-24,35612,-33,34,127,0,0,3843,-10,0,4234,166,66,4343,-4,0,111,0,152479,0
152505,41,-2025,240,-81,-33,-90,14453,1,0,-29,-16,35606,-37,34,127,0,0,3843,-21,0,4234,166,66,4353,-4,0,111,0,152494,0
152515,47,-2028,241,-77,-25,-86,14453,-2,0,-52,32,35599,-52,33,127,0,0,3843,10,0,4234,166,66,4363,-4,0,111,0,152526,0
152525,62,-2030,249,-68,-29,-87,14452,0,-4,-72,0,35611,-48,34,127,0,0,3840,-21,0,4234,166,66,4373,-4,0,111,0,152526,0
152535,65,-2055,248,-66,-24,-95,14450,-5,-2,-92,-8,35612,-31,33,127,0,0,3840,-10,0,4234,166,66,4383,-4,0,111,0,152526,0
152545,48,-2062,255,-64,-19,-97,14449,-5,-2,-121,-32,35604,-24,33,127,0,0,3840,-21,0,4234,166,66,4393,-4,0,111,0,152526,0
152555,73,-2068,251,-65,-14,-102,14449,3,3,-194,-56,35600,-26,34,127,0,0,3838,-10,0,4234,166,66,4403,-4,0,111,0,152619,0
152565,67,-2068,256,-54,-2,-101,14447,-7,3,-228,-48,35617,-46,34,127,0,0,3838,0,0,4234,166,66,4413,-4,0,111,0,152619,0
152575,59,-2058,266,-45,-10,-88,14444,-16,-8,-303,-104,35621,-24,34,127,0,0,3832,-32,0,4234,166,66,4423,-4,0,111,0,152619,0
152585,62,-2049,264,-51,-15,-75,14437,-10,-12,-349,-64,35614,-34,34,127,0,0,3834,10,0,4234,166,66,4433,-4,0,111,0,152619,0
152595,75,-2034,255,-57,-15,-67,14438,-9,10,-376,-96,35591,-30,34,127,0,0,3832,-21,0,4234,166,66,4443,-4,0,111,0,152635,0
152605,52,-2035,246,-49,-21,-50,14437,2,8,-370,-96,35594,-61,34,127,0,0,3832,-21,0,4234,166,66,4453,-4,0,111,0,152635,0
152615,64,-2038,250,-45,-13,-49,14436,4,3,-365,-24,35602,-52,34,127,0,0,3832,0,0,4234,166,66,4463,-4,0,111,0,152635,0
152625,54,-2031,252,-38,-16,-44,14437,-7,3,-392,-96,35595,-41,34,127,0,0,3832,0,0,4234,166,66,4473,-4,0,111,0,152635,0
152635,71,-2034,255,-34,-21,-33,14434,2,-6,-411,-96,35590,-38,34,127,0,0,3829,-21,0,4234,166,66,4483,-4,0,111,0,152635,0
152645,51,-2021,259,-31,-6,-22,14436,7,8,-373,-96,35591,-29,33,127,0,0,3832,-21,0,4234,166,66,4493,-4,0,111,0,152635,0
152655,58,-2022,252,-31,-9,-17,14434,0,-1,-379,-96,35609,-37,34,127,0,0,3832,10,0,4234,166,66,4503,-4,0,111,0,152635,0
152665,63,-2024,252,-26,-10,-14,14436,-13,5,-400,-96,35627,-29,34,127,0,0,3829,-21,0,4234,166,66,4513,-4,0,111,0,152651,0
152675,64,-2022,247,-25,5,-10,14434,10,-1,-382,-96,35633,-19,34,127,0,0,3832,-21,0,4234,166,66,4523,-4,0,111,0,152666,0
152685,63,-2030,245,-18,-1,5,14434,1,2,-345,-104,35626,-33,34,127,0,0,3832,-10,0,4234,166,66,4533,-4,0,111,0,152682,0
152695,60,-2024,252,-17,-8,-1,14433,0,-4,-371,-56,35625,-46,34,127,0,0,3832,21,0,4234,166,66,4543,-4,0,111,0,152682,0
152705,65,-2039,255,-12,-7,6,14434,-14,5,-368,-56,35615,-37,34,127,0,0,3834,21,0,4234,166,66,4553,-4,0,111,0,152697,0
152715,71,-2047,253,-3,1,16,14436,9,5,-312,-72,35612,-23,34,127,0,0,3834,10,0,4234,166,66,4563,-4,0,111,0,152697,0
152725,62,-2041,264,-10,-8,20,14435,1,0,-288,-80,35610,-21,34,127,0,0,3838,54,0,4234,166,66,4573,-4,0,111,0,152713,0
152735,53,-2041,256,-8,-8,38,14438,4,3,-231,-96,35617,-46,34,127,0,0,3836,0,0,4234,166,66,4583,-4,0,111,0,152713,0
152745,51,-2038,256,-1,-14,53,14439,15,2,-153,-8,35626,-33,34,127,0,0,3840,43,0,4234,166,66,4593,-4,0,111,0,152744,0
152755,88,-2035,261,-7,-27,72,14446,0,10,-95,-56,35617,-43,34,127,0,0,3845,54,0,4234,166,66,4603,-4,0,111,0,152744,0
152765,20,-2045,261,-5,-21,59,14448,20,-2,24,32,35605,-45,34,127,0,0,3847,32,0,4234,166,66,4613,-4,0,111,0,152744,0
152775,36,-2052,268,0,-8,48,14451,12,3,145,40,35609,-63,34,127,0,0,3849,32,0,4234,166,66,4623,-4,0,111,0,152776,0
152785,47,-2048,271,4,-11,39,14454,9,-7,203,40,35610,-39,34,127,0,0,3851,21,0,4234,166,66,4633,-4,0,111,0,152776,0
152795,32,-2051,269,4,-9,34,14460,6,6,273,88,35602,-30,34,127,0,0,3854,21,0,4234,166,66,4643,-4,0,111,0,152776,0
152805,22,-2037,274,-2,-18,30,14468,12,2,277,112,35603,-38,34,127,0,0,3854,21,0,4234,166,66,4653,-4,0,111,0,152791,0
152815,17,-2035,266,-4,-13,16,14480,26,15,232,72,35619,-41,34,127,0,0,3858,32,0,4234,166,66,4663,-4,0,111,0,152822,0
152825,19,-2033,266,0,0,-2,14502,56,30,192,56,35639,-34,34,127,0,0,3860,32,0,4234,166,66,4673,-4,0,111,0,152822,0
152835,25,-2038,272,-1,-18,-8,14510,2,-14,184,24,35631,-27,34,127,0,0,3862,43,0,4234,166,66,4683,-4,0,111,0,152822,0
152845,30,-2043,269,-5,-7,-34,14510,9,-41,253,48,35610,-21,34,127,0,0,3862,21,0,4234,166,66,4693,-4,0,111,0,152822,0
152855,29,-2036,279,-7,-9,-42,14509,-15,-10,223,104,35609,-37,34,127,0,0,3862,32,0,4234,166,66,4703,-4,0,111,0,152838,0
152865,39,-2035,285,-11,-6,-58,14509,-6,-10,196,64,35635,-38,34,127,0,0,3862,43,0,4234,166,66,4713,-4,0,111,0,152900,0
152875,2,-2030,283,-17,-17,-55,14510,-3,2,201,56,35639,-38,34,127,0,0,3862,43,0,4234,166,66,4723,-4,0,111,0,152900,0
152885,28,-2014,282,-28,-2,-66,14512,13,1,247,48,35629,-40,34,127,0,0,3860,-10,0,4234,166,66,4733,-4,0,111,0,152900,0
152895,7,-2030,279,-29,-8,-77,14510,4,1,227,48,35617,-41,34,127,0,0,3858,-32,0,4234,166,66,4743,-4,0,111,0,152900,0
152905,21,-2031,277,-40,-19,-93,14509,-1,-3,161,64,35624,-53,34,127,0,0,3860,21,0,4234,166,66,4753,-4,0,111,0,152900,0
152915,29,-2045,280,-39,-18,-98,14512,8,13,182,32,35633,-29,34,127,0,0,3862,0,0,4234,166,66,4763,-4,0,111,0,152932,0
152925,64,-2041,279,-36,-19,-93,14510,9,3,215,32,35624,-24,34,127,0,0,3860,0,0,4234,166,66,4773,-4,0,111,0,152947,0
152935,40,-2039,277,-47,-16,-107,14509,-4,-6,192,72,35620,-25,34,127,0,0,3856,-43,0,4234,166,66,4783,-4,0,111,0,152947,0
152945,52,-2042,257,-38,-14,-114,14509,3,-5,129,-8,35618,-46,34,127,0,0,3854,-65,0,4234,166,66,4793,-4,0,111,0,152947,0
152955,63,-2034,257,-34,-7,-112,14503,-16,-8,18,-8,35628,-44,34,127,0,0,3854,-10,0,4234,166,66,4803,-4,0,111,0,152963,0
152965,51,-2019,253,-38,-5,-107,14504,1,5,-5,0,35612,-25,34,127,0,0,3854,-10,0,4234,166,66,4813,-4,0,111,0,152963,0
152975,66,-2045,263,-28,1,-104,14503,0,12,-48,-16,35610,-29,34,127,0,0,3854,0,0,4234,166,66,4823,-4,0,111,0,152963,0
152985,85,-2042,266,-32,-4,-88,14501,-5,-4,-102,0,35621,-21,34,127,0,0,3849,0,0,4234,166,66,4833,-4,0,111,0,152963,0
152995,77,-2056,265,-25,-6,-83,14499,4,3,-98,-48,35652,-30,34,127,0,0,3847,-54,0,4234,166,66,4843,-4,0,111,0,153010,0
153005,77,-2058,268,-19,-5,-74,14492,-25,-8,-134,8,35651,-27,34,127,0,0,3847,-10,0,4234,166,66,4853,-4,0,111,0,153010,0
153015,97,-2059,262,-16,-6,-63,14491,-25,-6,-243,-80,35634,-31,33,127,0,0,3849,54,0,4234,166,66,4863,-4,0,111,0,153010,0
153025,83,-2040,255,-16,-7,-45,14495,24,13,-128,-64,35607,-51,34,127,0,0,3847,-32,0,4234,166,66,4873,-4,0,111,0,153025,0
153035,50,-2032,256,-8,-11,-44,14488,-7,-1,-180,-72,35604,-59,34,127,0,0,3847,0,0,4234,166,66,4883,-4,0,111,0,153025,0
153045,69,-2026,252,5,-7,-37,14489,12,-7,-180,-40,35616,-48,34,127,0,0,3845,-32,0,4234,166,66,4893,-4,0,111,0,153025,0
153055,57,-2016,240,11,-7,-36,14482,-21,0,-226,-64,35635,-32,34,127,0,0,3847,32,0,4234,166,66,4903,-4,0,111,0,153057,0
153065,56,-2012,260,19,-4,-22,14484,16,-6,-108,8,35637,-29,34,127,0,0,3845,-21,0,4234,166,66,4913,-4,0,111,0,153057,0
153075,89,-1999,264,23,1,-28,14483,-11,14,-169,-24,35636,-47,34,127,0,0,3847,10,0,4234,166,66,4923,-4,0,111,0,153057,0
153085,73,-2004,255,29,2,-23,14486,0,-2,-165,-32,35636,-38,34,127,0,0,3845,-21,0,4234,166,66,4933,-4,0,111,0,153088,0
153095,63,-2002,272,27,4,-17,14482,-4,-2,-170,-16,35633,-40,34,127,0,0,3849,43,0,4234,166,66,4943,-4,0,111,0,153088,0
153105,87,-2002,274,30,1,-6,14488,2,3,-170,-64,35624,-34,34,127,0,0,3847,10,0,4234,166,66,4953,-4,0,111,0,153088,0
153115,94,-2014,284,26,3,-1,14485,4,-5,-169,-64,35621,-28,34,127,0,0,3851,54,0,4234,166,66,4963,-4,0,111,0,153119,0
153125,90,-2024,304,23,-2,7,14487,-5,-1,-159,-56,35621,-24,34,127,0,0,3847,21,0,4234,166,66,4973,-4,0,111,0,153119,0
153135,73,-2027,301,13,-3,3,14486,6,-2,-86,-16,35619,-9,33,127,0,0,3847,10,0,4234,166,66,4983,-4,0,111,0,153119,0
153145,25,-2034,299,8,-6,-5,14489,-11,0,-127,0,35616,-11,34,127,0,0,3847,0,0,4234,166,66,4993,-4,0,111,0,153150,0
153155,56,-2054,296,-7,-10,-3,14489,3,0,-69,-24,35613,-22,34,127,0,0,3851,21,0,4234,166,66,5003,-4,0,111,0,153150,0
153165,55,-2065,299,-11,-5,-8,14490,-9,5,-41,8,35616,-31,34,127,0,0,3849,21,0,4234,166,66,5013,-4,0,111,0,153150,0
153175,60,-2077,303,-11,4,-12,14494,15,-3,16,40,35616,-33,33,127,0,0,3851,-32,0,4234,166,66,5023,-4,0,111,0,153166,0
153185,9,-2071,305,-31,-6,-11,14493,-6,0,37,24,35608,-30,33,127,0,0,3851,-32,0,4234,166,66,5033,-4,0,111,0,153166,0
153195,35,-2091,307,-42,-4,-23,14495,3,-7,42,16,35603,-43,34,127,0,0,3854,0,0,4234,166,66,5043,-4,0,111,0,153197,0
153205,45,-2085,310,-55,0,-32,14496,5,3,32,16,35610,-50,34,127,0,0,3854,21,0,4234,166,66,5053,-4,0,111,0,153197,0
153215,43,-2074,313,-61,-3,-44,14495,-7,-2,32,16,35603,-32,34,127,0,0,3854,21,0,4234,166,66,5063,-4,0,111,0,153197,0
153225,38,-2058,317,-75,-6,-43,14495,-5,0,38,16,35610,-35,34,127,0,0,3854,21,0,4234,166,66,5073,-4,0,111,0,153213,0
153235,32,-2035,315,-83,-5,-50,14495,3,-1,33,32,35613,-16,34,127,0,0,3854,10,0,4234,166,66,5083,-4,0,111,0,153213,0
153245,42,-2012,292,-96,-5,-63,14496,0,0,33,16,35621,-38,34,127,0,0,3851,0,0,4234,166,66,5093,-4,0,111,0,153244,0
153255,34,-2011,281,-94,-6,-64,14496,0,-2,32,16,35628,-28,34,127,0,0,3854,-10,0,4234,166,66,5103,-4,0,111,0,153244,0
153265,40,-2001,266,-97,-13,-55,14497,11,1,34,24,35615,-17,34,127,0,0,3854,10,0,4234,166,66,5113,-4,0,111,0,153244,0
153275,73,-2004,270,-97,-2,-64,14495,-9,1,35,-16,35607,-29,34,127,0,0,3854,-10,0,4234,166,66,5123,-4,0,111,0,153354,0
153285,73,-2000,271,-97,-9,-65,14495,0,-6,5,-16,35609,-24,34,127,0,0,3854,43,0,4234,166,66,5133,-4,0,111,0,153354,0
153295,67,-2006,271,-95,-9,-59,14495,-3,-3,-5,32,35615,-39,34,127,0,0,3851,0,0,4234,166,66,5143,-4,0,111,0,153354,0
153305,38,-2012,261,-89,-6,-56,14496,3,-3,13,16,35611,-35,34,127,0,0,3854,21,0,4234,166,66,5153,-4,0,111,0,153354,0
153315,38,-2001,251,-91,-16,-47,14497,4,0,30,-16,35595,-35,34,127,0,0,3851,-21,0,4234,166,66,5163,-4,0,111,0,153369,0
153325,73,-2013,239,-72,2,-46,14495,-8,-4,-6,32,35592,-36,34,127,0,0,3854,32,0,4234,166,66,5173,-4,0,111,0,153369,0
153335,69,-2019,239,-66,-1,-49,14497,1,1,40,16,35596,-37,34,127,0,0,3854,0,0,4234,166,66,5183,-4,0,111,0,153369,0
153345,49,-2029,254,-57,-11,-39,14496,0,2,30,-16,35596,-36,34,127,0,0,3851,-10,0,4234,166,66,5193,-4,0,111,0,153369,0
153355,81,-2041,253,-53,-11,-43,14497,0,-5,-19,-8,35590,-29,34,127,0,0,3854,0,0,4234,166,66,5203,-4,0,111,0,153369,0
153365,74,-2051,261,-43,-10,-40,14497,5,5,-2,-8,35581,-29,34,127,0,0,3851,0,0,4234,166,66,5213,-4,0,111,0,153369,0
153375,47,-2058,262,-42,-13,-39,14495,-3,-1,17,16,35590,-41,34,127,0,0,3854,10,0,4234,166,66,5223,-4,0,111,0,153369,0
153385,43,-2052,267,-26,-19,-30,14496,-4,0,4,-8,35606,-25,34,127,0,0,3851,10,0,4234,166,66,5233,-4,0,111,0,153385,0
153395,64,-2041,262,-25,-12,-31,14496,-5,3,0,-16,35623,-27,34,127,0,0,3854,10,0,4234,166,66,5243,-4,0,111,0,153385,0
153405,59,-2037,257,-15,-14,-26,14494,-17,-3,-50,8,35632,-15,34,127,0,0,3851,43,0,4234,166,66,5253,-4,0,111,0,153385,0
153415,91,-2036,251,-10,-1,-30,14497,4,5,-76,0,35642,-25,34,127,0,0,3854,21,0,4234,166,66,5263,-4,0,111,0,153416,0
153425,19,-2041,255,0,-12,-21,14496,19,6,51,16,35636,-28,34,127,0,0,3851,-32,0,4234,166,66,5273,-4,0,111,0,153416,0
153435,48,-2028,266,-4,-5,-27,14494,-12,-8,0,32,35612,-40,33,127,0,0,3851,10,0,4234,166,66,5283,-4,0,111,0,153416,0
153445,40,-2022,247,10,-1,-32,14498,7,-2,19,16,35600,-56,34,127,0,0,3851,-32,0,4234,166,66,5293,-4,0,111,0,153432,0
153455,32,-2019,253,25,-4,-28,14494,-10,-1,0,32,35600,-43,34,127,0,0,3854,32,0,4234,166,66,5303,-4,0,111,0,153463,0
153465,58,-2016,264,36,0,-26,14497,-2,0,15,16,35623,-44,34,127,0,0,3854,10,0,4234,166,66,5313,-4,0,111,0,153463,0
153475,31,-2025,280,33,5,-28,14497,9,3,35,16,35621,-35,34,127,0,0,3854,21,0,4234,166,66,5323,-4,0,111,0,153463,0
153485,55,-2038,281,39,0,-28,14496,-10,-5,27,16,35607,-29,34,127,0,0,3851,0,0,4234,166,66,5333,-4,0,111,0,153463,0
153495,63,-2053,286,38,4,-32,14497,-1,0,19,16,35605,-40,34,127,0,0,3854,0,0,4234,166,66,5343,-4,0,111,0,153494,0
153505,38,-2065,289,37,0,-26,14497,-7,2,49,16,35624,-48,34,127,0,0,3854,0,0,4234,166,66,5353,-4,0,111,0,153494,0
153515,42,-2074,298,34,2,-29,14497,-5,-5,18,24,35623,-41,34,127,0,0,3854,10,0,4234,166,66,5363,-4,0,111,0,153494,0
153525,46,-2072,298,28,0,-37,14498,1,-1,38,16,35622,-35,34,127,0,0,3854,0,0,4234,166,66,5373,-4,0,111,0,153526,0
153535,38,-2064,288,22,5,-32,14496,-7,-2,26,16,35604,-36,34,127,0,0,3854,21,0,4234,166,66,5383,-4,0,111,0,153526,0
153545,31,-2052,299,16,-4,-41,14497,-5,-4,62,48,35611,-38,33,127,0,0,3854,-10,0,4234,166,66,5393,-4,0,111,0,153526,0
153555,17,-2043,298,15,1,-44,14497,0,-3,38,16,35619,-15,34,127,0,0,3854,0,0,4234,166,66,5403,-4,0,111,0,153557,0
153565,40,-2036,304,5,-5,-38,14499,5,2,47,8,35626,-18,34,127,0,0,3854,0,0,4234,166,66,5413,-4,0,111,0,153557,0
153575,47,-2031,304,-5,2,-41,14498,0,0,41,16,35619,-18,34,127,0,0,3854,0,0,4234,166,66,5423,-4,0,111,0,153557,0
153585,38,-2031,302,-14,-17,-46,14498,0,-1,66,56,35609,-47,34,127,0,0,3854,0,0,4234,166,66,5433,-4,0,111,0,153573,0
153595,65,-2026,291,-18,-7,-45,14498,-2,2,49,16,35608,-50,34,127,0,0,3856,21,0,4234,166,66,5443,-4,0,111,0,153588,0
153605,62,-2010,291,-21,-6,-44,14500,8,4,88,0,35618,-38,34,127,0,0,3854,-10,0,4234,166,66,5453,-4,0,111,0,153588,0
153615,50,-2010,296,-25,-6,-41,14498,-2,-2,39,16,35617,-38,34,127,0,0,3854,0,0,4234,166,66,5463,-4,0,111,0,153604,0
153625,51,-2003,299,-29,-5,-37,14498,-3,-3,41,16,35609,-24,33,127,0,0,3854,0,0,4234,166,66,5473,-4,0,111,0,153635,0
153635,44,-2006,293,-26,-7,-25,14499,7,4,57,48,35604,-31,34,127,0,0,3856,32,0,4234,166,66,5483,-4,0,111,0,153635,0
153645,72,-1992,282,-35,-4,-25,14501,1,5,90,32,35606,-29,33,127,0,0,3854,10,0,4234,166,66,5493,-4,0,111,0,153635,0
153655,77,-2011,280,-34,-7,-11,14498,-21,-5,37,48,35602,-25,33,127,0,0,3856,43,0,4234,166,66,5503,-4,0,111,0,153635,0
153665,65,-2017,291,-35,-14,-5,14506,18,5,150,48,35599,-35,34,127,0,0,3858,0,0,4234,166,66,5513,-4,0,111,0,153651,0
153675,56,-2013,292,-44,-19,-4,14506,-6,0,196,80,35605,-33,34,127,0,0,3858,0,0,4234,166,66,5523,-4,0,111,0,153682,0
153685,28,-2042,299,-41,-13,1,14508,7,-15,225,112,35611,-28,34,127,0,0,3862,21,0,4234,166,66,5533,-4,0,111,0,153682,0
153695,50,-2026,300,-40,-12,0,14514,14,14,269,80,35609,-30,34,127,0,0,3862,0,0,4234,166,66,5543,-4,0,111,0,153682,0
153705,34,-2044,297,-46,-15,-3,14513,-2,-5,284,112,35598,-31,34,127,0,0,3862,-10,0,4234,166,66,5553,-4,0,111,0,153697,0
153715,31,-2050,290,-50,-12,-6,14514,8,-7,311,96,35603,-48,34,127,0,0,3864,10,0,4234,166,66,5563,-4,0,111,0,153697,0
153725,27,-2056,292,-48,-8,-8,14517,6,10,312,96,35625,-42,34,127,0,0,3867,21,0,4234,166,66,5573,-4,0,111,0,153729,0
153735,9,-2060,289,-49,-15,-18,14519,4,6,341,120,35630,-41,34,127,0,0,3864,0,0,4234,166,66,5583,-4,0,111,0,153729,0
153745,12,-2068,291,-48,-1,-28,14522,10,3,353,104,35625,-39,34,127,0,0,3867,0,0,4234,166,66,5593,-4,0,111,0,153744,0
153755,20,-2078,294,-53,-14,-35,14529,12,6,321,128,35606,-30,34,127,0,0,3869,54,0,4234,166,66,5603,-4,0,111,0,153744,0
153765,34,-2060,306,-54,-7,-44,14544,32,22,228,112,35610,-24,34,127,0,0,3869,32,0,4234,166,66,5613,-4,0,111,0,153744,0
153775,41,-2062,278,-55,-11,-40,14565,38,24,88,16,35626,-19,34,127,0,0,3871,43,0,4234,166,66,5623,-4,0,111,0,153776,0
153785,38,-2035,291,-61,-23,-38,14568,3,-32,92,24,35631,-21,34,127,0,0,3867,-21,0,4234,166,66,5633,-4,0,111,0,153776,0
153795,18,-2030,267,-57,-4,-51,14567,23,-31,110,8,35622,-26,34,127,0,0,3869,-10,0,4234,166,66,5643,-4,0,111,0,153776,0
153805,9,-2011,288,-61,-22,-48,14568,2,8,121,-32,35622,-18,34,127,0,0,3867,-32,0,4234,166,66,5653,-4,0,111,0,153807,0
153815,5,-1988,289,-55,-17,-57,14566,2,-4,71,16,35626,-25,34,127,0,0,3869,-10,0,4234,166,66,5663,-4,0,111,0,153822,0
153825,68,-2021,260,-58,-12,-58,14566,0,6,79,-32,35628,-18,33,127,0,0,3867,0,0,4234,166,66,5673,-4,0,111,0,153822,0
153835,11,-1999,286,-49,-5,-56,14565,3,5,18,-8,35619,-29,34,127,0,0,3867,10,0,4234,166,66,5683,-4,0,111,0,153822,0
153845,78,-2010,288,-49,-8,-58,14567,5,5,66,8,35610,-31,34,127,0,0,3864,-43,0,4234,166,66,5693,-4,0,111,0,153838,0
153855,50,-2029,303,-48,-1,-54,14562,-2,-5,9,-16,35616,-16,34,127,0,0,3864,-10,0,4234,166,66,5703,-4,0,111,0,153838,0
153865,59,-2019,283,-47,-10,-38,14565,-1,-1,-5,32,35620,-12,34,127,0,0,3867,32,0,4234,166,66,5713,-4,0,111,0,153854,0
153875,70,-2043,269,-45,-8,-42,14565,0,7,22,24,35623,-3,33,127,0,0,3869,32,0,4234,166,66,5723,-4,0,111,0,153869,0
153885,59,-2026,264,-42,-12,-42,14568,9,3,107,40,35624,-20,34,127,0,0,3867,10,0,4234,166,66,5733,-4,0,111,0,153869,0
153895,54,-2045,266,-42,-5,-38,14564,-20,-6,63,56,35623,1,34,127,0,0,3864,0,0,4234,166,66,5743,-4,0,111,0,153869,0
153905,-4,-2047,271,-20,-9,-26,14568,2,-1,9,-8,35630,7,34,127,0,0,3867,-21,0,4234,166,66,5753,-4,0,111,0,153901,0
153915,4,-2044,270,-19,-18,-32,14568,32,10,92,0,35618,-5,34,127,0,0,3867,-32,0,4234,166,66,5763,-4,0,111,0,153901,0
153925,48,-2051,278,-20,-1,-40,14566,-9,2,92,40,35618,-2,34,127,0,0,3869,32,0,4234,166,66,5773,-4,0,111,0,153901,0
153935,20,-2044,289,-15,-6,-40,14570,1,1,118,32,35639,-6,34,127,0,0,3869,-21,0,4234,166,66,5783,-4,0,111,0,153947,0
153945,38,-2024,286,-17,-7,-33,14568,8,1,121,40,35632,5,34,127,0,0,3869,21,0,4234,166,66,5793,-4,0,111,0,153947,0
153955,54,-2040,288,-17,-6,-36,14568,-22,0,52,48,35631,-5,34,127,0,0,3867,32,0,4234,166,66,5803,-4,0,111,0,153947,0
153965,20,-2042,285,-14,-10,-43,14568,-8,-3,15,8,35609,-14,34,127,0,0,3869,32,0,4234,166,66,5813,-4,0,111,0,153947,0
153975,29,-2036,278,-3,-12,-42,14571,12,8,121,32,35614,-16,34,127,0,0,3869,0,0,4234,166,66,5823,-4,0,111,0,153979,0
153985,58,-2038,296,-5,-7,-54,14567,-18,-11,62,48,35618,-13,34,127,0,0,3867,32,0,4234,166,66,5833,-4,0,111,0,153979,0
153995,93,-2022,295,-8,5,-52,14569,-16,-11,12,8,35615,3,33,127,0,0,3869,21,0,4234,166,66,5843,-4,0,111,0,153994,0
154005,67,-2021,295,-11,-10,-39,14572,14,11,116,32,35608,-9,34,127,0,0,3869,0,0,4234,166,66,5853,-4,0,111,0,153994,0
154015,54,-2026,293,-12,-7,-38,14569,-3,-7,118,32,35612,-17,34,127,0,0,3869,0,0,4234,166,66,5863,-4,0,111,0,154104,0
154025,35,-2033,289,-12,-12,-38,14570,-8,-3,52,8,35629,-14,34,127,0,0,3869,32,0,4234,166,66,5873,-4,0,111,0,154104,0
154035,13,-2039,300,-13,-9,-32,14571,6,6,82,0,35629,-18,33,127,0,0,3867,0,0,4234,166,66,5883,-4,0,111,0,154104,0
154045,52,-2043,299,-18,2,-42,14570,8,4,90,32,35617,-7,34,127,0,0,3867,0,0,4234,166,66,5893,-4,0,111,0,154119,0
154055,73,-2074,286,-24,-7,-46,14568,-17,-7,49,48,35600,-24,34,127,0,0,3869,32,0,4234,166,66,5903,-4,0,111,0,154119,0
154065,81,-1962,334,-20,2,-38,14568,-9,-4,64,32,35609,-8,34,127,0,0,3869,32,0,4234,166,66,5913,-4,0,111,0,154119,0
154075,38,-2025,317,-25,1,-28,14568,-10,-2,48,8,35606,7,34,127,0,0,3867,10,0,4234,166,66,5923,-4,0,111,0,154119,0
154085,64,-2021,306,-30,2,-30,14568,-9,-6,20,8,35602,-2,34,127,0,0,3867,0,0,4234,166,66,5933,-4,0,111,0,154119,0
154095,45,-2058,285,-26,-7,-26,14571,11,6,46,0,35600,3,34,127,0,0,3871,43,0,4234,166,66,5943,-4,0,111,0,154119,0
154105,68,-2075,289,-23,-13,-10,14571,-4,3,133,32,35606,-17,34,127,0,0,3869,-21,0,4234,166,66,5953,-4,0,111,0,154119,0
154115,40,-2109,284,-33,-6,-10,14569,4,-5,102,40,35608,-4,34,127,0,0,3869,54,0,4234,166,66,5963,-4,0,111,0,154119,0
154125,59,-2038,315,-33,-7,-7,14573,-4,5,120,56,35602,1,34,127,0,0,3871,10,0,4234,166,66,5973,-4,0,111,0,154119,0
154135,56,-2024,285,-30,-4,-3,14574,-5,-2,177,48,35601,-4,34,127,0,0,3871,0,0,4234,166,66,5983,-4,0,111,0,154119,0
154145,36,-2023,277,-33,-9,11,14573,3,-7,206,80,35606,-6,34,127,0,0,3873,32,0,4234,166,66,5993,-4,0,111,0,154119,0
154155,30,-2010,274,-22,-14,23,14580,5,13,234,64,35630,-4,34,127,0,0,3873,10,0,4234,166,66,6003,-4,0,111,0,154197,0
154165,24,-2007,263,-12,-11,10,14580,-1,-2,286,120,35630,5,34,127,0,0,3878,65,0,4234,166,66,6013,-4,0,111,0,154197,0
154175,29,-2010,260,-2,-6,6,14595,38,19,307,80,35628,-10,34,127,0,0,3880,10,0,4234,166,66,6023,-4,0,111,0,154197,0
154185,28,-2029,292,1,0,-2,14617,63,42,242,56,35621,-9,34,127,0,0,3880,10,0,4234,166,66,6033,-4,0,111,0,154197,0
154195,52,-2045,313,0,-6,4,14633,3,0,106,64,35623,14,34,127,0,0,3882,32,0,4234,166,66,6043,-4,0,111,0,154197,0
154205,35,-2011,293,-3,-12,1,14632,12,-51,222,48,35623,31,33,127,0,0,3884,32,0,4234,166,66,6053,-4,0,111,0,154213,0
154215,26,-2047,293,-9,-7,-1,14632,-2,-26,245,88,35605,35,33,127,0,0,3884,10,0,4234,166,66,6063,-4,0,111,0,154213,0
154225,22,-2056,292,10,-2,1,14634,4,0,285,56,35601,22,34,127,0,0,3884,-10,0,4234,166,66,6073,-4,0,111,0,154213,0
154235,39,-2061,298,7,-11,3,14633,-3,-4,254,72,35611,20,34,127,0,0,3889,54,0,4234,166,66,6083,-4,0,111,0,154229,0
154245,37,-2055,312,1,-5,11,14642,28,5,367,104,35617,31,34,127,0,0,3886,-21,0,4234,166,66,6093,-4,0,111,0,154229,0
154255,55,-2056,318,-9,-9,9,14639,-17,-3,292,80,35616,17,34,127,0,0,3891,65,0,4234,166,66,6103,-4,0,111,0,154244,0
154265,43,-2036,308,-8,-7,11,14646,24,-5,392,112,35615,25,34,127,0,0,3893,10,0,4234,166,66,6113,-4,0,111,0,154260,0
154275,23,-2033,294,-12,-15,9,14648,8,10,468,144,35621,26,34,127,0,0,3891,-10,0,4234,166,66,6123,-4,0,111,0,154260,0
154285,14,-1993,270,-2,-7,19,14649,3,-18,439,136,35622,27,33,127,0,0,3893,10,0,4234,166,66,6133,-4,0,111,0,154275,0
154295,14,-1986,254,9,-12,15,14654,26,10,506,168,35626,35,33,127,0,0,3895,-10,0,4234,166,66,6143,-4,0,111,0,154275,0
154305,23,-2051,261,22,-11,9,14664,15,22,438,152,35621,29,34,127,0,0,3897,21,0,4234,166,66,6153,-4,0,111,0,154291,0
154315,31,-2049,270,41,3,0,14686,62,30,357,128,35621,24,34,127,0,0,3897,0,0,4234,166,66,6163,-4,0,111,0,154291,0
154325,70,-2058,298,44,1,28,14711,28,30,231,88,35621,14,34,127,0,0,3900,-10,0,4234,166,66,6173,-4,0,111,0,154338,0
154335,53,-2030,313,46,5,34,14708,-3,-61,365,112,35617,-7,34,127,0,0,3906,54,0,4234,166,66,6183,-4,0,111,0,154338,0
154345,74,-2046,301,39,-10,76,14717,13,-18,417,152,35609,-24,34,127,0,0,3906,21,0,4234,166,66,6193,-4,0,111,0,154338,0
154355,64,-2030,315,40,-7,88,14724,23,16,441,120,35609,-41,34,127,0,0,3911,43,0,4234,166,66,6203,-4,0,111,0,154338,0
154365,27,-2023,295,43,-17,111,14747,70,39,404,144,35605,-40,34,127,0,0,3913,10,0,4234,166,66,6213,-4,0,111,0,154338,0
154375,53,-2020,303,45,-24,130,14784,73,63,301,128,35611,-43,34,127,0,0,3917,43,0,4234,166,66,6223,-4,0,111,0,154432,0
154385,-30,-2013,314,42,-10,112,14811,70,-2,319,160,35615,-39,34,127,0,0,3926,65,0,4234,166,66,6233,-4,0,111,0,154432,0
154395,4,-2015,324,36,-13,116,14848,64,3,280,120,35613,-35,34,127,0,0,3928,43,0,4234,166,66,6243,-4,0,111,0,154447,0
154405,-38,-2028,342,24,-8,82,14857,15,-45,396,152,35609,-43,34,127,0,0,3933,32,0,4234,166,66,6253,-4,0,111,0,154447,0
154415,-36,-2049,338,12,-4,62,14875,49,-32,405,128,35596,-35,34,127,0,0,3937,54,0,4234,166,66,6263,-4,0,111,0,154447,0
154425,-16,-2047,342,-11,-12,39,14901,67,38,351,88,35594,-45,34,127,0,0,3939,-10,0,4234,166,66,6273,-4,0,111,0,154447,0
154435,-26,-2041,329,-27,-16,19,14903,-14,-30,419,152,35592,-38,33,127,0,0,3939,21,0,4234,166,66,6283,-4,0,111,0,154447,0
154445,-23,-2048,308,-28,-3,-6,14905,6,-52,439,120,35595,-47,34,127,0,0,3941,-10,0,4234,166,66,6293,-4,0,111,0,154447,0
154455,-15,-2036,313,-30,0,-20,14906,-5,3,469,160,35598,-43,34,127,0,0,3944,21,0,4234,166,66,6303,-4,0,111,0,154447,0
154465,-4,-2033,317,-30,-11,-34,14909,-1,-1,440,160,35593,-40,33,127,0,0,3941,10,0,4234,166,66,6313,-4,0,111,0,154447,0
154475,22,-2019,316,-32,1,-35,14910,7,6,459,152,35604,-49,34,127,0,0,3944,0,0,4234,166,66,6323,-4,0,111,0,154463,0
154485,8,-2030,303,-32,-12,-35,14912,9,6,468,144,35627,-52,34,127,0,0,3944,0,0,4234,166,66,6333,-4,0,111,0,154494,0
154495,8,-2034,284,-25,-10,-36,14914,1,1,441,152,35637,-42,34,127,0,0,3946,32,0,4234,166,66,6343,-4,0,111,0,154494,0
154505,9,-2020,290,-17,-5,-34,14918,10,0,445,96,35630,-41,34,127,0,0,3944,-21,0,4234,166,66,6353,-4,0,111,0,154494,0
154515,12,-2010,294,-14,-3,-34,14922,17,4,438,128,35602,-42,34,127,0,0,3941,-43,0,4234,166,66,6363,-4,0,111,0,154510,0
154525,30,-2060,307,-17,-10,-32,14927,6,7,335,128,35595,-60,34,127,0,0,3944,32,0,4234,166,66,6373,-4,0,111,0,154510,0
154535,42,-2039,308,-20,-5,-21,14942,47,20,313,112,35618,-62,34,127,0,0,3944,-32,0,4234,166,66,6383,-4,0,111,0,154510,0
154545,10,-2003,330,-18,-8,-13,14960,28,21,195,56,35632,-68,34,127,0,0,3944,-10,0,4234,166,66,6393,-4,0,111,0,154541,0
154555,8,-1996,325,-19,-12,-6,14959,6,-32,260,40,35628,-72,34,127,0,0,3948,-10,0,4234,166,66,6403,-4,0,111,0,154541,0
154565,17,-2040,293,-4,-16,8,14961,5,-17,300,24,35613,-74,34,127,0,0,3948,0,0,4234,166,66,6413,-4,0,111,0,154541,0
154575,28,-2056,283,-2,-11,11,14961,6,4,321,128,35610,-80,34,127,0,0,3950,32,0,4234,166,66,6423,-4,0,111,0,154604,0
154585,47,-2007,316,7,1,33,14967,1,6,302,88,35605,-73,34,127,0,0,3952,54,0,4234,166,66,6433,-4,0,111,0,154604,0
154595,20,-2032,300,14,-6,45,14970,18,5,397,88,35604,-75,34,127,0,0,3955,21,0,4234,166,66,6443,-4,0,111,0,154604,0
154605,32,-2027,296,21,-13,76,14977,11,14,418,168,35602,-82,33,127,0,0,3957,43,0,4234,166,66,6453,-4,0,111,0,154604,0
154615,28,-2050,298,23,-14,78,14994,50,21,425,120,35606,-81,34,127,0,0,3959,21,0,4234,166,66,6463,-4,0,111,0,154604,0
154625,15,-2037,307,33,-9,94,15027,76,53,289,96,35607,-99,34,127,0,0,3963,43,0,4234,166,66,6473,-4,0,111,0,154604,0
154635,26,-2041,312,34,-20,88,15043,10,-11,408,160,35622,-91,34,127,0,0,3968,21,0,4234,166,66,6483,-4,0,111,0,154619,0
154645,-22,-2040,299,36,-10,84,15044,3,-70,502,160,35638,-99,34,127,0,0,3972,32,0,4234,166,66,6493,-4,0,111,0,154650,0
154655,-26,-2035,332,43,-2,69,15056,48,5,587,176,35651,-107,34,127,0,0,3977,21,0,4234,166,66,6503,-4,0,111,0,154650,0
154665,-10,-2020,355,29,-6,81,15094,93,79,390,152,35639,-107,34,127,0,0,3979,54,0,4234,166,66,6513,-4,0,111,0,154650,0
154675,0,-2016,349,9,-22,70,15118,39,14,445,168,35627,-96,33,127,0,0,3983,21,0,4234,166,66,6523,-4,0,111,0,154697,0
154685,-47,-2021,328,4,-17,49,15144,74,-27,352,144,35609,-75,33,127,0,0,3983,10,0,4234,166,66,6533,-4,0,111,0,154697,0
154695,-11,-2022,338,4,-13,39,15169,33,6,222,72,35615,-62,34,127,0,0,3985,10,0,4234,166,66,6543,-4,0,111,0,154697,0
154705,-44,-2021,338,-4,-19,8,15168,1,-60,341,88,35622,-36,34,127,0,0,3990,10,0,4234,166,66,6553,-4,0,111,0,154713,0
154715,-42,-2029,312,-4,-13,0,15170,4,-33,364,80,35613,-25,34,127,0,0,3992,10,0,4234,166,66,6563,-4,0,111,0,154713,0
154725,-50,-2020,331,-13,-4,-26,15174,16,8,420,136,35597,-40,34,127,0,0,3990,-32,0,4234,166,66,6573,-4,0,111,0,154713,0
154735,-39,-2012,358,-17,-6,-43,15177,7,2,377,120,35610,-32,34,127,0,0,3990,0,0,4234,166,66,6583,-4,0,111,0,154713,0
154745,-14,-2030,338,-23,-9,-49,15182,8,4,329,88,35629,-39,34,127,0,0,3988,-10,0,4234,166,66,6593,-4,0,111,0,154807,0
154755,8,-2029,313,-32,-11,-50,15184,10,-5,308,40,35645,-37,34,127,0,0,3990,-10,0,4234,166,66,6603,-4,0,111,0,154807,0
154765,9,-2016,324,-22,-6,-42,15186,4,-3,313,40,35629,-32,34,127,0,0,3990,-10,0,4234,166,66,6613,-4,0,111,0,154807,0
154775,25,-2029,304,-13,-3,-35,15189,5,2,309,80,35614,-34,33,127,0,0,3990,-21,0,4234,166,66,6623,-4,0,111,0,154807,0
154785,50,-2035,301,-6,0,-12,15190,0,-1,271,72,35603,-32,34,127,0,0,3992,21,0,4234,166,66,6633,-4,0,111,0,154822,0
154795,24,-2039,307,8,2,3,15194,9,3,285,56,35607,-42,34,127,0,0,3990,-10,0,4234,166,66,6643,-4,0,111,0,154822,0
154805,19,-2038,288,30,13,29,15199,5,6,252,80,35605,-37,34,127,0,0,3990,-21,0,4234,166,66,6653,-4,0,111,0,154822,0
154815,-2,-2019,296,37,-17,93,15203,0,-6,181,80,35599,-51,34,127,0,0,3994,65,0,4234,166,66,6663,-4,0,111,0,154822,0
154825,1,-2031,317,45,-31,116,15212,29,5,303,136,35602,-45,33,127,0,0,3999,65,0,4234,166,66,6673,-4,0,111,0,154822,0
154835,-17,-2040,299,51,-29,124,15225,16,16,371,184,35609,-42,34,127,0,0,4005,54,0,4234,166,66,6683,-4,0,111,0,154822,0
154845,-50,-2034,315,59,-13,83,15234,18,-8,507,168,35620,-40,34,127,0,0,4012,43,0,4234,166,66,6693,-4,0,111,0,154822,0
154855,-50,-2046,309,67,-5,51,15246,38,-4,603,216,35626,-39,34,127,0,0,4014,32,0,4234,166,66,6703,-4,0,111,0,154853,0
154865,478,-2155,271,27,-49,-172,15278,79,55,423,176,35625,-43,34,127,0,0,4018,43,0,4234,166,66,6713,-4,0,111,0,154853,0
154875,459,-2000,150,-78,-47,-329,15316,72,46,371,80,35623,-40,34,127,0,0,4018,-32,0,4234,166,66,6723,-4,0,0,0,154853,0
154885,-68,-1987,391,-64,-82,-217,15330,23,-39,177,-24,35620,-34,34,127,0,0,4005,-120,0,4234,166,66,6733,-4,0,0,0,154885,0
154895,-152,-2096,452,-45,-95,-50,15301,-85,-120,8,0,35617,-41,34,127,0,0,4007,21,0,4234,166,66,6743,-4,0,0,0,154885,0
154905,4,-2123,232,-36,21,-204,15292,5,-39,153,24,35616,-29,34,127,0,0,4003,-32,0,4234,166,66,6753,-4,0,0,0,154900,0
154915,617,-2065,129,-77,24,-447,15292,-13,70,52,24,35613,-26,34,127,0,0,3999,-87,0,4234,166,66,6763,-4,0,0,0,154900,0
154925,319,-1962,212,-137,-46,-499,15277,-52,-24,-237,-152,35613,-32,34,127,0,0,3981,-197,0,4234,166,66,6773,-4,0,0,0,154916,0
154935,85,-2025,325,-119,-86,-387,15221,-163,-112,-303,-168,35626,-23,34,127,0,0,3970,-98,0,4234,166,66,6783,-4,0,0,0,154916,0
154945,48,-2060,253,-79,-25,-382,15152,-134,-102,-269,-160,35625,-29,34,127,0,0,3961,-65,0,4234,166,66,6793,-4,0,0,0,154932,0
154955,243,-2067,96,-74,39,-516,15114,-67,59,-349,-128,35635,-28,34,127,0,0,3950,-120,0,4234,166,66,6803,-4,0,0,0,154963,0
154965,428,-2031,169,-77,18,-651,15060,-135,18,-364,-240,35626,-40,34,127,0,0,3930,-186,0,4234,166,66,6813,-4,0,0,0,154963,0
154975,346,-1983,291,-102,-37,-581,14986,-172,-82,-420,-280,35630,-57,34,127,0,0,3915,-164,0,4234,166,66,6823,-4,0,0,0,154963,0
154985,92,-2028,319,-96,-68,-457,14905,-184,-49,-372,-256,35616,-74,34,127,0,0,3904,-109,0,4234,166,66,6833,-4,0,0,0,154963,0
154995,117,-2049,226,-71,-15,-500,14825,-171,-3,-258,-136,35613,-79,34,127,0,0,3897,-65,0,4234,166,66,6843,-4,0,0,0,154994,0
155005,239,-2049,247,-77,2,-593,14778,-78,75,-345,-208,35621,-64,34,127,0,0,3884,-142,0,4234,166,66,6853,-4,0,0,0,154994,0
155015,264,-2026,325,-99,-8,-676,14734,-98,72,-489,-288,35622,-53,34,127,0,0,3869,-153,0,4234,166,66,6863,-4,0,0,0,154994,0
155025,183,-2071,409,-182,-40,-701,14667,-165,-52,-469,-280,35616,-48,33,127,0,0,3854,-120,0,4234,166,66,6873,-4,0,0,0,155010,0
155035,106,-2112,385,-208,-40,-726,14586,-162,-71,-440,-320,35615,-22,34,127,0,0,3838,-164,0,4234,166,66,6883,-4,0,0,0,155041,0
155045,156,-2065,334,-224,-10,-796,14513,-162,9,-514,-320,35626,0,34,127,0,0,3821,-131,0,4234,166,66,6893,-4,0,0,0,155041,0
155055,220,-2064,340,-234,-24,-852,14418,-225,-31,-427,-360,35632,18,33,127,0,0,3801,-197,0,4234,166,66,6903,-4,0,0,0,155057,0
155065,218,-2019,348,-268,-46,-869,14328,-188,-34,-512,-416,35623,-11,34,127,0,0,3777,-219,0,4234,166,66,6913,-4,0,0,0,155057,0
155075,204,-2003,322,-314,-61,-870,14224,-238,-16,-518,-440,35611,-28,34,127,0,0,3755,-208,0,4234,166,66,6923,-4,0,0,0,155057,0
155085,155,-2028,284,-316,-71,-874,14116,-240,-34,-492,-480,35631,-55,34,127,0,0,3733,-230,0,4234,166,66,6933,-4,0,0,0,155103,0
155095,177,-2043,257,-312,-52,-921,13998,-256,-28,-446,-440,35627,-54,34,127,0,0,3708,-241,0,4234,166,66,6943,-4,0,0,0,155103,0
155105,177,-2052,288,-296,-55,-952,13882,-260,-16,-498,-488,35624,-42,33,127,0,0,3684,-263,0,4234,166,66,6953,-4,0,0,0,155103,0
155115,189,-2022,301,-296,-69,-971,13762,-254,-1,-515,-496,35603,-22,34,127,0,0,3660,-230,0,4234,166,66,6963,-4,0,0,0,155119,0
155125,215,-2042,289,-295,-76,-955,13629,-299,-30,-456,-504,35600,-8,33,127,0,0,3638,-230,0,4234,166,66,6973,-4,0,0,0,155150,0
155135,176,-2070,256,-276,-108,-913,13495,-298,-32,-412,-496,35612,-6,34,127,0,0,3614,-208,0,4234,166,66,6983,-4,0,0,0,155150,0
155145,230,-2051,182,-217,-82,-890,13368,-268,16,-419,-464,35615,-34,34,127,0,0,3594,-208,0,4234,166,66,6993,-4,0,0,0,155150,0
155155,312,-2022,175,-188,-124,-866,13250,-255,33,-388,-400,35609,-41,34,127,0,0,3581,-142,0,4234,166,66,7003,-4,0,0,0,155150,0
155165,345,-2073,188,-139,-122,-767,13143,-249,42,-390,-344,35606,-55,34,127,0,0,3566,-142,0,4234,166,66,7013,-4,0,0,0,155150,0
155175,489,-2000,275,-74,-245,-730,13043,-199,16,-342,-296,35611,-24,34,127,0,0,3555,-87,0,4234,166,66,7023,-4,0,0,0,155166,0
155185,371,-2024,271,-80,-300,-554,12969,-161,47,-344,-192,35618,-6,34,127,0,0,3544,-98,0,4234,166,66,7033,-4,0,0,0,155181,0
155195,396,-2022,228,-69,-367,-520,12905,-132,69,-267,-104,35632,1,34,127,0,0,3541,-54,0,4234,166,66,7043,-4,0,0,0,155197,0
155205,237,-2120,206,-87,-188,-426,12886,-18,91,-342,-96,35632,1,34,127,0,0,3539,-21,0,4234,166,66,7053,-4,0,0,0,155197,0
155215,178,-2000,206,-73,-133,-433,12883,-7,120,-359,-120,35627,-14,33,127,0,0,3539,0,0,4234,166,66,7063,-4,0,0,0,155197,0
155225,251,-1994,169,-49,-73,-429,12879,-8,29,-349,-80,35612,-13,34,127,0,0,3537,-32,0,4234,166,66,7073,-4,0,0,0,155213,0
155235,239,-1986,170,-36,-74,-414,12867,-26,-12,-308,-80,35628,-28,34,127,0,0,3535,-32,0,4234,166,66,7083,-4,0,0,0,155228,0
155245,227,-2000,208,-18,-65,-422,12859,-2,-6,-281,-56,35635,-19,34,127,0,0,3539,10,0,4234,166,66,7093,-4,0,0,0,155228,0
155255,252,-1990,244,-16,-48,-427,12861,7,26,-245,-32,35629,-25,34,127,0,0,3539,10,0,4234,166,66,7103,-4,0,0,0,155244,0
155265,251,-1980,279,-35,-68,-430,12860,-3,10,-226,-48,35620,-24,33,127,0,0,3537,-21,0,4234,166,66,7113,-4,0,0,0,155260,0
155275,251,-1964,287,-38,-80,-436,12860,-1,-4,-236,-48,35614,-28,33,127,0,0,3537,-21,0,4234,166,66,7123,-4,0,0,0,155260,0
155285,279,-1983,300,-46,-59,-521,12859,-4,-1,-292,-128,35612,-46,34,127,0,0,3533,-54,0,4234,166,66,7133,-4,0,0,0,155260,0
155295,171,-1946,296,-44,-46,-584,12853,-13,-14,-426,-144,35620,-43,33,127,0,0,3524,-98,0,4234,166,66,7143,-4,0,0,0,155291,0
155305,199,-2041,371,-85,-15,-652,12831,-45,-41,-500,-184,35611,-42,34,127,0,0,3513,-131,0,4234,166,66,7153,-4,0,0,0,155291,0
155315,222,-2043,438,-140,-48,-655,12785,-144,-77,-464,-240,35613,-37,33,127,0,0,3502,-109,0,4234,166,66,7163,-4,0,0,0,155306,0
155325,238,-2097,399,-147,-117,-689,12716,-164,-101,-389,-208,35605,-54,33,127,0,0,3493,-65,0,4234,166,66,7173,-4,0,0,0,155306,0
155335,247,-2108,333,-130,-171,-701,12655,-129,-15,-392,-224,35611,-72,34,127,0,0,3482,-65,0,4234,166,66,7183,-4,0,0,0,155338,0
155345,294,-1997,244,-106,-288,-725,12606,-104,40,-381,-168,35616,-72,34,127,0,0,3478,-10,0,4234,166,66,7193,-4,0,0,0,155338,0
155355,252,-1957,153,-89,-286,-784,12570,-64,46,-372,-200,35614,-48,34,127,0,0,3462,-131,0,4234,166,66,7203,-4,0,0,0,155338,0
155365,256,-1985,74,-104,-184,-868,12529,-124,12,-431,-216,35606,-44,34,127,0,0,3451,-131,0,4234,166,66,7213,-4,0,0,0,155385,0
155375,175,-1935,64,-85,-115,-917,12480,-107,-38,-531,-288,35606,-33,34,127,0,0,3434,-186,0,4234,166,66,7223,-4,0,0,0,155385,0
155385,355,-1910,74,-47,-80,-983,12417,-151,-30,-610,-360,35611,-45,34,127,0,0,3416,-175,0,4234,166,66,7233,-4,0,0,0,155385,0
155395,429,-1908,118,-17,-89,-996,12322,-229,-97,-460,-400,35609,-29,34,127,0,0,3392,-241,0,4234,166,66,7243,-4,0,0,0,155385,0
155405,420,-1957,196,-11,-48,-968,12222,-230,-76,-489,-448,35600,-18,34,127,0,0,3368,-252,0,4234,166,66,7253,-4,0,0,0,155400,0
155415,458,-1983,249,-17,15,-982,12105,-268,-43,-457,-456,35607,-21,34,127,0,0,3346,-219,0,4234,166,66,7263,-4,0,0,0,155400,0
155425,513,-1891,271,-17,12,-920,11986,-260,-31,-495,-472,35609,-27,34,127,0,0,3320,-252,0,4234,166,66,7273,-4,0,0,0,155431,0
155435,469,-1873,310,-30,-21,-882,11861,-280,-6,-497,-504,35611,-58,34,127,0,0,3293,-219,0,4234,166,66,7283,-4,0,0,0,155431,0
155445,441,-1969,374,-52,-8,-874,11735,-288,-19,-449,-504,35609,-50,34,127,0,0,3267,-263,0,4234,166,66,7293,-4,0,0,0,155431,0
155455,423,-1991,369,-42,-1,-832,11607,-276,-4,-522,-536,35614,-67,34,127,0,0,3245,-252,0,4234,166,66,7303,-4,0,0,0,155447,0
155465,449,-1929,428,-85,12,-832,11471,-294,-14,-449,-472,35613,-32,34,127,0,0,3218,-219,0,4234,166,66,7313,-4,0,0,0,155447,0
155475,502,-2010,406,-104,-31,-774,11338,-296,-10,-436,-464,35617,-19,34,127,0,0,3194,-230,0,4234,166,66,7323,-4,0,0,0,155463,0
155485,551,-2081,344,-103,-102,-764,11203,-286,2,-444,-456,35614,-9,33,127,0,0,3175,-197,0,4234,166,66,7333,-4,0,0,0,155463,0
155495,577,-2034,311,-122,-85,-842,11081,-257,25,-451,-392,35606,-31,33,127,0,0,3153,-208,0,4234,166,66,7343,-4,0,0,0,155478,0
155505,400,-2053,296,-140,-95,-701,10974,-235,52,-474,-424,35603,-56,34,127,0,0,3131,-208,0,4234,166,66,7353,-4,0,0,0,155494,0
155515,335,-2119,290,-125,-66,-688,10865,-223,19,-504,-384,35596,-53,34,127,0,0,3111,-175,0,4234,166,66,7363,-4,0,0,0,155510,0
155525,536,-2156,288,-145,-2,-720,10761,-223,12,-441,-352,35594,-39,34,127,0,0,3093,-153,0,4234,166,66,7373,-4,0,0,0,155525,0
155535,614,-2104,291,-182,-12,-636,10672,-179,40,-484,-320,35588,-21,34,127,0,0,3080,-131,0,4234,166,66,7383,-4,0,0,0,155525,0
155545,610,-2011,194,-188,-96,-418,10598,-159,65,-469,-232,35592,-5,34,127,0,0,3073,-54,0,4234,166,66,7393,-4,0,0,0,155541,0
155555,627,-2005,120,-165,-79,-365,10535,-139,42,-364,-152,35602,-13,34,127,0,0,3076,0,0,4234,166,66,7403,-4,0,0,0,155541,0
155565,612,-2044,120,-116,23,-368,10518,4,112,-322,-64,35614,-28,34,127,0,0,3076,-21,0,4234,166,66,7413,-4,0,0,0,155572,0
155575,663,-1976,231,-117,61,-342,10524,2,139,-383,-104,35626,-36,34,127,0,0,3076,-32,0,4234,166,66,7423,-4,0,0,0,155572,0
155585,625,-1927,307,-163,9,-256,10522,8,6,-322,-72,35619,-39,33,127,0,0,3076,-10,0,4234,166,66,7433,-4,0,0,0,155588,0
155595,558,-1984,298,-177,-10,-214,10525,-22,2,-426,-96,35612,-32,34,127,0,0,3076,21,0,4234,166,66,7443,-4,0,0,0,155588,0
155605,439,-2051,348,-168,-11,-181,10526,15,1,-315,-56,35599,-44,33,127,0,0,3080,21,0,4234,166,66,7453,-4,0,0,0,155588,0
155615,594,-2060,418,-200,-30,-168,10534,15,16,-157,24,35616,-41,34,127,0,0,3091,87,0,4234,166,66,7463,-4,0,0,0,155603,0
155625,533,-1943,367,-230,-128,-152,10549,27,19,-1,24,35624,-50,34,127,0,0,3098,98,0,4234,166,66,7473,-4,0,0,0,155619,0
155635,449,-1954,303,-239,-145,-185,10563,38,10,241,120,35627,-40,34,127,0,0,3109,98,0,4234,166,66,7483,-4,0,0,0,155619,0
155645,452,-1954,254,-230,-119,-272,10594,96,34,277,120,35624,-26,34,127,0,0,3113,54,0,4234,166,66,7493,-4,0,0,0,155650,0
155655,489,-1916,274,-237,-116,-309,10644,87,74,96,96,35618,-35,34,127,0,0,3120,98,0,4234,166,66,7503,-4,0,0,0,155650,0
155665,499,-1891,291,-293,-113,-356,10685,82,-2,-22,8,35615,-36,34,127,0,0,3120,21,0,4234,166,66,7513,-4,0,0,0,155650,0
155675,487,-1947,279,-334,-103,-382,10682,-24,-106,45,16,35608,-33,34,127,0,0,3117,-32,0,4234,166,66,7523,-4,0,0,0,155666,0
155685,547,-1980,299,-352,-112,-412,10682,14,-69,14,0,35618,-22,34,127,0,0,3120,10,0,4234,166,66,7533,-4,0,0,0,155681,0
155695,554,-1935,324,-377,-142,-414,10679,-24,8,8,16,35618,-19,34,127,0,0,3120,10,0,4234,166,66,7543,-4,0,0,0,155681,0
155705,517,-1934,324,-435,-206,-412,10683,6,-1,-31,-48,35630,-27,34,127,0,0,3117,-21,0,4234,166,66,7553,-4,0,0,0,155713,0
155715,460,-1990,333,-453,-221,-441,10679,0,0,-65,-40,35617,-9,34,127,0,0,3115,-10,0,4234,166,66,7563,-4,0,0,0,155713,0
155725,476,-2033,296,-451,-205,-531,10680,6,-2,-67,-32,35620,2,34,127,0,0,3115,-54,0,4234,166,66,7573,-4,0,0,0,155713,0
155735,449,-2017,264,-442,-213,-605,10675,-17,-4,-191,-64,35613,-5,33,127,0,0,3104,-98,0,4234,166,66,7583,-4,0,0,0,155728,0
155745,462,-2072,202,-478,-249,-631,10663,-22,-23,-357,-136,35611,-5,34,127,0,0,3100,-87,0,4234,166,66,7593,-4,0,0,0,155728,0
155755,399,-2090,211,-499,-269,-654,10651,-40,-10,-468,-184,35613,-20,34,127,0,0,3095,-32,0,4234,166,66,7603,-4,0,0,0,155744,0
155765,336,-2098,163,-517,-251,-772,10629,-59,-26,-390,-160,35622,-33,34,127,0,0,3089,-54,0,4234,166,66,7613,-4,0,0,0,155759,0
155775,323,-2089,122,-526,-207,-867,10596,-53,-38,-368,-152,35615,-42,34,127,0,0,3084,-65,0,4234,166,66,7623,-4,0,0,0,155759,0
155785,346,-2108,170,-588,-178,-963,10579,-42,23,-490,-176,35624,-45,34,127,0,0,3080,-32,0,4234,166,66,7633,-4,0,0,0,155775,0
155795,364,-2126,262,-640,-180,-1042,10540,-95,-19,-350,-120,35619,-36,34,127,0,0,3073,-65,0,4234,166,66,7643,-4,0,0,0,155791,0
155805,327,-2131,306,-706,-212,-1170,10521,-21,-3,-494,-160,35623,-43,34,127,0,0,3069,-43,0,4234,166,66,7653,-4,0,0,0,155791,0
155815,329,-2147,340,-756,-240,-1247,10515,-12,69,-563,-216,35626,-40,34,127,0,0,3062,-65,0,4234,166,66,7663,-4,0,0,0,155822,0
155825,479,-2164,321,-907,-315,-1237,10486,-78,-23,-524,-208,35616,-45,34,127,0,0,3060,21,0,4234,166,66,7673,-4,0,0,0,155822,0
155835,166,-2046,354,-978,-278,-1521,10466,-13,-16,-441,-88,35616,-35,33,127,0,0,3060,-10,0,4234,166,66,7683,-4,0,-2,0,155822,0
155845,287,-2458,548,-1122,-274,-1467,10468,-21,69,-494,-64,35613,-24,34,127,0,0,3060,10,0,4234,166,66,7693,-4,0,-1,0,155822,0
155855,386,-2558,848,-1055,-305,-1616,10470,4,23,-486,-152,35626,-17,34,127,0,0,3062,32,0,4234,166,66,7703,-4,0,-1,0,155916,0
155865,618,-2366,646,-1159,-511,-1926,10470,-1,-1,-403,-56,35634,-26,34,127,0,0,3067,76,0,4234,166,66,7713,-4,0,-1,0,155916,0
155875,576,-2331,531,-1254,-638,-2029,10476,-4,4,-315,-72,35635,-43,34,127,0,0,3069,32,0,4234,166,66,7723,-4,0,-1,0,155916,0
155885,204,-2348,421,-1342,-797,-2054,10480,11,1,-177,-24,35623,-26,33,127,0,0,3082,120,0,4234,166,66,7733,-4,0,0,0,155931,0
155895,136,-2413,470,-1310,-815,-2193,10505,84,41,128,88,35610,-23,34,127,0,0,3093,131,0,4234,166,66,7743,-4,0,0,0,155931,0
155905,216,-2486,410,-1344,-847,-2474,10560,139,114,147,144,35607,-43,34,127,0,0,3109,142,0,4234,166,66,7753,-4,0,0,0,155931,0
155915,106,-2407,392,-1369,-937,-2557,10617,137,58,259,168,35608,-35,34,127,0,0,3126,186,0,4234,166,66,7763,-4,0,0,0,155931,0
155925,142,-2446,191,-1452,-1097,-2662,10697,201,49,300,328,35605,-39,34,127,0,0,3159,351,0,4234,166,66,7773,-4,0,0,0,155931,0
155935,149,-2488,41,-1408,-1159,-2798,10815,272,125,353,440,35607,-6,34,127,0,0,3194,340,0,4234,166,66,7783,-4,0,0,0,155931,0
155945,254,-2571,-53,-1324,-1244,-3034,10952,322,107,408,592,35611,1,34,127,0,0,3238,417,0,4234,166,66,7793,-4,0,1,0,155931,0
155955,251,-2553,102,-1342,-1459,-3104,11114,379,88,452,760,35624,6,34,127,0,0,3293,560,0,4234,166,66,7803,-4,0,1,0,155931,0
155965,78,-2685,431,-1442,-1723,-3174,11306,449,111,558,1056,35631,-24,34,127,0,0,3359,637,0,4234,166,66,7813,-4,0,2,0,155994,0
155975,17,-2881,458,-1494,-1765,-3207,11541,555,145,609,1368,35636,-42,34,127,0,0,3443,834,0,4234,166,66,7823,-4,0,3,0,155994,0
155985,82,-2786,330,-1495,-1803,-3491,11835,692,202,638,1656,35631,-34,34,127,0,0,3528,867,0,4234,166,66,7833,-4,0,4,0,155994,0
155995,154,-2712,318,-1525,-1867,-3690,12180,784,213,572,1904,35616,-26,34,127,0,0,3614,867,0,4234,166,66,7843,-4,0,4,0,155994,0
156005,291,-2587,448,-1480,-2129,-4025,12562,862,156,588,2112,35602,-7,34,127,0,0,3706,889,0,4234,166,66,7853,-4,0,6,0,155994,0
156015,215,-2798,426,-1399,-2266,-4217,12972,905,122,525,2176,35600,-10,34,127,0,0,3790,845,0,4234,166,66,7863,-4,0,6,0,155994,0
156025,494,-2654,289,-1255,-2446,-4392,13392,919,67,520,2288,35616,12,34,127,0,0,3875,856,0,4234,166,66,7873,-4,0,8,0,156009,0
156035,688,-2730,316,-1178,-2598,-4439,13825,956,42,511,2320,35625,-1,34,127,0,0,3961,802,0,4234,166,66,7883,-4,0,9,0,156009,0
156045,835,-2786,323,-1095,-2876,-4346,14266,973,44,489,2368,35637,-3,34,127,0,0,4053,900,0,4234,166,66,7893,-4,0,10,0,156041,0
156055,829,-2701,321,-1080,-3013,-4190,14719,1010,42,501,2392,35628,-8,34,127,0,0,4144,911,0,4234,166,66,7903,-4,0,11,0,156041,0
156065,820,-2390,356,-1055,-3210,-3741,15180,1027,41,564,2576,35614,4,34,127,0,0,4253,1076,0,4234,166,66,7913,-4,0,13,0,156041,0
156075,854,-2215,326,-1082,-3305,-3444,15672,1103,75,665,2744,35604,4,34,127,0,0,4372,1219,0,4234,166,66,7923,-4,0,14,0,156056,0
156085,830,-1882,316,-1105,-3414,-2924,16204,1197,139,758,3024,35600,13,34,127,0,0,4497,1274,0,4234,166,66,7933,-4,0,16,0,156072,0
156095,862,-1553,271,-1042,-3371,-2498,16776,1286,159,773,3144,35594,7,34,127,0,0,4620,1219,0,4234,166,66,7943,-4,0,18,0,156072,0
156105,879,-383,123,-759,-2783,-1486,17366,1316,110,729,3240,35599,27,34,127,0,0,4730,1098,0,4234,166,66,7953,-4,0,20,0,156103,0
156115,1915,-187,-1023,-725,-1360,-1584,17956,1292,30,537,2920,35598,26,34,127,0,0,4770,274,0,4234,166,66,7963,-4,0,21,0,156119,0
156125,849,-508,-985,-441,-12,-1251,18466,1015,-177,31,1368,35604,-9,34,127,0,0,4702,-758,0,4234,166,66,7973,-4,0,23,0,156119,0
156135,585,-642,-760,133,517,-646,18778,486,-589,-1067,-496,35609,-27,34,127,0,0,4590,-1142,0,4234,166,66,7983,-4,0,25,0,156119,0
156145,130,-622,117,471,923,170,18619,-500,-1329,-741,-1368,35617,-37,34,127,0,0,4475,-1153,0,4234,166,66,7993,-4,0,27,0,156150,0
156155,-131,-497,551,457,924,543,18299,-790,-1141,-773,-2120,35629,-15,34,127,0,0,4357,-1120,0,4234,166,66,8003,-4,0,29,0,156150,0
156165,149,-774,243,495,1029,983,17874,-975,-361,-587,-2440,35622,-20,34,127,0,0,4245,-1098,0,4234,166,66,8013,-4,0,31,0,156150,0
156175,461,-800,-216,698,1099,1599,17392,-1083,-331,-453,-2512,35613,-1,34,127,0,0,4155,-856,0,4234,166,66,8023,-4,0,32,0,156166,0
156185,422,-553,-404,1087,1281,2582,16893,-1090,-234,-253,-2288,35612,-1,34,127,0,0,4082,-681,0,4234,166,66,8033,-4,0,35,0,156166,0
156195,337,-396,-369,1302,1453,3067,16422,-1013,22,-221,-2032,35619,-7,34,127,0,0,4014,-648,0,4234,166,66,8043,-4,0,37,63,156181,0
156205,284,-451,-195,1494,1672,3638,15991,-916,126,-215,-1872,35633,-3,34,127,0,0,3939,-758,0,4234,166,66,8053,-4,0,39,56,156228,0
156215,328,-587,-241,1604,1775,4098,15589,-875,135,-355,-1896,35616,-13,34,127,0,0,3860,-812,0,4234,166,66,8063,-4,0,41,51,156228,0
156225,277,-746,-182,1758,1881,4873,15192,-870,68,-435,-1960,35609,-7,33,127,0,0,3785,-714,0,4234,166,66,8073,-4,0,44,45,156244,0
156235,177,-814,-134,1878,1914,5315,14803,-850,19,-416,-1864,35600,-6,34,127,0,0,3719,-637,0,4234,166,66,8083,-4,0,46,40,156259,0
156245,124,-932,-132,2021,1909,5875,14432,-798,46,-411,-1792,35592,-9,33,127,0,0,3660,-626,0,4234,166,66,8093,-4,0,49,34,156275,0
156255,152,-1067,-185,2110,1914,6233,14081,-762,72,-413,-1696,35593,2,34,127,0,0,3607,-516,0,4234,166,66,8103,-4,0,51,30,156275,0
156265,153,-1308,-207,2263,1891,6799,13785,-720,67,-382,-1504,35592,-17,34,127,0,0,3568,-351,0,4234,166,66,8113,-4,0,54,24,156275,0
156275,90,-1446,-191,2361,1865,7156,13481,-645,90,-275,-1200,35596,-15,34,127,0,0,3539,-263,0,4234,166,66,8123,-4,0,56,21,156275,0
156285,147,-1678,-225,2495,1834,7571,13222,-536,144,-236,-800,35598,-36,34,127,0,0,3535,-54,0,4234,166,66,8133,-4,0,59,16,156275,0
156295,223,-1844,-248,2583,1871,7721,13021,-402,198,-209,-392,35606,-30,34,127,0,0,3537,32,0,4234,166,66,8143,-4,0,61,13,156275,0
156305,312,-2153,-176,2684,1875,7950,12882,-255,229,-98,-80,35607,-34,34,127,0,0,3539,32,0,4234,166,66,8153,-4,0,65,9,156306,0
156315,388,-2376,-6,2695,1770,8208,12845,12,333,131,96,35612,-38,34,127,0,0,3557,175,0,4234,166,66,8163,-4,0,67,6,156322,0
156325,463,-2648,220,2669,1618,8505,12905,155,391,287,264,35613,-29,34,127,0,0,3594,384,0,4234,166,66,8173,-4,0,70,3,156322,0
156335,453,-2805,232,2675,1515,8517,13006,248,238,502,592,35606,-36,33,127,0,0,3643,505,0,4234,166,66,8183,-4,0,73,1,156322,0
156345,555,-2980,50,2782,1481,8350,13164,376,187,453,760,35606,-32,34,127,0,0,3684,395,0,4234,166,66,8193,-4,0,76,0,156358,0
156355,575,-3031,-36,2858,1566,8227,13341,394,140,386,696,35619,-18,34,127,0,0,3711,241,0,4234,166,66,8203,-4,0,79,-2,156358,0
156365,413,-2947,-3,2942,1753,8155,13519,387,27,332,624,35620,-18,34,127,0,0,3728,175,0,4234,166,66,8213,-4,0,82,-3,156358,0
156375,295,-2887,38,2992,1896,8058,13684,350,-29,271,408,35612,-30,34,127,0,0,3741,131,0,4234,166,66,8223,-4,0,84,-4,156358,0
156385,193,-2918,158,3022,2054,7888,13815,267,-94,247,280,35602,-39,34,127,0,0,3752,98,0,4234,166,66,8233,-4,0,88,-5,156373,0
156395,172,-2950,308,3009,2096,7821,13919,198,-114,210,176,35606,-33,34,127,0,0,3766,164,0,4234,166,66,8243,-4,0,90,-5,156389,0
156405,138,-3003,513,2916,2139,7658,13989,138,-118,334,272,35608,-10,34,127,0,0,3790,263,0,4234,166,66,8253,-4,0,93,-6,156389,0
156415,138,-3042,547,2845,2155,7513,14071,201,-36,456,376,35608,-11,34,127,0,0,3818,296,0,4234,166,66,8263,-4,0,95,-6,156404,0
156425,114,-3082,531,2753,2147,7162,14178,249,86,459,536,35605,-20,33,127,0,0,3845,263,0,4234,166,66,8273,-4,0,98,-6,156404,0
156435,188,-3055,461,2723,2216,6722,14315,312,105,402,528,35613,-50,34,127,0,0,3864,142,0,4234,166,66,8283,-4,0,100,-6,156436,0
156445,193,-2834,348,2640,2239,6124,14457,303,57,211,232,35618,-56,34,127,0,0,3864,-10,0,4234,166,66,8293,-4,0,103,-6,156436,0
156455,222,-2643,406,2549,2212,5661,14542,128,-116,62,40,35612,-42,34,127,0,0,3860,-65,0,4234,166,66,8303,-4,0,105,-6,156436,0
156465,107,-2545,466,2260,1956,4895,14551,-39,-272,-225,-56,35608,-21,34,127,0,0,3856,-21,0,4234,166,66,8313,-4,0,107,-6,156467,0
156475,265,-2601,396,2023,1781,4279,14517,-76,-224,-78,-56,35612,-17,34,127,0,0,3849,-65,0,4234,166,66,8323,-4,0,109,-6,156467,0
156485,413,-2464,287,1615,1522,3325,14494,-19,-39,-10,0,35612,-26,34,127,0,0,3851,0,0,4234,166,66,8333,-4,0,111,-6,156483,0
156495,486,-2296,227,1320,1331,2579,14502,4,82,-65,-16,35614,-26,33,127,0,0,3851,0,0,4234,166,66,8343,-4,0,111,-6,156483,0
156505,578,-2166,73,872,1033,1331,14500,-8,30,-97,-48,35597,-20,33,127,0,0,3849,-10,0,4234,166,66,8353,-4,0,111,-6,156498,0
156515,606,-2138,3,581,864,534,14495,-6,-20,-228,-88,35603,-37,34,127,0,0,3843,-54,0,4234,166,66,8363,-4,0,111,-6,156514,0
156525,706,-2116,-61,149,754,-529,14482,-44,-21,-309,-72,35603,-27,33,127,0,0,3840,-10,0,4234,166,66,8373,-4,0,111,-6,156514,0
156535,734,-2111,-53,-109,761,-1133,14459,-56,-40,-172,-48,35616,-17,34,127,0,0,3838,-54,0,4234,166,66,8383,-4,0,111,-6,156514,0
156545,842,-2043,-28,-451,838,-1968,14436,-36,-12,-137,-32,35611,-15,34,127,0,0,3836,21,0,4234,166,66,8393,-4,0,111,-6,156545,0
156555,850,-1963,-39,-645,884,-2384,14435,-16,50,-358,-128,35619,-26,34,127,0,0,3825,-87,0,4234,166,66,8403,-4,0,111,-6,156545,0
156565,858,-1885,15,-859,950,-2872,14414,-56,-8,-523,-216,35617,-49,34,127,0,0,3814,-98,0,4234,166,66,8413,-4,0,111,-6,156545,0
156575,951,-1855,93,-945,931,-3108,14369,-121,-90,-469,-176,35614,-40,34,127,0,0,3807,-54,0,4234,166,66,8423,-4,0,111,-6,156561,0
156585,69,-4644,-88,-1059,570,-3212,14318,-122,-58,-340,-96,35605,-40,34,127,0,0,3812,65,0,1308,173,67,9,1,0,111,-6,156670,0
156595,-242,-5391,1956,-722,481,-2131,14301,69,67,632,776,35620,-49,34,127,0,0,3928,1285,0,1308,173,67,19,1,0,111,-6,156670,0
156605,-924,-1778,2291,168,-836,-2367,14499,577,531,978,1704,35612,-55,34,127,0,0,4045,1098,0,1308,173,67,29,1,0,111,-6,156686,0
156615,-747,-1538,1211,-511,-1281,-2016,14842,826,697,848,2272,35604,-36,34,127,0,0,4170,1285,0,1308,173,67,39,1,0,111,-6,156686,0
156625,-637,-694,-796,-1802,-1271,-1465,15288,1059,451,982,2952,35591,-1,34,127,0,0,4330,1614,0,1308,173,67,49,1,0,111,-6,156686,0
156635,-1096,-1828,-1623,-1888,-962,-1703,15874,1395,475,993,3672,35582,29,34,127,0,0,4513,1801,0,1308,173,67,59,1,0,111,-6,156686,0
156645,-1301,-2434,-1959,-1008,38,-2504,16586,1625,514,819,3904,35574,44,34,127,0,0,4656,1362,0,1308,173,67,69,1,0,111,-6,156686,0
156655,-894,-2223,-1267,-561,859,-2946,17319,1601,258,507,3712,35569,56,34,127,0,0,4759,988,0,1308,173,67,79,1,0,111,-6,156686,0
156665,102,-2511,340,-278,874,-3245,18002,1445,-84,343,3240,35580,40,33,127,0,0,4840,780,0,1308,173,67,89,1,0,111,-6,156686,0
156675,675,-2517,778,-449,721,-3381,18603,1263,-273,268,2672,35586,5,33,127,0,0,4888,472,0,1308,173,67,99,1,0,111,-6,156686,0
156685,1282,-2565,492,-692,39,-3467,19108,1040,-341,167,1920,35592,-25,34,127,0,0,4906,131,0,1308,173,67,109,1,0,111,-6,156686,0
156695,1315,-2325,-30,-757,-517,-3174,19492,758,-418,132,1104,35591,-28,34,127,0,0,4904,0,0,1308,173,67,119,1,0,111,-6,156686,0
156705,667,-2204,-507,-600,-923,-3109,19748,487,-476,151,368,35599,-25,34,127,0,0,4873,-373,0,1308,173,67,129,1,0,111,-6,156686,0
156715,112,-2040,-419,-463,-835,-2855,19845,34,-556,-539,-336,35603,-50,34,127,0,0,4827,-428,0,1308,173,67,139,1,0,111,-6,156701,0
156725,-210,-2072,152,-53,-213,-2833,19719,-338,-758,-380,-552,35620,-48,34,127,0,0,4785,-450,0,1308,173,67,149,1,0,111,-6,156733,0
156735,440,-2261,427,104,355,-3313,19543,-407,-471,-360,-888,35627,-72,34,127,0,0,4706,-867,0,1308,173,67,159,1,0,111,-6,156733,0
156745,640,-1702,871,187,-29,-2755,19314,-554,-178,-599,-1480,35639,-51,34,127,0,0,4620,-802,0,1308,173,67,169,1,0,111,-6,156733,0
156755,784,-1824,432,-70,-244,-2317,19011,-698,-255,-461,-1576,35632,-34,34,127,0,0,4552,-692,0,1308,173,67,179,1,0,111,-6,156733,0
156765,-126,-1938,598,-217,-270,-1991,18682,-725,-174,-391,-1656,35629,-26,34,127,0,0,4491,-637,0,1308,173,67,189,1,0,111,-6,156764,0
156775,-288,-2101,468,-285,-72,-2092,18349,-727,-40,-362,-1608,35615,-17,34,127,0,0,4423,-692,0,1308,173,67,199,1,0,111,-6,156764,0
156785,-81,-2041,157,-182,91,-2136,18014,-743,-11,-418,-1632,35609,-43,34,127,0,0,4359,-637,0,1308,173,67,209,1,0,111,-6,156764,0
156795,1,-2012,170,-84,9,-1996,17673,-762,-20,-395,-1656,35614,-12,34,127,0,0,4297,-615,0,1308,173,67,219,1,0,111,-6,156779,0
156805,-77,-2044,254,-35,-90,-1823,17333,-744,-20,-330,-1584,35606,-18,34,127,0,0,4240,-560,0,1308,173,67,229,1,0,111,-6,156795,0
156815,-125,-2063,227,-40,-70,-1815,17002,-712,17,-311,-1512,35611,-30,34,127,0,0,4183,-549,0,1308,173,67,239,1,0,111,-6,156795,0
156825,-40,-1984,104,7,26,-1904,16682,-696,53,-323,-1368,35609,-28,34,127,0,0,4126,-593,0,1308,173,67,249,1,0,111,-6,156826,0
156835,-4,-2004,94,51,15,-1860,16377,-678,48,-364,-1400,35611,-38,33,127,0,0,4071,-527,0,1308,173,67,259,1,0,111,-6,156842,0
156845,82,-1986,333,104,-40,-1749,16074,-655,16,-351,-1352,35601,-12,33,127,0,0,4016,-538,0,1308,173,67,269,1,0,111,-6,156842,0
156855,89,-1990,524,71,-58,-1683,15782,-641,27,-335,-1264,35604,-17,34,127,0,0,3968,-472,0,1308,173,67,279,1,0,111,-6,156842,0
156865,128,-2052,586,-16,-37,-1673,15508,-587,55,-367,-1216,35604,-7,34,127,0,0,3917,-494,0,1308,173,67,289,1,0,111,-6,156842,0
156875,179,-2063,519,-56,-45,-1660,15249,-561,65,-427,-1216,35609,1,34,127,0,0,3869,-461,0,1308,173,67,299,1,0,111,-6,156873,0
156885,170,-2057,474,-80,-53,-1624,14993,-556,31,-448,-1184,35618,-22,34,127,0,0,3823,-461,0,1308,173,67,309,1,0,111,-6,156873,0
156895,180,-2043,419,-84,-59,-1606,14742,-557,14,-462,-1152,35617,-28,34,127,0,0,3774,-428,0,1308,173,67,319,1,0,111,-6,156889,0
156905,243,-2027,301,-107,-50,-1595,14497,-528,16,-485,-1184,35620,-46,34,127,0,0,3730,-450,0,1308,173,67,329,1,0,111,-6,156889,0
156915,244,-1974,256,-123,-55,-1589,14255,-525,20,-484,-1184,35627,-29,34,127,0,0,3684,-450,0,1308,173,67,339,1,0,111,-6,156920,0
156925,264,-1932,190,-132,-42,-1513,14015,-530,6,-482,-1216,35639,-32,34,127,0,0,3640,-439,0,1308,173,67,349,1,0,111,-6,156920,0
156935,328,-1918,202,-108,-51,-1428,13776,-523,3,-456,-1152,35639,-43,34,127,0,0,3603,-362,0,1308,173,67,359,1,0,111,-6,156920,0
156945,441,-1937,251,-83,-36,-1366,13547,-506,19,-439,-1072,35622,-40,34,127,0,0,3566,-362,0,1308,173,67,369,1,0,111,-6,156920,0
156955,452,-1985,317,-81,-20,-1338,13323,-486,27,-435,-1000,35615,-38,34,127,0,0,3528,-373,0,1308,173,67,379,1,0,111,-6,157014,0
156965,463,-2012,408,-97,-49,-1241,13109,-467,35,-443,-960,35622,-26,34,127,0,0,3489,-362,0,1308,173,67,389,1,0,111,-6,157014,0
156975,463,-2042,432,-124,-76,-1181,12902,-445,28,-444,-880,35621,-26,34,127,0,0,3456,-318,0,1308,173,67,399,1,0,111,-6,157014,0
156985,406,-2030,362,-156,-97,-1176,12702,-427,27,-407,-872,35623,-7,34,127,0,0,3423,-362,0,1308,173,67,409,1,0,111,-6,157029,0
156995,368,-1998,282,-145,-79,-1197,12518,-401,41,-443,-808,35609,-1,34,127,0,0,3385,-373,0,1308,173,67,419,1,0,111,-6,157029,0
157005,349,-1960,227,-140,-80,-1181,12341,-404,35,-522,-784,35612,-4,34,127,0,0,3355,-351,0,1308,173,67,429,1,0,111,-6,157029,0
157015,289,-1975,218,-139,-87,-1173,12161,-402,-1,-476,-808,35607,-14,34,127,0,0,3322,-340,0,1308,173,67,439,1,0,111,-6,157029,0
157025,372,-1959,207,-120,-69,-1186,11980,-397,-8,-485,-824,35609,-4,34,127,0,0,3284,-384,0,1308,173,67,449,1,0,111,-6,157029,0
157035,459,-1961,177,-111,-63,-1190,11803,-389,0,-517,-800,35609,-19,33,127,0,0,3254,-362,0,1308,173,67,459,1,0,111,-6,157029,0
157045,447,-1998,217,-83,-66,-1196,11627,-377,8,-522,-832,35611,-7,34,127,0,0,3218,-340,0,1308,173,67,469,1,0,111,-6,157029,0
157055,491,-2007,313,-68,-54,-1213,11445,-396,-5,-496,-872,35626,-11,34,127,0,0,3183,-373,0,1308,173,67,479,1,0,111,-6,157029,0
157065,470,-2029,386,-89,-66,-1205,11256,-424,-21,-451,-776,35645,0,34,127,0,0,3150,-318,0,1308,173,67,489,1,0,111,-6,157061,0
157075,485,-2025,370,-120,-82,-1179,11075,-391,-1,-487,-776,35652,-24,34,127,0,0,3111,-340,0,1308,173,67,499,1,0,111,-6,157061,0
157085,522,-1955,279,-135,-99,-1175,10903,-374,34,-465,-744,35641,-42,34,127,0,0,3082,-307,0,1308,173,67,509,1,0,111,-6,157076,0
157095,473,-1946,237,-137,-119,-1155,10739,-358,32,-512,-736,35628,-44,34,127,0,0,3045,-362,0,1308,173,67,519,1,0,111,-6,157076,0
157105,377,-1984,254,-141,-112,-1153,10581,-344,34,-570,-776,35620,-46,34,127,0,0,3010,-384,0,1308,173,67,529,1,0,111,-6,157092,0
157115,439,-1990,295,-127,-114,-1161,10421,-335,9,-546,-744,35624,-38,34,127,0,0,2983,-318,0,1308,173,67,539,1,0,111,-6,157139,0
157125,477,-1994,295,-138,-140,-1201,10263,-341,0,-569,-680,35615,-42,34,127,0,0,2953,-274,0,1308,173,67,549,1,0,111,-6,157139,0
157135,501,-1952,319,-154,-183,-1260,10111,-329,17,-551,-720,35613,-37,34,127,0,0,2922,-318,0,1308,173,67,559,1,0,111,-6,157139,0
157145,421,-1984,313,-151,-219,-1362,9955,-347,5,-557,-680,35601,-34,34,127,0,0,2889,-351,0,1308,173,67,569,1,0,111,-6,157139,0
157155,300,-1989,398,-183,-231,-1435,9796,-350,-14,-534,-680,35596,-32,34,127,0,0,2858,-318,0,1308,173,67,579,1,0,111,-6,157139,0
157165,200,-1938,571,-244,-283,-1496,9640,-338,35,-558,-656,35605,-6,34,127,0,0,2827,-307,0,1308,173,67,589,1,0,111,-6,157154,0
157175,264,-2092,523,-330,-378,-1575,9484,-331,-18,-553,-688,35628,-26,34,127,0,0,2794,-285,0,1308,173,67,599,1,0,111,-6,157170,0
157185,320,-1984,595,-401,-522,-1960,9329,-348,-24,-537,-704,35633,-48,34,127,0,0,2764,-318,0,1308,173,67,609,1,0,111,-6,157170,0
157195,343,-1937,719,-397,-893,-2064,9174,-348,5,-544,-720,35633,-50,34,127,0,0,2722,-373,0,1308,173,67,619,1,0,111,-6,157170,0
157205,-151,-2596,782,-465,-1189,-2100,9016,-338,-5,-540,-736,35626,-14,34,127,0,0,2691,-362,0,1308,173,67,629,1,0,111,-6,157201,0
157215,-442,-2659,869,-660,-1081,-2283,8858,-339,-3,-540,-640,35618,17,34,127,0,0,2665,-252,0,1308,173,67,639,1,0,111,-6,157201,0
157225,-404,-2339,479,-899,-688,-3060,8712,-308,22,-571,-592,35610,-1,34,127,0,0,2634,-307,0,1308,173,67,649,1,0,111,-6,157279,0
157235,-251,-2243,149,-975,-687,-3382,8573,-323,42,-590,-664,35620,-39,34,127,0,0,2597,-362,0,1308,173,67,659,1,0,111,-6,157279,0
157245,-158,-2314,93,-1011,-894,-3618,8419,-344,-20,-564,-688,35610,-52,34,127,0,0,2564,-307,0,1308,173,67,669,1,0,111,-6,157279,0
157255,-177,-2511,395,-1088,-958,-3869,8261,-335,-28,-554,-664,35612,-29,34,127,0,0,2533,-307,0,1308,173,67,679,1,0,111,-6,157279,0
157265,-543,-2680,734,-1199,-1069,-3980,8120,-348,-2,-527,-624,35597,0,34,127,0,0,2507,-263,0,1308,173,67,689,1,0,111,-6,157279,0
157275,307,-3262,752,-1410,-1166,-4266,7971,-312,12,-466,-464,35593,-21,34,127,0,0,2498,-43,0,1308,173,67,699,1,0,111,-6,157295,0
157285,131,-3166,970,-1497,-1339,-4918,7864,-203,106,-430,-288,35595,-48,34,127,0,0,2496,-21,0,1308,173,67,709,1,0,111,-6,157295,0
157295,-511,-3047,1063,-1718,-1673,-4725,7794,-132,155,-254,-56,35602,-54,34,127,0,0,2509,153,0,1308,173,67,719,1,0,111,-6,157295,0
157305,-533,-3816,1281,-1702,-2227,-4765,7797,99,216,224,224,35615,-33,34,127,0,0,2548,406,0,1308,173,67,729,1,0,111,-6,157295,0
157315,-165,-4104,1097,-1605,-2283,-5330,7893,259,345,407,496,35629,-23,34,127,0,0,2603,571,0,1308,173,67,739,1,0,111,-6,157295,0
157325,169,-4046,590,-1530,-2390,-6027,8051,392,282,427,728,35634,-54,34,127,0,0,2665,615,0,1308,173,67,749,1,0,111,-6,157373,0
157335,-70,-3852,496,-1475,-3001,-5823,8236,426,163,515,1056,35631,-48,34,127,0,0,2755,966,0,1308,173,67,759,1,0,111,-6,157373,0
157345,-583,-4068,1007,-1094,-4075,-5396,8483,617,174,857,1896,35614,-24,34,127,0,0,2904,1494,0,1308,173,67,769,1,0,111,-6,157389,0
157355,-880,-3661,1036,-767,-4417,-5505,8869,952,417,998,2848,35596,-11,33,127,0,0,3109,2065,0,1308,173,67,779,1,0,111,-6,157389,0
157365,-355,-3541,890,-1004,-4583,-6327,9440,1394,639,1144,3888,35580,28,33,127,0,0,3317,2054,0,1308,173,67,789,1,0,111,-6,157389,0
157375,68,-3735,753,-961,-4807,-6807,10187,1733,694,828,4432,35567,39,34,127,0,0,3504,1845,0,1308,173,67,799,1,0,22,0,157389,0
157385,811,-3743,628,-773,-5046,-6655,11029,1886,493,523,4496,35564,63,34,127,0,0,3680,1724,0,1308,173,67,809,1,0,59,0,157389,0
157395,887,-3774,717,-822,-5285,-6396,11895,1933,204,605,4624,35565,60,34,127,0,0,3843,1593,0,1308,173,67,819,1,0,64,0,157389,0
157405,111,-3309,1056,-920,-5761,-5508,12763,1899,46,568,4688,35571,46,34,127,0,0,4020,1779,0,1308,173,67,829,1,0,73,0,157404,0
157415,38,-2703,998,-1042,-6046,-4785,13619,1903,-23,747,4992,35574,34,34,127,0,0,4234,2153,0,1308,173,67,839,1,0,79,0,157404,0
157425,119,-1785,517,-1042,-6251,-3348,14534,2075,116,945,5584,35580,44,34,127,0,0,4469,2427,0,1308,173,67,849,1,0,90,0,157404,0
157435,258,-1176,667,-756,-5827,-2086,15573,2393,374,1125,6224,35586,91,34,127,0,0,4730,2603,0,1308,173,67,859,1,0,97,0,157435,0
157445,1344,-616,-732,-522,-3483,-2709,16749,2638,514,733,6056,35581,116,34,127,0,0,4877,1252,0,1308,173,67,869,1,0,107,0,157435,0
157455,797,-360,-1116,-418,-1865,-2628,17859,2309,86,-62,3992,35579,101,34,127,0,0,4853,-318,0,1308,173,67,879,1,0,114,0,157451,0
157465,348,-581,-1011,451,141,-2224,18714,1640,-708,-888,1192,35578,40,34,127,0,0,4728,-1351,0,1308,173,67,889,0,0,124,0,157451,0
157475,37,-477,-561,906,617,-1312,19047,176,-1582,-2554,-960,35597,-32,34,127,0,0,4596,-1307,0,1308,173,67,899,0,0,130,80,157467,0
157485,-503,-179,155,1191,1009,-540,18810,-636,-2164,-783,-1768,35600,-74,34,127,0,0,4475,-1219,0,1308,173,67,909,0,0,139,75,157467,0
157495,-180,-169,298,1188,1137,60,18443,-872,-1183,-567,-2072,35602,-59,34,127,0,0,4390,-812,0,1308,173,67,919,0,0,145,71,157498,0
157505,180,-399,-28,1227,1212,988,18030,-913,-302,-284,-1872,35601,-23,34,127,0,0,4341,-483,0,1308,173,67,929,0,0,154,65,157498,0
157515,328,-473,-188,1340,1250,1644,17641,-821,-11,-136,-1408,35608,-3,34,127,0,0,4317,-230,0,1308,173,67,939,0,0,160,61,157498,0
157525,430,-392,-224,1582,1389,2471,17306,-695,166,-80,-912,35603,-20,34,127,0,0,4300,-164,0,1308,173,67,949,0,0,169,55,157498,0
157535,490,-352,-200,1660,1523,2946,17039,-553,237,-110,-664,35611,-39,34,127,0,0,4271,-329,0,1308,173,67,959,0,0,175,52,157529,0
157545,570,-425,-130,1694,1704,3708,16826,-446,218,-228,-704,35615,-51,34,127,0,0,4223,-472,0,1308,173,67,969,0,0,183,47,157529,0
157555,558,-505,-161,1737,1788,4277,16621,-440,110,-350,-904,35617,-43,34,127,0,0,4161,-626,0,1308,173,67,979,0,0,188,43,157560,0
157565,466,-526,-180,1826,1731,5153,16401,-515,-15,-462,-1112,35611,-50,34,127,0,0,4091,-714,0,1308,173,67,989,0,0,197,39,157560,0
157575,392,-531,-181,1889,1607,5708,16140,-595,-124,-449,-1320,35606,-58,33,127,0,0,4023,-681,0,1308,173,67,999,0,0,202,35,157560,0
157585,338,-567,-89,1977,1375,6497,15851,-645,-133,-430,-1424,35610,-43,34,127,0,0,3963,-593,0,1308,173,67,1009,0,0,210,31,157560,0
157595,331,-606,-72,2037,1211,7010,15551,-661,-69,-383,-1352,35609,-28,34,127,0,0,3911,-549,0,1308,173,67,1019,0,0,215,28,157607,0
157605,365,-667,-131,2155,1082,7762,15259,-626,3,-379,-1320,35616,9,34,127,0,0,3867,-472,0,1308,173,67,1029,0,0,223,24,157607,0
157615,373,-674,-171,2267,1066,8196,14983,-585,53,-354,-1208,35609,-14,34,127,0,0,3825,-450,0,1308,173,67,1039,0,0,228,21,157607,0
157625,308,-755,-199,2487,1065,8780,14728,-542,76,-385,-1152,35600,-24,34,127,0,0,3779,-450,0,1308,173,67,1049,0,0,236,18,157607,0
157635,305,-869,-143,2652,1082,9169,14488,-515,64,-446,-1224,35597,-19,34,127,0,0,3733,-483,0,1308,173,67,1059,0,0,241,15,157623,0
157645,220,-1060,14,2867,1049,9754,14250,-525,27,-457,-1168,35610,-23,34,127,0,0,3695,-384,0,1308,173,67,1069,0,0,249,12,157639,0
157655,150,-1275,81,2981,963,10079,14019,-507,13,-370,-952,35615,-28,34,127,0,0,3671,-230,0,1308,173,67,1079,0,0,254,10,157654,0
157665,143,-1656,39,3209,900,10294,13813,-426,65,-298,-600,35617,-46,34,127,0,0,3671,0,0,1308,173,67,1089,0,0,262,7,157654,0
157675,-179,-1936,-87,3404,910,10397,13655,-321,149,-210,-216,35617,-48,33,127,0,0,3682,142,0,1308,173,67,1099,0,0,267,5,157654,0
157685,67,-2410,-102,3627,1208,10566,13588,-21,281,422,248,35626,-23,34,127,0,0,3717,318,0,1308,173,67,1109,0,0,275,3,157748,0
157695,249,-2638,-5,3803,1455,10754,13685,266,518,436,568,35632,-43,34,127,0,0,3770,571,0,1308,173,67,1119,0,0,280,1,157748,0
157705,407,-2833,129,3989,1981,10597,13843,391,394,519,936,35629,-51,34,127,0,0,3827,549,0,1308,173,67,1129,0,0,288,0,157748,0
157715,333,-3000,157,4147,2336,10358,14049,462,197,407,952,35621,-51,34,127,0,0,3862,384,0,1308,173,67,1139,0,0,293,-1,157764,0
157725,333,-3217,228,4332,2867,10129,14258,452,84,286,696,35613,-32,33,127,0,0,3875,131,0,1308,173,67,1149,0,0,301,-2,157764,0
157735,250,-3295,287,4393,3212,10046,14447,398,-38,244,464,35608,-25,34,127,0,0,3884,65,0,1308,173,67,1159,0,0,305,-3,157764,0
157745,138,-3423,415,4391,3714,9877,14597,294,-123,175,240,35603,-47,34,127,0,0,3893,65,0,1308,173,67,1169,0,0,313,-3,157764,0
157755,77,-3503,508,4358,4021,9663,14694,168,-181,128,48,35605,-32,34,127,0,0,3900,76,0,1308,173,67,1179,0,0,317,-4,157764,0
157765,112,-3557,577,4271,4454,9141,14723,14,-237,212,80,35610,-27,34,127,0,0,3902,43,0,1308,173,67,1189,0,0,324,-4,157764,0
157775,202,-3526,549,4123,4676,8726,14721,-7,-185,312,120,35614,-4,34,127,0,0,3906,65,0,1308,173,67,1199,0,0,328,-4,157764,0
157785,558,-3632,554,3753,4774,8097,14732,34,-15,366,160,35618,-13,33,127,0,0,3913,87,0,1308,173,67,1209,0,0,334,-5,157764,0
157795,797,-3604,670,3469,4593,7511,14770,104,86,357,176,35638,-37,34,127,0,0,3926,164,0,1308,173,67,1219,0,0,338,-5,157795,0
157805,1144,-3342,816,2949,3890,6187,14837,182,112,402,288,35648,-37,34,127,0,0,3944,153,0,1308,173,67,1229,0,0,342,-4,157795,0
157815,1412,-3070,846,2619,3101,4959,14926,197,99,321,200,35645,-40,34,127,0,0,3957,109,0,1308,173,67,1239,0,0,345,-4,157795,0
157825,1745,-2605,618,1961,1650,2633,15018,199,41,200,152,35627,-40,34,127,0,0,3961,32,0,1308,173,67,1249,0,0,347,-4,157826,0
157835,1895,-2447,486,1269,775,1085,15071,59,-78,-34,24,35629,-70,34,127,0,0,3961,32,0,1308,173,67,1259,0,0,348,-4,157826,0
157845,1706,-2723,472,163,-48,-1133,15064,-33,-205,33,0,35629,-85,34,127,0,0,3959,0,0,1308,173,67,1269,0,0,348,-5,157826,0
157855,1628,-3087,354,-397,-267,-2460,15064,14,-86,55,-40,35632,-87,34,127,0,0,3959,-32,0,1308,173,67,1279,0,0,347,-5,157842,0
157865,1728,-3189,130,-900,-263,-3965,15062,3,21,34,8,35614,-72,34,127,0,0,3959,0,0,1308,173,67,1289,0,0,345,-5,157873,0
157875,1671,-3207,-121,-1218,-75,-4733,15060,-8,4,-46,-48,35608,-75,34,127,0,0,3955,-21,0,1308,173,67,1299,0,0,343,-5,157904,0
157885,-1176,-9994,1227,-1747,377,-3316,15034,-76,-49,352,560,35606,-89,34,127,0,0,4056,1274,0,1660,464,68,5,1,1,342,-6,157904,0
157895,-1729,-2893,4668,701,828,-4248,15274,879,516,2253,3224,35603,-64,33,127,0,0,4216,1439,0,1660,464,68,15,1,1,342,-6,157904,0
157905,348,-1136,1103,-258,-873,-4364,15907,1530,1362,1176,4112,35582,21,34,127,0,0,4313,1032,0,1660,464,68,25,1,1,342,-6,157904,0
157915,454,417,-1011,-1998,-1008,-3405,16698,1827,971,1210,4928,35568,74,33,127,0,0,4447,1406,0,1660,464,68,35,1,1,342,-6,157904,0
157925,-710,-1882,-2636,-2921,-941,-2650,17643,2192,580,1418,5936,35559,133,34,127,0,0,4634,1812,0,1660,464,68,45,1,1,342,-6,157904,0
157935,-1348,-2699,-3323,-1955,-309,-3355,18768,2588,649,1180,6688,35572,129,34,127,0,0,4798,1614,0,1660,464,68,55,1,1,342,-6,157920,0
157945,-1001,-2419,-2475,-725,485,-3999,20007,2755,550,766,6728,35586,160,34,127,0,0,4926,1230,0,1660,464,68,65,1,1,342,-6,157951,0
157955,-96,-2581,-1045,-355,-88,-4270,21220,2640,130,695,6592,35579,149,34,127,0,0,5022,944,0,1660,464,68,75,1,1,342,-6,157951,0
157965,1077,-2479,776,-334,-588,-4652,22386,2533,-160,499,5808,35572,92,34,127,0,0,5071,439,0,1660,464,68,85,1,1,342,-6,157951,0
157975,1244,-2905,1255,-607,-853,-4773,23449,2219,-302,-156,3784,35576,50,34,127,0,0,5073,-32,0,1660,464,68,95,1,1,342,-6,157951,0
157985,1233,-2284,645,-1016,-1119,-4876,24276,1625,-695,-544,1728,35598,8,34,127,0,0,5027,-538,0,1660,464,68,105,1,1,342,-6,158013,0
157995,787,-1703,-3,-1034,-1127,-4563,24766,833,-1134,-816,-32,35614,-35,34,127,0,0,4959,-681,0,1660,464,68,115,1,1,342,-6,158013,0
158005,113,-2128,-19,-650,-679,-4190,24756,-330,-1646,-1136,-792,35617,-40,34,127,0,0,4902,-604,520,1660,464,68,125,1,1,342,-6,158013,0
158015,-130,-2086,347,1,292,-4789,24626,-187,-1130,358,96,35625,-48,34,127,0,0,4783,-1263,720,1660,464,68,135,1,1,342,-6,158013,0
158025,1453,-2328,1519,-81,96,-3122,24545,-248,14,508,-80,35631,-26,34,127,0,0,4743,-274,920,1660,464,68,145,1,1,342,-6,158013,0
158035,2063,-2469,2100,-456,-683,-3035,24204,-997,-491,435,-1544,35633,-31,34,127,0,0,4693,-549,1120,1660,464,68,155,1,1,342,-6,158013,0
158045,-310,-1898,689,-1054,-156,-3488,23516,-1692,-1219,472,-2768,35631,-44,34,127,0,0,4581,-1175,1320,1660,464,68,165,1,1,342,-6,158029,0
158055,-1182,-1956,-7,-914,594,-3814,22721,-1706,-809,605,-2264,35624,-71,34,127,0,0,4431,-1549,1500,1660,464,68,175,1,1,342,-6,158029,0
158065,-446,-1981,-157,-421,664,-3430,22072,-1283,181,818,-1048,35630,-89,34,127,0,0,4297,-1307,1500,1660,464,68,185,1,1,342,-6,158123,0
158075,559,-2109,661,-346,27,-2717,21633,-829,724,981,-88,35649,-107,34,127,0,0,4212,-823,1500,1660,464,68,195,1,1,342,-6,158123,0
158085,512,-1882,924,-832,-568,-1778,21408,-357,809,1343,96,35639,-105,34,127,0,0,4161,-472,1500,1660,464,68,205,1,1,342,-6,158123,0
158095,525,-2153,591,-926,-974,-1641,21266,-359,538,924,-48,35632,-109,33,127,0,0,4139,-241,1500,1660,464,68,215,1,1,342,-6,158123,0
158105,-318,-2068,-342,-660,-58,-2049,20997,-702,-168,669,-464,35617,-86,34,127,0,0,4093,-505,1500,1660,464,68,225,1,1,342,-6,158123,0
158115,-421,-2110,-427,-330,442,-2495,20561,-1045,-592,707,-1024,35619,-77,34,127,0,0,4012,-845,1500,1660,464,68,235,1,1,342,-6,158123,0
158125,438,-2000,264,-116,770,-2656,20042,-1155,-460,790,-1056,35612,-68,34,127,0,0,3915,-966,1500,1660,464,68,245,1,1,342,-6,158123,0
158135,724,-1856,804,-165,213,-2388,19554,-1004,-59,778,-432,35622,-90,34,127,0,0,3823,-878,1500,1660,464,68,255,1,1,342,-6,158123,0
158145,416,-1972,870,-424,-123,-1601,19232,-535,427,1211,200,35622,-67,33,127,0,0,3763,-560,1500,1660,464,68,265,1,1,342,-6,158138,0
158155,843,-1790,608,-584,-519,-1053,19160,-75,833,1062,208,35627,-49,34,127,0,0,3741,-142,1500,1660,464,68,275,1,1,342,-6,158138,0
158165,634,-1852,310,-593,-686,-867,19131,-82,512,903,168,35618,-25,34,127,0,0,3744,10,1500,1660,464,68,285,1,1,342,-6,158170,0
158175,315,-1852,129,-491,-356,-1084,19032,-298,-89,899,-24,35623,-28,34,127,0,0,3726,-197,1550,1660,464,68,295,1,1,342,-6,158170,0
158185,237,-1918,148,-322,137,-1553,18799,-602,-404,785,-280,35622,-52,34,127,0,0,3682,-461,1660,1660,464,68,305,1,1,342,-6,158170,0
158195,293,-2000,240,-278,244,-1709,18465,-772,-459,827,-224,35621,-62,33,127,0,0,3621,-626,1800,1660,464,68,315,1,1,342,-6,158170,0
158205,202,-2120,461,-305,153,-1485,18174,-539,-124,1275,72,35612,-50,33,127,0,0,3561,-593,1940,1660,464,68,325,1,1,342,-6,158201,0
158215,501,-2064,520,-368,-252,-1106,18062,-140,448,1359,200,35613,-58,34,127,0,0,3535,-219,2050,1660,464,68,335,1,1,342,-6,158201,0
158225,710,-1927,377,-502,-688,-868,18018,-98,488,1232,200,35610,-63,34,127,0,0,3531,-32,2090,1660,464,68,345,1,1,342,-6,158201,0
158235,-8,-1860,179,-511,-578,-1006,17931,-216,34,1261,96,35622,-66,34,127,0,0,3513,-230,2140,1660,464,68,355,1,1,342,-6,158217,0
158245,9,-1859,-17,-401,-14,-1434,17778,-397,-203,1245,24,35632,-37,34,127,0,0,3487,-318,2200,1660,464,68,365,1,1,342,-6,158248,0
158255,427,-1856,62,-334,114,-1628,17545,-572,-281,1181,-64,35627,-37,34,127,0,0,3443,-472,2260,1660,464,68,375,1,1,342,-6,158248,0
158265,348,-1905,365,-343,-62,-1719,17284,-656,-274,1216,-88,35625,-82,34,127,0,0,3388,-571,2310,1660,464,68,385,1,1,342,-6,158248,0
158275,198,-2040,452,-377,-223,-1665,17016,-535,-49,1548,-48,35615,-80,34,127,0,0,3339,-505,2360,1660,464,68,395,1,1,342,-6,158248,0
158285,298,-2108,517,-421,-401,-1507,16849,-303,273,1553,112,35628,-70,34,127,0,0,3309,-274,2420,1660,464,68,405,1,1,342,-6,158279,0
158295,263,-2048,510,-448,-473,-1580,16716,-308,251,1477,80,35615,-36,34,127,0,0,3280,-274,2500,1660,464,68,415,1,1,342,-6,158279,0
158305,64,-1899,386,-482,-411,-1873,16535,-442,-67,1455,16,35614,-57,34,127,0,0,3247,-362,2580,1660,464,68,425,1,1,342,-6,158279,0
158315,39,-1888,288,-510,-354,-2135,16276,-627,-257,1360,-96,35617,-77,33,127,0,0,3194,-538,2670,1660,464,68,435,1,1,342,-6,158295,0
158325,5,-1948,170,-531,-371,-2514,15941,-756,-296,1492,-104,35627,-76,34,127,0,0,3128,-681,2750,1660,464,68,445,1,1,342,-6,158310,0
158335,16,-2098,394,-506,-535,-2611,15629,-638,-66,1756,-24,35633,-87,34,127,0,0,3067,-615,2830,1660,464,68,455,1,1,342,-6,158326,0
158345,382,-2457,747,-543,-915,-2487,15404,-443,237,1901,48,35629,-69,34,127,0,0,3021,-483,2910,1660,464,68,465,1,1,342,-6,158326,0
158355,239,-2486,815,-659,-1059,-2509,15231,-365,257,1791,96,35623,-69,34,127,0,0,2986,-362,3000,1660,464,68,475,1,1,342,-6,158342,0
158365,-131,-2391,552,-845,-855,-2795,15078,-316,123,1839,136,35629,-35,34,127,0,0,2959,-263,3100,1660,464,68,485,1,1,342,-6,158357,0
158375,-224,-2335,393,-898,-768,-3028,14947,-274,78,1897,160,35618,-37,34,127,0,0,2933,-274,3210,1660,464,68,495,1,1,342,-6,158373,0
158385,-118,-2213,347,-1031,-882,-3332,14829,-258,57,1968,184,35609,-70,33,127,0,0,2913,-186,3340,1660,464,68,505,1,1,342,-6,158373,0
158395,-169,-2296,338,-1177,-967,-3534,14721,-229,37,2053,216,35603,-74,33,127,0,0,2891,-208,3470,1660,464,68,515,1,1,342,-6,158373,0
158405,-134,-2495,378,-1460,-842,-3965,14612,-243,17,2133,200,35617,-57,34,127,0,0,2871,-186,3620,1660,464,68,525,1,1,342,-6,158388,0
158415,-219,-2785,469,-1653,-822,-4182,14512,-192,14,2229,256,35620,-19,34,127,0,0,2854,-164,3790,1660,464,68,535,1,1,342,-6,158388,0
158425,-117,-3041,570,-1720,-929,-4616,14438,-148,78,2279,416,35617,-7,34,127,0,0,2838,-120,3970,1660,464,68,545,1,1,342,-6,158420,0
158435,-226,-3212,539,-1723,-947,-4777,14424,18,170,2329,784,35604,-13,34,127,0,0,2834,-21,4180,1660,464,68,555,1,1,342,-6,158435,0
158445,-387,-2877,716,-1785,-924,-5267,14448,60,191,2548,928,35599,-5,34,127,0,0,2841,65,4430,1660,464,68,565,1,1,342,-6,158466,0
158455,-350,-2807,644,-1905,-972,-5652,14477,84,70,2700,1056,35601,9,34,127,0,0,2847,65,4710,1660,464,68,575,1,1,342,-6,158466,0
158465,-224,-3239,696,-1993,-1240,-6017,14574,273,152,2688,1696,35592,22,34,127,0,0,2867,219,5040,1660,464,68,585,1,1,342,-6,158466,0
158475,-345,-3430,798,-1985,-1603,-6053,14800,583,395,2963,2720,35575,56,34,127,0,0,2909,461,5440,1660,464,68,595,1,1,342,-6,158482,0
158485,-929,-3530,793,-2099,-1645,-5761,15228,1121,657,3349,4272,35553,120,33,127,0,0,2994,889,5990,1660,464,68,605,1,1,342,-6,158482,0
158495,-1479,-3724,870,-2166,-2172,-5929,16005,1979,1102,3716,6480,35517,269,34,127,0,0,3148,1636,6460,1660,464,68,615,1,1,342,-6,158482,0
158505,-531,-5122,1681,-2464,-2617,-5437,17151,2741,1404,3960,8312,35459,453,34,127,0,0,3368,2230,6950,1660,464,68,625,1,1,342,-6,158482,0
158515,-1255,-4816,1910,-2321,-3039,-5376,18592,3346,1250,4241,9904,35389,679,34,127,0,0,3643,2768,7630,1660,464,68,635,1,1,342,-6,158545,0
158525,-1071,-3930,910,-2512,-3605,-6078,20288,3870,1034,4702,11248,35314,921,34,127,0,0,3957,3197,8440,1660,464,68,645,1,1,342,-6,158545,0
158535,-625,-4341,422,-2604,-3627,-6511,22058,3861,592,5077,11352,35239,1166,33,127,0,0,4291,3350,8480,1660,464,68,655,1,1,342,-6,158560,0
158545,-59,-4823,516,-2120,-3925,-7118,23754,3659,-74,5026,10104,35184,1318,34,127,0,0,4612,3208,7990,1660,464,68,665,1,1,342,-6,158560,0
158555,-85,-4655,1200,-2102,-4135,-7293,25272,3188,-514,4617,8584,35162,1321,34,127,0,0,4869,2482,7530,1660,464,68,675,1,1,342,-6,158560,0
158565,101,-4314,1838,-2460,-4334,-7233,26535,2595,-858,3607,6344,35201,1162,33,127,0,0,5080,2131,3320,1660,464,68,685,1,1,342,-6,158576,0
158575,201,-4203,1781,-2704,-4580,-7378,27387,1512,-1316,1367,2752,35301,822,34,127,0,0,5227,1362,790,1660,464,68,695,1,1,342,-6,158576,0
158585,-499,-3009,1744,-2296,-5125,-6826,27689,339,-1906,-709,-1512,35437,459,34,127,0,0,5280,483,0,1660,464,68,705,1,1,342,-6,158576,0
158595,-1959,-805,1702,-1440,-5653,-4263,27270,-1349,-2445,-1921,-4080,35529,185,34,127,0,0,5365,1153,0,1660,464,68,715,1,1,342,-6,158576,0
158605,1833,-1344,-858,-1994,-477,-3756,26460,-1975,-2091,-1975,-6392,35582,73,34,127,0,0,5381,-175,0,1660,464,68,725,1,1,342,-6,158607,0
158615,726,-1061,-664,-1427,1301,-3010,25216,-2969,-1503,-1154,-6624,35550,197,34,127,0,0,5227,-1625,0,1660,464,68,735,0,1,342,-6,158607,0
158625,-197,-533,-570,-59,2484,-2011,23924,-2785,-876,-224,-6224,35549,176,34,127,0,0,5011,-2186,0,1660,464,68,745,0,1,342,-6,158623,0
158635,-257,-310,20,223,2532,-1109,22721,-2589,191,-380,-6008,35542,145,34,127,0,0,4809,-2032,0,1660,464,68,755,0,1,342,-6,158623,0
158645,-350,-110,718,493,2337,436,21590,-2440,309,-210,-5544,35575,25,34,127,0,0,4662,-1439,0,1660,464,68,765,0,1,342,-6,158623,0
158655,-103,-8,553,678,2200,1453,20533,-2272,282,8,-4592,35601,4,34,127,0,0,4563,-955,0,1660,464,68,775,0,1,342,-6,158654,0
158665,161,14,-174,1053,1996,2892,19582,-1998,350,218,-3224,35613,-9,34,127,0,0,4504,-593,0,1660,464,68,785,0,1,342,-6,158654,0
158675,337,38,-340,1391,1952,3727,18805,-1575,559,341,-2040,35619,-35,34,127,0,0,4456,-461,0,1660,464,68,795,0,1,342,-6,158670,0
158685,443,48,-356,1845,2053,4766,18235,-1124,743,280,-1272,35609,-48,34,127,0,0,4405,-516,0,1660,464,68,805,0,1,342,-6,158670,0
158695,503,-1,-291,2067,2146,5445,17835,-786,712,88,-936,35607,-74,34,127,0,0,4341,-670,0,1660,464,68,815,0,1,342,-6,158701,0
158705,504,-158,-147,2369,2230,6492,17541,-607,505,-136,-1008,35611,-56,34,127,0,0,4262,-802,0,1660,464,68,825,0,1,342,-6,158701,0
158715,414,-245,-120,2508,2162,7170,17285,-559,247,-396,-1240,35609,-48,34,127,0,0,4183,-802,0,1660,464,68,835,0,1,342,-6,158701,0
158725,387,-308,8,2706,1885,8165,17006,-640,8,-496,-1400,35605,-31,34,127,0,0,4104,-736,0,1660,464,68,845,0,1,342,-6,158716,0
158735,343,-360,52,2787,1622,8773,16704,-687,-93,-460,-1432,35611,-27,34,127,0,0,4040,-593,0,1660,464,68,855,0,1,342,-6,158716,0
158745,295,-437,113,2843,1197,9554,16396,-659,-52,-326,-1288,35609,-26,34,127,0,0,3985,-549,0,1660,464,68,865,0,1,342,-6,158732,0
158755,310,-587,82,2888,950,9997,16110,-599,49,-289,-1088,35625,-1,34,127,0,0,3941,-450,0,1660,464,68,875,0,1,342,-6,158763,0
158765,381,-804,36,3021,747,10686,15854,-541,105,-267,-928,35614,-16,34,127,0,0,3900,-417,0,1660,464,68,885,0,1,342,-6,158763,0
158775,304,-955,45,3103,632,11173,15631,-462,126,-292,-728,35618,-57,34,127,0,0,3867,-329,0,1660,464,68,895,0,1,342,-6,158763,0
158785,248,-1144,146,3232,474,11809,15445,-384,143,-322,-536,35612,-46,33,127,0,0,3840,-263,0,1660,464,68,905,0,1,342,-6,158763,0
158795,194,-1342,169,3279,297,12117,15293,-289,141,-236,-240,35610,-28,34,127,0,0,3834,-76,0,1660,464,68,915,0,1,342,-6,158779,0
158805,189,-1789,154,3483,46,12287,15212,-124,213,72,56,35614,2,34,127,0,0,3838,43,0,1660,464,68,925,0,1,342,-6,158857,0
158815,219,-2081,15,3621,-113,12635,15250,118,368,272,232,35611,-12,34,127,0,0,3862,296,0,1660,464,68,935,0,1,342,-6,158857,0
158825,196,-2452,81,3846,-11,12938,15355,285,340,510,632,35609,-29,34,127,0,0,3915,538,0,1660,464,68,945,0,1,342,-6,158873,0
158835,375,-2725,158,4037,148,13024,15529,415,249,562,1032,35605,-14,34,127,0,0,3981,659,0,1660,464,68,955,0,1,342,-6,158873,0
158845,587,-3066,142,4380,514,12809,15768,566,248,550,1272,35600,0,34,127,0,0,4034,494,0,1660,464,68,965,0,1,342,-6,158873,0
158855,651,-3288,57,4607,812,12731,16036,606,174,454,1264,35600,-14,34,127,0,0,4064,263,0,1660,464,68,975,0,1,342,-6,158873,0
158865,400,-3495,81,4948,1375,12561,16297,563,38,357,968,35603,-29,34,127,0,0,4073,87,0,1660,464,68,985,0,1,342,-6,158873,0
158875,132,-3588,150,5142,1785,12314,16521,457,-94,286,672,35608,-33,34,127,0,0,4073,10,0,1660,464,68,995,0,1,342,-6,158873,0
158885,29,-3544,274,5291,2438,11665,16698,357,-175,257,368,35614,-23,34,127,0,0,4073,-21,0,1660,464,68,1005,0,1,342,-6,158873,0
158895,48,-3550,243,5142,2956,11019,16827,251,-181,217,216,35615,-46,34,127,0,0,4071,-32,0,1660,464,68,1015,0,1,342,-6,158888,0
158905,282,-4140,136,4507,3880,10091,16891,103,-221,236,96,35622,-64,34,127,0,0,4067,-32,0,1660,464,68,1025,0,1,342,-6,158888,0
158915,714,-4780,73,4239,4639,9424,16907,26,-213,462,168,35634,-58,34,127,0,0,4067,10,0,1660,464,68,1035,0,1,342,-6,158920,0
158925,1161,-4763,344,3883,5074,7959,16947,122,-24,429,200,35635,-27,34,127,0,0,4064,-21,0,1660,464,68,1045,0,1,342,-6,158920,0
158935,1724,-4223,812,3421,5017,6237,17016,175,114,276,120,35621,-2,33,127,0,0,4051,-164,0,1660,464,68,1055,0,1,342,-6,158935,0
158945,2256,-3333,1140,2316,3769,2974,17029,-73,-73,-334,-184,35612,-5,34,127,0,0,4014,-351,0,1660,464,68,1065,0,1,342,-6,158935,0
158955,2454,-3037,780,1418,2629,584,16951,-180,-308,-412,-368,35615,6,34,127,0,0,3979,-351,0,1660,464,68,1075,0,1,342,-6,158935,0
158965,2453,-3234,452,2,1548,-2115,16857,-217,-169,-382,-248,35629,-9,34,127,0,0,3966,-131,0,1660,464,68,1085,0,1,342,-6,158966,0
158975,2159,-3409,267,-710,1530,-3663,16779,-116,6,-17,16,35633,-16,34,127,0,0,3968,-10,0,1660,464,68,1095,0,1,342,-6,158966,0
158985,2256,-3346,-162,-1344,2016,-5593,16804,112,258,25,-24,35626,-32,33,127,0,0,3950,-219,0,1660,464,68,1105,0,1,342,-6,158966,0
158995,2196,-3456,-412,-1618,2221,-6366,16789,-92,107,-380,-232,35616,-42,34,127,0,0,3922,-285,0,1660,464,68,1115,0,1,342,-6,158982,0
159005,786,-9009,2484,-1556,1905,-4779,16719,-156,-211,188,592,35618,-44,34,127,0,0,4047,1625,0,9897,3415,69,5,1,1,509,-14,158998,0
159015,-2375,-3341,4824,1087,511,-4793,16960,834,567,1879,2968,35617,-16,34,127,0,0,4236,1845,0,9897,3415,69,15,1,1,509,-14,158998,0
159025,468,-1483,1835,-292,-1260,-5320,17566,1522,1383,1541,4344,35601,35,34,127,0,0,4403,1625,0,9897,3415,69,25,1,1,509,-14,159013,0
159035,1808,-28,-1297,-2129,-1444,-4876,18382,1886,1036,1066,4888,35585,80,34,127,0,0,4550,1461,0,9897,3415,69,35,1,1,509,-14,159029,0
159045,-62,-1874,-2685,-3196,-1544,-4126,19292,2039,536,752,5056,35572,94,34,127,0,0,4684,1373,0,9897,3415,69,45,1,1,509,-14,159029,0
159055,-1159,-3009,-3281,-2160,-1710,-4296,20238,2103,226,784,5336,35574,105,34,127,0,0,4827,1439,0,9897,3415,69,55,1,1,509,-14,159029,0
159065,-1284,-2594,-1737,-713,-577,-4693,21204,2136,95,755,5432,35578,103,34,127,0,0,4954,1241,0,9897,3415,69,65,1,1,509,-14,159044,0
159075,-298,-2181,-1031,-496,-525,-5388,22170,2120,31,617,5168,35588,87,34,127,0,0,5022,604,0,9897,3415,69,75,1,1,509,-14,159060,0
159085,1061,-2062,57,-613,202,-5821,23092,1969,-97,217,4056,35599,60,34,127,0,0,5036,43,0,9897,3415,69,85,1,1,509,-14,159107,0
159095,2024,-2598,274,-680,123,-5790,23881,1612,-374,-159,2320,35617,15,34,127,0,0,5014,-274,0,9897,3415,69,95,1,1,509,-14,159107,0
159105,1481,-1668,264,-697,-1068,-5428,24440,1049,-732,-496,456,35611,-13,34,127,0,0,4939,-758,0,9897,3415,69,105,1,1,509,-14,159107,0
159115,1485,-1902,159,-677,-1253,-4518,24565,-191,-1335,-1769,-720,35609,-50,34,127,0,0,4873,-626,0,9897,3415,69,115,1,1,509,-14,159107,0
159125,831,-2806,278,-581,-878,-4188,24398,-321,-1433,106,32,35606,-48,33,127,0,0,4816,-582,680,9897,3415,69,125,1,1,509,-14,159107,0
159135,-1424,-1775,260,-78,20,-4619,24368,4,-112,494,88,35616,-42,34,127,0,0,4719,-1021,880,9897,3415,69,135,1,1,509,-14,159123,0
159145,2306,-2476,1564,-108,-649,-3084,24219,-541,3,566,-488,35622,-51,34,127,0,0,4691,-329,1080,9897,3415,69,145,1,1,509,-14,159138,0
159155,1467,-2127,1826,-364,-772,-3237,23669,-1491,-1127,466,-2648,35629,-73,34,127,0,0,4603,-933,1280,9897,3415,69,155,1,1,509,-14,159138,0
159165,-888,-2097,323,-761,552,-3846,22835,-1903,-1130,535,-2984,35631,-109,34,127,0,0,4456,-1516,1480,9897,3415,69,165,1,1,509,-14,159185,0
159175,-601,-2181,25,-569,1349,-3878,22060,-1579,-260,711,-1800,35632,-99,34,127,0,0,4297,-1593,1500,9897,3415,69,175,1,1,509,-14,159216,0
159185,737,-2290,574,-239,236,-2903,21520,-1018,414,858,-296,35630,-80,33,127,0,0,4192,-1021,1500,9897,3415,69,185,1,1,509,-14,159216,0
159195,757,-1916,1069,-380,-512,-1905,21251,-389,974,1415,192,35628,-96,33,127,0,0,4135,-527,1500,9897,3415,69,195,1,1,509,-14,159232,0
159205,334,-1857,741,-875,-1088,-1263,21210,-29,976,958,216,35615,-94,33,127,0,0,4130,-32,1500,9897,3415,69,205,1,1,509,-14,159232,0
159215,-42,-1967,-231,-843,-631,-1330,21143,-240,389,929,-16,35612,-90,34,127,0,0,4117,-175,1500,9897,3415,69,215,1,1,509,-14,159232,0
159225,8,-1849,-884,-291,163,-1967,20892,-703,-414,678,-432,35608,-56,34,127,0,0,4073,-483,1500,9897,3415,69,225,1,1,509,-14,159232,0
159235,35,-1944,-506,27,570,-2320,20437,-1098,-756,663,-1104,35605,-33,34,127,0,0,3992,-823,1500,9897,3415,69,235,1,1,509,-14,159232,0
159245,111,-2032,591,56,841,-2299,19919,-1113,-520,738,-848,35609,-58,34,127,0,0,3891,-1021,1510,9897,3415,69,245,1,1,509,-14,159232,0
159255,477,-2050,1051,-77,416,-1970,19522,-723,110,1021,-104,35621,-63,34,127,0,0,3818,-681,1670,9897,3415,69,255,1,1,509,-14,159232,0
159265,947,-2036,970,-326,-576,-947,19426,-18,827,1406,344,35648,-75,34,127,0,0,3792,-175,1800,9897,3415,69,265,1,1,509,-14,159310,0
159275,771,-1805,666,-454,-985,-759,19433,-9,809,1144,256,35636,-47,34,127,0,0,3796,0,1910,9897,3415,69,275,1,1,509,-14,159310,0
159285,-154,-1830,128,-429,-625,-930,19393,-103,70,1181,160,35628,-31,34,127,0,0,3794,-54,2020,9897,3415,69,285,1,1,509,-14,159310,0
159295,-73,-1756,-102,-307,-133,-1238,19299,-247,-196,1222,80,35610,-8,34,127,0,0,3772,-219,2160,9897,3415,69,295,1,1,509,-14,159310,0
159305,593,-1850,36,-133,83,-1406,19121,-461,-272,1230,-16,35619,-11,34,127,0,0,3737,-384,2320,9897,3415,69,305,1,1,509,-14,159310,0
159315,564,-2015,196,-105,-33,-1469,18861,-602,-315,1247,-72,35626,-32,34,127,0,0,3687,-516,2490,9897,3415,69,315,1,1,509,-14,159326,0
159325,154,-2050,318,-183,-159,-1404,18619,-474,-96,1668,32,35624,-46,34,127,0,0,3643,-439,2660,9897,3415,69,325,1,1,509,-14,159326,0
159335,337,-2020,329,-243,-273,-1252,18485,-237,272,1660,192,35618,-54,34,127,0,0,3618,-230,2830,9897,3415,69,335,1,1,509,-14,159326,0
159345,325,-1927,448,-299,-498,-1128,18403,-177,298,1723,200,35621,-47,33,127,0,0,3603,-153,2950,9897,3415,69,345,1,1,509,-14,159326,0
159355,143,-1922,330,-294,-514,-1221,18299,-249,32,1769,152,35626,-26,34,127,0,0,3583,-186,3030,9897,3415,69,355,1,1,509,-14,159357,0
159365,207,-1859,223,-264,-371,-1604,18153,-371,-139,1783,64,35622,-43,33,127,0,0,3552,-285,3120,9897,3415,69,365,1,1,509,-14,159373,0
159375,70,-1854,271,-278,-340,-1825,17939,-517,-227,1784,-8,35612,-69,33,127,0,0,3513,-428,3210,9897,3415,69,375,1,1,509,-14,159373,0
159385,-121,-1820,440,-367,-403,-2183,17665,-641,-243,1775,-56,35613,-77,34,127,0,0,3460,-494,3310,9897,3415,69,385,1,1,509,-14,159373,0
159395,-245,-1903,562,-467,-461,-2420,17345,-710,-200,1937,-80,35621,-68,34,127,0,0,3396,-659,3400,9897,3415,69,395,1,1,509,-14,159373,0
159405,-107,-2063,666,-502,-633,-2761,17021,-712,-85,2042,-96,35623,-53,34,127,0,0,3339,-593,3520,9897,3415,69,405,1,1,509,-14,159404,0
159415,0,-1873,720,-550,-961,-3016,16696,-716,-4,2127,-64,35623,-82,34,127,0,0,3271,-659,3660,9897,3415,69,415,1,1,509,-14,159404,0
159425,543,-2409,787,-580,-1610,-3252,16354,-771,-33,2169,-96,35626,-98,34,127,0,0,3205,-681,3810,9897,3415,69,425,1,1,509,-14,159404,0
159435,-184,-2777,986,-778,-1442,-3347,15973,-851,-117,2199,-112,35631,-84,34,127,0,0,3135,-725,3960,9897,3415,69,435,1,1,509,-14,159435,0
159445,-1018,-2593,573,-1048,-1121,-3707,15646,-622,44,2638,56,35617,-90,34,127,0,0,3069,-615,4110,9897,3415,69,445,1,1,509,-14,159435,0
159455,-382,-2730,290,-1197,-1049,-3741,15481,-280,457,2700,248,35609,-69,34,127,0,0,3036,-362,4280,9897,3415,69,455,1,1,509,-14,159435,0
159465,-281,-2202,70,-1199,-1271,-4149,15363,-273,381,2620,256,35610,-68,34,127,0,0,3010,-285,4500,9897,3415,69,465,1,1,509,-14,159466,0
159475,-286,-2383,-19,-1384,-1264,-4528,15227,-318,13,2776,200,35609,-31,34,127,0,0,2986,-263,4770,9897,3415,69,475,1,1,509,-14,159466,0
159485,-314,-2904,194,-1457,-991,-5233,15050,-423,-119,2948,112,35607,-29,34,127,0,0,2948,-340,5070,9897,3415,69,485,1,1,509,-14,159466,0
159495,-397,-2890,338,-1579,-877,-5673,14845,-444,-139,3082,184,35608,-53,34,127,0,0,2911,-384,5400,9897,3415,69,495,1,1,509,-14,159482,0
159505,-24,-3235,549,-1767,-1015,-5979,14694,-258,72,3322,496,35601,-49,34,127,0,0,2882,-263,5770,9897,3415,69,505,1,1,509,-14,159498,0
159515,-108,-3503,808,-1842,-1109,-6006,14655,-22,348,3424,1016,35604,-9,34,127,0,0,2876,-32,6200,9897,3415,69,515,1,1,509,-14,159498,0
159525,-604,-3120,846,-1978,-1355,-6461,14700,148,368,3629,1632,35592,61,34,127,0,0,2885,43,6730,9897,3415,69,525,1,1,509,-14,159498,0
159535,-427,-3296,775,-2100,-1488,-6766,14845,412,349,3939,2488,35585,107,34,127,0,0,2915,351,7370,9897,3415,69,535,1,1,509,-14,159591,0
159545,-550,-3840,986,-2012,-2051,-6677,15178,903,580,4578,4104,35550,166,34,127,0,0,2977,681,8200,9897,3415,69,545,1,1,509,-14,159591,0
159555,-891,-4209,900,-2048,-2107,-6257,15810,1632,978,5161,6096,35506,314,34,127,0,0,3106,1384,9170,9897,3415,69,555,1,1,509,-14,159591,0
159565,-1830,-4409,1105,-2159,-2828,-6243,16877,2658,1456,5601,8712,35424,581,34,127,0,0,3317,2175,9960,9897,3415,69,565,1,1,509,-14,159591,0
159575,-1079,-5500,1615,-2313,-2994,-5745,18394,3615,1720,6150,11128,35300,975,34,127,0,0,3599,2955,11050,9897,3415,69,575,1,1,509,-14,159607,0
159585,-1209,-4725,1821,-2164,-4028,-5692,20325,4493,1649,6789,13368,35152,1420,34,127,0,0,3961,3702,12520,9897,3415,69,585,1,1,509,-14,159607,0
159595,-1941,-3970,864,-2479,-4602,-6077,22487,4834,1194,7443,15000,34987,1970,33,127,0,0,4368,4097,13040,9897,3415,69,595,1,1,509,-14,159607,0
159605,-287,-5012,404,-2432,-4405,-6947,24772,5067,604,7856,14264,34845,2424,34,127,0,0,4781,4031,12110,9897,3415,69,605,1,1,509,-14,159607,0
159615,-151,-5290,791,-2084,-4499,-7159,26936,4569,-57,7072,11768,34757,2670,34,127,0,0,5141,3570,11270,9897,3415,69,615,1,1,509,-14,159607,0
159625,-233,-4817,1976,-2298,-5051,-7432,28736,3626,-1037,5836,8792,34793,2531,34,127,0,0,5449,3010,6850,9897,3415,69,625,1,1,509,-14,159607,0
159635,86,-4744,2380,-2629,-5350,-7909,29874,1944,-2058,2573,3704,34961,1922,34,127,0,0,5662,2021,1740,9897,3415,69,635,1,1,509,-14,159638,0
159645,-150,-3990,2239,-2661,-6301,-8169,30144,40,-3033,237,-368,35223,1082,34,127,0,0,5717,428,0,9897,3415,69,645,1,1,509,-14,159654,0
159655,-2017,-2155,2761,-1927,-6305,-6784,29844,-803,-2689,-1009,-3784,35433,386,34,127,0,0,5686,-340,0,9897,3415,69,655,1,1,509,-14,159654,0
159665,2518,-1733,-825,-1799,-2072,-3697,29076,-2038,-1859,-2072,-6152,35525,111,34,127,0,0,5710,153,0,9897,3415,69,665,0,1,509,-14,159654,0
159675,923,-1008,-801,-1771,1021,-3435,27796,-3246,-1937,-2729,-8792,35512,185,34,127,0,0,5499,-2351,0,9897,3415,69,675,0,1,509,-14,159654,0
159685,-610,-591,-317,-71,2288,-1891,26157,-3563,-1630,-391,-8368,35501,271,34,127,0,0,5220,-2757,0,9897,3415,69,685,0,1,509,-14,159685,0
159695,-842,-149,128,442,2149,-1072,24577,-3456,-402,-385,-7968,35523,258,34,127,0,0,4972,-2493,0,9897,3415,69,695,0,1,509,-14,159685,0
159705,-628,187,888,596,1779,677,23049,-3288,219,-272,-7024,35545,191,34,127,0,0,4794,-1724,0,9897,3415,69,705,0,1,509,-14,159685,0
159715,-198,151,689,806,1630,1971,21683,-2868,447,200,-5528,35574,63,34,127,0,0,4686,-999,0,9897,3415,69,715,0,1,509,-14,159701,0
159725,172,67,-161,1283,1594,3673,20523,-2417,731,535,-3816,35596,-4,34,127,0,0,4625,-582,0,9897,3415,69,725,0,1,509,-14,159701,0
159735,147,93,-381,1752,1761,4511,19614,-1821,882,644,-2352,35623,-74,34,127,0,0,4576,-483,0,9897,3415,69,735,0,1,509,-14,159732,0
159745,189,106,-363,2358,2166,5534,18967,-1272,995,361,-1480,35626,-82,34,127,0,0,4513,-648,0,9897,3415,69,745,0,1,509,-14,159732,0
159755,232,70,-266,2594,2439,6209,18510,-914,851,79,-1376,35611,-79,34,127,0,0,4420,-944,0,9897,3415,69,755,0,1,509,-14,159732,0
159765,210,-98,-119,2923,2679,7295,18156,-735,529,-244,-1616,35611,-43,34,127,0,0,4315,-999,0,9897,3415,69,765,0,1,509,-14,159747,0
159775,204,-174,-74,3059,2680,7969,17815,-758,192,-495,-1832,35608,-25,34,127,0,0,4220,-966,0,9897,3415,69,775,0,1,509,-14,159763,0
159785,146,-227,43,3256,2446,8923,17445,-832,-50,-494,-1968,35603,-4,34,127,0,0,4133,-856,0,9897,3415,69,785,0,1,509,-14,159779,0
159795,205,-305,64,3320,2241,9474,17052,-867,-97,-375,-1848,35589,-9,34,127,0,0,4060,-736,0,9897,3415,69,795,0,1,509,-14,159779,0
159805,259,-436,106,3406,1919,10246,16676,-810,1,-324,-1680,35591,-13,34,127,0,0,4001,-593,0,9897,3415,69,805,0,1,509,-14,159779,0
159815,209,-547,83,3433,1684,10719,16327,-748,90,-268,-1328,35606,-23,33,127,0,0,3950,-516,0,9897,3415,69,815,0,1,509,-14,159810,0
159825,297,-786,104,3515,1448,11384,16026,-630,146,-249,-1024,35606,-10,34,127,0,0,3913,-384,0,9897,3415,69,825,0,1,509,-14,159826,0
159835,269,-984,116,3566,1292,11820,15768,-529,176,-228,-760,35603,-26,34,127,0,0,3884,-307,0,9897,3415,69,835,0,1,509,-14,159826,0
159845,225,-1304,166,3631,1015,12441,15565,-419,194,-270,-512,35598,-35,34,127,0,0,3869,-109,0,9897,3415,69,845,0,1,509,-14,159826,0
159855,282,-1591,201,3693,855,12618,15419,-274,207,-146,-104,35609,-53,33,127,0,0,3873,54,0,9897,3415,69,855,0,1,509,-14,159872,0
159865,285,-2083,39,3844,576,13062,15402,88,378,324,224,35615,-35,34,127,0,0,3893,263,0,9897,3415,69,865,0,1,509,-14,159872,0
159875,368,-2377,1,3903,588,13330,15503,251,488,475,600,35609,-4,34,127,0,0,3944,538,0,9897,3415,69,875,0,1,509,-14,159872,0
159885,398,-2795,136,4112,680,13549,15668,412,315,566,968,35600,-6,34,127,0,0,4012,637,0,9897,3415,69,885,0,1,509,-14,159872,0
159895,536,-3116,166,4280,820,13453,15895,537,243,619,1376,35599,-12,34,127,0,0,4067,527,0,9897,3415,69,895,0,1,509,-14,159872,0
159905,860,-3655,186,4564,1123,13353,16167,606,196,501,1360,35614,-4,34,127,0,0,4108,384,0,9897,3415,69,905,0,1,509,-14,159904,0
159915,469,-3872,221,4842,1279,13374,16446,610,85,419,1176,35615,16,34,127,0,0,4137,252,0,9897,3415,69,915,0,1,509,-14,159919,0
159925,143,-4211,208,5120,1765,12935,16701,553,-41,372,1008,35609,3,34,127,0,0,4157,186,0,9897,3415,69,925,0,1,509,-14,159935,0
159935,-378,-5542,72,5115,1963,12516,16927,470,-104,340,816,35608,-10,33,127,0,0,4185,296,0,9897,3415,69,935,0,1,509,-14,159935,0
159945,876,-3467,660,5008,2954,10716,17140,474,-81,509,1040,35605,-3,34,127,0,0,4216,230,0,9897,3415,69,945,0,1,509,-14,159935,0
159955,1341,-3122,-348,3989,3765,9963,17355,447,-17,327,632,35604,-4,34,127,0,0,4198,-230,0,9897,3415,69,955,0,1,509,-14,159951,0
159965,1185,-4635,-242,3746,4405,8716,17517,273,-119,-120,-112,35598,-22,34,127,0,0,4144,-560,0,9897,3415,69,965,0,1,509,-14,159951,0
159975,1780,-4685,47,3922,4299,7704,17466,-247,-553,-618,-440,35620,-67,34,127,0,0,4100,-384,0,9897,3415,69,975,0,1,509,-14,159982,0
159985,2248,-3675,978,3528,3589,5486,17327,-314,-567,-399,-464,35623,-77,34,127,0,0,4069,-296,0,9897,3415,69,985,0,1,509,-14,159982,0
159995,2806,-3193,1261,2586,2777,3315,17190,-291,-111,-301,-384,35624,-60,34,127,0,0,4031,-395,0,9897,3415,69,995,0,1,509,-14,159997,0
160005,2650,-3267,524,920,1579,-351,17075,-248,52,-542,-568,35605,-55,34,127,0,0,3981,-505,0,9897,3415,69,1005,0,1,509,-14,159997,0
160015,2545,-3594,109,54,1278,-2356,16934,-322,-15,-601,-728,35602,-22,34,127,0,0,3935,-450,0,9897,3415,69,1015,0,1,509,-14,159997,0
160025,2626,-3830,51,-876,1545,-4563,16771,-370,-91,-474,-608,35614,-20,34,127,0,0,3906,-274,0,9897,3415,69,1025,0,1,509,-14,160044,0
160035,2216,-4634,-173,-1407,1875,-5678,16610,-335,-30,-319,-360,35621,-15,34,127,0,0,3900,-43,0,9897,3415,69,1035,0,1,509,-14,160044,0
160045,749,-8416,4915,-891,2875,-5087,16537,78,208,1107,832,35609,-43,34,127,0,0,4161,2966,0,14576,5731,70,5,1,1,548,-11,160044,0
160055,-2541,-3510,4276,1565,-893,-6094,16874,1028,1070,2016,3512,35597,-49,34,127,0,0,4365,2054,0,14576,5731,70,15,1,1,548,-11,160044,0
160065,1801,384,151,-1231,-1166,-6669,17585,1758,1535,1486,4728,35577,26,34,127,0,0,4504,1318,0,14576,5731,70,25,1,1,548,-11,160044,0
160075,2145,-180,-2655,-4428,-1178,-6453,18454,1932,955,661,4688,35575,68,34,127,0,0,4585,758,0,14576,5731,70,35,1,1,548,-11,160075,0
160085,-991,-2530,-3031,-3230,-1511,-5477,19316,1869,215,492,4576,35572,90,34,127,0,0,4677,988,0,14576,5731,70,45,1,1,548,-11,160075,0
