state_time,accelx,accely,accelz,gyrox,gyroy,gyroz,mot_ang,mot_vel,mot_acc,mot_cur,mot_volt,batt_volt,batt_curr,temperature,status_mn,status_ex,status_re,ank_ang,ank_vel,ank_torque,peak_ank_torque,step_energy,step_count,step_time,gait_state,movement,speed,incline,sys_time,eventFlags
259003,-44,-2074,178,-38,45,133,14195,9,-2,-343,-112,35436,-82,34,127,0,0,3785,-21,0,6043,736,111,7955,-4,0,79,13,258990,0
259013,-47,-2081,193,-39,38,129,14193,-1,-1,-351,-104,35439,-69,34,127,0,0,3788,0,0,6043,736,111,7965,-4,0,79,13,258990,0
259023,-56,-2088,194,-38,37,131,14194,3,7,-343,-112,35433,-74,34,127,0,0,3788,10,0,6043,736,111,7975,-4,0,79,13,259037,0
259033,-20,-2088,196,-40,35,120,14194,0,2,-319,-120,35444,-64,34,127,0,0,3788,-10,0,6043,736,111,7985,-4,0,79,13,259037,0
259043,-65,-2093,199,-48,39,114,14194,10,2,-322,-120,35437,-64,34,127,0,0,3785,-32,0,6043,736,111,7995,-4,0,79,13,259037,0
259053,-55,-2093,208,-50,34,103,14194,6,-2,-343,-72,35434,-63,34,127,0,0,3788,0,0,6043,736,111,8005,-4,0,79,13,259037,0
259063,-45,-2097,202,-57,31,94,14194,0,-1,-346,-112,35426,-77,34,127,0,0,3788,10,0,6043,736,111,8015,-4,0,79,13,259037,0
259073,-8,-2088,194,-60,25,85,14194,0,5,-321,-120,35430,-88,34,127,0,0,3788,0,0,6043,736,111,8025,-4,0,79,13,259053,0
259083,-35,-2088,193,-67,27,89,14193,7,-2,-337,-104,35441,-84,34,127,0,0,3788,10,0,6043,736,111,8035,-4,0,79,13,259053,0
259093,3,-2085,203,-75,31,82,14193,-6,-1,-350,-104,35445,-61,34,127,0,0,3785,0,0,6043,736,111,8045,-4,0,79,13,259068,0
259103,-11,-2081,202,-81,29,75,14195,8,0,-354,-80,35452,-71,34,127,0,0,3788,0,0,6043,736,111,8055,-4,0,79,13,259084,0
259113,-25,-2076,201,-89,33,84,14194,8,3,-351,-112,35453,-67,34,127,0,0,3785,-21,0,6043,736,111,8065,-4,0,79,13,259084,0
259123,-16,-2083,198,-88,36,81,14194,3,1,-371,-112,35444,-77,34,127,0,0,3783,-21,0,6043,736,111,8075,-4,0,79,13,259115,0
259133,5,-2077,201,-96,36,84,14191,-1,-2,-422,-128,35445,-62,34,127,0,0,3785,21,0,6043,736,111,8085,-4,0,79,13,259115,0
259143,4,-2082,198,-102,31,97,14192,-1,1,-421,-128,35439,-64,34,127,0,0,3783,10,0,6043,736,111,8095,-4,0,79,13,259115,0
259154,17,-2081,190,-100,37,111,14192,-5,2,-449,-128,35442,-91,34,127,0,0,3780,-27,0,6043,736,111,8106,-4,0,79,13,259131,0
259164,15,-2073,193,-103,37,132,14190,0,-5,-481,-152,35450,-95,34,127,0,0,3778,-49,0,6043,736,111,8116,-4,0,79,13,259147,0
259174,17,-2080,187,-111,39,139,14186,-12,-7,-525,-144,35443,-83,34,127,0,0,3784,54,0,6043,736,111,8126,-4,0,79,13,259162,0
259184,-15,-2078,189,-106,37,157,14184,-14,-2,-514,-136,35436,-82,34,127,0,0,3784,93,0,6043,736,111,8136,-4,0,79,13,259178,0
259194,33,-2077,177,-109,48,161,14183,1,2,-402,-88,35429,-80,34,127,0,0,3782,32,0,6043,736,111,8146,-4,0,79,13,259178,0
259204,19,-2079,180,-107,49,173,14185,-2,10,-374,-112,35431,-89,34,127,0,0,3783,0,0,6043,736,111,8156,-4,0,79,13,259193,0
259214,-12,-2080,181,-99,47,183,14185,0,-5,-369,-112,35439,-74,34,127,0,0,3786,16,0,6043,736,111,8166,-4,0,79,13,259193,0
259224,-26,-2083,185,-98,41,184,14186,1,2,-366,-120,35436,-85,34,127,0,0,3786,43,0,6043,736,111,8176,-4,0,79,13,259209,0
259234,-16,-2081,200,-105,39,205,14186,4,6,-337,-96,35451,-86,34,127,0,0,3785,5,0,6043,736,111,8186,-4,0,79,13,259209,0
259244,-28,-2082,188,-106,33,211,14187,5,3,-310,-96,35446,-96,34,127,0,0,3789,5,0,6043,736,111,8196,-4,0,79,13,259240,0
259254,-36,-2084,187,-110,35,212,14190,16,10,-218,-56,35443,-80,34,127,0,0,3793,21,0,6043,736,111,8206,-4,0,79,13,259240,0
259264,-27,-2090,165,-105,42,209,14194,2,8,-138,-16,35430,-79,34,127,0,0,3794,38,0,6043,736,111,8216,-4,0,79,13,259240,0
259274,-39,-2084,174,-104,29,210,14196,6,1,-55,0,35428,-74,34,127,0,0,3796,32,0,6043,736,111,8226,-4,0,79,13,259240,0
259284,-25,-2089,176,-95,38,209,14201,12,1,27,16,35439,-74,34,127,0,0,3799,5,0,6043,736,111,8236,-4,0,79,13,259256,0
259294,-44,-2093,194,-97,32,194,14201,-3,-5,44,16,35448,-77,34,127,0,0,3802,32,0,6043,736,111,8246,-4,0,79,13,259287,0
259304,-57,-2089,180,-91,44,179,14208,19,8,194,48,35447,-70,34,127,0,0,3803,-10,0,6043,736,111,8256,-4,0,79,13,259287,0
259314,-33,-2082,166,-93,40,177,14211,0,4,186,40,35436,-74,34,127,0,0,3803,0,0,6043,736,111,8266,-4,0,79,13,259287,0
259324,-57,-2090,175,-89,43,167,14213,11,-14,242,40,35423,-74,34,127,0,0,3806,-5,0,6043,736,111,8276,-4,0,79,13,259303,0
259334,-55,-2089,189,-88,37,156,14213,-3,-5,251,88,35436,-59,34,127,0,0,3807,65,0,6043,736,111,8286,-4,0,79,13,259318,0
259344,-47,-2094,195,-92,31,147,14220,18,8,303,72,35434,-44,34,127,0,0,3804,-27,0,6043,736,111,8296,-4,0,79,13,259334,0
259354,-61,-2096,179,-81,37,131,14218,1,-6,248,80,35428,-52,34,127,0,0,3807,16,0,6043,736,111,8306,-4,0,79,13,259334,0
259364,-73,-2085,162,-81,41,134,14217,-5,-1,250,56,35429,-57,34,127,0,0,3805,10,0,6043,736,111,8316,-4,0,79,13,259334,0
259374,-28,-2082,151,-73,35,119,14217,7,-3,242,56,35434,-71,34,127,0,0,3805,-5,0,6043,736,111,8326,-4,0,79,13,259350,0
259384,-13,-2078,166,-62,45,111,14218,-4,1,311,80,35444,-58,34,127,0,0,3807,-10,0,6043,736,111,8336,-4,0,79,13,259381,0
259394,-26,-2085,190,-67,39,131,14218,-13,-1,273,24,35445,-55,34,127,0,0,3806,-21,0,6043,736,111,8346,-4,0,79,13,259381,0
259404,-50,-2073,194,-68,45,130,14220,30,0,305,72,35448,-59,34,127,0,0,3804,-43,0,6043,736,111,8356,-4,0,79,13,259381,0
259415,-5,-2075,172,-69,36,123,14216,-24,2,173,72,35454,-74,34,127,0,0,3805,10,0,6043,736,111,8367,-4,0,79,13,259397,0
259425,-23,-2087,173,-61,41,122,14220,13,-3,234,40,35459,-62,34,127,0,0,3805,-10,0,6043,736,111,8377,-4,0,79,13,259412,0
259435,-50,-2082,172,-58,31,125,14219,3,5,263,80,35458,-58,34,127,0,0,3803,-32,0,6043,736,111,8387,-4,0,79,13,259412,0
259445,-76,-2083,186,-48,41,119,14217,-13,-16,212,40,35457,-50,34,127,0,0,3805,0,0,6043,736,111,8397,-4,0,79,13,259428,0
259455,-32,-2082,189,-52,34,122,14221,0,2,265,0,35450,-52,34,127,0,0,3807,-10,0,6043,736,111,8407,-4,0,79,13,259443,0
259465,-34,-2066,174,-41,39,130,14222,16,3,320,72,35436,-61,34,127,0,0,3805,-32,0,6043,736,111,8417,-4,0,79,13,259459,0
259475,-24,-2062,168,-37,39,124,14219,-4,-10,230,16,35433,-66,34,127,0,0,3805,0,0,6043,736,111,8427,-4,0,79,13,259459,0
259485,-18,-2074,164,-32,36,129,14220,6,0,215,48,35436,-71,34,127,0,0,3805,0,0,6043,736,111,8437,-4,0,79,13,259459,0
259495,-31,-2064,177,-31,38,124,14219,8,10,255,40,35456,-78,34,127,0,0,3803,-32,0,6043,736,111,8447,-4,0,79,13,259475,0
259505,-69,-2083,200,-30,37,130,14219,8,-10,257,40,35472,-85,34,127,0,0,3807,-10,0,6043,736,111,8457,-4,0,79,13,259553,0
259515,-69,-2087,212,-33,34,133,14215,-23,2,190,32,35467,-91,34,127,0,0,3803,0,0,6043,736,111,8467,-4,0,79,13,259553,0
259525,-14,-2090,207,-40,29,129,14218,0,-2,160,32,35459,-83,34,127,0,0,3805,21,0,6043,736,111,8477,-4,0,79,13,259568,0
259535,-39,-2097,196,-48,33,128,14219,9,14,202,64,35460,-79,34,127,0,0,3803,-21,0,6043,736,111,8487,-4,0,79,13,259568,0
259545,-20,-2093,199,-53,33,123,14215,-16,-10,164,32,35469,-78,34,127,0,0,3807,43,0,6043,736,111,8497,-4,0,79,13,259568,0
259555,-50,-2104,206,-56,32,134,14220,2,8,233,0,35464,-71,34,127,0,0,3803,-21,0,6043,736,111,8507,-4,0,79,13,259568,0
259565,-63,-2094,216,-67,31,121,14215,-1,-8,165,32,35458,-83,34,127,0,0,3803,0,0,6043,736,111,8517,-4,0,79,13,259568,0
259575,-41,-2103,214,-71,26,117,14216,-11,-3,166,32,35449,-77,34,127,0,0,3803,21,0,6043,736,111,8527,-4,0,79,13,259568,0
259585,-20,-2093,202,-78,25,105,14218,0,8,209,16,35446,-90,34,127,0,0,3803,-32,0,6043,736,111,8537,-4,0,79,13,259568,0
259595,-63,-2091,194,-78,27,106,14218,7,-1,173,32,35447,-76,34,127,0,0,3803,0,0,6043,736,111,8547,-4,0,79,13,259568,0
259605,-46,-2083,188,-77,33,101,14218,12,-1,181,32,35471,-83,34,127,0,0,3803,0,0,6043,736,111,8557,-4,0,79,13,259584,0
259615,-29,-2082,196,-81,35,95,14217,7,1,177,32,35488,-87,34,127,0,0,3803,0,0,6043,736,111,8567,-4,0,79,13,259615,0
259625,-35,-2079,204,-82,37,102,14216,-5,-3,105,24,35483,-81,34,127,0,0,3801,-10,0,6043,736,111,8577,-4,0,79,13,259615,0
259635,-42,-2075,193,-85,33,98,14214,7,3,86,32,35460,-94,34,127,0,0,3801,0,0,6043,736,111,8587,-4,0,79,13,259615,0
259645,-13,-2075,189,-83,36,98,14213,-15,1,109,8,35445,-102,34,127,0,0,3801,-10,0,6043,736,111,8597,-4,0,79,13,259615,0
259656,-12,-2081,192,-90,31,108,14213,2,-10,33,-8,35457,-105,34,127,0,0,3799,-38,0,6043,736,111,8608,-4,0,79,13,259646,0
259666,-31,-2082,198,-93,47,122,14212,1,10,12,16,35469,-94,34,127,0,0,3801,10,0,6043,736,111,8618,-4,0,79,13,259678,0
259676,-19,-2082,211,-96,37,129,14213,-3,6,48,40,35464,-75,34,127,0,0,3800,0,0,6043,736,111,8628,-4,0,79,13,259678,0
259686,37,-2081,195,-98,46,130,14212,-15,-5,21,0,35452,-90,34,127,0,0,3805,49,0,6043,736,111,8638,-4,0,79,13,259678,0
259696,-21,-2083,187,-100,43,149,14213,-5,-3,47,-8,35449,-94,34,127,0,0,3799,21,0,6043,736,111,8648,-4,0,79,13,259678,0
259706,-5,-2082,182,-95,47,157,14211,0,0,1,16,35452,-90,34,127,0,0,3801,38,0,6043,736,111,8658,-4,0,79,13,259678,0
259716,-14,-2088,196,-94,51,160,14211,-8,4,44,40,35459,-74,34,127,0,0,3803,38,0,6043,736,111,8668,-4,0,79,13,259725,0
259726,11,-2081,188,-90,41,169,14212,-19,-4,39,16,35456,-78,34,127,0,0,3804,65,0,6043,736,111,8678,-4,0,79,13,259725,0
259736,-54,-2081,189,-88,49,181,14215,16,3,70,-8,35460,-92,34,127,0,0,3805,43,0,6043,736,111,8688,-4,0,79,13,259725,0
259746,-58,-2077,189,-90,41,183,14217,28,8,170,32,35451,-88,34,127,0,0,3803,0,0,6043,736,111,8698,-4,0,79,13,259725,0
259756,-52,-2080,178,-81,43,172,14214,-4,-6,185,64,35457,-90,34,127,0,0,3802,5,0,6043,736,111,8708,-4,0,79,13,259725,0
259766,-26,-2092,187,-77,39,173,14215,0,-2,196,80,35461,-95,34,127,0,0,3807,54,0,6043,736,111,8718,-4,0,79,13,259756,0
259776,-55,-2087,191,-76,31,173,14219,1,11,279,48,35466,-104,34,127,0,0,3808,49,0,6043,736,111,8728,-4,0,79,13,259756,0
259786,-66,-2090,185,-75,50,157,14219,-1,-6,324,72,35470,-108,34,127,0,0,3807,0,0,6043,736,111,8738,-4,0,79,13,259756,0
259796,-52,-2091,187,-70,49,156,14219,-5,-10,305,72,35463,-115,34,127,0,0,3811,32,0,6043,736,111,8748,-4,0,79,13,259771,0
259806,-61,-2084,187,-79,46,142,14224,17,8,382,112,35459,-108,34,127,0,0,3808,-21,0,6043,736,111,8758,-4,0,79,13,259787,0
259816,-47,-2080,182,-74,40,133,14230,11,13,349,120,35459,-101,34,127,0,0,3814,49,0,6043,736,111,8768,-4,0,79,13,259803,0
259826,-26,-2090,194,-70,41,125,14231,-6,-2,302,96,35465,-90,34,127,0,0,3808,54,0,6043,736,111,8778,-4,0,79,13,259803,0
259836,-47,-2078,201,-75,38,117,14232,1,-12,319,96,35469,-83,34,127,0,0,3812,32,0,6043,736,111,8788,-4,0,79,13,259803,0
259846,-67,-2084,198,-71,34,102,14240,31,7,367,80,35470,-65,34,127,0,0,3815,5,0,6043,736,111,8798,-4,0,79,13,259834,0
259856,-80,-2076,202,-75,39,95,14250,20,24,290,32,35467,-69,34,127,0,0,3816,38,0,6043,736,111,8808,-4,0,79,13,259834,0
259866,-51,-2073,198,-79,30,83,14251,-3,-4,196,56,35462,-79,34,127,0,0,3812,60,0,6043,736,111,8818,-4,0,79,13,259834,0
259876,-56,-2079,190,-78,34,80,14251,-4,-24,175,8,35460,-77,34,127,0,0,3811,5,0,6043,736,111,8828,-4,0,79,13,259928,0
259886,-69,-2081,188,-79,38,58,14251,7,-2,195,8,35456,-72,34,127,0,0,3814,5,0,6043,736,111,8838,-4,0,79,13,259943,0
259896,-47,-2089,194,-76,38,51,14251,-4,5,172,8,35448,-73,34,127,0,0,3811,32,0,6043,736,111,8848,-4,0,79,13,259943,0
259906,-51,-2082,204,-84,36,33,14251,1,-1,139,8,35450,-73,34,127,0,0,3811,21,0,6043,736,111,8858,-4,0,79,13,259943,0
259916,-40,-2086,204,-88,44,12,14250,-2,7,97,-8,35454,-74,34,127,0,0,3805,-49,0,6043,736,111,8868,-4,0,79,13,259943,0
259926,-72,-2084,191,-94,47,-4,14243,-2,-15,16,-24,35456,-75,34,127,0,0,3803,-32,0,6043,736,111,8878,-4,0,79,13,259959,0
259936,-37,-2085,200,-90,44,-11,14238,-18,-4,-80,-32,35445,-70,34,127,0,0,3797,-49,0,6043,736,111,8888,-4,0,79,13,259959,0
259946,-29,-2086,212,-92,41,-26,14218,-53,-23,-84,-40,35441,-80,34,127,0,0,3796,-10,0,6043,736,111,8898,-4,0,79,13,259959,0
259956,-69,-2082,207,-100,47,-26,14205,-17,-16,-109,-40,35449,-83,34,127,0,0,3794,10,0,6043,736,111,8908,-4,0,79,13,259959,0
259966,-17,-2080,202,-106,38,-26,14203,-16,39,-289,-80,35455,-85,34,127,0,0,3786,10,0,6043,736,111,8918,-4,0,79,13,259959,0
259977,-40,-2071,185,-107,35,-31,14196,0,5,-348,-152,35456,-92,34,127,0,0,3781,-76,0,6043,736,111,8929,-4,0,79,13,259959,0
259987,-8,-2076,179,-104,41,-40,14189,-19,2,-474,-208,35471,-96,34,127,0,0,3777,-43,0,6043,736,111,8939,-4,0,79,13,259959,0
259997,-3,-2081,196,-98,43,-34,14172,-40,-24,-504,-192,35498,-98,34,127,0,0,3772,-32,0,6043,736,111,8949,-4,0,79,13,259990,0
260007,7,-2073,201,-104,36,-18,14137,-99,-44,-409,-160,35504,-99,34,127,0,0,3770,-21,0,6043,736,111,8959,-4,0,79,13,259990,0
260017,-25,-2081,197,-105,39,-3,14094,-86,-59,-271,-136,35482,-98,34,127,0,0,3766,-54,0,6043,736,111,8969,-4,0,79,13,260006,0
260027,13,-2076,193,-105,37,-16,14055,-63,-7,-130,-80,35448,-87,34,127,0,0,3761,-54,0,6043,736,111,8979,-4,0,79,13,260006,0
260037,43,-2077,187,-104,29,6,14052,5,84,-318,-120,35457,-92,34,127,0,0,3761,0,0,6043,736,111,8989,-4,0,79,13,260037,0
260047,-7,-2078,190,-105,29,20,14048,-15,70,-347,-136,35475,-81,34,127,0,0,3757,-32,0,6043,736,111,8999,-4,0,79,13,260037,0
260057,4,-2079,181,-99,33,28,14033,-45,-20,-339,-96,35473,-76,34,127,0,0,3755,-32,0,6043,736,111,9009,-4,0,79,13,260037,0
260067,16,-2084,186,-100,42,29,14000,-77,-62,-177,-88,35449,-73,34,127,0,0,3755,0,0,6043,736,111,9019,-4,0,79,13,260037,0
260077,7,-2080,201,-106,44,58,13994,8,16,-217,-88,35438,-78,34,127,0,0,3750,-32,0,6043,736,111,9029,-4,0,79,13,260053,0
260087,21,-2079,202,-100,28,57,13992,0,62,-293,-48,35454,-89,34,127,0,0,3746,-65,0,6043,736,111,9039,-4,0,79,13,260068,0
260097,-3,-2087,195,-105,25,79,13986,-22,2,-377,-80,35466,-90,34,127,0,0,3748,0,0,6043,736,111,9049,-4,0,79,13,260084,0
260107,-10,-2086,190,-113,33,89,13980,-22,-10,-341,-104,35458,-80,34,127,0,0,3746,21,0,6043,736,111,9059,-4,0,79,13,260084,0
260117,23,-2085,185,-110,33,97,13968,-36,-12,-327,-104,35446,-88,34,127,0,0,3744,10,0,6043,736,111,9069,-4,0,79,13,260099,0
260127,18,-2082,189,-108,31,105,13942,-55,-38,-113,-32,35455,-93,34,127,0,0,3746,0,0,6043,736,111,9079,-4,0,79,13,260115,0
260137,34,-2092,194,-111,26,113,13941,-3,22,-112,-64,35467,-101,34,127,0,0,3744,-10,0,6043,736,111,9089,-4,0,79,13,260115,0
260147,-9,-2093,192,-108,29,125,13940,0,51,-153,-48,35465,-112,34,127,0,0,3744,0,0,6043,736,111,9099,-4,0,79,13,260115,0
260158,3,-2100,190,-111,34,118,13939,-4,-7,-187,-72,35452,-113,34,127,0,0,3745,21,0,6043,736,111,9110,-4,0,79,13,260131,0
260168,-11,-2093,184,-110,37,119,13939,0,4,-159,-48,35455,-122,34,127,0,0,3747,32,0,6043,736,111,9120,-4,0,79,13,260162,0
260178,12,-2092,194,-111,29,128,13939,-10,3,-133,-48,35474,-107,34,127,0,0,3744,10,0,6043,736,111,9130,-4,0,79,13,260162,0
260188,2,-2086,190,-112,25,126,13940,3,0,-112,-48,35472,-104,34,127,0,0,3744,-21,0,6043,736,111,9140,-4,0,79,13,260162,0
260198,-47,-2080,186,-114,33,120,13938,-1,-3,-132,-48,35456,-92,34,127,0,0,3740,-38,0,6043,736,111,9150,-4,0,79,13,260178,0
260208,5,-2085,182,-106,31,112,13936,-13,-2,-204,-16,35447,-94,34,127,0,0,3743,10,0,6043,736,111,9160,-4,0,79,13,260193,0
260218,10,-2078,180,-111,36,106,13937,-12,5,-173,-16,35460,-100,34,127,0,0,3743,32,0,6043,736,111,9170,-4,0,79,13,260193,0
260228,15,-2073,182,-102,32,113,13939,-1,2,-130,-24,35464,-98,34,127,0,0,3743,-10,0,6043,736,111,9180,-4,0,79,13,260209,0
260238,-30,-2077,173,-105,27,116,13939,3,-3,-131,-48,35453,-100,34,127,0,0,3747,5,0,6043,736,111,9190,-4,0,79,13,260256,0
260248,-33,-2069,165,-97,27,124,13937,-12,-2,-125,-48,35451,-92,34,127,0,0,3744,10,0,6043,736,111,9200,-4,0,79,13,260271,0
260258,13,-2073,164,-94,35,116,13938,-1,3,-151,-48,35457,-116,34,127,0,0,3747,32,0,6043,736,111,9210,-4,0,79,13,260271,0
260268,-10,-2082,183,-93,32,121,13936,-4,2,-131,-48,35458,-113,34,127,0,0,3744,10,0,6043,736,111,9220,-4,0,79,13,260287,0
260278,12,-2083,198,-91,35,118,13938,0,-1,-126,-48,35445,-116,34,127,0,0,3744,-16,0,6043,736,111,9230,-4,0,79,13,260287,0
260288,-1,-2083,199,-94,37,123,13938,0,2,-107,-48,35433,-106,34,127,0,0,3747,0,0,6043,736,111,9240,-4,0,79,13,260318,0
260298,13,-2088,176,-99,34,133,13937,-3,-5,-143,-64,35436,-93,34,127,0,0,3745,10,0,6043,736,111,9250,-4,0,79,13,260318,0
260308,-15,-2092,167,-95,46,137,13939,14,8,-105,-48,35442,-88,34,127,0,0,3744,-43,0,6043,736,111,9260,-4,0,79,13,260318,0
260318,-12,-2087,171,-84,40,133,13937,5,0,-122,-16,35455,-85,34,127,0,0,3746,21,0,6043,736,111,9270,-4,0,79,13,260318,0
260328,2,-2087,182,-82,36,143,13937,-16,-2,-73,-24,35444,-91,34,127,0,0,3746,0,0,6043,736,111,9280,-4,0,79,13,260318,0
260338,25,-2095,193,-87,44,142,13938,-1,2,-125,-48,35445,-106,34,127,0,0,3747,43,0,6043,736,111,9290,-4,0,79,13,260318,0
260348,-7,-2090,190,-84,42,141,13940,11,3,-62,-24,35443,-106,34,127,0,0,3746,0,0,6043,736,111,9300,-4,0,79,13,260318,0
260358,-24,-2079,182,-85,43,145,13940,10,2,-61,-24,35453,-110,34,127,0,0,3743,-32,0,6043,736,111,9310,-4,0,79,13,260365,0
260368,2,-2088,180,-89,42,143,13937,-6,-5,-97,-16,35450,-88,34,127,0,0,3746,16,0,6043,736,111,9320,-4,0,79,13,260365,0
260378,-14,-2081,180,-83,48,139,13939,-3,2,-62,-24,35450,-86,34,127,0,0,3746,0,0,6043,736,111,9330,-4,0,79,13,260365,0
260388,-12,-2089,182,-80,41,143,13939,-1,4,-49,0,35439,-91,34,127,0,0,3745,0,0,6043,736,111,9340,-4,0,79,13,260381,0
260398,-20,-2086,183,-79,48,142,13938,-1,-3,-58,-24,35440,-105,34,127,0,0,3746,-5,0,6043,736,111,9350,-4,0,79,13,260381,0
260409,-21,-2083,185,-80,46,147,13939,2,1,-45,16,35436,-105,34,127,0,0,3746,-21,0,6043,736,111,9361,-4,0,79,13,260381,0
260419,6,-2079,183,-80,44,148,13938,-1,-1,-72,-24,35443,-98,34,127,0,0,3748,32,0,6043,736,111,9371,-4,0,79,13,260412,0
260429,9,-2085,190,-81,32,157,13938,-7,-3,-52,-24,35457,-120,34,127,0,0,3746,10,0,6043,736,111,9381,-4,0,79,13,260412,0
260439,10,-2082,196,-76,41,166,13940,5,6,-25,0,35464,-121,34,127,0,0,3748,10,0,6043,736,111,9391,-4,0,79,13,260412,0
260449,9,-2083,188,-78,49,167,13939,-11,-2,31,24,35451,-108,34,127,0,0,3750,43,0,6043,736,111,9401,-4,0,79,13,260443,0
260459,7,-2083,187,-80,38,180,13943,-6,3,47,24,35447,-101,34,127,0,0,3752,32,0,6043,736,111,9411,-4,0,79,13,260443,0
260469,-9,-2080,185,-86,45,191,13944,10,3,85,16,35444,-102,34,127,0,0,3752,32,0,6043,736,111,9421,-4,0,79,13,260459,0
260479,-32,-2082,180,-83,45,182,13946,9,0,159,32,35448,-103,34,127,0,0,3755,32,0,6043,736,111,9431,-4,0,79,13,260459,0
260489,-5,-2089,184,-86,42,191,13948,12,-1,222,48,35441,-86,34,127,0,0,3757,21,0,6043,736,111,9441,-4,0,79,13,260490,0
260499,-14,-2083,182,-80,50,191,13951,11,6,257,80,35448,-84,34,127,0,0,3757,10,0,6043,736,111,9451,-4,0,79,13,260490,0
260509,-12,-2084,181,-85,45,198,13953,6,-1,277,64,35446,-98,34,127,0,0,3759,32,0,6043,736,111,9461,-4,0,79,13,260490,0
260519,-26,-2077,181,-77,36,198,13958,14,0,342,120,35443,-105,34,127,0,0,3761,32,0,6043,736,111,9471,-4,0,79,13,260490,0
260529,-28,-2089,186,-81,44,211,13969,27,25,324,128,35442,-104,34,127,0,0,3761,0,0,6043,736,111,9481,-4,0,79,13,260521,0
260539,-16,-2087,191,-78,36,204,13986,48,26,251,120,35441,-88,34,127,0,0,3766,43,0,6043,736,111,9491,-4,0,79,13,260521,0
260549,-17,-2080,189,-81,33,200,14011,30,27,209,72,35433,-87,34,127,0,0,3770,32,0,6043,736,111,9501,-4,0,79,13,260521,0
260559,-49,-2085,180,-77,42,196,14009,0,-42,273,104,35433,-100,34,127,0,0,3770,43,0,6043,736,111,9511,-4,0,79,13,260552,0
260569,-15,-2083,181,-74,37,186,14013,-1,-32,318,88,35442,-88,34,127,0,0,3772,21,0,6043,736,111,9521,-4,0,79,13,260568,0
260579,-55,-2081,183,-73,43,179,14012,-2,1,336,128,35436,-71,34,127,0,0,3772,21,0,6043,736,111,9531,-4,0,79,13,260568,0
260589,-61,-2081,186,-76,27,164,14014,10,-1,361,112,35434,-61,34,127,0,0,3774,32,0,6043,736,111,9541,-4,0,79,13,260568,0
260599,-65,-2085,186,-74,29,152,14018,11,11,420,160,35430,-60,34,127,0,0,3777,21,0,6043,736,111,9551,-4,0,79,13,260568,0
260609,-61,-2077,179,-66,32,131,14024,17,16,410,112,35449,-62,34,127,0,0,3777,10,0,6043,736,111,9561,-4,0,79,13,260631,0
260619,-74,-2078,180,-74,34,116,14030,18,6,465,80,35452,-48,34,127,0,0,3777,-21,0,6043,736,111,9571,-4,0,79,13,260631,0
260629,-54,-2089,181,-71,35,98,14043,32,11,382,128,35433,-48,34,127,0,0,3777,-10,0,6043,736,111,9581,-4,0,79,13,260646,0
260639,-28,-2079,190,-75,33,94,14066,49,35,206,56,35425,-48,34,127,0,0,3777,-10,0,6043,736,111,9591,-4,0,79,13,260646,0
260649,-57,-2084,197,-77,25,82,14065,-12,-27,160,16,35421,-66,34,127,0,0,3777,10,0,6043,736,111,9601,-4,0,79,13,260646,0
260659,-50,-2085,195,-80,36,79,14068,10,-42,188,48,35429,-69,34,127,0,0,3774,-10,0,6043,736,111,9611,-4,0,79,13,260662,0
260670,-19,-2084,198,-82,36,67,14063,-11,1,135,32,35425,-49,34,127,0,0,3774,-5,0,6043,736,111,9622,-4,0,79,13,260662,0
260680,4,-2078,196,-85,27,71,14067,-1,-3,176,48,35422,-58,34,127,0,0,3777,-10,0,6043,736,111,9632,-4,0,79,13,260662,0
260690,-24,-2082,186,-84,30,76,14068,-1,4,201,72,35431,-69,34,127,0,0,3776,5,0,6043,736,111,9642,-4,0,79,13,260662,0
260700,-21,-2080,187,-83,32,72,14064,-18,-11,130,32,35457,-64,34,127,0,0,3774,10,0,6043,736,111,9652,-4,0,79,13,260709,0
260710,-9,-2087,192,-77,34,72,14066,-1,-4,144,56,35459,-39,34,127,0,0,3773,0,0,6043,736,111,9662,-4,0,79,13,260709,0
260720,-4,-2086,184,-87,33,75,14065,0,-1,118,32,35446,-44,34,127,0,0,3774,0,0,6043,736,111,9672,-4,0,79,13,260709,0
260730,-6,-2090,186,-83,32,73,14066,-5,-8,116,-16,35431,-60,34,127,0,0,3773,-38,0,6043,736,111,9682,-4,0,79,13,260724,0
260740,-22,-2082,186,-80,40,70,14066,20,1,102,32,35429,-81,34,127,0,0,3768,-71,0,6043,736,111,9692,-4,0,79,13,260724,0
260750,-13,-2087,175,-81,36,76,14060,-21,-6,13,40,35427,-65,34,127,0,0,3768,-16,0,6043,736,111,9702,-4,0,79,13,260724,0
260760,22,-2078,193,-81,35,89,14063,-7,1,10,8,35435,-51,34,127,0,0,3772,5,0,6043,736,111,9712,-4,0,79,13,260740,0
260770,-9,-2081,199,-81,34,92,14063,-2,1,15,-16,35436,-43,34,127,0,0,3770,-16,0,6043,736,111,9722,-4,0,79,13,260756,0
260780,-22,-2079,190,-83,37,89,14061,-1,-4,-16,-8,35442,-60,34,127,0,0,3770,0,0,6043,736,111,9732,-4,0,79,13,260756,0
260790,-3,-2087,193,-80,31,93,14058,-23,-8,-88,-24,35437,-66,34,127,0,0,3768,21,0,6043,736,111,9742,-4,0,79,13,260787,0
260800,-24,-2082,189,-89,38,94,14060,16,1,-71,-8,35437,-68,34,127,0,0,3767,-32,0,6043,736,111,9752,-4,0,79,13,260787,0
260810,-7,-2080,182,-82,40,91,14055,-14,2,-139,-16,35438,-57,34,127,0,0,3765,16,0,6043,736,111,9762,-4,0,79,13,260787,0
260820,-13,-2081,190,-86,33,94,14056,-1,-5,-137,-48,35449,-69,34,127,0,0,3766,-16,0,6043,736,111,9772,-4,0,79,13,260787,0
260830,-14,-2082,193,-78,29,92,14054,-3,6,-159,-40,35453,-62,34,127,0,0,3766,0,0,6043,736,111,9782,-4,0,79,13,260818,0
260840,-14,-2077,186,-80,33,93,14055,11,0,-164,-40,35448,-57,34,127,0,0,3766,0,0,6043,736,111,9792,-4,0,79,13,260818,0
260850,-24,-2087,179,-83,39,94,14055,2,4,-163,-64,35435,-63,34,127,0,0,3767,-5,0,6043,736,111,9802,-4,0,79,13,260818,0
260860,-33,-2083,187,-80,30,89,14051,-7,-2,-183,-56,35433,-73,34,127,0,0,3763,10,0,6043,736,111,9812,-4,0,79,13,260849,0
260870,-23,-2084,193,-83,30,83,14051,-3,-5,-157,-56,35447,-90,34,127,0,0,3763,-21,0,6043,736,111,9822,-4,0,79,13,260849,0
260880,-13,-2079,195,-77,32,78,14050,-4,1,-174,-56,35445,-87,34,127,0,0,3767,27,0,6043,736,111,9832,-4,0,79,13,260849,0
260890,-16,-2091,184,-81,37,77,14047,-13,3,-176,-24,35431,-69,34,127,0,0,3762,16,0,6043,736,111,9842,-4,0,79,13,260865,0
260900,-27,-2082,187,-83,32,76,14046,-11,3,-240,-48,35425,-61,34,127,0,0,3760,-10,0,6043,736,111,9852,-4,0,79,13,260881,0
260911,-26,-2082,189,-85,37,68,14043,1,-8,-178,-80,35436,-55,34,127,0,0,3761,-32,0,6043,736,111,9863,-4,0,79,13,260896,0
260921,-7,-2079,196,-81,35,68,14034,-29,-7,-251,-104,35443,-39,34,127,0,0,3763,43,0,6043,736,111,9873,-4,0,79,13,260896,0
260931,-44,-2083,189,-82,46,61,14008,-54,-40,-30,24,35434,-35,34,127,0,0,3757,-10,0,6043,736,111,9883,-4,0,79,13,260927,0
260941,-7,-2086,187,-84,43,61,14002,-4,3,-143,-16,35437,-44,34,127,0,0,3757,10,0,6043,736,111,9893,-4,0,79,13,260943,0
260951,-1,-2084,195,-86,36,60,14002,-1,56,-121,-64,35431,-63,34,127,0,0,3755,-21,0,6043,736,111,9903,-4,0,79,13,260943,0
260961,-16,-2081,191,-79,32,62,14000,-5,8,-161,-48,35436,-81,34,127,0,0,3755,-10,0,6043,736,111,9913,-4,0,79,13,260959,0
260971,-18,-2080,183,-87,39,61,13997,-12,-7,-225,-32,35430,-69,34,127,0,0,3750,-21,0,6043,736,111,9923,-4,0,79,13,260959,0
260981,5,-2077,178,-87,41,58,13993,-13,-2,-288,-80,35425,-56,34,127,0,0,3750,0,0,6043,736,111,9933,-4,0,79,13,260959,0
260991,-21,-2089,186,-79,45,60,13986,-13,-8,-304,-96,35431,-61,34,127,0,0,3748,0,0,6043,736,111,9943,-4,0,79,13,260959,0
261001,-14,-2088,190,-81,37,51,13979,-17,-6,-293,-104,35443,-64,34,127,0,0,3746,-43,0,6043,736,111,9953,-4,0,79,13,261006,0
261011,-10,-2084,190,-84,30,63,13963,-42,-12,-262,-56,35446,-61,34,127,0,0,3744,-21,0,6043,736,111,9963,-4,0,79,13,261006,0
261021,-23,-2081,186,-83,42,39,13937,-34,-44,-66,-56,35440,-69,34,127,0,0,3741,-54,0,6043,736,111,9973,-4,0,79,13,261021,0
261031,13,-2088,189,-86,31,53,13936,-2,36,-202,-64,35433,-71,34,127,0,0,3741,0,0,6043,736,111,9983,-4,0,79,13,261021,0
261041,0,-2073,189,-82,30,59,13936,2,48,-202,-64,35435,-97,34,127,0,0,3741,-10,0,6043,736,111,9993,-4,0,79,13,261021,0
261051,-3,-2079,183,-83,35,57,13936,5,-4,-223,-96,35441,-96,34,127,0,0,3737,-65,0,6043,736,111,10003,-4,0,79,13,261037,0
261061,-4,-2080,185,-78,37,62,13927,-26,-7,-323,-96,35439,-91,34,127,0,0,3737,0,0,6043,736,111,10013,-4,0,79,13,261037,0
261071,-8,-2084,192,-84,43,61,13924,-7,-5,-314,-160,35443,-95,34,127,0,0,3735,-43,0,6043,736,111,10023,-4,0,79,13,261084,0
261081,1,-2083,199,-87,35,62,13918,-20,5,-360,-136,35449,-106,34,127,0,0,3733,-10,0,6043,736,111,10033,-4,0,79,13,261084,0
261091,-6,-2085,193,-88,29,57,13906,-31,-12,-341,-96,35440,-111,34,127,0,0,3733,0,0,6043,736,111,10043,-4,0,79,13,261084,0
261101,2,-2085,177,-78,33,61,13891,-42,-19,-252,-72,35436,-109,34,127,0,0,3733,-10,0,6043,736,111,10053,-4,0,79,13,261099,0
261111,-13,-2085,182,-82,46,52,13873,-23,-15,-175,-56,35428,-96,34,127,0,0,3730,0,0,6043,736,111,10063,-4,0,79,13,261099,0
261121,18,-2083,189,-80,34,58,13874,2,32,-247,-80,35431,-109,34,127,0,0,3728,-21,0,6043,736,111,10073,-4,0,79,13,261099,0
261131,-4,-2086,187,-75,26,56,13872,5,31,-261,-80,35442,-124,34,127,0,0,3726,-21,0,6043,736,111,10083,-4,0,79,13,261130,0
261141,1,-2081,190,-82,30,46,13868,-22,-8,-306,-72,35446,-128,34,127,0,0,3726,-10,0,6043,736,111,10093,-4,0,79,13,261130,0
261151,-18,-2086,190,-81,32,46,13867,-5,-8,-361,-112,35445,-123,34,127,0,0,3724,0,0,6043,736,111,10103,-4,0,79,13,261130,0
261161,-1,-2082,192,-82,37,36,13860,-6,-8,-365,-104,35438,-124,34,127,0,0,3722,-32,0,6043,736,111,10113,-4,0,79,13,261130,0
261172,8,-2082,199,-84,40,31,13852,-16,-2,-375,-104,35437,-124,34,127,0,0,3718,-32,0,6043,736,111,10124,-4,0,79,13,261162,0
261182,16,-2084,198,-87,30,36,13840,-46,-13,-378,-128,35440,-118,34,127,0,0,3721,-5,0,6043,736,111,10134,-4,0,79,13,261162,0
261192,-1,-2085,189,-91,30,30,13803,-93,-62,-210,-80,35437,-97,34,127,0,0,3712,-49,0,6043,736,111,10144,-4,0,79,13,261162,0
261202,-12,-2082,185,-88,47,23,13791,9,-2,-279,-80,35440,-84,34,127,0,0,3710,-32,0,6043,736,111,10154,-4,0,79,13,261209,0
261212,53,-2081,195,-86,36,32,13790,-12,80,-385,-104,35446,-82,34,127,0,0,3707,-32,0,6043,736,111,10164,-4,0,79,13,261209,0
261222,20,-2090,201,-92,29,38,13786,-14,10,-425,-112,35448,-77,34,127,0,0,3705,-32,0,6043,736,111,10174,-4,0,79,13,261209,0
261232,12,-2082,195,-92,31,35,13777,-35,-11,-493,-152,35443,-65,34,127,0,0,3704,10,0,6043,736,111,10184,-4,0,79,13,261209,0
261242,8,-2084,191,-93,43,24,13753,-58,-45,-337,-128,35433,-65,34,127,0,0,3708,0,0,6043,736,111,10194,-4,0,79,13,261209,0
261252,6,-2081,184,-92,48,27,13740,-9,-10,-314,-96,35436,-73,34,127,0,0,3702,27,0,6043,736,111,10204,-4,0,79,13,261240,0
261262,42,-2076,196,-101,32,46,13740,-12,54,-412,-144,35441,-63,34,127,0,0,3701,10,0,6043,736,111,10214,-4,0,79,13,261240,0
261272,5,-2077,190,-98,31,46,13736,3,14,-410,-152,35435,-56,34,127,0,0,3695,-38,0,6043,736,111,10224,-4,0,79,13,261240,0
261282,21,-2079,179,-99,44,41,13734,-3,0,-455,-152,35435,-55,34,127,0,0,3692,-49,0,6043,736,111,10234,-4,0,79,13,261271,0
261292,28,-2087,186,-92,48,42,13729,-16,3,-508,-192,35442,-76,34,127,0,0,3694,-21,0,6043,736,111,10244,-4,0,79,13,261271,0
261302,19,-2091,194,-90,38,52,13721,-16,-16,-504,-176,35444,-88,34,127,0,0,3691,-10,0,6043,736,111,10254,-4,0,79,13,261271,0
261312,30,-2089,195,-92,35,60,13696,-71,-38,-433,-176,35434,-77,34,127,0,0,3690,-16,0,6043,736,111,10264,-4,0,79,13,261302,0
261322,-7,-2080,179,-92,44,53,13655,-75,-68,-233,-120,35424,-88,34,127,0,0,3688,-49,0,6043,736,111,10274,-4,0,79,13,261318,0
261332,31,-2082,182,-92,42,62,13622,-83,-6,-196,-80,35431,-84,34,127,0,0,3685,10,0,6043,736,111,10284,-4,0,79,13,261318,0
261342,8,-2084,176,-92,48,69,13613,27,59,-106,-48,35433,-90,34,127,0,0,3682,-27,0,6043,736,111,10294,-4,0,79,13,261318,0
261352,66,-2081,193,-93,32,76,13611,-10,71,-174,-72,35427,-81,34,127,0,0,3680,-38,0,6043,736,111,10304,-4,0,79,13,261412,0
261362,39,-2087,192,-91,35,83,13610,0,11,-252,-72,35427,-89,34,127,0,0,3680,10,0,6043,736,111,10314,-4,0,79,13,261412,0
261372,37,-2083,180,-92,37,94,13611,-2,2,-245,-72,35429,-86,34,127,0,0,3680,0,0,6043,736,111,10324,-4,0,79,13,261412,0
261382,40,-2086,187,-90,37,99,13611,-4,3,-248,-96,35428,-102,34,127,0,0,3681,-5,0,6043,736,111,10334,-4,0,79,13,261412,0
261392,34,-2080,194,-90,40,108,13611,3,-5,-269,-72,35422,-99,34,127,0,0,3677,-16,0,6043,736,111,10344,-4,0,79,13,261412,0
261402,27,-2083,187,-93,28,114,13611,1,-2,-282,-120,35418,-87,34,127,0,0,3676,-71,0,6043,736,111,10354,-4,0,79,13,261427,0
261412,36,-2079,187,-88,36,113,13609,6,-11,-309,-112,35416,-82,34,127,0,0,3676,-60,0,6043,736,111,10364,-4,0,79,13,261427,0
261422,23,-2083,178,-89,38,120,13607,0,0,-324,-112,35423,-82,34,127,0,0,3676,-32,0,6043,736,111,10374,-4,0,79,13,261427,0
261432,9,-2083,184,-83,38,118,13605,-4,-1,-348,-104,35424,-88,34,127,0,0,3676,-27,0,6043,736,111,10384,-4,0,79,13,261427,0
261443,49,-2077,176,-85,41,120,13603,-1,1,-378,-104,35422,-86,34,127,0,0,3676,0,0,6043,736,111,10395,-4,0,79,13,261427,0
261453,21,-2083,184,-84,36,126,13603,-5,4,-376,-104,35417,-88,34,127,0,0,3673,-10,0,6043,736,111,10405,-4,0,79,13,261427,0
261463,42,-2087,184,-77,28,128,13604,2,4,-321,-128,35431,-94,34,127,0,0,3676,-32,0,6043,736,111,10415,-4,0,79,13,261443,0
261473,-17,-2073,191,-70,33,138,13602,-5,-8,-364,-96,35454,-85,34,127,0,0,3676,10,0,6043,736,111,10425,-4,0,79,13,261474,0
261483,33,-2076,195,-80,40,135,13604,-3,7,-314,-128,35451,-82,34,127,0,0,3676,-10,0,6043,736,111,10435,-4,0,79,13,261474,0
261493,7,-2070,190,-86,33,130,13602,1,4,-329,-112,35443,-76,34,127,0,0,3678,10,0,6043,736,111,10445,-4,0,79,13,261474,0
261503,2,-2083,189,-76,36,137,13604,7,-4,-318,-112,35427,-69,34,127,0,0,3678,0,0,6043,736,111,10455,-4,0,79,13,261474,0
261513,23,-2091,184,-79,47,146,13604,3,1,-300,-32,35425,-71,34,127,0,0,3678,0,0,6043,736,111,10465,-4,0,79,13,261490,0
261523,45,-2084,191,-78,44,140,13604,-6,-6,-271,-56,35430,-77,34,127,0,0,3676,-21,0,6043,736,111,10475,-4,0,79,13,261505,0
261533,-26,-2076,190,-72,39,135,13602,-3,-13,-353,-112,35429,-91,34,127,0,0,3678,32,0,6043,736,111,10485,-4,0,79,13,261505,0
261543,25,-2077,194,-75,33,140,13603,-5,8,-295,-40,35429,-100,34,127,0,0,3678,21,0,6043,736,111,10495,-4,0,79,13,261521,0
261553,17,-2086,188,-76,40,135,13605,3,0,-268,-80,35432,-107,34,127,0,0,3680,10,0,6043,736,111,10505,-4,0,79,13,261537,0
261563,12,-2083,185,-72,33,140,13605,5,0,-213,-64,35430,-91,34,127,0,0,3680,0,0,6043,736,111,10515,-4,0,79,13,261537,0
261573,10,-2080,183,-73,45,136,13605,0,-2,-237,-48,35428,-84,34,127,0,0,3680,10,0,6043,736,111,10525,-4,0,79,13,261552,0
261583,34,-2079,182,-69,42,132,13604,-1,-1,-220,-64,35422,-73,34,127,0,0,3680,0,0,6043,736,111,10535,-4,0,79,13,261599,0
261593,25,-2076,182,-72,38,139,13604,2,1,-221,-96,35426,-82,34,127,0,0,3682,21,0,6043,736,111,10545,-4,0,79,13,261599,0
261603,-7,-2086,187,-72,38,147,13605,9,1,-200,-64,35427,-89,34,127,0,0,3680,0,0,6043,736,111,10555,-4,0,79,13,261615,0
261613,10,-2086,197,-73,41,143,13607,8,1,-206,-64,35425,-85,34,127,0,0,3680,-10,0,6043,736,111,10565,-4,0,79,13,261615,0
261623,21,-2084,190,-75,36,134,13605,3,0,-196,-64,35415,-91,34,127,0,0,3680,-10,0,6043,736,111,10575,-4,0,79,13,261615,0
261633,31,-2085,190,-71,34,130,13605,-5,1,-166,-72,35418,-77,34,127,0,0,3682,21,0,6043,736,111,10585,-4,0,79,13,261615,0
261643,6,-2090,190,-73,32,138,13607,7,1,-149,-40,35425,-88,34,127,0,0,3682,0,0,6043,736,111,10595,-4,0,79,13,261630,0
261654,10,-2084,189,-74,37,128,13606,1,0,-171,-40,35432,-73,34,127,0,0,3685,60,0,6043,736,111,10606,-4,0,79,13,261630,0
261664,6,-2080,184,-74,34,122,13608,0,5,-109,-64,35449,-82,34,127,0,0,3683,-21,0,6043,736,111,10616,-4,0,79,13,261662,0
261674,-5,-2086,188,-78,30,122,13609,14,2,-119,-40,35457,-93,34,127,0,0,3685,0,0,6043,736,111,10626,-4,0,79,13,261662,0
261684,-1,-2080,193,-71,32,116,13608,3,-1,-87,-16,35457,-103,34,127,0,0,3681,0,0,6043,736,111,10636,-4,0,79,13,261662,0
261694,24,-2083,188,-75,39,103,13608,3,-2,-129,-40,35432,-102,34,127,0,0,3682,-16,0,6043,736,111,10646,-4,0,79,13,261677,0
261704,14,-2074,195,-72,35,105,13608,5,1,-108,-16,35418,-92,34,127,0,0,3684,16,0,6043,736,111,10656,-4,0,79,13,261693,0
261714,23,-2077,194,-75,33,105,13607,-14,-6,-117,-40,35425,-101,34,127,0,0,3685,43,0,6043,736,111,10666,-4,0,79,13,261693,0
261724,7,-2088,193,-78,34,108,13610,4,1,-100,-48,35430,-91,34,127,0,0,3685,10,0,6043,736,111,10676,-4,0,79,13,261771,0
261734,22,-2086,197,-78,31,111,13609,6,8,-95,-48,35436,-102,34,127,0,0,3682,-16,0,6043,736,111,10686,-4,0,79,13,261787,0
261744,10,-2085,200,-81,33,111,13608,6,-7,-158,-40,35435,-82,34,127,0,0,3685,32,0,6043,736,111,10696,-4,0,79,13,261787,0
261754,37,-2080,188,-80,27,105,13607,-1,1,-131,-40,35433,-84,34,127,0,0,3679,-21,0,6043,736,111,10706,-4,0,79,13,261787,0
261764,28,-2089,184,-80,30,102,13608,11,0,-128,-40,35431,-78,34,127,0,0,3682,-43,0,6043,736,111,10716,-4,0,79,13,261787,0
261774,-14,-2075,188,-73,36,110,13608,0,5,-127,-16,35420,-93,34,127,0,0,3684,10,0,6043,736,111,10726,-4,0,79,13,261787,0
261784,16,-2081,192,-74,28,112,13606,-16,-5,-154,-64,35418,-80,34,127,0,0,3687,54,0,6043,736,111,10736,-4,0,79,13,261787,0
261794,52,-2085,189,-77,33,102,13608,6,4,-145,-16,35417,-70,34,127,0,0,3678,-16,0,6043,736,111,10746,-4,0,79,13,261787,0
261804,35,-2078,192,-76,26,106,13607,1,0,-175,-40,35424,-66,34,127,0,0,3685,21,0,6043,736,111,10756,-4,0,79,13,261787,0
261814,29,-2080,190,-81,29,102,13608,0,-1,-100,-16,35425,-64,34,127,0,0,3684,32,0,6043,736,111,10766,-4,0,79,13,261787,0
261824,14,-2080,190,-77,29,117,13607,-5,1,-128,-40,35424,-68,34,127,0,0,3682,10,0,6043,736,111,10776,-4,0,79,13,261802,0
261834,23,-2083,184,-79,33,105,13608,11,2,-136,-40,35447,-76,34,127,0,0,3685,16,0,6043,736,111,10786,-4,0,79,13,261833,0
261844,-12,-2086,189,-78,34,104,13607,2,1,-127,-40,35468,-88,34,127,0,0,3682,10,0,6043,736,111,10796,-4,0,79,13,261833,0
261854,26,-2088,189,-76,38,103,13607,0,-7,-159,-64,35471,-96,34,127,0,0,3683,-5,0,6043,736,111,10806,-4,0,79,13,261833,0
261864,19,-2088,191,-77,38,103,13607,9,-1,-156,-40,35449,-96,34,127,0,0,3679,-32,0,6043,736,111,10816,-4,0,79,13,261833,0
261874,14,-2089,193,-77,32,102,13607,5,0,-179,-64,35435,-94,34,127,0,0,3683,-10,0,6043,736,111,10826,-4,0,79,13,261865,0
261884,9,-2089,197,-78,40,108,13607,5,-2,-184,-40,35448,-111,34,127,0,0,3682,32,0,6043,736,111,10836,-4,0,79,13,261865,0
261894,37,-2087,187,-79,41,108,13606,-11,1,-191,-40,35452,-103,34,127,0,0,3682,32,0,6043,736,111,10846,-4,0,79,13,261880,0
261905,39,-2075,188,-71,30,109,13605,-10,3,-241,-48,35425,-82,34,127,0,0,3682,21,0,6043,736,111,10857,-4,0,79,13,261880,0
261915,16,-2083,189,-75,35,112,13607,12,2,-215,-64,35431,-85,34,127,0,0,3680,0,0,6043,736,111,10867,-4,0,79,13,261912,0
261925,25,-2079,196,-74,38,111,13606,5,2,-215,-64,35439,-70,34,127,0,0,3680,0,0,6043,736,111,10877,-4,0,79,13,261912,0
261935,28,-2083,196,-76,35,120,13605,-1,-6,-228,-64,35434,-75,34,127,0,0,3680,10,0,6043,736,111,10887,-4,0,79,13,261912,0
261945,13,-2087,197,-78,35,118,13606,4,8,-228,-64,35435,-68,34,127,0,0,3680,0,0,6043,736,111,10897,-4,0,79,13,261912,0
261955,15,-2089,198,-72,42,118,13607,3,-2,-220,-96,35445,-84,34,127,0,0,3678,-21,0,6043,736,111,10907,-4,0,79,13,261958,0
261965,30,-2089,194,-76,35,120,13606,0,-4,-233,-64,35452,-92,34,127,0,0,3680,0,0,6043,736,111,10917,-4,0,79,13,261958,0
261975,21,-2085,184,-73,32,121,13604,-5,3,-225,-56,35450,-90,34,127,0,0,3682,54,0,6043,736,111,10927,-4,0,79,13,261958,0
261985,33,-2090,188,-79,36,118,13607,0,1,-196,-64,35431,-83,34,127,0,0,3680,-21,0,6043,736,111,10937,-4,0,79,13,261974,0
261995,31,-2088,188,-73,42,122,13605,2,-3,-266,-48,35427,-84,34,127,0,0,3680,32,0,6043,736,111,10947,-4,0,79,13,261974,0
262005,20,-2081,187,-73,37,116,13605,-2,-1,-216,-64,35429,-82,34,127,0,0,3680,0,0,6043,736,111,10957,-4,0,79,13,261990,0
262015,18,-2081,190,-78,28,111,13606,4,-1,-218,-64,35442,-81,34,127,0,0,3680,0,0,6043,736,111,10967,-4,0,79,13,261990,0
262025,11,-2072,190,-74,44,122,13606,4,-1,-205,-64,35438,-83,34,127,0,0,3680,-10,0,6043,736,111,10977,-4,0,79,13,262005,0
262035,11,-2080,196,-74,32,121,13604,-17,-2,-258,-48,35438,-76,34,127,0,0,3676,-21,0,6043,736,111,10987,-4,0,79,13,262021,0
262045,3,-2071,181,-69,36,109,13605,5,0,-248,-72,35433,-88,34,127,0,0,3680,-10,0,6043,736,111,10997,-4,0,79,13,262021,0
262055,5,-2077,186,-72,33,112,13604,-13,1,-226,-24,35446,-98,34,127,0,0,3678,0,0,6043,736,111,11007,-4,0,79,13,262052,0
262065,-1,-2067,192,-68,40,104,13603,-18,-5,-277,-48,35449,-102,34,127,0,0,3680,0,0,6043,736,111,11017,-4,0,79,13,262052,0
262075,5,-2080,191,-70,41,109,13604,-2,-1,-292,-48,35448,-91,34,127,0,0,3680,43,0,6043,736,111,11027,-4,0,79,13,262052,0
262085,27,-2080,193,-71,41,92,13604,-3,-2,-282,-48,35439,-75,34,127,0,0,3680,21,0,6043,736,111,11037,-4,0,79,13,262083,0
262095,0,-2085,194,-74,37,90,13603,-7,-3,-318,-104,35437,-81,34,127,0,0,3676,0,0,6043,736,111,11047,-4,0,79,13,262115,0
262105,-14,-2096,196,-72,43,64,13600,-3,-7,-371,-136,35448,-90,34,127,0,0,3673,-21,0,6043,736,111,11057,-4,0,79,13,262130,0
262115,5,-2088,195,-66,49,51,13601,0,1,-406,-120,35448,-84,34,127,0,0,3673,0,0,6043,736,111,11067,-4,0,79,13,262130,0
262125,6,-2087,195,-70,45,40,13599,-2,2,-387,-152,35447,-85,34,127,0,0,3671,-32,0,6043,736,111,11077,-4,0,79,13,262130,0
262135,24,-2078,202,-69,50,40,13594,-8,-8,-422,-136,35444,-86,34,127,0,0,3671,0,0,6043,736,111,11087,-4,0,79,13,262130,0
262145,38,-2085,206,-72,38,39,13589,-21,-7,-491,-96,35436,-85,34,127,0,0,3665,-10,0,6043,736,111,11097,-4,0,79,13,262130,0
262156,28,-2089,199,-69,39,38,13555,-103,-51,-415,-152,35434,-91,34,127,0,0,3662,-32,0,6043,736,111,11108,-4,0,79,13,262130,0
262166,6,-2094,195,-78,53,33,13514,-73,-70,-249,-88,35443,-72,34,127,0,0,3660,-32,0,6043,736,111,11118,-4,0,79,13,262146,0
262176,67,-2092,207,-72,46,40,13484,-56,2,-84,-32,35462,-82,34,127,0,0,3654,-82,0,6043,736,111,11128,-4,0,79,13,262177,0
262186,69,-2092,200,-76,34,56,13481,3,75,-258,-72,35471,-76,34,127,0,0,3656,0,0,6043,736,111,11138,-4,0,79,13,262177,0
262196,48,-2083,188,-82,33,61,13480,1,56,-257,-96,35466,-72,34,127,0,0,3657,-5,0,6043,736,111,11148,-4,0,79,13,262177,0
262206,27,-2078,185,-73,41,63,13479,-1,-4,-283,-112,35443,-56,34,127,0,0,3655,-27,0,6043,736,111,11158,-4,0,79,13,262177,0
262216,28,-2060,187,-71,48,63,13470,-13,-14,-330,-120,35446,-58,34,127,0,0,3649,-21,0,6043,736,111,11168,-4,0,79,13,262224,0
262226,48,-2065,218,-77,44,70,13465,-5,-8,-361,-112,35474,-66,34,127,0,0,3646,-21,0,6043,736,111,11178,-4,0,79,13,262224,0
262236,47,-2064,230,-88,28,71,13459,-10,8,-407,-120,35480,-66,34,127,0,0,3647,-27,0,6043,736,111,11188,-4,0,79,13,262240,0
262246,21,-2075,219,-91,30,78,13443,-40,-19,-334,-120,35471,-66,35,127,0,0,3645,-10,0,6043,736,111,11198,-4,0,79,13,262240,0
262256,14,-2080,198,-95,35,61,13423,-35,-30,-240,-48,35458,-72,34,127,0,0,3644,-21,0,6043,736,111,11208,-4,0,79,13,262240,0
262266,41,-2069,174,-94,44,54,13423,3,35,-287,-120,35457,-74,34,127,0,0,3640,-49,0,6043,736,111,11218,-4,0,79,13,262240,0
262276,45,-2090,180,-89,44,47,13419,-7,26,-356,-112,35462,-78,34,127,0,0,3640,0,0,6043,736,111,11228,-4,0,79,13,262271,0
262286,56,-2107,207,-83,38,58,13416,-12,-3,-437,-136,35466,-73,34,127,0,0,3638,27,0,6043,736,111,11238,-4,0,79,13,262286,0
262296,40,-2104,207,-89,51,59,13413,-8,-2,-465,-120,35466,-89,34,127,0,0,3635,5,0,6043,736,111,11248,-4,0,79,13,262286,0
262306,74,-2103,214,-96,43,78,13409,-10,-3,-530,-160,35457,-95,34,127,0,0,3630,-21,0,6043,736,111,11258,-4,0,79,13,262286,0
262316,70,-2098,222,-102,37,81,13402,-4,-3,-512,-176,35460,-116,34,127,0,0,3632,-60,0,6043,736,111,11268,-4,0,79,13,262286,0
262326,54,-2103,211,-112,31,111,13399,-6,-1,-547,-168,35473,-114,34,127,0,0,3632,-10,0,6043,736,111,11278,-4,0,79,13,262318,0
262336,53,-2092,214,-120,39,115,13390,-12,0,-469,-152,35477,-133,34,127,0,0,3628,-43,0,6043,736,111,11288,-4,0,79,13,262318,0
262346,65,-2069,204,-120,40,125,13372,-52,-26,-418,-144,35471,-121,34,127,0,0,3629,-16,0,6043,736,111,11298,-4,0,79,13,262318,0
262356,48,-2079,192,-127,46,125,13345,-43,-40,-244,-80,35471,-132,34,127,0,0,3629,-16,0,6043,736,111,11308,-4,0,79,13,262365,0
262366,46,-2075,190,-131,35,133,13346,13,42,-282,-80,35467,-111,34,127,0,0,3633,16,0,6043,736,111,11318,-4,0,79,13,262365,0
262376,36,-2069,202,-135,38,142,13344,-7,50,-289,-80,35466,-101,34,127,0,0,3629,10,0,6043,736,111,11328,-4,0,79,13,262365,0
262386,51,-2085,197,-137,54,145,13345,5,4,-310,-80,35457,-96,34,127,0,0,3629,0,0,6043,736,111,11338,-4,0,79,13,262365,0
262397,35,-2082,197,-142,50,145,13346,12,7,-291,-80,35453,-108,34,127,0,0,3629,-10,0,6043,736,111,11349,-4,0,79,13,262380,0
262407,52,-2081,206,-148,45,150,13344,-5,-2,-296,-80,35459,-115,34,127,0,0,3629,10,0,6043,736,111,11359,-4,0,79,13,262396,0
262417,54,-2075,207,-154,37,153,13346,5,6,-267,-88,35468,-100,34,127,0,0,3629,-21,0,6043,736,111,11369,-4,0,79,13,262396,0
262427,39,-2077,201,-171,46,162,13346,14,1,-261,-56,35466,-95,34,127,0,0,3632,0,0,6043,736,111,11379,-4,0,79,13,262396,0
262437,45,-2076,209,-172,43,170,13346,-3,-2,-224,-96,35459,-95,34,127,0,0,3629,-32,0,6043,736,111,11389,-4,0,79,13,262427,0
262447,34,-2059,200,-171,56,175,13346,9,-4,-271,-56,35452,-107,34,127,0,0,3632,21,0,6043,736,111,11399,-4,0,79,13,262427,0
262457,34,-2063,195,-176,43,184,13347,4,4,-221,-64,35446,-107,34,127,0,0,3632,0,0,6043,736,111,11409,-4,0,79,13,262427,0
262467,41,-2053,194,-180,44,193,13347,7,-2,-223,-24,35459,-118,34,127,0,0,3634,32,0,6043,736,111,11419,-4,0,79,13,262443,0
262477,41,-2059,181,-187,31,196,13346,-12,-6,-202,-24,35457,-112,34,127,0,0,3634,21,0,6043,736,111,11429,-4,0,79,13,262474,0
262487,35,-2077,173,-177,43,195,13351,27,4,-107,-56,35463,-123,34,127,0,0,3638,10,0,6043,736,111,11439,-4,0,79,13,262474,0
262497,11,-2075,172,-180,41,191,13352,0,5,8,0,35446,-115,34,127,0,0,3638,0,0,6043,736,111,11449,-4,0,79,13,262474,0
262507,9,-2054,182,-185,44,180,13354,6,-13,40,24,35443,-100,34,127,0,0,3638,0,0,6043,736,111,11459,-4,0,79,13,262490,0
262517,5,-2115,187,-183,46,161,13357,-7,0,28,16,35438,-101,34,127,0,0,3638,-21,0,6043,736,111,11469,-4,0,79,13,262490,0
262527,14,-2117,168,-182,49,158,13355,-3,-14,-2,24,35446,-102,34,127,0,0,3640,32,0,6043,736,111,11479,-4,0,79,13,262505,0
262537,29,-2110,158,-171,35,140,13356,-8,-4,22,16,35453,-113,34,127,0,0,3640,43,0,6043,736,111,11489,-4,0,79,13,262536,0
262547,50,-2111,183,-169,45,134,13358,-10,2,28,16,35456,-119,34,127,0,0,3640,0,0,6043,736,111,11499,-4,0,79,13,262536,0
262557,13,-2115,196,-179,37,120,13359,13,-3,30,8,35455,-112,34,127,0,0,3640,0,0,6043,736,111,11509,-4,0,79,13,262552,0
262567,9,-2112,182,-177,38,119,13357,0,-4,48,8,35448,-115,34,127,0,0,3640,0,0,6043,736,111,11519,-4,0,79,13,262552,0
262577,9,-2104,165,-178,28,106,13358,1,-6,46,16,35456,-120,34,127,0,0,3640,0,0,6043,736,111,11529,-4,0,79,13,262552,0
262587,-2,-2125,152,-161,26,92,13357,-1,5,42,-24,35456,-120,34,127,0,0,3638,-21,0,6043,736,111,11539,-4,0,79,13,262568,0
262597,-12,-2082,154,-150,25,61,13358,0,2,15,-24,35460,-121,34,127,0,0,3638,-21,0,6043,736,111,11549,-4,0,79,13,262583,0
262607,5,-2075,169,-148,23,10,13357,4,0,-42,-80,35453,-119,34,127,0,0,3632,-87,0,6043,736,111,11559,-4,0,79,13,262583,0
262617,-26,-2085,175,-157,33,-34,13346,-28,-16,-243,-64,35450,-114,34,127,0,0,3629,-32,0,6043,736,111,11569,-4,0,79,13,262615,0
262627,-50,-2071,154,-155,38,-48,13346,-2,0,-349,-104,35449,-104,34,127,0,0,3623,-65,0,6043,736,111,11579,-4,0,79,13,262615,0
262637,-35,-2067,163,-147,37,-89,13334,-44,4,-487,-184,35451,-96,34,127,0,0,3616,-54,0,6043,736,111,11589,-4,0,79,13,262615,0
262648,-25,-2060,170,-136,36,-105,13287,-126,-87,-385,-168,35449,-97,34,127,0,0,3609,-54,0,6043,736,111,11600,-4,0,79,13,262615,0
262658,4,-2059,153,-125,51,-99,13239,-106,-70,-341,-160,35466,-99,34,127,0,0,3603,-65,0,6043,736,111,11610,-4,0,79,13,262643,0
262668,42,-2054,146,-120,58,-139,13192,-80,0,-258,-136,35466,-97,34,127,0,0,3593,-93,0,6043,736,111,11620,-4,0,79,13,262643,0
262678,144,-2057,164,-118,33,-102,13153,-83,25,-269,-128,35463,-80,34,127,0,0,3590,-27,0,6043,736,111,11630,-4,0,79,13,262658,0
262688,53,-2084,161,-127,33,-52,13140,-22,60,-388,-144,35444,-94,34,127,0,0,3585,-21,0,6043,736,111,11640,-4,0,79,13,262674,0
262698,100,-2094,167,-127,24,-29,13123,-46,46,-423,-160,35454,-113,34,127,0,0,3581,-21,0,6043,736,111,11650,-4,0,79,13,262674,0
262708,113,-2092,164,-128,36,-17,13079,-96,-64,-315,-120,35450,-125,34,127,0,0,3573,-21,0,6043,736,111,11660,-4,0,79,13,262689,0
262718,118,-2092,163,-118,39,23,13040,-85,-43,-216,-64,35456,-126,34,127,0,0,3574,0,0,6043,736,111,11670,-4,0,79,13,262689,0
262728,49,-2086,172,-116,38,64,13033,3,65,-305,-56,35451,-109,34,127,0,0,3569,54,0,6043,736,111,11680,-4,0,79,13,262721,0
262738,131,-2084,156,-114,15,102,13032,-11,79,-346,-80,35461,-104,34,127,0,0,3573,32,0,6043,736,111,11690,-4,0,79,13,262721,0
262748,86,-2102,150,-116,22,122,13034,6,8,-311,-88,35454,-94,34,127,0,0,3573,43,0,6043,736,111,11700,-4,0,79,13,262721,0
262758,95,-2096,134,-98,45,137,13034,18,2,-293,-88,35455,-79,34,127,0,0,3570,-16,0,6043,736,111,11710,-4,0,79,13,262752,0
262768,80,-2091,154,-99,39,147,13031,0,-6,-348,-56,35455,-87,34,127,0,0,3572,38,0,6043,736,111,11720,-4,0,79,13,262752,0
262778,95,-2092,192,-103,37,163,13034,-3,6,-294,-64,35455,-100,34,127,0,0,3572,21,0,6043,736,111,11730,-4,0,79,13,262752,0
262788,54,-2096,200,-115,40,183,13033,-1,-3,-318,-64,35444,-108,34,127,0,0,3572,49,0,6043,736,111,11740,-4,0,79,13,262768,0
262798,44,-2096,182,-125,23,189,13034,5,0,-279,-64,35448,-93,34,127,0,0,3576,49,0,6043,736,111,11750,-4,0,79,13,262783,0
262808,5,-2084,171,-132,24,181,13035,2,2,-180,-48,35447,-84,34,127,0,0,3574,0,0,6043,736,111,11760,-4,0,79,13,262783,0
262818,19,-2096,161,-138,41,160,13037,3,-1,-144,-24,35460,-92,34,127,0,0,3577,21,0,6043,736,111,11770,-4,0,79,13,262908,0
262828,25,-2097,171,-136,32,156,13035,0,-3,-129,0,35466,-102,34,127,0,0,3576,27,0,6043,736,111,11780,-4,0,79,13,262924,0
262838,28,-2086,176,-136,31,146,13042,25,12,-12,-16,35460,-97,34,127,0,0,3582,-21,0,6043,736,111,11790,-4,0,79,13,262924,0
262848,32,-2086,185,-139,36,125,13041,9,1,83,8,35444,-93,34,127,0,0,3581,-16,0,6043,736,111,11800,-4,0,79,13,262924,0
262858,13,-2075,176,-160,23,117,13041,-2,-14,54,8,35442,-106,34,127,0,0,3581,0,0,6043,736,111,11810,-4,0,79,13,262924,0
262868,33,-2081,171,-162,20,109,13043,4,5,75,8,35447,-110,34,127,0,0,3581,-27,0,6043,736,111,11820,-4,0,79,13,262939,0
262878,16,-2086,166,-166,28,95,13043,6,1,51,32,35445,-107,34,127,0,0,3583,38,0,6043,736,111,11830,-4,0,79,13,262939,0
262888,28,-2082,170,-166,22,92,13043,0,5,94,8,35445,-111,34,127,0,0,3581,-5,0,6043,736,111,11840,-4,0,79,13,262939,0
262898,17,-2087,172,-167,19,77,13043,4,-3,47,32,35448,-101,34,127,0,0,3580,5,0,6043,736,111,11850,-4,0,79,13,262939,0
262908,44,-2073,170,-179,29,67,13042,-2,-2,50,8,35453,-101,34,127,0,0,3581,0,0,6043,736,111,11860,-4,0,79,13,262939,0
262918,51,-2085,170,-186,26,59,13043,0,3,43,8,35453,-78,34,127,0,0,3578,-32,0,6043,736,111,11870,-4,0,79,13,262939,0
262928,65,-2076,160,-192,25,55,13041,-1,-1,9,32,35444,-72,34,127,0,0,3577,-21,0,6043,736,111,11880,-4,0,79,13,262939,0
262938,66,-2085,147,-193,20,42,13041,-11,-4,7,8,35443,-68,34,127,0,0,3578,-38,0,6043,736,111,11890,-4,0,79,13,262939,0
262949,60,-2075,125,-177,26,38,13041,-1,-4,-28,24,35449,-100,34,127,0,0,3574,-54,0,6043,736,111,11901,-4,0,79,13,262939,0
262959,81,-2077,125,-179,32,45,13035,-24,-11,-191,-48,35460,-107,34,127,0,0,3574,0,0,6043,736,111,11911,-4,0,79,13,262939,0
262969,84,-2085,144,-165,30,44,13035,-15,-3,-243,0,35469,-107,34,127,0,0,3572,10,0,6043,736,111,11921,-4,0,79,13,262939,0
262979,58,-2090,151,-164,31,49,13034,-11,10,-280,-64,35477,-93,35,127,0,0,3570,-21,0,6043,736,111,11931,-4,0,79,13,262955,0
262989,72,-2101,150,-165,31,50,13033,-6,-11,-328,-88,35487,-110,34,127,0,0,3572,32,0,6043,736,111,11941,-4,0,79,13,262971,0
262999,55,-2097,142,-167,33,48,13033,-4,2,-305,-120,35484,-132,34,127,0,0,3570,0,0,6043,736,111,11951,-4,0,79,13,263017,0
263009,57,-2102,126,-157,23,58,13032,12,-1,-343,-104,35464,-136,34,127,0,0,3568,-21,0,6043,736,111,11961,-4,0,79,13,263017,0
263019,60,-2092,126,-151,27,52,13030,6,-1,-362,-112,35446,-107,34,127,0,0,3566,-43,0,6043,736,111,11971,-4,0,79,13,263017,0
263029,58,-2084,122,-144,27,57,13027,-1,-2,-410,-128,35443,-96,34,127,0,0,3563,-21,0,6043,736,111,11981,-4,0,79,13,263017,0
263039,75,-2090,114,-131,37,59,13026,-6,2,-460,-136,35445,-101,34,127,0,0,3561,-32,0,6043,736,111,11991,-4,0,79,13,263017,0
263049,66,-2083,114,-110,35,55,13022,-13,-2,-499,-120,35453,-98,34,127,0,0,3561,10,0,6043,736,111,12001,-4,0,79,13,263033,0
263059,67,-2090,129,-104,28,55,13021,-2,-5,-496,-152,35458,-88,34,127,0,0,3559,-54,0,6043,736,111,12011,-4,0,79,13,263033,0
263069,67,-2084,131,-96,32,59,13013,-25,-3,-544,-160,35473,-112,34,127,0,0,3559,10,0,6043,736,111,12021,-4,0,79,13,263064,0
263079,55,-2073,130,-94,33,51,13004,-24,-11,-500,-128,35483,-119,34,127,0,0,3557,-10,0,6043,736,111,12031,-4,0,79,13,263064,0
263089,37,-2084,125,-86,32,44,12991,-33,-13,-405,-136,35476,-115,34,127,0,0,3555,-43,0,6043,736,111,12041,-4,0,79,13,263064,0
263099,63,-2090,126,-83,32,39,12977,-25,-15,-371,-136,35460,-90,34,127,0,0,3555,-32,0,6043,736,111,12051,-4,0,79,13,263096,0
263109,60,-2082,132,-81,31,32,12973,-2,27,-450,-112,35457,-65,34,127,0,0,3550,-43,0,6043,736,111,12061,-4,0,79,13,263096,0
263119,58,-2079,139,-70,28,25,12970,-6,20,-503,-192,35457,-71,34,127,0,0,3550,-21,0,6043,736,111,12071,-4,0,79,13,263096,0
263129,48,-2090,142,-70,40,18,12965,-8,-6,-490,-168,35457,-93,34,127,0,0,3550,10,0,6043,736,111,12081,-4,0,79,13,263111,0
263139,61,-2079,138,-70,42,15,12962,-11,3,-533,-152,35451,-108,34,127,0,0,3544,-43,0,6043,736,111,12091,-4,0,79,13,263127,0
263149,71,-2085,140,-65,28,7,12953,-26,-15,-545,-168,35445,-117,34,127,0,0,3541,-54,0,6043,736,111,12101,-4,0,79,13,263127,0
263159,73,-2081,140,-56,28,14,12928,-79,-44,-461,-128,35441,-129,34,127,0,0,3541,0,0,6043,736,111,12111,-4,0,79,13,263127,0
263170,26,-2090,121,-62,42,0,12883,-68,-63,-259,-96,35444,-138,34,127,0,0,3539,-10,0,6043,736,111,12122,-4,0,79,13,263158,0
263180,86,-2077,131,-58,47,1,12854,-60,6,-206,-64,35447,-107,34,127,0,0,3537,16,0,6043,736,111,12132,-4,0,79,13,263174,0
263190,71,-2088,135,-54,35,10,12848,4,68,-270,-96,35442,-100,34,127,0,0,3533,-5,0,6043,736,111,12142,-4,0,79,13,263221,0
263200,97,-2083,146,-52,31,-6,12847,-8,59,-353,-112,35442,-97,34,127,0,0,3531,10,0,6043,736,111,12152,-4,0,79,13,263221,0
263210,91,-2095,141,-50,40,8,12844,-7,-1,-407,-176,35450,-98,34,127,0,0,3524,-65,0,6043,736,111,12162,-4,0,79,13,263221,0
263220,83,-2085,141,-47,35,8,12834,-24,-22,-466,-152,35450,-102,34,127,0,0,3521,-32,0,6043,736,111,12172,-4,0,79,13,263221,0
263230,94,-2088,143,-45,32,10,12829,-12,-6,-545,-168,35433,-103,34,127,0,0,3522,21,0,6043,736,111,12182,-4,0,79,13,263221,0
263240,70,-2075,141,-49,26,16,12807,-65,-20,-478,-192,35425,-102,34,127,0,0,3515,-27,0,6043,736,111,12192,-4,0,79,13,263221,0
263250,64,-2078,137,-38,41,2,12759,-92,-78,-298,-128,35432,-117,34,127,0,0,3510,-71,0,6043,736,111,12202,-4,0,79,13,263221,0
263260,89,-2090,136,-37,39,4,12719,-82,-33,-232,-64,35447,-103,34,127,0,0,3507,-27,0,6043,736,111,12212,-4,0,79,13,263236,0
263270,62,-2092,139,-38,51,9,12714,21,80,-242,-112,35458,-74,34,127,0,0,3504,-76,0,6043,736,111,12222,-4,0,79,13,263267,0
263280,141,-2084,170,-35,33,-7,12709,-14,74,-378,-128,35460,-58,34,127,0,0,3502,-16,0,6043,736,111,12232,-4,0,79,13,263267,0
263290,79,-2095,164,-50,32,2,12706,-4,-10,-456,-160,35454,-63,34,127,0,0,3504,43,0,6043,736,111,12242,-4,0,79,13,263283,0
263300,58,-2086,157,-43,39,-15,12690,-44,-10,-403,-184,35450,-78,34,127,0,0,3500,-16,0,6043,736,111,12252,-4,0,79,13,263283,0
263310,80,-2080,180,-53,42,-19,12662,-69,-48,-329,-128,35447,-70,34,127,0,0,3490,-38,0,6043,736,111,12262,-4,0,79,13,263283,0
263320,62,-2084,166,-58,53,-23,12644,-9,-19,-393,-128,35441,-45,34,127,0,0,3485,-43,0,6043,736,111,12272,-4,0,79,13,263314,0
263330,123,-2076,165,-68,35,-21,12640,-6,64,-508,-168,35447,-70,34,127,0,0,3481,-38,0,6043,736,111,12282,-4,0,79,13,263314,0
263340,106,-2087,167,-73,28,-11,12624,-48,7,-536,-184,35448,-98,34,127,0,0,3480,-5,0,6043,736,111,12292,-4,0,79,13,263314,0
263350,83,-2082,165,-85,43,-27,12588,-72,-65,-367,-160,35443,-117,34,127,0,0,3476,-54,0,6043,736,111,12302,-4,0,79,13,263345,0
263360,90,-2099,160,-87,53,-19,12575,-11,6,-449,-168,35443,-96,34,127,0,0,3474,5,0,6043,736,111,12312,-4,0,79,13,263345,0
263370,138,-2077,178,-99,31,5,12563,-34,48,-512,-192,35437,-86,34,127,0,0,3463,-71,0,6043,736,111,12322,-4,0,79,13,263361,0
263380,139,-2078,182,-101,31,20,12527,-86,-49,-406,-144,35448,-83,34,127,0,0,3465,-10,0,6043,736,111,12332,-4,0,79,13,263361,0
263390,101,-2094,137,-101,37,35,12502,-42,-23,-353,-120,35453,-81,34,127,0,0,3462,-21,0,6043,736,111,12342,-4,0,79,13,263361,0
263400,143,-2078,126,-94,41,36,12478,-63,25,-270,-88,35464,-68,34,127,0,0,3460,-16,0,6043,736,111,12352,-4,0,79,13,263392,0
263410,105,-2089,148,-92,39,50,12465,0,10,-262,-80,35465,-68,34,127,0,0,3458,27,0,6043,736,111,12362,-4,0,79,13,263392,0
263421,149,-2086,160,-96,35,61,12463,-6,63,-349,-136,35456,-70,34,127,0,0,3454,-32,0,6043,736,111,12373,-4,0,79,13,263392,0
263431,119,-2090,154,-104,44,74,12462,3,7,-373,-120,35454,-67,34,127,0,0,3454,-21,0,6043,736,111,12383,-4,0,79,13,263424,0
263441,121,-2077,150,-101,33,88,12461,-8,-2,-395,-120,35451,-60,34,127,0,0,3454,10,0,6043,736,111,12393,-4,0,79,13,263439,0
263451,124,-2089,151,-105,43,96,12461,-3,0,-406,-104,35441,-74,34,127,0,0,3454,10,0,6043,736,111,12403,-4,0,79,13,263439,0
263461,136,-2077,146,-105,30,108,12460,-4,8,-412,-112,35431,-87,34,127,0,0,3454,32,0,6043,736,111,12413,-4,0,79,13,263439,0
263471,102,-2087,149,-105,32,117,12459,-7,3,-416,-136,35436,-100,34,127,0,0,3449,-32,0,6043,736,111,12423,-4,0,79,13,263455,0
263481,86,-2090,153,-106,35,115,12454,-6,-10,-424,-88,35453,-91,34,127,0,0,3449,-21,0,6043,736,111,12433,-4,0,79,13,263455,0
263491,123,-2085,142,-107,39,116,12454,-13,0,-432,-128,35453,-78,34,127,0,0,3449,-10,0,6043,736,111,12443,-4,0,79,13,263470,0
263501,115,-2085,145,-111,38,108,12451,-3,-1,-433,-152,35445,-76,34,127,0,0,3449,-10,0,6043,736,111,12453,-4,0,79,13,263486,0
263511,103,-2085,152,-111,37,107,12448,-10,-7,-416,-112,35444,-79,34,127,0,0,3449,0,0,6043,736,111,12463,-4,0,79,13,263502,0
263521,97,-2088,160,-116,38,99,12446,-8,-2,-421,-168,35446,-76,34,127,0,0,3447,-32,0,6043,736,111,12473,-4,0,79,13,263517,0
263531,84,-2081,150,-120,35,85,12436,-25,-13,-408,-136,35435,-64,34,127,0,0,3447,-21,0,6043,736,111,12483,-4,0,79,13,263517,0
263541,102,-2080,123,-117,43,77,12415,-52,-38,-319,-64,35427,-58,34,127,0,0,3447,21,0,6043,736,111,12493,-4,0,79,13,263517,0
263551,86,-2086,122,-110,32,72,12413,6,17,-311,-120,35421,-95,34,127,0,0,3445,-32,0,6043,736,111,12503,-4,0,79,13,263517,0
263561,78,-2076,139,-107,36,57,12412,1,37,-346,-144,35431,-110,34,127,0,0,3445,-21,0,6043,736,111,12513,-4,0,79,13,263627,0
263571,83,-2079,142,-106,42,56,12411,2,1,-375,-160,35433,-106,34,127,0,0,3440,-43,0,6043,736,111,12523,-4,0,79,13,263627,0
263581,92,-2077,154,-109,38,38,12403,-16,-8,-469,-160,35430,-83,34,127,0,0,3438,0,0,6043,736,111,12533,-4,0,79,13,263627,0
263591,83,-2081,149,-114,37,29,12398,0,-11,-492,-136,35422,-93,34,127,0,0,3436,-21,0,6043,736,111,12543,-4,0,79,13,263642,0
263601,108,-2083,157,-120,34,21,12392,-14,7,-554,-152,35423,-101,34,127,0,0,3434,-32,0,6043,736,111,12553,-4,0,79,13,263642,0
263611,115,-2090,164,-130,39,14,12378,-42,-17,-557,-216,35420,-96,34,127,0,0,3429,-32,0,6043,736,111,12563,-4,0,79,13,263642,0
263621,99,-2083,178,-135,28,-9,12338,-110,-69,-387,-144,35422,-83,34,127,0,0,3423,-54,0,6043,736,111,12573,-4,0,79,13,263642,0
263631,54,-2085,163,-149,37,-12,12295,-98,-60,-360,-200,35419,-94,34,127,0,0,3418,-54,0,6043,736,111,12583,-4,0,79,13,263642,0
263641,21,-2085,141,-143,48,-53,12268,-18,24,-342,-144,35423,-112,34,127,0,0,3410,-87,0,6043,736,111,12593,-4,0,79,13,263642,0
263651,162,-2070,148,-144,46,-53,12269,-7,91,-587,-152,35420,-100,34,127,0,0,3407,-32,0,6043,736,111,12603,-4,0,79,13,263642,0
263661,146,-2070,145,-156,36,-45,12262,-27,31,-702,-232,35420,-72,34,127,0,0,3401,-43,0,6043,736,111,12613,-4,0,79,13,263642,0
263672,107,-2086,139,-149,42,-34,12226,-91,-60,-589,-216,35422,-60,34,127,0,0,3395,-16,0,6043,736,111,12624,-4,0,79,13,263658,0
263682,138,-2102,125,-137,57,-14,12185,-81,-61,-450,-200,35428,-80,34,127,0,0,3392,-54,0,6043,736,111,12634,-4,0,79,13,263658,0
263692,220,-2083,144,-138,54,-2,12142,-89,-13,-324,-112,35454,-85,34,127,0,0,3382,-71,0,6043,736,111,12644,-4,0,79,13,263689,0
263702,206,-2103,175,-154,30,52,12121,-42,36,-401,-128,35456,-90,34,127,0,0,3385,-5,0,6043,736,111,12654,-4,0,79,13,263689,0
263712,184,-2089,163,-163,20,77,12100,-55,46,-352,-112,35456,-94,34,127,0,0,3380,-5,0,6043,736,111,12664,-4,0,79,13,263689,0
263722,148,-2095,144,-173,32,90,12093,7,20,-351,-112,35434,-115,34,127,0,0,3378,-49,0,6043,736,111,12674,-4,0,79,13,263689,0
263732,175,-2090,131,-170,32,106,12093,1,42,-373,-120,35436,-111,34,127,0,0,3381,-32,0,6043,736,111,12684,-4,0,79,13,263736,0
263742,159,-2084,143,-170,33,118,12090,-10,6,-392,-88,35441,-115,34,127,0,0,3383,65,0,6043,736,111,12694,-4,0,79,13,263736,0
263752,149,-2079,151,-174,33,137,12093,-4,5,-338,-96,35445,-96,34,127,0,0,3380,-5,0,6043,736,111,12704,-4,0,79,13,263736,0
263762,106,-2080,146,-180,41,130,12094,8,5,-311,-120,35437,-109,34,127,0,0,3384,-10,0,6043,736,111,12714,-4,0,79,13,263736,0
263772,99,-2089,138,-182,30,121,12094,3,-2,-321,-120,35432,-110,34,127,0,0,3381,-21,0,6043,736,111,12724,-4,0,79,13,263752,0
263782,96,-2080,132,-186,34,126,12093,0,3,-359,-120,35434,-116,34,127,0,0,3384,5,0,6043,736,111,12734,-4,0,79,13,263767,0
263792,111,-2090,131,-184,34,121,12093,-5,4,-349,-120,35432,-103,34,127,0,0,3381,-5,0,6043,736,111,12744,-4,0,79,13,263767,0
263802,97,-2092,124,-179,12,109,12092,0,-5,-367,-112,35433,-96,34,127,0,0,3381,0,0,6043,736,111,12754,-4,0,79,13,263799,0
263812,66,-2099,109,-169,15,81,12093,4,4,-345,-72,35442,-107,34,127,0,0,3379,0,0,6043,736,111,12764,-4,0,79,13,263799,0
263822,110,-2087,162,-168,31,39,12092,-9,-2,-336,-72,35436,-106,34,127,0,0,3379,-27,0,6043,736,111,12774,-4,0,79,13,263799,0
263832,99,-2062,184,-180,35,13,12090,-14,-2,-427,-112,35436,-86,34,127,0,0,3375,-43,0,6043,736,111,12784,-4,0,79,13,263799,0
263842,88,-2096,163,-209,49,-14,12086,-13,-7,-478,-176,35419,-63,34,127,0,0,3371,-60,0,6043,736,111,12794,-4,0,79,13,263830,0
263852,102,-2075,140,-212,21,-29,12076,-35,-15,-579,-176,35429,-76,34,127,0,0,3366,-38,0,6043,736,111,12804,-4,0,79,13,263830,0
263862,82,-2087,106,-206,32,-52,12049,-80,-46,-514,-192,35433,-92,34,127,0,0,3362,-54,0,6043,736,111,12814,-4,0,79,13,263845,0
263872,65,-2086,95,-196,38,-107,11996,-113,-83,-337,-176,35428,-89,34,127,0,0,3354,-115,0,6043,736,111,12824,-4,0,79,13,263861,0
263882,113,-2069,115,-182,54,-150,11944,-108,-50,-352,-144,35427,-65,34,127,0,0,3347,-10,0,6043,736,111,12834,-4,0,79,13,263861,0
263892,119,-2087,113,-187,26,-136,11908,-89,34,-347,-144,35427,-58,34,127,0,0,3337,-98,0,6043,736,111,12844,-4,0,79,13,263861,0
263902,66,-2093,95,-196,37,-169,11881,-36,44,-430,-176,35433,-63,34,127,0,0,3332,-98,0,6043,736,111,12854,-4,0,79,13,263892,0
263912,153,-2075,93,-191,32,-181,11860,-66,37,-550,-256,35430,-62,34,127,0,0,3321,-109,0,6043,736,111,12864,-4,0,79,13,263892,0
263923,99,-2092,111,-185,53,-194,11808,-90,-52,-504,-256,35431,-56,34,127,0,0,3311,-98,0,6043,736,111,12875,-4,0,79,13,263892,0
263933,169,-2079,146,-170,55,-177,11750,-140,-63,-411,-192,35428,-45,34,127,0,0,3306,-54,0,6043,736,111,12885,-4,0,79,13,263908,0
263943,225,-2089,135,-177,38,-132,11691,-107,-32,-334,-136,35443,-47,34,127,0,0,3300,-32,0,6043,736,111,12895,-4,0,79,13,263908,0
263953,292,-2065,99,-181,30,-60,11667,-50,71,-446,-200,35442,-47,34,127,0,0,3293,-21,0,6043,736,111,12905,-4,0,79,13,263939,0
263963,278,-2075,48,-175,21,-13,11645,-34,74,-412,-144,35438,-51,34,127,0,0,3291,-32,0,6043,736,111,12915,-4,0,79,13,263955,0
263973,274,-2066,48,-149,21,55,11639,-10,37,-518,-168,35425,-65,34,127,0,0,3291,-10,0,6043,736,111,12925,-4,0,79,13,263955,0
263983,256,-2077,86,-147,31,85,11640,-3,39,-515,-192,35428,-87,34,127,0,0,3289,-21,0,6043,736,111,12935,-4,0,79,13,263970,0
263993,230,-2091,122,-147,30,116,11636,-7,4,-517,-184,35435,-102,34,127,0,0,3289,-32,0,6043,736,111,12945,-4,0,79,13,263970,0
264003,206,-2086,114,-145,32,137,11633,3,-3,-503,-144,35436,-99,34,127,0,0,3291,0,0,6043,736,111,12955,-4,0,79,13,264002,0
264013,179,-2066,77,-154,28,158,11633,0,7,-497,-112,35435,-86,34,127,0,0,3293,21,0,6043,736,111,12965,-4,0,79,13,264002,0
264023,154,-2074,80,-143,21,168,11634,-5,8,-472,-152,35434,-75,34,127,0,0,3291,10,0,6043,736,111,12975,-4,0,79,13,264017,0
264033,128,-2079,70,-133,25,153,11635,7,4,-440,-128,35439,-87,34,127,0,0,3291,-21,0,6043,736,111,12985,-4,0,79,13,264017,0
264043,128,-2067,85,-126,30,138,11634,6,0,-408,-136,35439,-78,34,127,0,0,3293,-10,0,6043,736,111,12995,-4,0,79,13,264017,0
264053,126,-2078,81,-107,39,121,11635,4,1,-409,-96,35447,-88,34,127,0,0,3295,0,0,6043,736,111,13005,-4,0,79,13,264048,0
264063,138,-2077,78,-108,37,114,11634,-8,1,-398,-104,35461,-84,34,127,0,0,3293,10,0,6043,736,111,13015,-4,0,79,13,264048,0
264073,145,-2083,98,-102,30,100,11635,-8,-2,-380,-72,35461,-98,34,127,0,0,3295,32,0,6043,736,111,13025,-4,0,79,13,264048,0
264083,146,-2089,96,-95,20,88,11638,0,7,-344,-72,35446,-80,34,127,0,0,3298,10,0,6043,736,111,13035,-4,0,79,13,264048,0
264093,113,-2078,124,-96,37,65,11638,2,-2,-323,-160,35430,-67,34,127,0,0,3298,0,0,6043,736,111,13045,-4,0,79,13,264080,0
264103,126,-2082,125,-104,29,50,11637,0,-6,-322,-144,35436,-60,34,127,0,0,3293,-54,0,6043,736,111,13055,-4,0,79,13,264080,0
264113,136,-2075,100,-107,25,24,11634,-11,-5,-417,-160,35437,-71,34,127,0,0,3293,-10,0,6043,736,111,13065,-4,0,79,13,264095,0
264123,125,-2068,103,-103,26,-11,11634,0,0,-444,-160,35432,-78,34,127,0,0,3287,-76,0,6043,736,111,13075,-4,0,79,13,264111,0
264133,138,-2088,93,-95,51,-36,11621,-40,-11,-559,-168,35439,-83,34,127,0,0,3282,-54,0,6043,736,111,13085,-4,0,79,13,264111,0
264143,147,-2097,100,-84,50,-39,11585,-107,-74,-377,-152,35438,-83,34,127,0,0,3278,-54,0,6043,736,111,13095,-4,0,79,13,264111,0
264153,178,-2100,107,-90,55,-24,11549,-73,-52,-361,-152,35445,-97,34,127,0,0,3276,-21,0,6043,736,111,13105,-4,0,79,13,264158,0
264164,232,-2066,114,-90,43,-24,11516,-54,22,-358,-144,35458,-106,34,127,0,0,3269,-43,0,6043,736,111,13116,-4,0,79,13,264158,0
264174,243,-2081,113,-107,22,17,11515,3,61,-526,-168,35455,-88,34,127,0,0,3267,-38,0,6043,736,111,13126,-4,0,79,13,264158,0
264184,224,-2076,117,-107,24,37,11511,-5,54,-584,-176,35445,-71,34,127,0,0,3265,-21,0,6043,736,111,13136,-4,0,79,13,264158,0
264194,180,-2086,98,-112,18,53,11507,-18,-7,-642,-192,35428,-63,34,127,0,0,3262,21,0,6043,736,111,13146,-4,0,79,13,264173,0
264204,160,-2087,88,-113,40,56,11499,-23,-11,-656,-200,35449,-70,34,127,0,0,3257,-21,0,6043,736,111,13156,-4,0,79,13,264205,0
264214,199,-2081,90,-101,49,47,11481,-47,-29,-590,-216,35460,-62,34,127,0,0,3256,-38,0,6043,736,111,13166,-4,0,79,13,264205,0
264224,196,-2080,103,-100,43,50,11447,-71,-54,-414,-152,35457,-62,34,127,0,0,3253,-60,0,6043,736,111,13176,-4,0,79,13,264205,0
264234,186,-2098,126,-116,37,67,11428,-37,-1,-467,-160,35436,-63,34,127,0,0,3251,16,0,6043,736,111,13186,-4,0,79,13,264220,0
264244,173,-2080,124,-118,26,66,11397,-79,8,-340,-120,35424,-76,34,127,0,0,3249,16,0,6043,736,111,13196,-4,0,79,13,264220,0
264254,147,-2098,103,-124,30,73,11378,-11,-10,-330,-120,35436,-107,34,127,0,0,3245,16,0,6043,736,111,13206,-4,0,79,13,264220,0
264264,193,-2082,81,-115,41,68,11378,-3,72,-388,-120,35446,-102,34,127,0,0,3245,21,0,6043,736,111,13216,-4,0,79,13,264267,0
264274,198,-2081,79,-105,38,75,11378,-3,37,-405,-120,35459,-103,34,127,0,0,3242,-16,0,6043,736,111,13226,-4,0,79,13,264267,0
264284,201,-2089,81,-97,35,85,11376,-5,-4,-435,-120,35448,-99,34,127,0,0,3242,-21,0,6043,736,111,13236,-4,0,79,13,264267,0
264294,188,-2073,77,-93,48,90,11376,4,1,-435,-168,35436,-90,34,127,0,0,3240,-65,0,6043,736,111,13246,-4,0,79,13,264267,0
264304,197,-2073,81,-93,34,91,11369,-14,-10,-408,-152,35427,-77,34,127,0,0,3240,-65,0,6043,736,111,13256,-4,0,79,13,264283,0
264314,189,-2076,79,-91,31,109,11359,-31,-14,-414,-136,35436,-71,34,127,0,0,3240,0,0,6043,736,111,13266,-4,0,79,13,264283,0
264324,175,-2070,79,-88,35,102,11334,-55,-34,-276,-88,35441,-75,34,127,0,0,3237,-32,0,6043,736,111,13276,-4,0,79,13,264298,0
264334,158,-2084,86,-77,46,92,11323,-5,-1,-266,-104,35441,-88,34,127,0,0,3243,-10,0,6043,736,111,13286,-4,0,79,13,264314,0
264344,182,-2074,96,-75,43,94,11324,-10,52,-283,-80,35438,-98,34,127,0,0,3235,-21,0,6043,736,111,13296,-4,0,79,13,264330,0
264354,178,-2084,119,-78,36,104,11324,2,17,-335,-80,35433,-86,34,127,0,0,3238,10,0,6043,736,111,13306,-4,0,79,13,264330,0
264364,172,-2083,122,-84,38,108,11325,3,3,-305,-80,35439,-92,34,127,0,0,3235,-32,0,6043,736,111,13316,-4,0,79,13,264381,0
264374,188,-2090,113,-90,42,106,11322,-2,-3,-350,-80,35443,-104,34,127,0,0,3238,32,0,6043,736,111,13326,-4,0,79,13,264381,0
264384,218,-2091,112,-96,40,114,11324,-2,3,-294,-112,35440,-99,34,127,0,0,3236,-60,0,6043,736,111,13336,-4,0,79,13,264381,0
264394,212,-2074,116,-103,35,131,11321,1,-8,-340,-72,35437,-84,34,127,0,0,3238,32,0,6043,736,111,13346,-4,0,79,13,264396,0
264404,224,-2075,104,-104,39,136,11320,-15,-2,-330,-104,35430,-68,34,127,0,0,3236,10,0,6043,736,111,13356,-4,0,79,13,264396,0
264415,200,-2082,98,-108,41,133,11323,26,10,-291,-112,35432,-88,34,127,0,0,3236,-54,0,6043,736,111,13367,-4,0,79,13,264396,0
264425,185,-2089,105,-101,43,148,11318,-3,-1,-317,-104,35442,-90,34,127,0,0,3236,-10,0,6043,736,111,13377,-4,0,79,13,264396,0
264435,189,-2078,105,-99,45,149,11319,0,-6,-298,-120,35448,-82,34,127,0,0,3236,-21,0,6043,736,111,13387,-4,0,79,13,264428,0
264445,163,-2085,93,-103,45,150,11319,-3,7,-340,-96,35450,-93,34,127,0,0,3236,0,0,6043,736,111,13397,-4,0,79,13,264428,0
264455,168,-2088,88,-102,40,151,11317,-6,-2,-344,-96,35435,-82,34,127,0,0,3236,10,0,6043,736,111,13407,-4,0,79,13,264428,0
264465,195,-2082,85,-93,45,138,11318,-7,4,-306,-104,35429,-78,34,127,0,0,3236,10,0,6043,736,111,13417,-4,0,79,13,264443,0
264475,187,-2081,80,-89,47,150,11318,-1,-1,-318,-104,35437,-72,34,127,0,0,3240,43,0,6043,736,111,13427,-4,0,79,13,264459,0
264485,193,-2082,100,-91,43,151,11321,3,4,-258,-112,35438,-69,34,127,0,0,3243,54,0,6043,736,111,13437,-4,0,79,13,264475,0
264495,142,-2078,100,-86,42,161,11321,5,8,-197,-128,35432,-66,34,127,0,0,3240,21,0,6043,736,111,13447,-4,0,79,13,264475,0
264505,153,-2093,86,-85,40,162,11323,12,2,-201,-48,35433,-77,34,127,0,0,3240,-32,0,6043,736,111,13457,-4,0,79,13,264490,0
264515,162,-2076,89,-79,49,145,11322,9,-4,-247,-40,35439,-91,34,127,0,0,3240,0,0,6043,736,111,13467,-4,0,79,13,264506,0
264525,190,-2086,99,-81,45,166,11324,17,7,-193,-24,35439,-97,34,127,0,0,3240,-21,0,6043,736,111,13477,-4,0,79,13,264506,0
264535,203,-2085,103,-86,35,165,11322,4,6,-160,-32,35445,-84,34,127,0,0,3243,0,0,6043,736,111,13487,-4,0,79,13,264521,0
264545,171,-2077,98,-83,40,161,11322,-4,-11,-164,-32,35443,-87,34,127,0,0,3245,21,0,6043,736,111,13497,-4,0,79,13,264521,0
264555,169,-2085,104,-80,48,161,11324,-5,2,-135,-40,35448,-85,34,127,0,0,3245,32,0,6043,736,111,13507,-4,0,79,13,264553,0
264565,203,-2079,99,-98,45,159,11325,5,3,-91,-8,35436,-98,34,127,0,0,3245,10,0,6043,736,111,13517,-4,0,79,13,264553,0
264575,189,-2081,89,-100,46,160,11325,-6,-6,-73,-16,35433,-101,34,127,0,0,3245,10,0,6043,736,111,13527,-4,0,79,13,264553,0
264585,133,-2075,88,-90,35,159,11326,7,-6,-74,-56,35426,-98,34,127,0,0,3245,0,0,6043,736,111,13537,-4,0,79,13,264553,0
264595,126,-2081,100,-93,27,152,11326,0,1,-38,-16,35428,-90,34,127,0,0,3245,0,0,6043,736,111,13547,-4,0,79,13,264584,0
264605,152,-2075,101,-86,40,141,11325,-3,-4,-75,-8,35426,-86,34,127,0,0,3245,10,0,6043,736,111,13557,-4,0,79,13,264584,0
264615,152,-2087,99,-94,37,141,11325,-11,-1,-117,-8,35425,-89,34,127,0,0,3243,0,0,6043,736,111,13567,-4,0,79,13,264584,0
264625,147,-2090,91,-91,44,130,11326,6,5,-111,-56,35428,-94,34,127,0,0,3243,-21,0,6043,736,111,13577,-4,0,79,13,264615,0
264635,151,-2085,98,-83,36,126,11325,1,0,-100,-16,35426,-93,34,127,0,0,3245,10,0,6043,736,111,13587,-4,0,79,13,264709,0
264645,164,-2089,102,-81,33,129,11324,-9,-5,-129,-8,35428,-105,34,127,0,0,3245,32,0,6043,736,111,13597,-4,0,79,13,264709,0
264655,178,-2094,101,-84,41,121,11326,-2,8,-94,-8,35432,-92,34,127,0,0,3245,0,0,6043,736,111,13607,-4,0,79,13,264709,0
264665,156,-2094,117,-90,41,118,11327,10,-5,-77,-56,35442,-95,34,127,0,0,3245,0,0,6043,736,111,13617,-4,0,79,13,264724,0
264675,139,-2085,97,-90,31,113,11326,0,-3,-40,-16,35441,-71,34,127,0,0,3243,-43,0,6043,736,111,13627,-4,0,79,13,264724,0
264685,124,-2087,97,-90,42,101,11324,7,0,-140,-40,35437,-75,34,127,0,0,3243,-21,0,6043,736,111,13637,-4,0,79,13,264724,0
264695,162,-2062,115,-87,35,84,11324,-2,6,-176,-40,35430,-74,34,127,0,0,3243,0,0,6043,736,111,13647,-4,0,79,13,264724,0
264705,170,-2081,102,-100,48,64,11324,0,2,-180,-40,35427,-78,34,127,0,0,3238,-65,0,6043,736,111,13657,-4,0,79,13,264724,0
264715,161,-2077,93,-96,39,54,11320,-8,-4,-317,-104,35422,-74,34,127,0,0,3238,10,0,6043,736,111,13667,-4,0,79,13,264724,0
264725,155,-2080,76,-90,48,63,11320,-5,2,-322,-136,35421,-83,34,127,0,0,3232,-65,0,6043,736,111,13677,-4,0,79,13,264724,0
264735,176,-2072,84,-87,53,62,11312,-14,-2,-407,-128,35418,-79,34,127,0,0,3232,0,0,6043,736,111,13687,-4,0,79,13,264724,0
264746,205,-2076,96,-90,48,64,11304,-23,-15,-427,-136,35430,-91,34,127,0,0,3229,10,0,6043,736,111,13698,-4,0,79,13,264724,0
264756,202,-2088,97,-90,38,86,11279,-78,-36,-365,-112,35447,-84,34,127,0,0,3227,38,0,6043,736,111,13708,-4,0,79,13,264724,0
264766,164,-2086,95,-89,46,83,11252,-29,-38,-245,-80,35463,-79,34,127,0,0,3225,-16,0,6043,736,111,13718,-4,0,79,13,264756,0
264776,209,-2087,107,-87,51,93,11254,2,64,-335,-104,35461,-71,34,127,0,0,3223,-32,0,6043,736,111,13728,-4,0,79,13,264756,0
264786,201,-2080,108,-88,45,104,11250,-2,33,-341,-96,35448,-75,34,127,0,0,3223,-16,0,6043,736,111,13738,-4,0,79,13,264787,0
264796,210,-2085,121,-96,33,126,11251,-7,-3,-370,-120,35436,-81,34,127,0,0,3224,-5,0,6043,736,111,13748,-4,0,79,13,264787,0
264806,169,-2077,103,-97,44,146,11250,-1,1,-366,-120,35431,-69,34,127,0,0,3224,-5,0,6043,736,111,13758,-4,0,79,13,264803,0
264816,151,-2077,95,-98,40,151,11249,-1,0,-374,-144,35429,-62,34,127,0,0,3225,16,0,6043,736,111,13768,-4,0,79,13,264803,0
264826,167,-2088,94,-94,44,149,11248,4,-6,-356,-96,35428,-52,34,127,0,0,3223,5,0,6043,736,111,13778,-4,0,79,13,264803,0
264836,162,-2084,97,-93,35,147,11248,-10,2,-370,-96,35435,-55,34,127,0,0,3223,27,0,6043,736,111,13788,-4,0,79,13,264834,0
264846,167,-2085,93,-85,33,139,11246,-14,-1,-383,-88,35440,-53,34,127,0,0,3223,43,0,6043,736,111,13798,-4,0,79,13,264834,0
264856,163,-2089,76,-89,43,141,11249,3,6,-354,-96,35438,-58,34,127,0,0,3223,0,0,6043,736,111,13808,-4,0,79,13,264834,0
264866,169,-2086,66,-83,54,134,11249,5,2,-350,-96,35437,-60,34,127,0,0,3223,0,0,6043,736,111,13818,-4,0,79,13,264834,0
264876,187,-2075,73,-62,51,140,11248,0,0,-345,-96,35437,-56,34,127,0,0,3223,0,0,6043,736,111,13828,-4,0,79,13,264849,0
264886,209,-2070,100,-59,43,145,11249,3,3,-350,-120,35447,-57,34,127,0,0,3224,-5,0,6043,736,111,13838,-4,0,79,13,264881,0
264896,190,-2081,110,-68,36,138,11248,5,4,-333,-96,35456,-69,34,127,0,0,3223,-27,0,6043,736,111,13848,-4,0,79,13,264881,0
264906,335,-2074,93,-80,24,40,11249,-2,1,-346,-96,35449,-63,34,127,0,0,3223,0,0,6043,736,111,13858,-4,0,79,13,264881,0
264917,558,-2011,101,-83,46,-209,11250,5,-2,-322,-112,35442,-62,34,127,0,0,3223,-10,0,6043,736,111,13869,-4,0,79,13,264896,0
264927,892,-1971,21,-68,120,-499,11247,-12,-4,-412,-176,35450,-58,34,127,0,0,3205,-186,0,6043,736,111,13879,-4,0,79,13,264912,0
264937,212,-1949,217,-48,-18,50,11210,-132,-68,-652,-296,35448,-57,34,127,0,0,3192,-65,0,6043,736,111,13889,-4,0,79,13,264912,0
264947,96,-2061,213,-99,-82,168,11130,-178,-162,-353,-184,35452,-68,34,127,0,0,3192,0,0,6043,736,111,13899,-4,0,79,13,264912,0
264957,432,-2110,-44,-92,104,-186,11090,-45,-4,-266,-88,35454,-87,34,127,0,0,3192,-21,0,6043,736,111,13909,-4,0,79,13,264943,0
264967,743,-1911,-44,-44,176,-515,11090,-2,155,-394,-192,35464,-100,34,127,0,0,3177,-197,0,6043,736,111,13919,-4,0,79,13,264943,0
264977,566,-1946,165,-25,60,-295,11060,-104,16,-646,-352,35469,-95,34,127,0,0,3157,-208,0,6043,736,111,13929,-4,0,79,13,264943,0
264987,466,-2075,277,-82,-43,-54,10992,-176,-136,-542,-296,35464,-65,34,127,0,0,3150,-76,0,6043,736,111,13939,-4,0,79,13,264990,0
264997,457,-2101,96,-135,-31,-146,10913,-150,-102,-338,-176,35454,-46,34,127,0,0,3144,-65,0,6043,736,111,13949,-4,0,79,13,264990,0
265007,464,-2072,-57,-122,50,-308,10873,-78,62,-378,-208,35454,-63,34,127,0,0,3137,-98,0,6043,736,111,13959,-4,0,79,13,264990,0
265017,530,-2009,-7,-58,102,-301,10845,-61,97,-526,-280,35455,-85,34,127,0,0,3126,-109,0,6043,736,111,13969,-4,0,79,13,264990,0
265027,649,-2057,105,-33,60,-135,10789,-136,-31,-418,-216,35470,-105,34,127,0,0,3120,-32,0,6043,736,111,13979,-4,0,79,13,265006,0
265037,629,-2037,151,-47,-58,46,10741,-100,-45,-356,-112,35471,-97,34,127,0,0,3120,0,0,6043,736,111,13989,-4,0,79,13,265006,0
265047,477,-2128,74,-49,-85,49,10740,24,113,-420,-80,35471,-88,34,127,0,0,3122,32,0,6043,736,111,13999,-4,0,79,13,265099,0
265057,386,-2049,3,-14,-12,-84,10741,-4,96,-313,-72,35462,-64,34,127,0,0,3124,10,0,6043,736,111,14009,-4,0,79,13,265099,0
265067,358,-2094,36,-8,12,-96,10742,-4,2,-252,-80,35468,-72,34,127,0,0,3122,-32,0,6043,736,111,14019,-4,0,79,13,265115,0
265077,270,-2178,123,24,-45,-89,10743,12,-2,-274,-72,35461,-75,34,127,0,0,3126,10,0,6043,736,111,14029,-4,0,79,13,265115,0
265087,218,-2158,134,43,-52,-147,10746,16,0,-191,-56,35461,-100,34,127,0,0,3124,-43,0,6043,736,111,14039,-4,0,79,13,265115,0
265097,238,-2146,95,49,5,-254,10745,9,1,-206,-24,35458,-108,34,127,0,0,3126,-32,0,6043,736,111,14049,-4,0,79,13,265115,0
265107,333,-2113,117,48,9,-285,10745,11,-6,-199,-24,35461,-98,34,127,0,0,3128,0,0,6043,736,111,14059,-4,0,79,13,265115,0
265117,378,-2176,181,69,-57,-251,10744,-2,-2,-229,-72,35462,-105,34,127,0,0,3122,-43,0,6043,736,111,14069,-4,0,79,13,265115,0
265127,299,-2139,207,81,-85,-265,10744,10,3,-269,-40,35460,-97,34,127,0,0,3124,-32,0,6043,736,111,14079,-4,0,79,13,265115,0
265137,293,-2183,161,70,-57,-266,10743,-5,-2,-244,-88,35458,-108,34,127,0,0,3128,21,0,6043,736,111,14089,-4,0,79,13,265115,0
265148,388,-2131,133,45,-91,-218,10744,-2,2,-155,-8,35464,-124,34,127,0,0,3134,120,0,6043,736,111,14100,-4,0,79,13,265131,0
265158,491,-2088,77,11,-215,-50,10757,42,22,72,88,35474,-113,34,127,0,0,3144,120,0,6043,736,111,14110,-4,0,79,13,265146,0
265168,471,-2097,38,-13,-309,54,10787,97,55,331,200,35486,-125,34,127,0,0,3168,203,0,6043,736,111,14120,-4,0,79,13,265146,0
265178,304,-2182,17,-35,-206,125,10863,178,126,380,304,35481,-120,34,127,0,0,3191,230,0,6043,736,111,14130,-4,0,79,13,265146,0
265188,183,-2099,2,-17,-94,46,10971,258,150,332,320,35473,-127,34,127,0,0,3213,175,0,6043,736,111,14140,-4,0,79,13,265193,0
265198,268,-2085,14,-25,51,-35,11085,256,74,306,304,35469,-103,34,127,0,0,3233,115,0,6043,736,111,14150,-4,0,79,13,265193,0
265208,348,-2064,48,-35,52,-1,11200,237,15,246,256,35469,-83,34,127,0,0,3250,181,0,6043,736,111,14160,-4,0,79,13,265193,0
265218,326,-2048,134,-72,3,0,11300,203,-35,275,264,35464,-87,34,127,0,0,3268,148,0,6043,736,111,14170,-4,0,79,13,265193,0
265228,272,-2074,163,-68,10,-23,11387,185,-60,344,272,35450,-106,34,127,0,0,3289,181,0,6043,736,111,14180,-4,0,79,13,265224,0
265238,280,-2120,186,-82,35,-41,11479,207,-13,332,248,35453,-117,34,127,0,0,3307,219,0,6043,736,111,14190,-4,0,79,13,265224,0
265248,242,-2101,208,-85,29,-27,11573,193,13,295,272,35457,-111,34,127,0,0,3317,153,0,6043,736,111,14200,-4,0,79,13,265224,0
265258,284,-2092,244,-111,-37,-30,11648,156,-33,370,304,35468,-126,34,127,0,0,3338,236,0,6043,736,111,14210,-4,0,79,13,265256,0
265268,273,-2094,197,-126,-43,-52,11738,203,-12,372,288,35471,-119,35,127,0,0,3357,170,0,6043,736,111,14220,-4,0,79,13,265256,0
265278,278,-2072,158,-127,-37,-102,11823,180,17,382,304,35468,-100,34,127,0,0,3375,164,0,6043,736,111,14230,-4,0,79,13,265256,0
265288,327,-2070,141,-142,-40,-98,11924,225,21,337,264,35462,-82,34,127,0,0,3390,159,0,6043,736,111,14240,-4,0,79,13,265256,0
265298,379,-2031,184,-159,-71,-64,12015,181,13,306,232,35456,-59,34,127,0,0,3402,159,0,6043,736,111,14250,-4,0,79,13,265287,0
265308,405,-2024,191,-171,-116,-53,12086,147,-69,356,224,35465,-82,34,127,0,0,3418,115,0,6043,736,111,14260,-4,0,79,13,265287,0
265318,382,-2028,186,-187,-182,-35,12165,179,-26,363,288,35461,-86,34,127,0,0,3440,219,0,6043,736,111,14270,-4,0,79,13,265287,0
265328,304,-2044,227,-188,-230,-49,12247,187,26,375,280,35463,-88,34,127,0,0,3453,186,0,6043,736,111,14280,-4,0,79,13,265318,0
265338,305,-2067,227,-182,-313,-86,12334,168,19,327,264,35461,-104,34,127,0,0,3468,164,0,6043,736,111,14290,-4,0,79,13,265318,0
265348,273,-2042,216,-169,-366,-141,12402,149,-37,437,240,35459,-106,34,127,0,0,3482,109,0,6043,736,111,14300,-4,0,79,13,265318,0
265358,304,-2040,141,-169,-393,-238,12473,151,-27,363,200,35454,-111,34,127,0,0,3493,104,0,6043,736,111,14310,-4,0,79,13,265349,0
265368,259,-2028,86,-167,-426,-284,12529,119,-25,392,176,35450,-102,34,127,0,0,3499,43,0,6043,736,111,14320,-4,0,79,13,265349,0
265378,209,-2069,8,-143,-441,-350,12579,102,-44,299,144,35453,-91,34,127,0,0,3502,43,0,6043,736,111,14330,-4,0,79,13,265349,0
265388,146,-2111,34,-131,-445,-430,12624,89,-12,278,120,35447,-91,34,127,0,0,3509,16,0,6043,736,111,14340,-4,0,79,13,265474,0
265398,56,-2122,109,-131,-401,-555,12658,89,-34,263,96,35451,-104,34,127,0,0,3510,-5,0,6043,736,111,14350,-4,0,79,13,265474,0
265408,81,-2189,95,-164,-374,-594,12672,-1,-49,233,104,35454,-101,34,127,0,0,3517,65,0,6043,736,111,14360,-4,0,79,13,265474,0
265418,-9,-2186,49,-183,-310,-681,12671,2,-68,373,104,35457,-98,34,127,0,0,3517,43,0,6043,736,111,14370,-4,0,79,13,265474,0
265428,54,-2216,-11,-192,-199,-765,12673,8,-16,430,120,35452,-81,35,127,0,0,3523,49,0,6043,736,111,14380,-4,0,79,13,265474,0
265438,172,-2187,-20,-194,-65,-848,12684,26,11,481,128,35447,-90,34,127,0,0,3525,27,0,6043,736,111,14390,-4,0,79,13,265490,0
265448,224,-2180,18,-204,-30,-878,12703,58,34,410,136,35443,-87,34,127,0,0,3529,71,0,6043,736,111,14400,-4,0,79,13,265490,0
265458,232,-2219,63,-212,-46,-917,12736,59,48,345,136,35447,-88,34,127,0,0,3533,27,0,6043,736,111,14410,-4,0,79,13,265490,0
265468,205,-2220,79,-199,-68,-977,12742,0,-29,410,144,35446,-67,34,127,0,0,3538,71,0,6043,736,111,14420,-4,0,79,13,265490,0
265478,137,-2252,94,-174,-109,-1082,12749,32,-61,555,176,35443,-76,34,127,0,0,3543,21,0,6043,736,111,14430,-4,0,-32,0,265490,0
265488,155,-2331,119,-165,-146,-1176,12775,83,49,533,216,35439,-71,34,127,0,0,3548,38,0,6043,736,111,14440,-4,0,-32,0,265490,0
265498,67,-2350,181,-157,-215,-1283,12824,94,80,377,168,35445,-79,34,127,0,0,3556,49,0,6043,736,111,14450,-4,0,-32,0,265490,0
265509,-39,-2347,113,-165,-230,-1430,12876,79,30,307,128,35447,-77,34,127,0,0,3566,98,0,6043,736,111,14461,-4,0,-32,0,265490,0
265519,-85,-2356,36,-161,-176,-1604,12911,93,-24,460,200,35449,-98,34,127,0,0,3574,65,0,6043,736,111,14471,-4,0,-31,0,265490,0
265529,-34,-2355,-36,-136,-126,-1728,12951,91,-11,489,240,35462,-113,34,127,0,0,3590,131,0,6043,736,111,14481,-4,0,-31,0,265506,0
265539,0,-2455,3,-135,-99,-1789,13025,183,72,400,256,35469,-125,34,127,0,0,3605,142,0,6043,736,111,14491,-4,0,-30,0,265537,0
265549,168,-2400,23,-157,-57,-1843,13098,148,64,462,368,35475,-114,34,127,0,0,3632,241,0,6043,736,111,14501,-4,0,-30,0,265537,0
265559,187,-2373,25,-164,-78,-1883,13183,219,7,587,464,35464,-108,34,127,0,0,3660,318,0,6043,736,111,14511,-4,0,-29,0,265537,0
265569,281,-2393,38,-127,-123,-1925,13301,279,92,537,552,35439,-93,34,127,0,0,3691,340,0,6043,736,111,14521,-4,0,-28,0,265537,0
265579,294,-2344,91,-102,-171,-1925,13444,339,111,521,672,35442,-99,34,127,0,0,3730,395,0,6043,736,111,14531,-4,0,-28,0,265584,0
265589,457,-2310,130,-127,-145,-1896,13606,360,87,495,816,35453,-108,34,127,0,0,3774,472,0,6043,736,111,14541,-4,0,-27,0,265584,0
265599,480,-2243,132,-166,-81,-1860,13783,409,59,590,928,35459,-101,34,127,0,0,3818,450,0,6043,736,111,14551,-4,0,-26,0,265584,0
265609,615,-2069,116,-205,-33,-1802,13983,457,81,597,1112,35445,-107,34,127,0,0,3873,549,0,6043,736,111,14561,-4,0,-25,0,265584,0
265619,654,-1944,99,-211,0,-1797,14215,538,107,601,1256,35436,-90,34,127,0,0,3926,505,0,6043,736,111,14571,-4,0,-24,0,265599,0
265629,789,-1957,116,-277,-2,-1651,14473,579,110,519,1296,35442,-80,34,127,0,0,3981,527,0,6043,736,111,14581,-4,0,-24,0,265631,0
265639,871,-1969,220,-327,-18,-1566,14742,601,75,552,1384,35451,-80,34,127,0,0,4040,582,0,6043,736,111,14591,-4,0,-23,0,265631,0
265649,891,-1842,275,-412,37,-1482,15026,630,52,472,1392,35445,-76,34,127,0,0,4097,604,0,6043,736,111,14601,-4,0,-22,0,265646,0
265659,919,-1717,251,-480,86,-1407,15312,634,26,504,1424,35431,-60,34,127,0,0,4155,560,0,6043,736,111,14611,-4,0,-21,0,265646,0
265670,1068,-1653,176,-559,125,-1334,15630,630,9,491,1368,35433,-72,34,127,0,0,4215,505,0,6043,736,111,14622,-4,0,-20,0,265646,0
265680,1141,-1606,179,-580,98,-1268,15914,627,-4,464,1376,35450,-85,34,127,0,0,4270,549,0,6043,736,111,14632,-4,0,-20,0,265662,0
265690,1031,-1539,210,-609,9,-1154,16188,591,-27,519,1376,35459,-99,34,127,0,0,4323,516,0,6043,736,111,14642,-4,0,-19,0,265662,0
265700,1002,-1581,223,-628,-72,-1089,16461,611,-19,571,1400,35453,-94,34,127,0,0,4378,527,0,6043,736,111,14652,-4,0,-18,0,265677,0
265710,1007,-1771,248,-601,-146,-1094,16743,610,14,469,1344,35448,-73,34,127,0,0,4429,521,0,6043,736,111,14662,-4,0,-18,0,265693,0
265720,1032,-1885,221,-594,-189,-1087,17014,594,-8,556,1336,35448,-76,34,127,0,0,4476,472,0,6043,736,111,14672,-4,0,-17,0,265693,0
265730,1049,-1942,296,-599,-308,-999,17255,587,-23,481,1256,35457,-87,34,127,0,0,4517,401,0,6043,736,111,14682,-4,0,-17,0,265709,0
265740,964,-1952,294,-578,-431,-962,17511,550,-27,451,1200,35442,-91,34,127,0,0,4564,488,0,6043,736,111,14692,-4,0,-16,0,265709,0
265750,791,-2004,201,-550,-575,-965,17753,528,-47,523,1208,35442,-90,34,127,0,0,4610,488,0,6043,736,111,14702,-4,0,-16,0,265740,0
265760,745,-2107,172,-523,-664,-977,17997,540,-19,547,1264,35444,-96,34,127,0,0,4654,477,0,6043,736,111,14712,-4,0,-16,0,265740,0
265770,788,-2301,146,-443,-792,-1055,18248,551,20,526,1256,35451,-84,34,127,0,0,4704,488,0,6043,736,111,14722,-4,0,-15,0,265740,0
265780,830,-2404,217,-409,-858,-1170,18495,538,2,540,1240,35448,-71,34,127,0,0,4744,428,0,6043,736,111,14732,-4,0,-15,0,265755,0
265790,812,-2273,261,-389,-955,-1242,18743,529,-13,502,1144,35441,-82,34,127,0,0,4779,302,0,6043,736,111,14742,-4,0,-14,0,265771,0
265800,829,-2203,287,-386,-1031,-1251,18981,518,-27,466,1064,35443,-84,34,127,0,0,4819,346,0,6043,736,111,14752,-4,0,-14,0,265787,0
265810,771,-2056,219,-368,-1090,-1291,19199,457,-58,487,976,35448,-82,34,127,0,0,4852,329,0,6043,736,111,14762,-4,0,-13,0,265802,0
265820,687,-1817,184,-319,-1042,-1247,19403,443,-66,441,800,35447,-75,34,127,0,0,4871,181,0,6043,736,111,14772,-4,0,-13,0,265802,0
265830,142,-1081,-202,-48,53,-835,19581,368,-74,399,496,35444,-74,34,127,0,0,4869,-76,0,6043,736,111,14782,-4,0,-12,0,265802,0
265840,-341,-1268,-332,45,1036,-1179,19705,212,-183,-6,-288,35442,-85,34,127,0,0,4788,-851,0,6043,736,111,14792,-4,0,-12,0,265818,0
265850,-535,-1306,-49,833,1516,-793,19602,-371,-511,-708,-1096,35457,-79,34,127,0,0,4694,-977,0,6043,736,111,14802,-4,0,-11,0,265849,0
265860,-536,-1226,152,1023,1478,-339,19352,-618,-704,-592,-1616,35457,-71,34,127,0,0,4606,-823,0,6043,736,111,14812,-4,0,-10,0,265849,0
265870,-257,-1223,299,1224,1396,508,19017,-775,-433,-443,-1720,35445,-75,34,127,0,0,4537,-648,0,6043,736,111,14822,-4,0,-9,0,265849,0
265880,-234,-1241,104,1287,1187,974,18654,-802,-212,-330,-1640,35431,-60,34,127,0,0,4475,-593,0,6043,736,111,14832,-4,0,-8,0,265849,0
265890,-130,-1428,-51,1466,791,1648,18293,-786,-47,-272,-1656,35427,-63,34,127,0,0,4402,-791,0,6043,736,111,14842,-4,0,-7,0,265880,0
265900,-93,-1542,-37,1547,483,2166,17939,-772,23,-331,-1680,35441,-51,34,127,0,0,4335,-681,0,6043,736,111,14852,-4,0,-5,0,265880,0
265911,-155,-1666,54,1530,50,2940,17549,-776,5,-316,-1680,35439,-62,34,127,0,0,4258,-692,0,6043,736,111,14863,-4,0,-4,0,265880,0
265921,-236,-1809,71,1392,-296,3623,17197,-768,8,-350,-1648,35436,-68,34,127,0,0,4192,-648,0,6043,736,111,14873,-4,0,-2,0,265912,0
265931,-264,-1915,25,1291,-494,4043,16846,-768,5,-330,-1640,35434,-89,34,127,0,0,4133,-604,0,6043,736,111,14883,-4,0,0,0,265912,0
265941,-307,-1950,-58,1166,-694,4640,16500,-744,9,-305,-1512,35449,-84,34,127,0,0,4073,-604,0,6043,736,111,14893,-4,0,1,0,265912,0
265951,-358,-1943,-130,1069,-695,4990,16168,-734,33,-280,-1456,35451,-66,34,127,0,0,4018,-549,0,6043,736,111,14903,-4,0,3,0,265927,0
265961,-405,-1863,-222,896,-572,5560,15849,-700,48,-287,-1352,35449,-79,34,127,0,0,3966,-505,0,6043,736,111,14913,-4,0,5,0,265959,0
265971,-430,-1849,-320,794,-411,5914,15544,-670,54,-285,-1256,35443,-85,34,127,0,0,3919,-472,0,6043,736,111,14923,-4,0,8,0,265959,0
265981,-398,-1871,-382,732,-122,6379,15255,-618,53,-256,-1112,35438,-110,34,127,0,0,3882,-395,0,6043,736,111,14933,-4,0,10,0,265959,0
265991,-384,-1888,-368,707,119,6641,14992,-573,83,-273,-944,35443,-96,34,127,0,0,3847,-340,0,6043,736,111,14943,-4,0,13,0,265990,0
266001,-314,-1974,-268,662,572,6977,14753,-512,92,-264,-856,35448,-68,34,127,0,0,3814,-318,0,6043,736,111,14953,-4,0,15,0,265990,0
266011,-286,-2026,-207,621,870,7173,14532,-474,77,-284,-696,35444,-62,34,127,0,0,3783,-274,0,6043,736,111,14963,-4,0,19,0,265990,0
266021,-182,-2070,-171,584,1334,7429,14334,-431,70,-275,-520,35444,-66,34,127,0,0,3763,-186,0,6043,736,111,14973,-4,0,21,0,266005,0
266031,-105,-2079,-152,581,1635,7516,14157,-375,79,-232,-408,35444,-90,34,127,0,0,3744,-208,0,6043,736,111,14983,-4,0,25,0,266005,0
266041,68,-2120,-93,583,2137,7527,14009,-314,95,-244,-408,35451,-78,34,127,0,0,3711,-318,0,6043,736,111,14993,-4,0,27,0,266021,0
266051,118,-2191,-24,583,2404,7558,13865,-320,61,-323,-568,35454,-62,34,127,0,0,3671,-439,0,6043,736,111,15003,-4,0,31,0,266084,0
266061,128,-2306,171,568,2656,7661,13706,-359,-19,-442,-736,35453,-70,34,127,0,0,3625,-417,0,6043,736,111,15013,-4,0,33,0,266084,0
266071,131,-2358,303,546,2740,7647,13531,-390,-60,-408,-760,35450,-80,34,127,0,0,3592,-285,0,6043,736,111,15023,-4,0,37,27,266084,0
266081,250,-2487,343,534,2735,7426,13351,-383,-44,-374,-744,35444,-82,34,127,0,0,3563,-263,0,6043,736,111,15033,-4,0,39,24,266084,0
266091,477,-2546,342,552,2656,7147,13176,-390,5,-352,-616,35436,-76,34,127,0,0,3539,-252,0,6043,736,111,15043,-4,0,43,21,266099,0
266101,660,-2683,428,575,2391,6623,13010,-361,26,-330,-592,35434,-74,34,127,0,0,3511,-274,0,6043,736,111,15053,-4,0,45,19,266099,0
266111,673,-2717,561,544,2192,6263,12867,-313,60,-392,-528,35437,-86,34,127,0,0,3489,-197,0,6043,736,111,15063,-4,0,48,17,266099,0
266121,637,-2767,786,366,1956,5531,12726,-306,49,-365,-392,35437,-95,34,127,0,0,3476,-109,0,6043,736,111,15073,-4,0,50,16,266099,0
266131,707,-2820,777,303,1863,4827,12610,-221,53,-276,-248,35439,-76,34,127,0,0,3469,-87,0,6043,736,111,15083,-4,0,52,15,266099,0
266141,901,-2489,531,274,1687,3669,12542,-121,135,-352,-192,35448,-68,34,127,0,0,3460,-76,0,6043,736,111,15093,-4,0,54,14,266162,0
266151,1060,-2148,474,407,1520,2870,12499,-73,138,-382,-216,35456,-67,34,127,0,0,3454,-87,0,6043,736,111,15103,-4,0,55,14,266162,0
266162,1218,-1525,268,506,987,1449,12453,-70,49,-341,-168,35454,-79,34,127,0,0,3440,-137,0,6043,736,111,15114,-4,0,56,13,266162,0
266172,1250,-1232,313,501,677,485,12430,-62,39,-554,-256,35449,-65,34,127,0,0,3427,-181,0,6043,736,111,15124,-4,0,57,12,266162,0
266182,1121,-8764,-1708,-1266,-888,246,12376,-122,-32,-361,520,35440,-65,34,127,0,0,3595,2224,0,6043,736,111,15134,-4,0,57,11,266162,0
266192,-1972,-1547,2046,816,-376,-1477,12580,755,403,1760,2792,35433,-96,34,127,0,0,3827,2180,0,3216,114,112,0,1,0,57,11,266162,0
266202,-31,-1538,462,179,221,-2483,13133,1383,1221,1232,3816,35423,-70,34,127,0,0,3994,1571,0,3216,114,112,10,1,0,57,10,266177,0
266212,-424,-2912,-264,-386,-590,-2174,13832,1570,950,561,3808,35419,-43,34,127,0,0,4127,1318,0,3216,114,112,20,1,0,57,10,266209,0
266222,-1015,-1903,-477,199,-1419,-2140,14559,1618,322,547,3856,35414,-4,34,127,0,0,4265,1400,0,3216,114,112,30,1,0,56,9,266224,0
266232,-363,-2661,-810,204,-1038,-2748,15316,1665,109,440,3720,35408,-13,34,127,0,0,4394,1246,0,3216,114,112,40,1,0,56,9,266224,0
266242,56,-3844,263,504,-763,-3018,16040,1550,4,329,3432,35404,-35,34,127,0,0,4493,1016,0,3216,114,112,50,1,0,55,9,266224,0
266252,471,-3338,1048,671,-919,-3233,16693,1385,-197,243,2872,35405,-43,34,127,0,0,4556,565,0,3216,114,112,60,1,0,55,9,266224,0
266262,-54,-2848,1154,266,-953,-3726,17250,1153,-322,102,1920,35414,-44,34,127,0,0,4553,-87,0,3216,114,112,70,1,0,54,9,266240,0
266272,412,-2534,587,321,-761,-4110,17677,841,-429,-39,736,35425,-37,34,127,0,0,4515,-461,0,3216,114,112,80,1,0,53,9,266255,0
266282,31,-1589,85,493,-445,-3939,17922,359,-583,-666,-360,35430,-69,34,127,0,0,4462,-532,0,3216,114,112,90,1,0,52,9,266255,0
266292,137,-1790,151,511,-190,-3742,17820,-343,-1025,-598,-672,35435,-96,34,127,0,0,4415,-444,0,3216,114,112,100,1,0,52,9,266271,0
266302,25,-2125,560,348,-420,-3261,17624,-447,-844,-297,-704,35434,-112,34,127,0,0,4385,-335,0,3216,114,112,110,1,0,51,10,266287,0
266312,805,-2980,1038,312,-87,-3763,17427,-433,-157,-303,-904,35436,-111,34,127,0,0,4305,-922,0,3216,114,112,120,1,0,50,10,266287,0
266322,-118,-2104,510,294,-123,-3723,17200,-556,-52,-611,-1448,35431,-95,34,127,0,0,4207,-900,0,3216,114,112,130,1,0,49,11,266302,0
266332,142,-1766,483,362,-63,-3831,16891,-731,-212,-636,-1864,35428,-87,34,127,0,0,4108,-1043,0,3216,114,112,140,1,0,48,11,266318,0
266342,565,-1451,-358,362,0,-3203,16506,-887,-307,-538,-2136,35418,-72,34,127,0,0,4017,-922,0,3216,114,112,150,1,0,47,12,266318,0
266352,667,-1911,-56,443,-214,-2690,16077,-960,-227,-355,-2072,35421,-59,34,127,0,0,3944,-708,0,3216,114,112,160,1,0,46,12,266318,0
266362,236,-2010,264,370,-181,-2437,15655,-912,-82,-290,-1872,35422,-63,34,127,0,0,3882,-609,0,3216,114,112,170,1,0,45,13,266365,0
266372,228,-2233,382,364,1,-2367,15250,-866,52,-253,-1744,35430,-63,34,127,0,0,3818,-642,0,3216,114,112,180,1,0,44,13,266365,0
266382,517,-2245,476,413,11,-2081,14874,-818,93,-314,-1616,35426,-76,34,127,0,0,3759,-576,0,3216,114,112,190,1,0,43,14,266380,0
266392,620,-2172,424,399,-89,-1760,14517,-771,84,-274,-1480,35417,-73,34,127,0,0,3707,-516,0,3216,114,112,200,1,0,42,14,266380,0
266403,525,-2026,339,316,-169,-1399,14157,-694,94,-243,-1200,35416,-76,34,127,0,0,3671,-351,0,3216,114,112,211,1,0,41,15,266380,0
266413,322,-1990,198,258,-78,-1148,13866,-621,116,-182,-1000,35419,-72,34,127,0,0,3640,-285,0,3216,114,112,221,1,0,41,15,266412,0
266423,214,-1989,210,251,-29,-974,13618,-511,144,-194,-744,35430,-85,34,127,0,0,3616,-197,0,3216,114,112,231,1,0,41,15,266412,0
266433,385,-2143,364,246,-39,-757,13411,-436,167,-218,-504,35428,-79,34,127,0,0,3603,-109,0,3216,114,112,241,1,0,41,15,266412,0
266443,281,-2166,478,186,-83,-606,13251,-330,159,-190,-248,35421,-78,34,127,0,0,3596,-43,0,3216,114,112,251,1,0,41,15,266412,0
266453,303,-2057,436,52,-89,-509,13141,-194,179,-12,-40,35415,-68,34,127,0,0,3596,0,0,3216,114,112,261,1,0,41,15,266443,0
266463,232,-2282,398,-50,-51,-414,13130,32,282,94,24,35419,-82,34,127,0,0,3599,0,0,3216,114,112,271,1,0,41,15,266443,0
266473,233,-2427,493,23,-182,-180,13155,69,256,119,112,35421,-82,34,127,0,0,3618,175,0,3216,114,112,281,1,0,41,15,266443,0
266483,230,-2176,558,100,-268,-140,13207,120,117,378,344,35415,-85,34,127,0,0,3647,296,0,3216,114,112,291,1,0,41,15,266458,0
266493,319,-2036,499,83,-303,-230,13296,212,121,430,424,35419,-75,34,127,0,0,3671,285,0,3216,114,112,301,1,0,41,15,266490,0
266503,276,-2011,461,33,-334,-220,13419,285,123,401,408,35414,-76,34,127,0,0,3695,252,0,3216,114,112,311,1,0,41,15,266490,0
266513,333,-1977,315,-38,-351,-172,13551,279,78,352,464,35416,-68,34,127,0,0,3724,307,0,3216,114,112,321,1,0,41,15,266505,0
266523,243,-1961,255,-81,-297,-180,13679,278,11,411,488,35413,-59,34,127,0,0,3748,252,0,3216,114,112,331,1,0,41,15,266521,0
266533,226,-1986,299,-83,-177,-276,13815,307,7,405,504,35412,-72,34,127,0,0,3774,230,0,3216,114,112,341,1,0,41,15,266521,0
266543,294,-1976,364,-53,-161,-288,13945,288,4,429,464,35416,-85,34,127,0,0,3799,274,0,3216,114,112,351,1,0,41,15,266521,0
266553,353,-2009,394,-75,-263,-234,14074,282,-18,450,496,35422,-98,34,127,0,0,3823,241,0,3216,114,112,361,1,0,41,15,266537,0
266563,301,-2154,452,-123,-322,-250,14206,301,-3,440,480,35426,-88,34,127,0,0,3849,274,0,3216,114,112,371,1,0,41,15,266537,0
266573,301,-2172,489,-80,-270,-342,14343,293,16,415,448,35431,-52,34,127,0,0,3875,263,0,3216,114,112,381,1,0,41,15,266583,0
266583,274,-2055,464,-79,-204,-435,14482,303,13,410,432,35423,-32,34,127,0,0,3893,164,0,3216,114,112,391,1,0,41,15,266583,0
266593,347,-2045,465,-130,-193,-505,14612,289,-17,334,320,35423,-53,34,127,0,0,3911,153,0,3216,114,112,401,1,0,41,15,266583,0
266603,348,-2057,488,-143,-245,-488,14719,220,-54,363,312,35414,-80,34,127,0,0,3926,175,0,3216,114,112,411,1,0,41,15,266583,0
266613,271,-2043,464,-148,-425,-436,14815,213,-75,412,328,35416,-109,34,127,0,0,3948,230,0,3216,114,112,421,1,0,41,15,266583,0
266623,252,-2064,460,-164,-553,-431,14916,223,-7,441,424,35420,-90,34,127,0,0,3977,252,0,3216,114,112,431,1,0,41,15,266615,0
266633,190,-2084,454,-180,-594,-538,15043,307,59,439,480,35436,-98,34,127,0,0,4005,263,0,3216,114,112,441,1,0,41,15,266615,0
266643,197,-2221,440,-145,-595,-660,15178,301,69,399,488,35439,-77,34,127,0,0,4031,274,0,3216,114,112,451,1,0,41,15,266615,0
266654,56,-2156,516,-117,-507,-866,15324,292,6,389,384,35437,-75,34,127,0,0,4045,126,0,3216,114,112,462,1,0,41,15,266630,0
266664,70,-2115,566,-178,-463,-1018,15444,230,-27,274,200,35429,-70,34,127,0,0,4051,5,0,3216,114,112,472,1,0,41,15,266662,0
266674,185,-2108,561,-192,-483,-1203,15511,98,-131,289,128,35432,-69,34,127,0,0,4058,10,0,3216,114,112,482,1,0,41,15,266662,0
266684,225,-2060,430,-178,-547,-1291,15535,46,-187,367,120,35426,-93,34,127,0,0,4066,38,0,3216,114,112,492,1,0,41,15,266662,0
266694,169,-2054,360,-208,-625,-1332,15557,31,-79,333,120,35419,-76,34,127,0,0,4067,49,0,3216,114,112,502,1,0,-10,0,266662,0
266704,75,-2127,444,-234,-647,-1388,15566,23,-41,464,168,35417,-79,34,127,0,0,4073,38,0,3216,114,112,512,1,0,-10,0,266724,0
266714,73,-2157,528,-259,-629,-1572,15590,68,8,448,144,35429,-94,34,127,0,0,4075,-5,0,3216,114,112,522,1,0,-10,0,266724,0
266724,114,-2173,502,-284,-612,-1730,15634,76,74,234,56,35426,-93,34,127,0,0,4075,-43,0,3216,114,112,532,1,0,-11,0,266724,0
266734,164,-2173,491,-271,-623,-1936,15625,-33,-72,270,72,35426,-79,34,127,0,0,4075,0,0,3216,114,112,542,1,0,-11,0,266740,0
266744,201,-2148,425,-266,-696,-2022,15627,1,-79,208,40,35419,-56,34,127,0,0,4077,16,0,3216,114,112,552,1,0,-11,0,266740,0
266754,187,-2071,416,-274,-849,-2182,15625,10,15,211,48,35420,-58,34,127,0,0,4067,-54,0,3216,114,112,562,1,0,-12,0,266740,0
266764,137,-2087,361,-279,-937,-2243,15621,-12,-10,77,-16,35420,-60,34,127,0,0,4067,-65,0,3216,114,112,572,1,0,-12,0,266755,0
266774,72,-1992,361,-234,-1013,-2446,15619,4,-3,-2,-32,35426,-57,34,127,0,0,4064,-60,0,3216,114,112,582,1,0,-12,0,266755,0
266784,84,-2035,293,-269,-1005,-2573,15610,-26,-6,-156,-80,35436,-40,34,127,0,0,4061,16,0,3216,114,112,592,1,0,-13,0,266755,0
266794,31,-2056,234,-308,-896,-2801,15605,-5,-10,-254,-96,35434,-53,34,127,0,0,4052,-49,0,3216,114,112,602,1,0,-13,0,266786,0
266804,43,-2069,145,-341,-801,-2901,15596,-32,1,-371,-144,35435,-38,34,127,0,0,4042,-104,0,3216,114,112,612,1,0,-13,0,266786,0
266814,173,-2122,71,-382,-616,-3098,15571,-73,-46,-399,-200,35431,-41,34,127,0,0,4038,-120,0,3216,114,112,622,1,0,-13,0,266786,0
266824,301,-2142,61,-372,-528,-3264,15506,-145,-109,-224,-136,35426,-52,34,127,0,0,4025,-159,0,3216,114,112,632,1,0,-12,0,266802,0
266834,286,-2122,188,-307,-420,-3402,15434,-138,-57,-188,-104,35427,-63,34,127,0,0,4014,-148,0,3216,114,112,642,1,0,-12,0,266818,0
266844,382,-2055,290,-320,-485,-3416,15382,-79,39,-213,-72,35431,-68,34,127,0,0,4007,-76,0,3216,114,112,652,1,0,-12,0,266818,0
266854,491,-2062,414,-337,-595,-3438,15352,-63,68,-212,-56,35430,-66,34,127,0,0,4010,0,0,3216,114,112,662,1,0,-11,0,266927,0
266864,419,-1969,425,-349,-624,-3520,15346,18,91,-181,-40,35433,-69,34,127,0,0,4010,0,0,3216,114,112,672,1,0,-11,0,266927,0
266874,496,-1863,253,-408,-622,-3550,15346,-7,67,-156,-16,35436,-68,34,127,0,0,4012,32,0,3216,114,112,682,1,0,-10,0,266943,0
266884,575,-1890,157,-420,-631,-3566,15348,0,13,-52,40,35434,-70,34,127,0,0,4022,109,0,3216,114,112,692,1,0,-10,0,266943,0
266894,645,-1885,122,-401,-627,-3661,15364,49,21,273,120,35429,-71,34,127,0,0,4036,137,0,3216,114,112,702,1,0,-9,0,266943,0
266904,721,-1841,78,-392,-591,-3761,15405,111,65,322,128,35424,-65,34,127,0,0,4048,148,0,3216,114,112,712,1,0,-9,0,266958,0
266914,352,-1461,21,-693,-478,-3581,15449,71,57,317,88,35423,-52,34,127,0,0,4042,-16,0,3216,114,112,722,1,0,-8,0,266958,0
266924,-439,-1681,410,-781,-778,-2761,15465,38,-56,370,296,35424,-65,34,127,0,0,4100,653,0,3216,114,112,732,1,0,-7,0,266958,0
266934,638,-2768,134,-1158,-1049,-2986,15563,324,98,1007,1104,35423,-73,34,127,0,0,4192,922,0,3216,114,112,742,1,0,-6,0,266958,0
266944,-74,-2970,265,-1089,-443,-3479,15798,569,437,612,1248,35424,-73,34,127,0,0,4238,455,0,3216,114,112,752,1,0,-5,0,266958,0
266954,657,-3091,25,-422,-11,-4431,16063,573,325,417,1152,35421,-50,34,127,0,0,4276,324,0,3216,114,112,762,1,0,-3,0,266958,0
266965,977,-3027,39,-379,468,-4856,16332,506,-3,327,752,35424,-50,34,127,0,0,4271,-131,0,3216,114,112,773,1,0,-2,0,266958,0
266975,1232,-3504,737,-235,-22,-4814,16511,337,-158,211,280,35428,-57,34,127,0,0,4269,0,0,3216,114,112,783,1,0,-1,0,266958,0
266985,278,-3159,886,-274,-419,-4622,16625,201,-257,106,56,35447,-60,34,127,0,0,4273,43,0,3216,114,112,793,1,0,0,0,266958,0
266995,224,-2934,798,-360,-535,-4592,16646,25,-309,432,208,35458,-54,34,127,0,0,4297,219,0,3216,114,112,803,1,0,2,0,266990,0
267005,439,-2930,291,-242,-436,-4756,16701,169,-120,639,416,35463,-66,34,127,0,0,4324,252,0,3216,114,112,813,1,0,4,0,267005,0
267015,653,-2789,265,-114,-613,-4630,16798,217,157,530,440,35450,-71,34,127,0,0,4352,296,0,3216,114,112,823,1,0,6,0,267005,0
267025,553,-2464,541,-49,-1181,-4085,16908,265,101,613,608,35437,-81,34,127,0,0,4392,428,0,3216,114,112,833,1,0,8,0,267005,0
267035,560,-2180,742,-111,-1594,-3724,17050,349,91,638,984,35432,-69,34,127,0,0,4464,780,0,3216,114,112,843,1,0,12,0,267005,0
267045,513,-1808,703,-193,-2030,-3454,17255,507,183,763,1384,35440,-63,34,127,0,0,4539,758,0,3216,114,112,853,1,0,14,0,267036,0
267055,516,-1691,494,-164,-2148,-3221,17530,642,258,704,1640,35439,-56,34,127,0,0,4618,791,0,3216,114,112,863,1,0,18,0,267036,0
267065,1653,-1671,487,-3,-2444,-3054,17848,738,218,696,1848,35435,-27,34,127,0,0,4680,582,0,3216,114,112,873,1,0,20,0,267036,0
267075,970,-2419,98,-208,-2174,-2946,18192,735,143,353,1024,35442,-13,34,127,0,0,4653,-351,0,3216,114,112,883,1,0,24,0,267068,0
267085,428,-2356,610,5,-2088,-2002,18434,441,-139,108,152,35446,-14,34,127,0,0,4612,-417,0,3216,114,112,893,1,0,26,0,267068,0
267095,178,-1927,703,-143,-2194,-1652,18490,-49,-555,-634,-352,35448,-31,34,127,0,0,4576,-329,0,3216,114,112,903,1,0,31,0,267068,0
267105,151,-1832,584,-233,-2125,-1903,18370,-324,-726,-349,-480,35442,-46,34,127,0,0,4528,-505,0,3216,114,112,913,1,0,34,0,267099,0
267115,595,-1864,170,-192,-1969,-1765,18191,-426,-441,-341,-744,35436,-69,34,127,0,0,4475,-560,0,3216,114,112,923,1,0,38,0,267099,0
267125,695,-1794,170,-211,-1452,-1265,17986,-460,-159,-352,-944,35431,-71,34,127,0,0,4416,-615,0,3216,114,112,933,1,0,41,0,267099,0
267135,472,-1643,285,-176,-898,-1083,17757,-528,-88,-381,-1112,35427,-58,34,127,0,0,4359,-560,0,3216,114,112,943,1,0,46,0,267130,0
267145,528,-1569,202,-124,75,-995,17507,-560,-94,-383,-1264,35425,-59,34,127,0,0,4293,-670,0,3216,114,112,953,1,0,49,0,267130,0
267155,754,-1568,21,-89,696,-785,17234,-613,-79,-439,-1448,35425,-50,34,127,0,0,4225,-670,0,3216,114,112,963,1,0,54,0,267130,0
267166,853,-1373,-17,-3,1510,-324,16902,-691,-101,-404,-1464,35424,-47,34,127,0,0,4163,-527,0,3216,114,112,974,1,0,59,0,267146,0
267176,848,-1147,-34,50,2011,-97,16593,-679,-64,-323,-1352,35435,-53,34,127,0,0,4109,-483,0,3216,114,112,984,1,0,63,81,267161,0
267186,1113,-976,-86,52,2589,216,16295,-654,3,-281,-1248,35442,-64,34,127,0,0,4061,-483,0,3216,114,112,994,1,0,68,74,267161,0
267196,1312,-919,-47,47,2825,526,16003,-628,35,-286,-1200,35442,-74,34,127,0,0,4012,-455,0,3216,114,112,1004,1,0,72,69,267177,0
267206,1464,-774,40,-11,2919,1020,15727,-601,43,-300,-1120,35435,-71,34,127,0,0,3969,-395,0,3216,114,112,1014,1,0,77,63,267208,0
267216,1551,-721,103,-60,2856,1287,15463,-568,46,-285,-1088,35439,-65,34,127,0,0,3921,-422,0,3216,114,112,1024,1,0,80,60,267208,0
267226,1762,-800,137,-132,2556,1626,15207,-554,34,-368,-1088,35444,-59,34,127,0,0,3872,-488,0,3216,114,112,1034,1,0,85,55,267224,0
267236,1844,-832,225,-287,2221,1893,14950,-566,15,-379,-1112,35440,-61,34,127,0,0,3822,-499,0,3216,114,112,1044,1,0,89,52,267224,0
267246,1885,-940,310,-418,1589,2275,14694,-576,-3,-337,-1064,35435,-71,34,127,0,0,3781,-417,0,3216,114,112,1054,1,0,93,48,267240,0
267256,1925,-1005,304,-499,1189,2453,14442,-552,7,-334,-1008,35430,-65,34,127,0,0,3743,-384,0,3216,114,112,1064,1,0,96,45,267271,0
267266,2012,-1159,279,-606,709,2672,14204,-532,36,-344,-1000,35431,-54,34,127,0,0,3695,-406,0,3216,114,112,1074,1,0,101,42,267271,0
267276,1979,-1103,259,-662,410,2802,13971,-517,27,-330,-984,35430,-49,34,127,0,0,3654,-422,0,3216,114,112,1084,1,0,104,40,267271,0
267286,1970,-898,211,-770,-108,3002,13738,-516,17,-370,-960,35431,-44,34,127,0,0,3612,-357,0,3216,114,112,1094,1,0,108,38,267271,0
267296,1979,-859,115,-785,-453,3126,13518,-473,20,-315,-896,35428,-56,34,127,0,0,3580,-362,0,3216,114,112,1104,1,0,110,36,267271,0
267306,1907,-892,10,-784,-811,3330,13311,-440,48,-345,-816,35433,-72,34,127,0,0,3550,-307,0,3216,114,112,1114,1,0,114,34,267286,0
267316,1793,-882,-3,-772,-976,3479,13116,-414,48,-291,-712,35438,-72,34,127,0,0,3518,-307,0,3216,114,112,1124,1,0,116,33,267364,0
267326,1650,-931,-14,-767,-1061,3667,12937,-371,48,-365,-640,35435,-69,34,127,0,0,3496,-241,0,3216,114,112,1134,1,0,119,32,267364,0
267336,1609,-976,-22,-776,-1031,3778,12775,-345,63,-341,-512,35430,-69,34,127,0,0,3477,-142,0,3216,114,112,1144,1,0,121,30,267380,0
267346,1415,-1014,-107,-805,-780,3883,12628,-314,57,-301,-432,35420,-74,34,127,0,0,3451,-225,0,3216,114,112,1154,1,0,124,29,267380,0
267356,1302,-1084,-160,-822,-510,3902,12506,-258,74,-372,-408,35420,-70,34,127,0,0,3426,-285,0,3216,114,112,1164,1,0,126,28,267380,0
267366,1183,-1171,-217,-786,1,3957,12390,-257,63,-396,-464,35419,-51,34,127,0,0,3401,-280,0,3216,114,112,1174,1,0,129,27,267380,0
267376,1098,-1182,-254,-760,381,4038,12271,-284,2,-484,-480,35419,-55,34,127,0,0,3370,-269,0,3216,114,112,1184,1,0,131,26,267380,0
267386,997,-1173,-228,-763,1023,4189,12154,-259,-9,-490,-496,35419,-64,34,127,0,0,3349,-219,0,3216,114,112,1194,1,0,134,24,267380,0
267396,1022,-1210,-186,-786,1442,4275,12032,-270,-7,-447,-456,35424,-63,34,127,0,0,3333,-170,0,3216,114,112,1204,1,0,136,23,267380,0
267407,996,-1334,-156,-773,1995,4401,11897,-256,-12,-349,-328,35422,-55,34,127,0,0,3322,-131,0,3216,114,112,1215,1,0,139,22,267396,0
267417,1020,-1485,-89,-716,2433,4517,11802,-180,53,-378,-248,35432,-58,34,127,0,0,3311,-87,0,3216,114,112,1225,1,0,140,21,267396,0
267427,1112,-1613,-27,-673,2690,4622,11730,-149,95,-305,-144,35434,-47,34,127,0,0,3309,-21,0,3216,114,112,1235,1,0,143,19,267411,0
267437,1227,-1775,176,-667,2920,4721,11692,-31,101,-255,-80,35439,-53,34,127,0,0,3309,0,0,3216,114,112,1245,1,0,145,19,267427,0
267447,1316,-1864,299,-693,2965,4742,11701,12,164,-357,-128,35431,-43,34,127,0,0,3309,0,0,3216,114,112,1255,1,0,148,17,267427,0
267457,1277,-1963,361,-736,2879,4692,11697,-11,63,-365,-104,35423,-53,34,127,0,0,3306,0,0,3216,114,112,1265,1,0,150,17,267443,0
267467,1262,-2041,341,-759,2738,4648,11697,-1,-18,-397,-152,35431,-73,34,127,0,0,3304,-10,0,3216,114,112,1275,1,0,152,15,267443,0
267477,1187,-2144,328,-734,2487,4564,11697,-2,5,-391,-144,35429,-76,34,127,0,0,3304,0,0,3216,114,112,1285,1,0,154,15,267458,0
267487,1138,-2159,333,-697,2311,4534,11695,-2,-2,-436,-88,35419,-68,34,127,0,0,3304,32,0,3216,114,112,1295,1,0,156,14,267474,0
267497,1081,-2133,380,-624,2013,4533,11696,1,-2,-416,-136,35422,-63,34,127,0,0,3304,-21,0,3216,114,112,1305,1,0,158,13,267474,0
267507,990,-2113,393,-550,1758,4551,11697,4,5,-357,-88,35427,-62,34,127,0,0,3309,0,0,3216,114,112,1315,1,0,160,13,267474,0
267517,861,-2094,371,-399,1387,4581,11697,0,-5,-335,-120,35428,-62,34,127,0,0,3309,21,0,3216,114,112,1325,1,0,162,12,267505,0
267527,784,-2108,368,-292,1175,4635,11698,0,-2,-327,-88,35425,-70,34,127,0,0,3311,21,0,3216,114,112,1335,1,0,164,12,267505,0
267537,630,-2113,349,-126,907,4738,11699,6,8,-269,-72,35422,-68,34,127,0,0,3313,21,0,3216,114,112,1345,1,0,165,11,267521,0
267547,565,-2100,294,-41,786,4809,11703,22,5,-141,-32,35424,-60,34,127,0,0,3320,65,0,3216,114,112,1355,1,0,167,11,267521,0
267557,454,-2143,205,76,674,4884,11718,36,30,49,48,35430,-48,34,127,0,0,3324,43,0,3216,114,112,1365,1,0,168,11,267536,0
267567,378,-2179,204,153,628,4913,11724,10,1,198,104,35428,-45,34,127,0,0,3328,0,0,3216,114,112,1375,1,0,170,10,267552,0
267577,279,-2251,237,217,585,4913,11727,0,-23,272,80,35426,-53,34,127,0,0,3335,54,0,3216,114,112,1385,1,0,171,10,267552,0
267587,244,-2281,238,236,568,4895,11736,21,5,367,112,35432,-60,34,127,0,0,3337,21,0,3216,114,112,1395,1,0,173,10,267599,0
267597,201,-2293,204,266,544,4874,11753,37,24,305,112,35439,-61,34,127,0,0,3335,10,0,3216,114,112,1405,1,0,174,10,267599,0
267607,175,-2289,181,282,517,4851,11780,47,34,139,48,35446,-41,34,127,0,0,3337,21,0,3216,114,112,1415,1,0,176,9,267614,0
267617,191,-2315,195,302,488,4801,11785,-8,-26,190,96,35437,-49,34,127,0,0,3344,54,0,3216,114,112,1425,1,0,177,9,267632,0
267627,186,-2313,188,305,471,4749,11794,31,-36,353,184,35433,-62,34,127,0,0,3350,65,0,3216,114,112,1435,1,0,178,9,267635,0
267637,293,-2345,173,315,501,4641,11835,120,71,318,136,35431,-76,34,127,0,0,3359,76,0,3216,114,112,1445,1,0,179,9,267637,0
267647,379,-2374,228,296,499,4593,11896,130,106,208,72,35435,-72,34,127,0,0,3364,54,0,3216,114,112,1455,1,0,181,9,267640,0
267657,424,-2266,248,289,453,4388,11934,49,-13,208,104,35434,-71,34,127,0,0,3372,76,0,3216,114,112,1465,1,0,182,9,267644,0
267668,471,-2176,223,294,398,4199,11970,94,-55,252,112,35436,-64,34,127,0,0,3382,87,0,3216,114,112,1476,1,0,183,9,267644,0
267678,697,-2068,215,316,215,3966,11994,33,-1,296,128,35449,-46,34,127,0,0,3382,54,0,3216,114,112,1486,1,0,184,9,267675,0
267688,746,-2006,260,332,36,3790,12007,31,-48,343,152,35452,-41,34,127,0,0,3390,93,0,3216,114,112,1496,1,0,185,9,267675,0
267698,842,-1985,298,376,-280,3450,12043,105,21,376,168,35450,-46,34,127,0,0,3405,93,0,3216,114,112,1506,1,0,186,9,267675,0
267708,949,-1969,320,404,-509,3208,12096,144,81,356,184,35454,-64,34,127,0,0,3413,120,0,3216,114,112,1516,1,0,186,9,267690,0
267718,1080,-1977,351,458,-814,2804,12163,150,57,270,184,35457,-99,34,127,0,0,3426,120,0,3216,114,112,1526,1,0,187,9,267690,0
267728,1104,-1994,412,487,-1011,2529,12214,121,4,259,112,35460,-109,34,127,0,0,3431,65,0,3216,114,112,1536,1,0,187,9,267722,0
267738,1052,-1956,449,490,-1288,2056,12264,91,-37,153,32,35458,-96,34,127,0,0,3436,43,0,3216,114,112,1546,1,0,187,9,267722,0
267748,1034,-1915,412,489,-1427,1717,12289,19,-71,69,24,35454,-91,34,127,0,0,3434,5,0,3216,114,112,1556,1,0,187,9,267722,0
267758,1037,-1853,389,479,-1618,1189,12284,3,-103,164,32,35457,-80,34,127,0,0,3437,27,0,3216,114,112,1566,1,0,186,9,267753,0
267768,1072,-1846,333,483,-1725,813,12287,-2,-27,209,48,35465,-93,34,127,0,0,3436,0,0,3216,114,112,1576,1,0,186,9,267753,0
267778,1106,-1811,276,438,-1751,187,12288,10,4,207,24,35465,-100,34,127,0,0,3434,-38,0,3216,114,112,1586,1,0,185,9,267753,0
267788,1022,-1843,324,436,-1632,-377,12282,-19,-11,-6,-136,35458,-92,34,127,0,0,3410,-263,0,3216,114,112,1596,1,0,184,9,267768,0
267798,938,-1948,283,396,-1457,-1060,12249,-100,-70,-536,-336,35452,-88,34,127,0,0,3380,-307,0,3216,114,112,1606,1,0,183,8,267768,0
267808,829,-1953,318,259,-1256,-1491,12163,-223,-165,-547,-512,35454,-76,34,127,0,0,3347,-329,0,3216,114,112,1616,1,0,182,8,267784,0
267818,772,-1829,258,120,-840,-2140,12033,-299,-181,-475,-576,35457,-93,34,127,0,0,3320,-263,0,3216,114,112,1626,1,0,180,8,267784,0
267828,927,-1627,16,31,-561,-2620,11886,-324,-106,-408,-584,35457,-104,34,127,0,0,3288,-285,0,3216,114,112,1636,1,0,179,8,267815,0
267838,1090,-1336,-306,23,-97,-3409,11742,-323,14,-512,-688,35456,-106,34,127,0,0,3244,-450,0,1190,146,113,2,1,1,178,8,267815,0
267848,-205,-6933,-764,-226,-879,-3277,11630,-115,32,589,928,35451,-102,34,127,0,0,3271,499,0,1190,146,113,12,1,1,178,8,267815,0
267858,-460,-2793,2526,1241,-632,-4144,11864,718,690,1152,2312,35456,-92,34,127,0,0,3346,692,0,1190,146,113,22,1,1,178,8,267847,0
267868,-573,-958,1488,327,-953,-5071,12309,1060,1096,737,2680,35452,-94,34,127,0,0,3346,-82,0,1190,146,113,32,1,1,178,8,267847,0
267878,-1290,-2234,15,-776,-1976,-4655,12801,1084,492,465,2680,35445,-65,34,127,0,0,3349,43,0,1190,146,113,42,1,1,178,8,267847,0
267888,-1736,-2001,-577,-122,-2942,-4483,13301,1122,91,602,3072,35444,-55,34,127,0,0,3412,642,0,1190,146,113,52,1,1,178,8,267862,0
267898,-956,-2651,-1024,523,-1678,-5970,13888,1368,170,768,3264,35443,-34,34,127,0,0,3425,-49,0,1190,146,113,62,1,1,178,8,267878,0
267908,-391,-1660,-1113,580,-646,-7243,14514,1354,267,172,2320,35448,-59,34,127,0,0,3334,-1093,0,1190,146,113,72,1,1,178,8,267909,0
267919,500,-1307,153,641,1667,-9534,15090,1023,-149,-355,-216,35443,-70,34,127,0,0,3045,-2889,0,1190,146,113,83,1,1,178,8,267909,0
267929,5297,368,-360,386,-781,-6912,14947,-838,-1450,-123,-1648,35445,-98,34,127,0,0,2957,-538,700,1190,146,113,93,1,1,178,8,267909,0
267939,3427,-964,784,380,-1260,-6591,14033,-2506,-2803,386,-5600,35445,-107,34,127,0,0,2805,-1669,900,1190,146,113,103,1,1,178,8,267925,0
267949,-2215,-481,-1620,761,485,-7480,12613,-3243,-2458,351,-6752,35453,-123,34,127,0,0,2562,-2548,1100,1190,146,113,113,1,1,178,8,267925,0
267959,656,-1488,-1869,1823,3857,-7572,11194,-3008,-946,366,-5336,35460,-137,34,127,0,0,2291,-2647,1300,1190,146,113,123,1,1,178,8,268050,0
267969,5054,-1903,765,2133,2719,-5423,10002,-2417,468,659,-3448,35470,-145,34,127,0,0,2087,-1856,1500,1190,146,113,133,1,1,178,8,268050,0
267979,4508,-2798,1752,1835,129,-3038,9161,-1600,1109,943,-1424,35473,-153,34,127,0,0,1977,-966,1500,1190,146,113,143,1,1,178,8,268050,0
267989,1613,-2664,2742,834,-1074,-1956,8714,-700,1421,1250,56,35477,-166,34,127,0,0,1929,-483,1500,1190,146,113,153,1,1,178,8,268050,0
267999,975,-3084,1739,568,-327,-1920,8751,310,1695,1045,1088,35465,-164,34,127,0,0,1883,-450,1550,1190,146,113,163,1,1,178,8,268050,0
268009,1192,-3124,213,439,304,-1453,9002,652,1352,951,2048,35455,-124,34,127,0,0,1839,-516,1710,1190,146,113,173,1,1,178,8,268065,0
268019,3609,-1988,571,539,-123,121,9297,586,486,1321,1400,35447,-89,34,127,0,0,1880,505,1770,1190,146,113,183,1,1,178,8,268065,0
268029,2217,-2135,1425,50,-702,789,9422,144,-253,1238,456,35442,-58,34,127,0,0,1911,307,1770,1190,146,113,193,1,1,178,8,268065,0
268039,898,-2076,1633,-394,263,880,9456,81,-530,1120,488,35442,-57,34,127,0,0,1931,186,1740,1190,146,113,203,1,1,178,8,268065,0
268049,1350,-2443,1206,-759,701,1482,9574,356,-12,876,1232,35441,-74,34,127,0,0,1959,340,1680,1190,146,113,213,1,1,178,8,268065,0
268059,2554,-3016,1082,-1194,-54,2859,9827,646,434,972,2064,35446,-80,34,127,0,0,2063,1120,1540,1190,146,113,223,1,1,178,8,268065,0
268069,2038,-4769,2730,-2112,-1978,4955,10234,993,556,993,2768,35442,-69,34,127,0,0,2271,2219,1270,1190,146,113,233,1,1,178,8,268065,0
268079,216,-5852,3722,-1573,-2759,5439,10777,1265,561,807,3256,35432,-58,34,127,0,0,2553,2889,970,1190,146,113,243,1,1,178,8,268065,0
268089,-643,-3766,1526,-1679,-3961,5398,11396,1397,407,611,3416,35428,-37,34,127,0,0,2915,3702,790,1190,146,113,253,1,1,178,8,268065,0
268099,-2364,-3057,-201,-1608,-3447,4889,12042,1425,200,477,3504,35445,-32,34,127,0,0,3289,3768,790,1190,146,113,263,1,1,178,8,268081,0
268109,-2415,-3793,-890,-501,-2442,3525,12695,1444,61,472,3616,35460,-19,34,127,0,0,3634,3405,950,1190,146,113,273,1,1,178,8,268081,0
268119,-2250,-3522,-1034,-77,-2509,2991,13370,1503,50,579,3872,35458,-26,34,127,0,0,3985,3570,1180,1190,146,113,283,1,1,178,8,268097,0
268129,-1883,-2392,83,-86,-2691,1998,14106,1672,149,751,4240,35442,-26,34,127,0,0,4333,3438,1470,1190,146,113,293,1,1,178,8,268097,0
268139,-2118,-1960,95,-413,-2753,1766,14946,1933,320,898,4976,35431,-19,34,127,0,0,4666,3350,1780,1190,146,113,303,1,1,178,8,268128,0
268149,-1419,-1538,-289,-992,-2473,95,15923,2242,466,1059,5736,35434,11,34,127,0,0,4974,2977,2020,1190,146,113,313,1,1,178,8,268143,0
268159,-1553,-1795,-238,-922,-2181,-1216,17042,2542,537,1107,6616,35417,44,34,127,0,0,5218,2373,1990,1190,146,113,323,1,1,178,8,268143,0
268170,-971,-2136,-268,-600,-1475,-3516,18453,2963,563,1092,7600,35391,84,34,127,0,0,5422,1818,500,1190,146,113,334,1,1,178,8,268143,0
268180,-1746,-2055,157,-533,-1221,-4467,19617,1729,194,-3342,3064,35387,95,34,127,0,0,5518,950,0,1190,146,113,344,1,1,178,8,268159,0
268190,-2275,-1816,682,-882,-777,-5921,20392,2194,-1211,3316,6104,35409,77,34,127,0,0,5564,324,0,1190,146,113,354,1,1,178,8,268159,0
268200,-1805,-1661,498,-1113,-629,-5916,21463,2252,-41,8,4520,35409,85,34,127,0,0,5621,648,0,1190,146,113,364,1,1,178,8,268190,0
268210,-1862,-1756,56,-1281,-167,-6559,22380,1909,231,-126,3336,35430,-7,34,127,0,0,5675,549,0,1190,146,113,374,1,1,178,8,268206,0
268220,-1499,-1617,-92,-1247,29,-6883,23128,1529,-630,-96,2600,35418,-5,34,127,0,0,5737,664,0,1190,146,113,384,1,1,178,8,268206,0
268230,-846,-1387,164,-1274,267,-7294,23710,1186,-642,27,2144,35453,-124,34,127,0,0,5802,659,0,1190,146,113,394,1,1,178,8,268206,0
268240,-154,-1675,11,-1214,508,-7829,24170,951,-554,162,1776,35453,-103,34,127,0,0,5839,247,0,1190,146,113,404,1,1,178,8,268206,0
268250,43,-1858,-47,-1209,1262,-8533,24537,744,-407,78,752,35444,-89,34,127,0,0,5785,-587,0,1190,146,113,414,1,1,178,8,268237,0
268260,-180,-1858,78,-1047,1534,-8760,24726,158,-474,-1350,-920,35444,-95,34,127,0,0,5662,-1312,0,1190,146,113,424,0,1,178,8,268237,0
268270,-97,-1760,184,-938,1325,-8856,24502,-641,-1155,-1054,-2184,35438,-93,34,127,0,0,5501,-1658,0,1190,146,113,434,0,1,178,8,268253,0
268280,-33,-1622,210,-877,969,-8798,24057,-1100,-1211,-1084,-3168,35442,-89,34,127,0,0,5325,-1801,0,1190,146,113,444,0,1,178,8,268268,0
268290,-6,-1471,175,-830,217,-8687,23429,-1487,-769,-945,-3840,35441,-40,34,127,0,0,5154,-1675,0,1190,146,113,454,0,1,178,8,268268,0
268300,22,-1439,146,-763,-358,-8521,22691,-1672,-564,-731,-4184,35427,-18,34,127,0,0,4976,-1724,0,1190,146,113,464,0,1,178,8,268284,0
268310,84,-1477,142,-701,-1425,-8081,21902,-1750,-304,-621,-4328,35415,3,34,127,0,0,4824,-1554,0,1190,146,113,474,0,1,178,8,268284,0
268320,153,-1666,340,-723,-2061,-7629,21115,-1715,-91,-439,-4208,35422,-29,34,127,0,0,4694,-1252,0,1190,146,113,484,0,1,178,8,268315,0
268330,257,-1997,707,-941,-2667,-6674,20356,-1640,58,-262,-3744,35431,-27,34,127,0,0,4612,-780,0,1190,146,113,494,0,1,178,8,268331,0
268340,398,-2192,899,-1156,-2704,-5979,19643,-1532,144,-91,-2968,35435,-58,34,127,0,0,4553,-505,0,1190,146,113,504,0,1,178,8,268331,0
268350,740,-2423,1078,-1321,-2241,-5045,19010,-1323,239,29,-2192,35432,-80,34,127,0,0,4508,-477,0,1190,146,113,514,0,1,178,8,268346,0
268360,906,-2300,941,-1339,-1760,-4412,18484,-1085,355,26,-1760,35440,-93,34,127,0,0,4437,-725,0,1190,146,113,524,0,1,178,8,268362,0
268370,1038,-1980,852,-1240,-1124,-3412,18054,-900,388,-118,-1848,35449,-92,34,127,0,0,4338,-977,0,1190,146,113,534,0,1,178,8,268362,0
268380,1085,-1657,733,-1078,-808,-2740,17656,-888,248,-440,-2208,35441,-80,34,127,0,0,4225,-1131,0,1190,146,113,544,0,1,178,8,268362,0
268390,1174,-1208,706,-1016,-427,-1496,17214,-1009,-27,-583,-2464,35430,-80,34,127,0,0,4115,-1060,0,1190,146,113,554,0,1,178,8,268362,0
268400,1385,-962,758,-947,-124,-492,16726,-1087,-179,-424,-2520,35425,-79,34,127,0,0,4024,-922,0,1190,146,113,564,0,1,178,8,268378,0
268410,1740,-497,492,-917,484,1096,16228,-1096,-106,-289,-2320,35442,-78,34,127,0,0,3940,-807,0,1190,146,113,574,0,1,178,8,268425,0
268421,1877,-179,300,-699,1019,2740,15705,-1019,26,-177,-1968,35452,-73,34,127,0,0,3862,-736,0,1190,146,113,585,0,1,178,8,268425,0
268431,1924,57,105,-448,1211,3751,15272,-925,120,-183,-1768,35452,-73,34,127,0,0,3794,-692,0,1190,146,113,595,0,1,178,8,268425,0
268441,1885,415,82,-110,1161,5113,14884,-827,166,-247,-1616,35439,-95,34,127,0,0,3722,-681,0,1190,146,113,605,0,1,178,8,268425,0
268451,1746,464,147,38,1004,5969,14520,-796,139,-275,-1520,35431,-97,34,127,0,0,3654,-659,0,1190,146,113,615,0,1,178,8,268440,0
268461,1488,41,346,259,833,7326,14184,-738,94,-281,-1416,35436,-100,34,127,0,0,3599,-494,0,1190,146,113,625,0,1,178,8,268440,0
268471,1295,-170,179,434,754,8203,13868,-673,85,-185,-1120,35428,-78,34,127,0,0,3557,-373,0,1190,146,113,635,0,1,178,8,268471,0
268481,1082,-269,8,829,646,9290,13596,-566,122,-158,-784,35430,-85,34,127,0,0,3533,-219,0,1190,146,113,645,0,1,178,8,268471,0
268491,1018,-238,-204,1165,575,9910,13381,-442,189,-133,-448,35431,-88,34,127,0,0,3515,-219,0,1190,146,113,655,0,1,178,8,268471,0
268501,1134,-326,-204,1553,453,10912,13225,-311,223,-101,-192,35441,-95,34,127,0,0,3500,-142,0,1190,146,113,665,0,1,178,8,268471,0
268511,1111,-405,-87,1669,371,11575,13141,-104,250,109,16,35444,-108,34,127,0,0,3493,-54,0,1190,146,113,675,0,1,178,8,268503,0
268521,986,-669,191,1670,372,12414,13167,70,355,2,32,35443,-97,34,127,0,0,3489,-32,0,1190,146,113,685,0,1,178,8,268503,0
268531,768,-959,215,1600,482,12728,13170,-9,167,143,72,35434,-108,34,127,0,0,3484,-10,0,1190,146,113,695,0,1,178,8,268503,0
268541,600,-1636,126,1587,810,12922,13183,42,-33,343,104,35435,-120,34,127,0,0,3482,0,0,1190,146,113,705,0,1,178,8,268534,0
268551,700,-2061,20,1612,1149,12847,13219,105,64,378,160,35439,-109,34,127,0,0,3482,10,0,1190,146,113,715,0,1,178,8,268534,0
268561,734,-2614,90,1589,1515,12622,13273,122,86,351,312,35433,-97,34,127,0,0,3502,230,0,1190,146,113,725,0,1,178,8,268550,0
268571,621,-2889,258,1449,1604,12324,13371,263,108,601,800,35430,-82,34,127,0,0,3577,812,0,1190,146,113,735,0,1,178,8,268550,0
268581,389,-3011,539,1390,1738,11879,13579,558,294,932,2056,35439,-90,34,127,0,0,3761,1955,0,1190,146,113,745,0,1,178,8,268581,0
268591,523,-2999,411,1366,1927,11211,14043,1254,683,1683,4032,35446,-72,34,127,0,0,4058,3054,0,1190,146,113,755,0,1,178,8,268581,0
268601,1697,-3065,245,1419,2292,9298,14904,2178,1271,1809,6120,35425,-16,34,127,0,0,4407,3515,0,1190,146,113,765,0,1,178,8,268581,0
268611,2909,-2840,43,1470,3012,7012,16140,2894,1508,1379,7040,35390,83,34,127,0,0,4658,2307,0,1190,146,113,775,0,1,178,8,268581,0
268621,2652,-2877,181,1662,3773,3597,17458,2836,894,144,5632,35369,106,34,127,0,0,4708,307,0,1190,146,113,785,0,1,178,8,268628,0
268631,2338,-2782,800,1731,3526,2613,18605,2333,-183,-545,3096,35392,45,34,127,0,0,4669,-406,0,1190,146,113,795,0,1,178,8,268628,0
268641,1694,-1370,1216,1097,2214,1525,19367,1385,-1071,-927,1224,35421,-68,34,127,0,0,4653,-87,0,1190,146,113,805,0,1,178,8,268643,0
