state_time,accelx,accely,accelz,gyrox,gyroy,gyroz,mot_ang,mot_vel,mot_acc,mot_cur,mot_volt,batt_volt,batt_curr,temperature,status_mn,status_ex,status_re,ank_ang,ank_vel,ank_torque,peak_ank_torque,step_energy,step_count,step_time,gait_state,movement,speed,incline,sys_time,eventFlags
433962,188,-2055,220,-75,45,148,5831,1,-2,-188,-56,35376,-74,34,127,0,0,2077,32,0,22384,10685,187,38770,-4,0,252,16,433945,0
433972,176,-2068,218,-72,47,142,5831,-6,-4,-133,-32,35370,-84,34,127,0,0,2076,0,0,22384,10685,187,38780,-4,0,252,16,433945,0
433982,177,-2067,227,-73,47,134,5830,-5,4,-161,-48,35380,-87,34,127,0,0,2077,10,0,22384,10685,187,38790,-4,0,252,16,433961,0
433992,189,-2067,235,-68,45,126,5833,1,1,-130,-40,35383,-91,35,127,0,0,2073,-5,0,22384,10685,187,38800,-4,0,252,16,433961,0
434002,196,-2066,237,-72,41,121,5832,1,0,-159,-32,35380,-82,34,127,0,0,2079,38,0,22384,10685,187,38810,-4,0,252,16,433976,0
434012,215,-2069,237,-78,38,126,5831,-6,3,-97,-32,35372,-73,34,127,0,0,2076,5,0,22384,10685,187,38820,-4,0,252,16,433992,0
434022,187,-2061,241,-77,43,120,5832,4,-4,-144,-32,35366,-77,34,127,0,0,2076,0,0,22384,10685,187,38830,-4,0,252,16,433992,0
434032,205,-2065,227,-82,35,125,5831,0,1,-154,-32,35376,-76,34,127,0,0,2076,0,0,22384,10685,187,38840,-4,0,252,16,434007,0
434042,218,-2060,235,-83,37,124,5831,4,2,-131,8,35388,-62,34,127,0,0,2074,21,0,22384,10685,187,38850,-4,0,252,16,434007,0
434052,223,-2061,235,-85,36,122,5833,0,-1,-109,-40,35384,-58,34,127,0,0,2083,32,0,22384,10685,187,38860,-4,0,252,16,434039,0
434062,212,-2064,224,-82,30,128,5832,-4,2,-55,-16,35380,-50,34,127,0,0,2075,-16,0,22384,10685,187,38870,-4,0,252,16,434039,0
434072,218,-2070,212,-87,33,128,5830,-11,-3,-164,-32,35381,-55,35,127,0,0,2076,0,0,22384,10685,187,38880,-4,0,252,16,434039,0
434082,201,-2058,231,-78,40,122,5832,7,1,-128,-32,35383,-66,35,127,0,0,2076,-5,0,22384,10685,187,38890,-4,0,252,16,434070,0
434092,204,-2054,229,-78,40,118,5832,0,4,-131,-16,35377,-54,35,127,0,0,2078,21,0,22384,10685,187,38900,-4,0,252,16,434086,0
434102,224,-2063,230,-84,33,111,5833,1,0,-53,8,35370,-82,34,127,0,0,2074,-16,0,22384,10685,187,38910,-4,0,252,16,434086,0
434112,208,-2059,237,-85,31,116,5832,2,0,-106,-32,35379,-77,34,127,0,0,2079,10,0,22384,10685,187,38920,-4,0,252,16,434101,0
434122,195,-2083,225,-83,29,126,5833,-3,1,-63,-40,35379,-77,34,127,0,0,2083,32,0,22384,10685,187,38930,-4,0,252,16,434101,0
434132,199,-2089,219,-84,31,118,5832,-1,8,-36,-32,35383,-72,34,127,0,0,2076,-27,0,22384,10685,187,38940,-4,0,252,16,434101,0
434142,199,-2079,220,-87,42,124,5832,4,1,-85,8,35373,-68,34,127,0,0,2080,27,0,22384,10685,187,38950,-4,0,252,16,434117,0
434152,257,-2070,222,-79,36,124,5834,-4,-2,-56,0,35380,-56,34,127,0,0,2074,-10,0,22384,10685,187,38960,-4,0,252,16,434132,0
434163,211,-2060,243,-88,34,119,5834,12,-5,-98,-56,35379,-64,34,127,0,0,2076,-21,0,22384,10685,187,38971,-4,0,252,16,434132,0
434173,172,-2082,227,-79,32,128,5834,17,0,-50,0,35386,-50,34,127,0,0,2076,-54,0,22384,10685,187,38981,-4,0,252,16,434148,0
434183,196,-2054,233,-78,39,116,5832,-2,-4,-116,-32,35385,-60,34,127,0,0,2076,-21,0,22384,10685,187,38991,-4,0,252,16,434164,0
434193,208,-2076,220,-84,39,107,5833,8,0,-112,-56,35380,-77,34,127,0,0,2080,43,0,22384,10685,187,39001,-4,0,252,16,434164,0
434203,181,-2057,238,-85,38,114,5833,-7,4,-46,24,35392,-84,34,127,0,0,2080,32,0,22384,10685,187,39011,-4,0,252,16,434179,0
434213,196,-2052,238,-89,30,111,5833,-3,2,-24,-48,35386,-80,35,127,0,0,2080,-10,0,22384,10685,187,39021,-4,0,252,16,434179,0
434223,168,-2077,228,-84,30,111,5833,0,-4,-74,-8,35384,-72,34,127,0,0,2076,-10,0,22384,10685,187,39031,-4,0,252,16,434211,0
434233,184,-2063,230,-91,41,109,5833,7,3,-102,-48,35384,-84,34,127,0,0,2078,-10,0,22384,10685,187,39041,-4,0,252,16,434211,0
434243,188,-2073,231,-88,35,109,5832,3,1,-92,24,35382,-90,35,127,0,0,2076,-10,0,22384,10685,187,39051,-4,0,252,16,434211,0
434253,194,-2054,227,-89,40,100,5831,-6,1,-144,24,35395,-85,34,127,0,0,2078,21,0,22384,10685,187,39061,-4,0,252,16,434226,0
434263,206,-2056,240,-89,37,100,5833,0,0,-71,-56,35384,-66,34,127,0,0,2076,-21,0,22384,10685,187,39071,-4,0,252,16,434226,0
434273,235,-2073,219,-92,37,110,5832,7,1,-128,-48,35386,-72,34,127,0,0,2080,32,0,22384,10685,187,39081,-4,0,252,16,434242,0
434283,185,-2063,233,-94,32,115,5833,0,2,-105,-40,35389,-72,34,127,0,0,2076,0,0,22384,10685,187,39091,-4,0,252,16,434257,0
434293,220,-2073,223,-93,37,110,5832,1,-1,-163,-32,35388,-72,35,127,0,0,2076,0,0,22384,10685,187,39101,-4,0,252,16,434273,0
434303,203,-2071,219,-96,34,112,5833,12,1,-122,-32,35387,-51,34,127,0,0,2076,-21,0,22384,10685,187,39111,-4,0,252,16,434289,0
434313,238,-2070,211,-94,32,120,5832,0,-1,-118,-40,35373,-48,34,127,0,0,2078,0,0,22384,10685,187,39121,-4,0,252,16,434289,0
434323,195,-2071,226,-93,32,124,5832,4,5,-86,-48,35375,-60,34,127,0,0,2076,-10,0,22384,10685,187,39131,-4,0,252,16,434289,0
434333,215,-2076,223,-92,27,124,5833,9,-1,-124,-32,35391,-79,35,127,0,0,2076,-21,0,22384,10685,187,39141,-4,0,252,16,434304,0
434343,213,-2080,219,-94,33,126,5830,-6,1,-165,-32,35390,-59,34,127,0,0,2076,0,0,22384,10685,187,39151,-4,0,252,16,434304,0
434353,203,-2060,224,-93,35,121,5831,-6,3,-163,-32,35388,-58,34,127,0,0,2076,0,0,22384,10685,187,39161,-4,0,252,16,434351,0
434363,229,-2075,217,-87,34,121,5831,-1,3,-162,-32,35380,-61,34,127,0,0,2076,0,0,22384,10685,187,39171,-4,0,252,16,434351,0
434373,206,-2067,226,-90,39,122,5832,-5,-4,-149,-32,35378,-62,34,127,0,0,2076,0,0,22384,10685,187,39181,-4,0,252,16,434351,0
434383,200,-2061,236,-86,38,123,5832,2,-2,-163,-32,35382,-62,34,127,0,0,2080,43,0,22384,10685,187,39191,-4,0,252,16,434351,0
434393,252,-2075,226,-90,35,123,5831,-7,-1,-119,-40,35365,-43,34,127,0,0,2076,0,0,22384,10685,187,39201,-4,0,252,16,434382,0
434403,237,-2080,215,-93,34,124,5831,-2,1,-139,0,35374,-53,34,127,0,0,2076,10,0,22384,10685,187,39211,-4,0,252,16,434398,0
434413,187,-2057,224,-88,33,126,5832,-6,-1,-150,-32,35380,-54,34,127,0,0,2076,0,0,22384,10685,187,39221,-4,0,252,16,434398,0
434423,193,-2063,225,-90,32,118,5832,-2,-2,-151,-32,35377,-54,34,127,0,0,2076,0,0,22384,10685,187,39231,-4,0,252,16,434398,0
434434,202,-2074,218,-86,37,120,5831,2,1,-166,-16,35365,-50,35,127,0,0,2075,10,0,22384,10685,187,39242,-4,0,252,16,434398,0
434444,235,-2065,226,-93,33,119,5833,11,-4,-124,-32,35374,-64,34,127,0,0,2076,-10,0,22384,10685,187,39252,-4,0,252,16,434476,0
434454,146,-2053,236,-92,36,120,5832,-1,-1,-94,-32,35385,-80,34,127,0,0,2076,-43,0,22384,10685,187,39262,-4,0,252,16,434476,0
434464,164,-2059,240,-99,27,111,5831,-1,1,-154,-32,35386,-79,34,127,0,0,2073,-32,0,22384,10685,187,39272,-4,0,252,16,434476,0
434474,190,-2070,229,-96,38,93,5831,-5,0,-167,-32,35369,-81,34,127,0,0,2076,16,0,22384,10685,187,39282,-4,0,252,16,434507,0
434484,191,-2061,224,-103,30,91,5831,-9,0,-145,-32,35355,-73,34,127,0,0,2076,0,0,22384,10685,187,39292,-4,0,252,16,434507,0
434494,184,-2064,211,-109,23,72,5832,3,2,-162,-56,35354,-72,35,127,0,0,2077,27,0,22384,10685,187,39302,-4,0,252,16,434507,0
434504,168,-2067,221,-102,28,60,5831,-9,-5,-167,-72,35364,-66,34,127,0,0,2075,5,0,22384,10685,187,39312,-4,0,252,16,434507,0
434514,177,-2064,208,-98,39,27,5830,-3,0,-232,-96,35360,-57,34,127,0,0,2069,-49,0,22384,10685,187,39322,-4,0,252,16,434507,0
434524,178,-2070,208,-87,52,17,5828,-1,-1,-297,-112,35357,-67,34,127,0,0,2064,-82,0,22384,10685,187,39332,-4,0,252,16,434507,0
434534,226,-2060,226,-91,43,10,5823,-16,0,-415,-120,35354,-80,34,127,0,0,2062,-27,0,22384,10685,187,39342,-4,0,252,16,434523,0
434544,215,-2072,230,-93,44,27,5818,-12,-6,-462,-168,35362,-90,34,127,0,0,2058,-21,0,22384,10685,187,39352,-4,0,252,16,434523,0
434554,244,-2071,238,-96,43,25,5809,-9,-4,-458,-192,35363,-81,34,127,0,0,2057,-43,0,22384,10685,187,39362,-4,0,252,16,434523,0
434564,262,-2059,235,-94,39,49,5792,-45,-16,-443,-160,35372,-71,34,127,0,0,2054,-49,0,22384,10685,187,39372,-4,0,252,16,434539,0
434574,241,-2062,228,-98,35,66,5757,-61,-52,-291,-88,35374,-71,34,127,0,0,2054,0,0,22384,10685,187,39382,-4,0,252,16,434554,0
434584,245,-2086,218,-101,38,87,5757,10,37,-355,-104,35374,-97,34,127,0,0,2055,21,0,22384,10685,187,39392,-4,0,252,16,434554,0
434594,253,-2073,219,-98,34,105,5756,1,68,-389,-104,35379,-85,34,127,0,0,2048,5,0,22384,10685,187,39402,-4,0,252,16,434585,0
434604,234,-2060,206,-95,26,109,5755,1,-8,-446,-104,35372,-37,34,127,0,0,2048,-5,0,22384,10685,187,39412,-4,0,252,16,434585,0
434614,231,-2072,199,-87,41,111,5756,-2,-3,-450,-120,35364,-20,34,127,0,0,2046,-5,0,22384,10685,187,39422,-4,0,252,16,434585,0
434624,229,-2067,203,-86,38,114,5753,-9,-6,-501,-136,35360,-34,34,127,0,0,2047,10,0,22384,10685,187,39432,-4,0,252,16,434585,0
434634,232,-2062,224,-74,46,122,5754,3,2,-445,-136,35364,-52,34,127,0,0,2051,16,0,22384,10685,187,39442,-4,0,252,16,434617,0
434644,250,-2062,222,-78,52,142,5754,1,3,-428,-120,35365,-45,34,127,0,0,2046,-5,0,22384,10685,187,39452,-4,0,252,16,434617,0
434654,250,-2055,213,-75,52,155,5754,5,-2,-446,-96,35361,-30,34,127,0,0,2048,21,0,22384,10685,187,39462,-4,0,252,16,434617,0
434665,263,-2062,215,-73,61,173,5753,1,2,-402,-96,35354,-34,34,127,0,0,2052,32,0,22384,10685,187,39473,-4,0,252,16,434648,0
434675,248,-2061,229,-69,63,188,5752,-4,-3,-424,-112,35366,-36,34,127,0,0,2050,-10,0,22384,10685,187,39483,-4,0,252,16,434648,0
434685,238,-2074,243,-81,56,207,5754,-2,-1,-389,-88,35365,-36,34,127,0,0,2050,-10,0,22384,10685,187,39493,-4,0,252,16,434648,0
434695,232,-2089,244,-82,53,216,5754,0,3,-377,-72,35367,-38,34,127,0,0,2054,43,0,22384,10685,187,39503,-4,0,252,16,434679,0
434705,192,-2074,248,-88,45,226,5753,-9,-4,-334,-48,35373,-35,34,127,0,0,2058,76,0,22384,10685,187,39513,-4,0,252,16,434679,0
434715,189,-2073,246,-101,32,229,5757,4,1,-221,-64,35380,-47,34,127,0,0,2058,32,0,22384,10685,187,39523,-4,0,252,16,434679,0
434725,180,-2072,225,-110,30,199,5759,1,0,-138,-32,35379,-55,34,127,0,0,2061,21,0,22384,10685,187,39533,-4,0,252,16,434710,0
434735,168,-2064,220,-113,27,176,5759,-4,-5,-106,-32,35368,-52,34,127,0,0,2063,32,0,22384,10685,187,39543,-4,0,252,16,434710,0
434745,158,-2075,219,-108,31,140,5764,11,2,-37,-16,35366,-54,34,127,0,0,2063,0,0,22384,10685,187,39553,-4,0,252,16,434710,0
434755,158,-2077,220,-111,32,120,5763,2,-5,-25,16,35384,-69,34,127,0,0,2063,-10,0,22384,10685,187,39563,-4,0,252,16,434726,0
434765,163,-2077,225,-107,26,92,5765,3,-1,-57,-24,35379,-70,34,127,0,0,2063,0,0,22384,10685,187,39573,-4,0,252,16,434726,0
434775,171,-2075,231,-115,22,81,5763,-11,-4,-66,-16,35375,-60,34,127,0,0,2063,21,0,22384,10685,187,39583,-4,0,252,16,434757,0
434785,187,-2059,225,-119,14,66,5765,2,-3,-26,-24,35374,-55,34,127,0,0,2063,-10,0,22384,10685,187,39593,-4,0,252,16,434757,0
434795,195,-2059,222,-116,25,64,5765,7,2,-50,-24,35367,-63,34,127,0,0,2063,0,0,22384,10685,187,39603,-4,0,252,16,434757,0
434805,243,-2065,213,-118,26,73,5765,4,2,-26,-48,35385,-67,34,127,0,0,2061,-32,0,22384,10685,187,39613,-4,0,252,16,434867,0
434815,234,-2066,219,-113,21,80,5764,7,-2,-161,-40,35386,-49,34,127,0,0,2063,21,0,22384,10685,187,39623,-4,0,252,16,434867,0
434825,276,-2066,198,-114,27,92,5763,-6,0,-134,-40,35384,-29,34,127,0,0,2061,10,0,22384,10685,187,39633,-4,0,252,16,434867,0
434835,273,-2074,204,-108,28,107,5762,-4,4,-168,-24,35378,-39,34,127,0,0,2061,10,0,22384,10685,187,39643,-4,0,252,16,434867,0
434845,237,-2055,213,-105,32,111,5763,2,-2,-151,-80,35368,-53,34,127,0,0,2061,10,0,22384,10685,187,39653,-4,0,252,16,434882,0
434855,211,-2062,212,-101,30,131,5763,-1,-2,-150,-8,35362,-47,34,127,0,0,2063,21,0,22384,10685,187,39663,-4,0,252,16,434898,0
434865,204,-2074,222,-100,31,121,5764,0,2,-50,-16,35355,-42,34,127,0,0,2061,-32,0,22384,10685,187,39673,-4,0,252,16,434898,0
434875,199,-2065,213,-96,33,120,5764,7,-4,-127,-8,35351,-38,34,127,0,0,2063,0,0,22384,10685,187,39683,-4,0,252,16,434898,0
434885,230,-2069,219,-94,33,119,5764,6,-4,-89,-16,35358,-41,34,127,0,0,2061,0,0,22384,10685,187,39693,-4,0,252,16,434898,0
434895,232,-2058,218,-99,35,111,5764,1,4,-107,-8,35369,-37,34,127,0,0,2063,0,0,22384,10685,187,39703,-4,0,252,16,434898,0
434905,223,-2069,217,-102,34,114,5764,0,-2,-129,-40,35371,-29,35,127,0,0,2058,-21,0,22384,10685,187,39713,-4,0,252,16,434898,0
434916,227,-2065,217,-103,30,114,5765,10,1,-144,-40,35369,-34,34,127,0,0,2061,-27,0,22384,10685,187,39724,-4,0,252,16,434898,0
434926,221,-2076,209,-101,31,122,5765,4,3,-136,-24,35367,-32,34,127,0,0,2056,-43,0,22384,10685,187,39734,-4,0,252,16,434898,0
434936,224,-2067,210,-95,30,119,5763,-3,-1,-161,-16,35385,-35,34,127,0,0,2063,16,0,22384,10685,187,39744,-4,0,252,16,434898,0
434946,245,-2063,219,-95,32,118,5765,-1,5,-100,-24,35401,-26,34,127,0,0,2059,0,0,22384,10685,187,39754,-4,0,252,16,434929,0
434956,218,-2065,230,-96,25,126,5765,6,-3,-127,-40,35404,-22,34,127,0,0,2061,5,0,22384,10685,187,39764,-4,0,252,16,434945,0
434966,167,-2062,235,-98,32,117,5765,12,-5,-102,-24,35392,-40,34,127,0,0,2059,-16,0,22384,10685,187,39774,-4,0,252,16,434945,0
434976,220,-2050,227,-96,30,114,5763,-2,-2,-136,-16,35379,-53,34,127,0,0,2063,32,0,22384,10685,187,39784,-4,0,252,16,434945,0
434986,210,-2048,213,-100,28,112,5764,-9,2,-28,-16,35373,-48,34,127,0,0,2063,0,0,22384,10685,187,39794,-4,0,252,16,434960,0
434996,217,-2066,217,-95,29,121,5763,-12,4,-97,-16,35373,-39,34,127,0,0,2063,43,0,22384,10685,187,39804,-4,0,252,16,434976,0
435006,204,-2054,213,-102,31,116,5764,-8,-5,-93,-16,35369,-44,34,127,0,0,2059,-10,0,22384,10685,187,39814,-4,0,252,16,434976,0
435016,247,-2068,201,-98,36,118,5765,9,4,-73,-24,35376,-62,34,127,0,0,2063,-10,0,22384,10685,187,39824,-4,0,252,16,435038,0
435026,241,-2059,208,-90,39,120,5764,-1,-3,-103,-40,35380,-65,35,127,0,0,2061,5,0,22384,10685,187,39834,-4,0,252,16,435038,0
435036,225,-2055,218,-93,38,125,5763,-3,-7,-163,-16,35376,-58,34,127,0,0,2063,38,0,22384,10685,187,39844,-4,0,252,16,435038,0
435046,244,-2066,220,-90,41,133,5765,-2,1,-30,-24,35374,-58,34,127,0,0,2063,0,0,22384,10685,187,39854,-4,0,252,16,435038,0
435056,242,-2073,208,-90,41,136,5765,0,0,-78,-40,35369,-64,34,127,0,0,2057,-16,0,22384,10685,187,39864,-4,0,252,16,435054,0
435066,176,-2064,227,-82,41,149,5766,15,-4,-90,-24,35373,-62,34,127,0,0,2059,-54,0,22384,10685,187,39874,-4,0,252,16,435054,0
435076,204,-2046,223,-92,34,140,5765,9,0,-69,-40,35366,-59,34,127,0,0,2064,-16,0,22384,10685,187,39884,-4,0,252,16,435054,0
435086,204,-2076,211,-89,39,141,5765,3,2,-61,-24,35364,-56,34,127,0,0,2063,27,0,22384,10685,187,39894,-4,0,252,16,435054,0
435096,195,-2065,217,-86,35,140,5764,-3,3,-63,-16,35373,-51,34,127,0,0,2063,27,0,22384,10685,187,39904,-4,0,252,16,435085,0
435106,213,-2059,212,-79,38,133,5763,-3,-4,-73,-16,35390,-57,35,127,0,0,2059,-5,0,22384,10685,187,39914,-4,0,252,16,435085,0
435116,210,-2053,214,-85,38,130,5765,8,0,-68,-24,35385,-53,34,127,0,0,2063,-10,0,22384,10685,187,39924,-4,0,252,16,435085,0
435126,190,-2077,206,-82,37,123,5765,-1,5,-27,-24,35381,-40,34,127,0,0,2063,0,0,22384,10685,187,39934,-4,0,252,16,435101,0
435136,205,-2069,207,-81,49,119,5765,-5,0,-24,-24,35375,-38,35,127,0,0,2063,0,0,22384,10685,187,39944,-4,0,252,16,435117,0
435146,222,-2057,230,-78,43,117,5765,0,1,-16,-24,35392,-59,34,127,0,0,2066,16,0,22384,10685,187,39954,-4,0,252,16,435117,0
435156,212,-2071,229,-86,39,124,5765,-5,0,-13,-24,35394,-59,34,127,0,0,2066,27,0,22384,10685,187,39964,-4,0,252,16,435132,0
435167,218,-2064,217,-90,35,125,5765,-3,-2,-11,0,35390,-54,34,127,0,0,2065,10,0,22384,10685,187,39975,-4,0,252,16,435163,0
435177,199,-2059,222,-92,33,117,5767,10,-3,20,-40,35383,-49,34,127,0,0,2063,-43,0,22384,10685,187,39985,-4,0,252,16,435163,0
435187,180,-2067,224,-94,31,116,5768,11,2,-8,-40,35383,-62,34,127,0,0,2063,-43,0,22384,10685,187,39995,-4,0,252,16,435179,0
435197,187,-2088,214,-97,32,113,5766,0,-4,-43,-32,35381,-66,34,127,0,0,2065,10,0,22384,10685,187,40005,-4,0,252,16,435210,0
435207,173,-2068,222,-100,37,109,5766,0,1,-24,-32,35378,-69,34,127,0,0,2063,-10,0,22384,10685,187,40015,-4,0,252,16,435210,0
435217,216,-2066,198,-102,33,108,5767,8,4,-41,-24,35374,-69,34,127,0,0,2063,-10,0,22384,10685,187,40025,-4,0,252,16,435210,0
435227,260,-2074,206,-100,34,113,5766,-1,2,-31,-64,35386,-75,34,127,0,0,2063,-10,0,22384,10685,187,40035,-4,0,252,16,435210,0
435237,263,-2076,205,-98,40,123,5766,-3,2,-49,-24,35390,-68,34,127,0,0,2063,0,0,22384,10685,187,40045,-4,0,252,16,435210,0
435247,257,-2065,210,-100,39,131,5766,-7,-1,-32,-24,35376,-62,34,127,0,0,2063,-21,0,22384,10685,187,40055,-4,0,252,16,435226,0
435257,234,-2066,211,-100,38,140,5766,-1,1,-70,-16,35380,-62,34,127,0,0,2063,10,0,22384,10685,187,40065,-4,0,252,16,435226,0
435267,231,-2079,210,-105,33,150,5766,0,-1,-29,-32,35394,-57,34,127,0,0,2065,21,0,22384,10685,187,40075,-4,0,252,16,435273,0
435277,205,-2067,204,-89,41,143,5767,0,-5,-10,0,35408,-69,34,127,0,0,2063,-10,0,22384,10685,187,40085,-4,0,252,16,435273,0
435287,202,-2069,208,-88,44,152,5767,6,-1,-39,-8,35403,-63,34,127,0,0,2065,-10,0,22384,10685,187,40095,-4,0,252,16,435273,0
435297,207,-2070,217,-97,28,161,5769,9,-2,20,-24,35379,-42,34,127,0,0,2063,-32,0,22384,10685,187,40105,-4,0,252,16,435273,0
435307,224,-2052,223,-99,26,153,5768,1,-2,22,16,35367,-43,34,127,0,0,2069,32,0,22384,10685,187,40115,-4,0,252,16,435273,0
435317,199,-2075,208,-102,30,155,5771,7,6,138,24,35379,-56,34,127,0,0,2069,-10,0,22384,10685,187,40125,-4,0,252,16,435304,0
435327,198,-2069,212,-96,33,151,5771,7,0,121,16,35395,-75,35,127,0,0,2072,21,0,22384,10685,187,40135,-4,0,252,16,435304,0
435337,215,-2080,203,-90,38,153,5773,9,2,191,40,35400,-64,34,127,0,0,2074,21,0,22384,10685,187,40145,-4,0,252,16,435304,0
435347,216,-2067,210,-91,32,156,5774,-3,1,216,56,35395,-53,34,127,0,0,2074,-10,0,22384,10685,187,40155,-4,0,252,16,435320,0
435357,220,-2068,210,-96,25,161,5776,1,0,203,56,35396,-48,34,127,0,0,2078,43,0,22384,10685,187,40165,-4,0,252,16,435335,0
435367,203,-2066,207,-89,29,161,5778,8,1,276,32,35400,-70,35,127,0,0,2074,-21,0,22384,10685,187,40175,-4,0,252,16,435335,0
435377,197,-2074,205,-90,37,170,5780,11,7,288,88,35390,-65,35,127,0,0,2078,0,0,22384,10685,187,40185,-4,0,252,16,435351,0
435387,216,-2065,211,-86,39,166,5784,0,4,300,80,35380,-66,34,127,0,0,2078,10,0,22384,10685,187,40195,-4,0,252,16,435366,0
435397,205,-2078,216,-85,34,169,5786,4,-4,335,104,35376,-66,34,127,0,0,2080,0,0,22384,10685,187,40205,-4,0,252,16,435366,0
435407,204,-2068,213,-85,40,169,5791,12,6,362,136,35378,-60,34,127,0,0,2083,0,0,22384,10685,187,40215,-4,0,252,16,435382,0
435418,196,-2070,208,-88,33,157,5807,42,23,324,96,35381,-67,34,127,0,0,2085,16,0,22384,10685,187,40226,-4,0,252,16,435402,0
435428,197,-2076,204,-85,34,160,5840,65,54,146,32,35383,-69,34,127,0,0,2088,38,0,22384,10685,187,40236,-4,0,252,16,435418,0
435438,175,-2058,211,-78,28,153,5842,-9,-29,178,48,35378,-86,34,127,0,0,2084,-16,0,22384,10685,187,40246,-4,0,252,16,435418,0
435448,191,-2084,207,-80,41,138,5842,-3,-72,148,32,35379,-86,34,127,0,0,2088,0,0,22384,10685,187,40256,-4,0,252,16,435418,0
435458,173,-2076,214,-79,46,130,5843,3,-3,241,48,35384,-77,34,127,0,0,2090,0,0,22384,10685,187,40266,-4,0,252,16,435433,0
435468,184,-2072,215,-84,38,124,5844,3,1,270,64,35393,-75,34,127,0,0,2089,27,0,22384,10685,187,40276,-4,0,252,16,435433,0
435478,197,-2073,218,-77,38,117,5843,-6,-6,241,48,35391,-93,34,127,0,0,2087,-16,0,22384,10685,187,40286,-4,0,252,16,435449,0
435488,209,-2063,213,-79,41,103,5844,1,-5,265,48,35395,-107,35,127,0,0,2087,-49,0,22384,10685,187,40296,-4,0,252,16,435464,0
435498,206,-2077,212,-79,38,120,5844,10,2,235,64,35392,-104,34,127,0,0,2089,5,0,22384,10685,187,40306,-4,0,252,16,435464,0
435508,205,-2070,210,-79,28,113,5842,-3,0,262,64,35381,-98,34,127,0,0,2089,16,0,22384,10685,187,40316,-4,0,252,16,435480,0
435518,193,-2062,214,-79,39,105,5843,0,0,244,40,35379,-101,34,127,0,0,2087,-5,0,22384,10685,187,40326,-4,0,252,16,435511,0
435528,183,-2061,215,-79,38,100,5841,-3,8,228,40,35379,-99,34,127,0,0,2087,-27,0,22384,10685,187,40336,-4,0,252,16,435511,0
435538,218,-2063,208,-82,39,110,5843,3,2,239,40,35381,-94,34,127,0,0,2090,0,0,22384,10685,187,40346,-4,0,252,16,435511,0
435548,213,-2073,211,-79,40,112,5843,0,2,228,64,35378,-76,34,127,0,0,2086,-10,0,22384,10685,187,40356,-4,0,252,16,435511,0
435558,218,-2066,218,-80,35,105,5844,10,0,210,40,35375,-69,34,127,0,0,2087,-10,0,22384,10685,187,40366,-4,0,252,16,435543,0
435568,174,-2082,214,-82,35,116,5843,0,0,230,40,35373,-72,34,127,0,0,2090,5,0,22384,10685,187,40376,-4,0,252,16,435543,0
435578,217,-2075,209,-78,29,105,5844,0,1,300,40,35374,-64,35,127,0,0,2090,-10,0,22384,10685,187,40386,-4,0,252,16,435558,0
435588,184,-2077,213,-79,45,101,5844,1,-2,255,40,35368,-84,34,127,0,0,2090,10,0,22384,10685,187,40396,-4,0,252,16,435574,0
435598,215,-2064,203,-82,37,104,5843,-4,1,231,40,35366,-71,34,127,0,0,2087,5,0,22384,10685,187,40406,-4,0,252,16,435574,0
435608,199,-2062,202,-82,33,106,5844,0,-3,216,48,35369,-79,34,127,0,0,2087,0,0,22384,10685,187,40416,-4,0,252,16,435574,0
435618,207,-2073,212,-81,29,112,5844,0,2,231,24,35374,-63,34,127,0,0,2088,-32,0,22384,10685,187,40426,-4,0,252,16,435621,0
435628,190,-2068,212,-77,28,103,5844,1,-1,219,48,35370,-69,34,127,0,0,2087,-27,0,22384,10685,187,40436,-4,0,252,16,435621,0
435638,210,-2076,206,-79,32,100,5844,-3,2,206,48,35365,-64,34,127,0,0,2090,32,0,22384,10685,187,40446,-4,0,252,16,435621,0
435648,198,-2077,208,-78,39,104,5843,-4,3,217,48,35364,-80,34,127,0,0,2087,16,0,22384,10685,187,40456,-4,0,252,16,435621,0
435658,227,-2077,216,-79,31,104,5843,-1,1,212,48,35367,-80,34,127,0,0,2090,32,0,22384,10685,187,40466,-4,0,252,16,435636,0
435669,202,-2066,225,-79,36,104,5843,-2,0,214,16,35366,-88,34,127,0,0,2087,0,0,22384,10685,187,40477,-4,0,252,16,435636,0
435679,215,-2076,219,-82,32,110,5843,0,-2,212,48,35379,-83,34,127,0,0,2085,-32,0,22384,10685,187,40487,-4,0,252,16,435668,0
435689,190,-2072,219,-83,36,122,5843,4,-1,164,48,35381,-87,34,127,0,0,2085,-21,0,22384,10685,187,40497,-4,0,252,16,435668,0
435699,196,-2075,210,-84,32,105,5843,3,4,174,16,35389,-101,34,127,0,0,2085,-21,0,22384,10685,187,40507,-4,0,252,16,435668,0
435709,219,-2077,201,-80,41,108,5843,1,2,168,-16,35374,-91,34,127,0,0,2085,-32,0,22384,10685,187,40517,-4,0,252,16,435699,0
435719,210,-2077,204,-82,36,116,5842,0,3,159,48,35372,-70,34,127,0,0,2085,0,0,22384,10685,187,40527,-4,0,252,16,435699,0
435729,191,-2064,214,-84,31,112,5843,2,0,175,16,35363,-50,34,127,0,0,2087,-10,0,22384,10685,187,40537,-4,0,252,16,435699,0
435739,174,-2070,217,-80,36,118,5843,7,4,199,48,35364,-73,34,127,0,0,2087,-10,0,22384,10685,187,40547,-4,0,252,16,435699,0
435749,205,-2081,214,-88,35,115,5843,8,7,183,16,35367,-81,34,127,0,0,2087,-10,0,22384,10685,187,40557,-4,0,252,16,435730,0
435759,191,-2075,208,-85,33,117,5843,5,1,157,24,35373,-87,34,127,0,0,2087,10,0,22384,10685,187,40567,-4,0,252,16,435746,0
435769,229,-2071,207,-83,39,110,5844,4,4,216,16,35370,-68,34,127,0,0,2087,0,0,22384,10685,187,40577,-4,0,252,16,435746,0
435779,202,-2077,200,-85,34,116,5843,0,-2,177,56,35366,-69,35,127,0,0,2085,-10,0,22384,10685,187,40587,-4,0,252,16,435746,0
435789,190,-2058,216,-84,35,110,5843,0,-5,181,48,35376,-77,34,127,0,0,2083,-65,0,22384,10685,187,40597,-4,0,252,16,435761,0
435799,184,-2058,212,-87,33,108,5840,3,-4,69,40,35382,-80,34,127,0,0,2085,0,0,22384,10685,187,40607,-4,0,252,16,435761,0
435809,232,-2068,202,-86,33,112,5840,-7,8,91,8,35376,-80,34,127,0,0,2087,32,0,22384,10685,187,40617,-4,0,252,16,435808,0
435819,244,-2072,199,-85,38,119,5840,-12,4,102,72,35378,-89,34,127,0,0,2087,54,0,22384,10685,187,40627,-4,0,252,16,435808,0
435829,193,-2061,217,-83,27,119,5843,4,1,188,16,35372,-90,34,127,0,0,2087,-21,0,22384,10685,187,40637,-4,0,252,16,435808,0
435839,166,-2067,212,-82,35,123,5842,4,-7,141,-16,35381,-96,34,127,0,0,2085,21,0,22384,10685,187,40647,-4,0,252,16,435808,0
435849,213,-2073,212,-86,38,110,5842,4,0,188,-16,35378,-83,34,127,0,0,2085,-43,0,22384,10685,187,40657,-4,0,252,16,435824,0
435859,173,-2087,217,-85,40,116,5842,11,-1,127,48,35381,-82,34,127,0,0,2083,-10,0,22384,10685,187,40667,-4,0,252,16,435855,0
435869,172,-2073,217,-83,38,114,5841,1,-4,110,32,35390,-74,34,127,0,0,2085,-10,0,22384,10685,187,40677,-4,0,252,16,435855,0
435879,178,-2060,219,-83,37,112,5841,1,0,152,16,35397,-72,34,127,0,0,2085,-32,0,22384,10685,187,40687,-4,0,252,16,435855,0
435889,228,-2084,197,-84,37,104,5841,2,5,119,0,35388,-72,34,127,0,0,2085,10,0,22384,10685,187,40697,-4,0,252,16,435855,0
435899,193,-2074,210,-84,41,108,5841,-4,-3,93,8,35375,-70,34,127,0,0,2085,10,0,22384,10685,187,40707,-4,0,252,16,435871,0
435909,237,-2066,217,-90,39,106,5841,-2,5,115,0,35370,-75,34,127,0,0,2087,32,0,22384,10685,187,40717,-4,0,252,16,435886,0
435920,205,-2073,215,-89,35,115,5842,0,2,151,8,35382,-80,34,127,0,0,2083,-16,0,22384,10685,187,40728,-4,0,252,16,435886,0
435930,195,-2073,205,-90,37,117,5840,-5,-3,69,8,35387,-84,34,127,0,0,2083,-27,0,22384,10685,187,40738,-4,0,252,16,435902,0
435940,209,-2080,212,-86,33,113,5842,9,5,145,8,35381,-60,35,127,0,0,2086,-60,0,22384,10685,187,40748,-4,0,252,16,435918,0
435950,191,-2083,208,-91,40,117,5842,7,5,149,8,35380,-66,34,127,0,0,2083,-54,0,22384,10685,187,40758,-4,0,252,16,435949,0
435960,191,-2069,214,-84,37,113,5840,-1,-1,94,-8,35374,-67,34,127,0,0,2087,-5,0,22384,10685,187,40768,-4,0,252,16,435949,0
435970,219,-2079,202,-90,36,109,5840,-3,5,118,8,35367,-85,34,127,0,0,2083,-10,0,22384,10685,187,40778,-4,0,252,16,435949,0
435980,204,-2065,219,-83,36,106,5840,-1,2,86,8,35365,-74,34,127,0,0,2086,0,0,22384,10685,187,40788,-4,0,252,16,435949,0
435990,214,-2072,207,-91,34,105,5840,-2,0,68,8,35372,-68,34,127,0,0,2083,10,0,22384,10685,187,40798,-4,0,252,16,435964,0
436000,206,-2066,215,-85,40,100,5840,-1,7,42,32,35386,-74,34,127,0,0,2081,5,0,22384,10685,187,40808,-4,0,252,16,435980,0
436010,222,-2052,211,-88,38,104,5839,-11,-3,18,-8,35380,-86,34,127,0,0,2080,-16,0,22384,10685,187,40818,-4,0,252,16,435996,0
436020,218,-2057,213,-92,34,105,5839,4,-3,36,16,35376,-83,34,127,0,0,2083,-10,0,22384,10685,187,40828,-4,0,252,16,435996,0
436030,206,-2069,209,-86,33,110,5841,3,-2,29,-8,35377,-82,34,127,0,0,2084,0,0,22384,10685,187,40838,-4,0,252,16,435996,0
436040,189,-2081,211,-92,27,108,5839,-2,-5,37,16,35395,-96,35,127,0,0,2083,16,0,22384,10685,187,40848,-4,0,252,16,436011,0
436050,201,-2064,214,-91,41,107,5839,0,-3,39,16,35396,-96,34,127,0,0,2079,-32,0,22384,10685,187,40858,-4,0,252,16,436027,0
436060,213,-2069,208,-87,38,99,5839,0,-5,32,16,35398,-93,34,127,0,0,2086,21,0,22384,10685,187,40868,-4,0,252,16,436027,0
436070,232,-2067,209,-87,33,100,5839,-5,3,73,16,35396,-94,34,127,0,0,2083,16,0,22384,10685,187,40878,-4,0,252,16,436058,0
436080,220,-2080,206,-82,39,102,5839,-1,0,-10,-24,35398,-88,34,127,0,0,2078,-21,0,22384,10685,187,40888,-4,0,252,16,436058,0
436090,201,-2073,204,-87,42,109,5838,10,-4,-48,-24,35396,-88,34,127,0,0,2085,21,0,22384,10685,187,40898,-4,0,252,16,436074,0
436100,186,-2070,211,-84,38,117,5836,-9,0,2,-24,35386,-92,34,127,0,0,2078,0,0,22384,10685,187,40908,-4,0,252,16,436074,0
436110,204,-2074,219,-83,38,120,5837,5,1,-10,-24,35373,-61,34,127,0,0,2078,-54,0,22384,10685,187,40918,-4,0,252,16,436089,0
436120,191,-2065,213,-84,34,122,5838,7,-2,-22,16,35377,-53,34,127,0,0,2079,0,0,22384,10685,187,40928,-4,0,252,16,436105,0
436130,220,-2068,200,-87,34,114,5836,-8,0,-75,-24,35373,-62,34,127,0,0,2078,5,0,22384,10685,187,40938,-4,0,252,16,436105,0
436140,221,-2077,202,-81,39,120,5836,0,0,-49,0,35385,-69,34,127,0,0,2077,5,0,22384,10685,187,40948,-4,0,252,16,436121,0
436150,184,-2067,220,-87,35,110,5836,3,4,-47,0,35389,-74,34,127,0,0,2077,-10,0,22384,10685,187,40958,-4,0,252,16,436121,0
436161,206,-2069,214,-85,40,111,5835,2,-3,-43,-16,35395,-70,35,127,0,0,2080,21,0,22384,10685,187,40969,-4,0,252,16,436167,0
436171,225,-2080,207,-88,30,115,5836,-9,-1,-18,-24,35398,-90,34,127,0,0,2078,0,0,22384,10685,187,40979,-4,0,252,16,436167,0
436181,183,-2059,215,-86,30,113,5836,0,-1,-37,-24,35396,-81,35,127,0,0,2078,-21,0,22384,10685,187,40989,-4,0,252,16,436167,0
436191,211,-2067,205,-83,33,105,5836,0,0,-46,-24,35398,-75,34,127,0,0,2076,-21,0,22384,10685,187,40999,-4,0,252,16,436183,0
436201,215,-2055,214,-76,38,100,5834,-13,-12,-158,-40,35388,-81,34,127,0,0,2080,54,0,22384,10685,187,41009,-4,0,252,16,436183,0
436211,219,-2077,221,-79,37,113,5833,-9,-3,-102,-8,35392,-86,35,127,0,0,2078,32,0,22384,10685,187,41019,-4,0,252,16,436183,0
436221,219,-2066,220,-92,34,98,5833,-7,3,-127,-40,35400,-95,34,127,0,0,2076,10,0,22384,10685,187,41029,-4,0,252,16,436199,0
436231,222,-2077,209,-90,33,97,5833,-4,0,-76,-16,35406,-88,34,127,0,0,2078,-10,0,22384,10685,187,41039,-4,0,252,16,436214,0
436241,214,-2076,212,-90,38,101,5834,0,4,-110,-40,35398,-85,34,127,0,0,2076,-10,0,22384,10685,187,41049,-4,0,252,16,436214,0
436251,228,-2076,206,-87,37,100,5834,6,-1,-81,-48,35393,-90,35,127,0,0,2076,-21,0,22384,10685,187,41059,-4,0,252,16,436230,0
436261,213,-2068,218,-93,34,100,5832,-1,3,-153,-40,35392,-79,34,127,0,0,2076,0,0,22384,10685,187,41069,-4,0,252,16,436246,0
436271,207,-2069,214,-94,35,105,5831,-3,-1,-198,-56,35394,-67,34,127,0,0,2074,32,0,22384,10685,187,41079,-4,0,252,16,436246,0
436281,230,-2063,207,-85,35,112,5831,-3,0,-195,-48,35388,-56,34,127,0,0,2074,21,0,22384,10685,187,41089,-4,0,252,16,436355,0
436291,236,-2072,204,-80,40,111,5830,-9,-2,-195,-40,35383,-70,34,127,0,0,2074,10,0,22384,10685,187,41099,-4,0,252,16,436355,0
436301,230,-2065,222,-85,38,116,5831,-1,-6,-210,-80,35379,-79,35,127,0,0,2072,0,0,22384,10685,187,41109,-4,0,252,16,436371,0
436311,222,-2061,213,-88,34,115,5831,-3,-6,-237,-72,35366,-79,34,127,0,0,2076,43,0,22384,10685,187,41119,-4,0,252,16,436371,0
436321,235,-2071,216,-88,35,118,5829,-8,-1,-171,-72,35365,-72,34,127,0,0,2072,-10,0,22384,10685,187,41129,-4,0,252,16,436371,0
436331,232,-2076,203,-88,36,124,5830,0,-1,-170,-32,35371,-88,34,127,0,0,2074,-10,0,22384,10685,187,41139,-4,0,252,16,436371,0
436341,198,-2079,208,-87,38,126,5830,5,5,-183,-56,35379,-84,34,127,0,0,2076,21,0,22384,10685,187,41149,-4,0,252,16,436371,0
436351,198,-2077,199,-85,32,126,5829,-9,-1,-154,-88,35371,-74,34,127,0,0,2076,21,0,22384,10685,187,41159,-4,0,252,16,436371,0
436361,224,-2069,205,-86,35,123,5829,-8,4,-180,-8,35367,-56,34,127,0,0,2076,32,0,22384,10685,187,41169,-4,0,252,16,436371,0
436371,221,-2075,206,-88,37,118,5830,-3,0,-132,-88,35364,-60,34,127,0,0,2074,-10,0,22384,10685,187,41179,-4,0,252,16,436371,0
436381,227,-2072,208,-88,43,119,5830,3,1,-184,-72,35373,-58,35,127,0,0,2076,0,0,22384,10685,187,41189,-4,0,252,16,436386,0
436391,197,-2085,211,-89,34,122,5830,2,-1,-201,-8,35370,-66,34,127,0,0,2072,0,0,22384,10685,187,41199,-4,0,252,16,436386,0
436401,175,-2062,224,-90,34,122,5830,6,0,-187,-32,35370,-65,34,127,0,0,2076,21,0,22384,10685,187,41209,-4,0,252,16,436386,0
436411,190,-2052,218,-86,32,128,5830,4,3,-140,-16,35382,-68,34,127,0,0,2076,21,0,22384,10685,187,41219,-4,0,252,16,436386,0
436422,213,-2061,213,-88,40,116,5829,-9,0,-149,-32,35404,-79,34,127,0,0,2073,0,0,22384,10685,187,41230,-4,0,252,16,436386,0
436432,209,-2060,209,-85,37,121,5830,0,-3,-122,-72,35412,-88,34,127,0,0,2078,-21,0,22384,10685,187,41240,-4,0,252,16,436417,0
436442,226,-2082,212,-86,39,120,5831,-1,-3,-112,-32,35401,-71,34,127,0,0,2076,0,0,22384,10685,187,41250,-4,0,252,16,436433,0
436452,237,-2068,203,-91,32,120,5829,-11,0,-131,-32,35386,-79,34,127,0,0,2073,-16,0,22384,10685,187,41260,-4,0,252,16,436433,0
436462,188,-2060,215,-85,25,123,5832,8,-2,-167,-32,35370,-89,34,127,0,0,2079,65,0,22384,10685,187,41270,-4,0,252,16,436433,0
436472,193,-2071,214,-85,39,124,5829,-9,-5,-144,-24,35382,-101,35,127,0,0,2076,71,0,22384,10685,187,41280,-4,0,252,16,436433,0
436482,183,-2054,219,-91,36,113,5830,1,7,-142,-32,35391,-92,34,127,0,0,2076,10,0,22384,10685,187,41290,-4,0,252,16,436464,0
436492,211,-2075,219,-90,30,122,5830,1,-4,-202,-32,35396,-72,34,127,0,0,2076,93,0,22384,10685,187,41300,-4,0,252,16,436480,0
436502,226,-2059,218,-90,37,113,5829,-8,-6,-167,-48,35391,-66,35,127,0,0,2074,21,0,22384,10685,187,41310,-4,0,252,16,436480,0
436512,234,-2080,213,-93,37,112,5828,-4,-1,-198,-48,35380,-64,34,127,0,0,2070,-27,0,22384,10685,187,41320,-4,0,252,16,436480,0
436522,210,-2068,212,-88,35,114,5830,2,-2,-216,-72,35382,-69,35,127,0,0,2075,0,0,22384,10685,187,41330,-4,0,252,16,436511,0
436532,207,-2063,210,-91,39,111,5829,-5,3,-196,-48,35385,-61,34,127,0,0,2077,43,0,22384,10685,187,41340,-4,0,252,16,436511,0
436542,199,-2064,211,-85,35,113,5829,-10,-2,-148,-72,35375,-58,34,127,0,0,2075,-16,0,22384,10685,187,41350,-4,0,252,16,436511,0
436552,204,-2072,207,-87,33,113,5829,0,-3,-203,-32,35374,-71,34,127,0,0,2073,43,0,22384,10685,187,41360,-4,0,252,16,436542,0
436562,207,-2055,226,-94,38,108,5830,0,0,-160,-72,35365,-73,34,127,0,0,2072,-32,0,22384,10685,187,41370,-4,0,252,16,436558,0
436572,189,-2051,222,-83,34,112,5830,4,0,-173,-72,35366,-74,34,127,0,0,2072,-65,0,22384,10685,187,41380,-4,0,252,16,436558,0
436582,206,-2082,197,-88,37,129,5830,7,6,-169,-72,35367,-75,35,127,0,0,2078,-21,0,22384,10685,187,41390,-4,0,252,16,436558,0
436592,205,-2089,205,-91,40,130,5828,-1,4,-191,-32,35377,-88,34,127,0,0,2076,93,0,22384,10685,187,41400,-4,0,252,16,436558,0
436602,205,-2051,209,-90,34,117,5829,1,1,-142,-48,35381,-79,34,127,0,0,2074,16,0,22384,10685,187,41410,-4,0,252,16,436574,0
436612,178,-2053,217,-90,36,121,5830,0,-3,-190,-32,35380,-75,34,127,0,0,2076,43,0,22384,10685,187,41420,-4,0,252,16,436589,0
436622,241,-2068,202,-90,38,120,5830,3,-6,-124,-32,35377,-90,34,127,0,0,2076,0,0,22384,10685,187,41430,-4,0,252,16,436605,0
436632,227,-2064,210,-89,46,121,5830,-3,-6,-156,-48,35367,-96,34,127,0,0,2070,-43,0,22384,10685,187,41440,-4,0,252,16,436605,0
436642,220,-2067,210,-92,40,125,5830,-1,3,-188,-32,35365,-110,34,127,0,0,2073,-16,0,22384,10685,187,41450,-4,0,252,16,436620,0
436652,219,-2072,210,-90,38,125,5828,-4,-1,-180,-48,35360,-82,34,127,0,0,2077,43,0,22384,10685,187,41460,-4,0,252,16,436620,0
436663,192,-2064,216,-88,31,124,5830,-2,-4,-128,-80,35362,-75,34,127,0,0,2074,-32,0,22384,10685,187,41471,-4,0,252,16,436652,0
436673,216,-2080,210,-95,42,120,5829,-2,2,-166,-32,35357,-70,34,127,0,0,2076,0,0,22384,10685,187,41481,-4,0,252,16,436667,0
436683,163,-2070,214,-87,41,121,5831,6,6,-134,-64,35360,-71,34,127,0,0,2074,-43,0,22384,10685,187,41491,-4,0,252,16,436683,0
436693,215,-2066,203,-91,38,114,5830,2,4,-225,-8,35353,-80,34,127,0,0,2076,54,0,22384,10685,187,41501,-4,0,252,16,436683,0
436703,220,-2064,202,-91,42,107,5831,8,5,-123,-96,35362,-75,34,127,0,0,2074,-32,0,22384,10685,187,41511,-4,0,252,16,436683,0
436713,232,-2074,213,-83,32,117,5830,10,3,-142,-64,35367,-73,34,127,0,0,2074,-32,0,22384,10685,187,41521,-4,0,252,16,436683,0
436723,207,-2079,211,-84,35,115,5829,0,4,-180,-72,35374,-85,34,127,0,0,2072,-21,0,22384,10685,187,41531,-4,0,252,16,436699,0
436733,226,-2073,205,-89,41,104,5829,1,0,-203,-80,35372,-90,34,127,0,0,2072,0,0,22384,10685,187,41541,-4,0,252,16,436730,0
436743,210,-2063,203,-89,39,116,5829,3,2,-215,-16,35377,-71,34,127,0,0,2072,-10,0,22384,10685,187,41551,-4,0,252,16,436730,0
436753,192,-2074,214,-81,33,120,5829,4,-3,-223,-40,35368,-62,34,127,0,0,2072,-21,0,22384,10685,187,41561,-4,0,252,16,436730,0
436763,205,-2075,220,-88,30,117,5828,1,-4,-244,-64,35365,-71,34,127,0,0,2074,21,0,22384,10685,187,41571,-4,0,252,16,436730,0
436773,208,-2077,203,-86,34,110,5828,-6,1,-224,-8,35367,-85,34,127,0,0,2074,32,0,22384,10685,187,41581,-4,0,252,16,436745,0
436783,209,-2069,204,-89,39,107,5829,2,1,-169,-56,35371,-85,34,127,0,0,2072,-21,0,22384,10685,187,41591,-4,0,252,16,436777,0
436793,210,-2070,205,-78,33,101,5829,5,-1,-205,-88,35377,-80,34,127,0,0,2072,-21,0,22384,10685,187,41601,-4,0,252,16,436777,0
436803,201,-2061,214,-80,29,115,5828,-1,-4,-241,-64,35371,-80,34,127,0,0,2076,65,0,22384,10685,187,41611,-4,0,252,16,436777,0
436813,228,-2059,211,-83,36,105,5829,-4,0,-181,-40,35368,-89,34,127,0,0,2072,10,0,22384,10685,187,41621,-4,0,252,16,436777,0
436823,215,-2057,209,-83,40,103,5828,-3,-7,-226,-64,35371,-93,35,127,0,0,2072,0,0,22384,10685,187,41631,-4,0,252,16,436792,0
436833,210,-2066,210,-74,43,105,5828,-1,-4,-237,-64,35387,-99,34,127,0,0,2072,0,0,22384,10685,187,41641,-4,0,252,16,436808,0
436843,221,-2063,207,-73,38,106,5828,-4,-4,-235,-64,35393,-112,34,127,0,0,2072,0,0,22384,10685,187,41651,-4,0,252,16,436824,0
436853,212,-2071,214,-82,38,112,5828,-4,-1,-217,-48,35385,-97,34,127,0,0,2074,10,0,22384,10685,187,41661,-4,0,252,16,436824,0
436863,201,-2070,210,-82,38,111,5828,1,2,-194,-48,35380,-107,34,127,0,0,2072,-32,0,22384,10685,187,41671,-4,0,252,16,436839,0
436873,209,-2062,208,-82,33,115,5827,-3,-2,-244,-64,35375,-75,34,127,0,0,2072,21,0,22384,10685,187,41681,-4,0,252,16,436855,0
436883,236,-2078,206,-82,37,108,5828,-8,1,-220,-64,35379,-65,34,127,0,0,2072,0,0,22384,10685,187,41691,-4,0,252,16,436855,0
436893,212,-2065,202,-83,32,111,5829,2,-1,-241,-72,35385,-63,35,127,0,0,2072,0,0,22384,10685,187,41701,-4,0,252,16,436870,0
436903,209,-2068,210,-78,39,117,5828,-4,-2,-247,-64,35384,-74,34,127,0,0,2072,0,0,22384,10685,187,41711,-4,0,252,16,436870,0
436914,217,-2066,207,-80,40,117,5829,0,-4,-220,-72,35392,-72,34,127,0,0,2072,-16,0,22384,10685,187,41722,-4,0,252,16,436886,0
436924,217,-2080,210,-82,33,115,5829,-2,2,-254,-72,35384,-74,35,127,0,0,2072,27,0,22384,10685,187,41732,-4,0,252,16,436886,0
436934,216,-2081,212,-79,36,118,5829,0,-2,-244,-72,35376,-78,34,127,0,0,2072,0,0,22384,10685,187,41742,-4,0,252,16,436917,0
436944,212,-2074,210,-81,40,115,5828,-4,-2,-236,-64,35368,-74,34,127,0,0,2072,0,0,22384,10685,187,41752,-4,0,252,16,436917,0
436954,213,-2068,213,-80,35,108,5828,-1,-5,-250,-64,35365,-74,34,127,0,0,2072,21,0,22384,10685,187,41762,-4,0,252,16,436949,0
436964,210,-2060,211,-79,39,111,5828,1,-1,-240,-64,35369,-82,34,127,0,0,2072,0,0,22384,10685,187,41772,-4,0,252,16,436949,0
436974,234,-2068,197,-82,42,114,5827,-2,8,-228,-64,35374,-87,34,127,0,0,2072,0,0,22384,10685,187,41782,-4,0,252,16,436949,0
436984,234,-2064,206,-83,42,123,5828,3,5,-221,-64,35372,-92,34,127,0,0,2072,0,0,22384,10685,187,41792,-4,0,252,16,436949,0
436994,238,-2070,205,-78,41,130,5828,-1,1,-237,-48,35374,-90,34,127,0,0,2067,-27,0,22384,10685,187,41802,-4,0,252,16,436980,0
437004,243,-2071,210,-76,40,122,5828,5,2,-243,-64,35380,-75,34,127,0,0,2072,-10,0,22384,10685,187,41812,-4,0,252,16,436980,0
437014,222,-2080,211,-83,38,135,5828,2,-1,-218,-48,35388,-71,34,127,0,0,2070,-10,0,22384,10685,187,41822,-4,0,252,16,436980,0
437024,222,-2076,210,-84,38,134,5828,2,0,-223,-64,35389,-74,34,127,0,0,2075,27,0,22384,10685,187,41832,-4,0,252,16,437073,0
437034,193,-2070,211,-81,39,132,5829,5,-2,-184,-32,35383,-90,34,127,0,0,2069,-10,0,22384,10685,187,41842,-4,0,252,16,437073,0
437044,204,-2069,207,-82,35,133,5828,-5,-3,-225,-64,35374,-83,34,127,0,0,2072,-5,0,22384,10685,187,41852,-4,0,252,16,437073,0
437054,195,-2079,206,-80,35,130,5830,8,4,-144,-72,35376,-67,34,127,0,0,2075,-65,0,22384,10685,187,41862,-4,0,252,16,437073,0
437064,183,-2061,218,-82,35,131,5829,5,0,-213,-48,35364,-68,34,127,0,0,2074,32,0,22384,10685,187,41872,-4,0,252,16,437089,0
437074,221,-2071,210,-82,34,123,5829,5,-2,-184,-72,35362,-70,34,127,0,0,2075,10,0,22384,10685,187,41882,-4,0,252,16,437089,0
437084,170,-2069,213,-83,35,126,5829,8,5,-206,-72,35363,-70,34,127,0,0,2075,27,0,22384,10685,187,41892,-4,0,252,16,437089,0
437094,228,-2068,202,-88,38,115,5829,1,-1,-221,-32,35368,-69,34,127,0,0,2073,38,0,22384,10685,187,41902,-4,0,252,16,437089,0
437104,220,-2075,201,-86,31,119,5829,-3,-1,-162,-72,35372,-67,34,127,0,0,2078,38,0,22384,10685,187,41912,-4,0,252,16,437089,0
437114,217,-2075,207,-91,28,126,5828,-4,-1,-158,-64,35379,-80,34,127,0,0,2075,-5,0,22384,10685,187,41922,-4,0,252,16,437089,0
437124,224,-2079,200,-84,35,111,5828,0,-3,-194,-64,35385,-83,34,127,0,0,2072,-43,0,22384,10685,187,41932,-4,0,252,16,437089,0
437134,225,-2071,214,-84,33,113,5827,-1,6,-184,-64,35393,-77,34,127,0,0,2075,-16,0,22384,10685,187,41942,-4,0,252,16,437120,0
437144,213,-2075,216,-83,33,108,5827,-1,1,-228,-64,35393,-86,35,127,0,0,2072,10,0,22384,10685,187,41952,-4,0,252,16,437136,0
437154,201,-2066,220,-85,31,110,5828,8,-3,-218,-24,35379,-72,34,127,0,0,2069,-10,0,22384,10685,187,41962,-4,0,252,16,437136,0
437164,227,-2060,211,-88,27,108,5830,7,1,-217,-64,35369,-62,35,127,0,0,2078,43,0,22384,10685,187,41972,-4,0,252,16,437136,0
437175,221,-2067,201,-79,29,111,5828,-2,-3,-202,-80,35372,-65,34,127,0,0,2072,-10,0,22384,10685,187,41983,-4,0,252,16,437136,0
437185,213,-2067,202,-87,40,109,5828,2,0,-239,-40,35374,-69,34,127,0,0,2072,0,0,22384,10685,187,41993,-4,0,252,16,437167,0
437195,206,-2070,211,-84,31,117,5830,7,1,-217,-64,35387,-74,35,127,0,0,2074,21,0,22384,10685,187,42003,-4,0,252,16,437167,0
437205,218,-2073,210,-80,38,109,5829,0,1,-201,-40,35381,-69,34,127,0,0,2072,-10,0,22384,10685,187,42013,-4,0,252,16,437167,0
437215,223,-2069,209,-85,39,104,5827,-1,-2,-234,-72,35390,-56,34,127,0,0,2072,0,0,22384,10685,187,42023,-4,0,252,16,437198,0
437225,220,-2069,205,-83,40,113,5829,3,0,-234,-64,35382,-58,35,127,0,0,2072,0,0,22384,10685,187,42033,-4,0,252,16,437198,0
437235,218,-2065,214,-87,34,110,5827,3,2,-227,-72,35387,-58,34,127,0,0,2072,10,0,22384,10685,187,42043,-4,0,252,16,437198,0
437245,210,-2065,211,-86,37,106,5827,-4,0,-239,-40,35385,-58,34,127,0,0,2072,21,0,22384,10685,187,42053,-4,0,252,16,437230,0
437255,198,-2060,212,-81,35,106,5829,8,0,-179,-48,35380,-56,34,127,0,0,2072,-32,0,22384,10685,187,42063,-4,0,252,16,437230,0
437265,203,-2065,208,-86,33,107,5829,3,4,-155,-32,35375,-67,34,127,0,0,2072,-32,0,22384,10685,187,42073,-4,0,252,16,437230,0
437275,191,-2064,213,-84,30,106,5830,3,-3,-199,-80,35378,-72,34,127,0,0,2072,-21,0,22384,10685,187,42083,-4,0,252,16,437261,0
437285,215,-2073,207,-86,28,104,5829,4,6,-231,-72,35389,-75,34,127,0,0,2072,0,0,22384,10685,187,42093,-4,0,252,16,437261,0
437295,197,-2072,216,-81,31,107,5829,7,1,-229,-72,35383,-68,34,127,0,0,2072,0,0,22384,10685,187,42103,-4,0,252,16,437261,0
437305,215,-2067,206,-88,35,103,5829,9,5,-212,-40,35395,-75,34,127,0,0,2072,-21,0,22384,10685,187,42113,-4,0,252,16,437277,0
437315,210,-2072,208,-90,30,105,5827,0,-4,-226,-64,35390,-87,35,127,0,0,2072,0,0,22384,10685,187,42123,-4,0,252,16,437292,0
437325,209,-2075,213,-90,24,100,5828,0,-6,-188,-88,35389,-102,34,127,0,0,2072,-21,0,22384,10685,187,42133,-4,0,252,16,437292,0
437335,175,-2059,212,-88,25,105,5828,0,2,-234,-64,35388,-107,35,127,0,0,2072,10,0,22384,10685,187,42143,-4,0,252,16,437308,0
437345,218,-2069,187,-88,34,95,5828,9,3,-226,-72,35384,-83,34,127,0,0,2072,0,0,22384,10685,187,42153,-4,0,252,16,437323,0
437355,216,-2059,203,-82,34,98,5828,7,6,-232,-96,35386,-72,34,127,0,0,2069,-21,0,22384,10685,187,42163,-4,0,252,16,437323,0
437365,213,-2072,208,-86,35,101,5828,6,4,-218,-72,35382,-75,34,127,0,0,2072,-21,0,22384,10685,187,42173,-4,0,252,16,437355,0
437375,203,-2079,208,-80,37,100,5828,-3,2,-221,-64,35372,-81,34,127,0,0,2072,0,0,22384,10685,187,42183,-4,0,252,16,437355,0
437385,220,-2066,205,-87,29,98,5828,0,3,-244,-56,35370,-64,34,127,0,0,2072,10,0,22384,10685,187,42193,-4,0,252,16,437355,0
437395,229,-2076,210,-83,41,96,5827,-9,-4,-263,-112,35365,-55,35,127,0,0,2069,0,0,22384,10685,187,42203,-4,0,252,16,437386,0
437405,214,-2071,209,-82,35,104,5828,7,-1,-236,-64,35371,-59,34,127,0,0,2069,-32,0,22384,10685,187,42213,-4,0,252,16,437386,0
437415,211,-2070,208,-81,40,99,5827,4,-2,-314,-144,35375,-51,34,127,0,0,2067,-21,0,22384,10685,187,42223,-4,0,252,16,437386,0
437425,215,-2076,205,-85,40,104,5824,1,1,-364,-96,35370,-56,34,127,0,0,2067,10,0,22384,10685,187,42233,-4,0,252,16,437417,0
437436,236,-2074,212,-84,29,104,5825,1,4,-302,-56,35364,-40,34,127,0,0,2072,38,0,22384,10685,187,42244,-4,0,252,16,437417,0
437446,223,-2072,212,-87,35,99,5823,-15,-3,-334,-72,35369,-53,34,127,0,0,2066,60,0,22384,10685,187,42254,-4,0,252,16,437417,0
437456,233,-2064,199,-90,41,100,5824,0,1,-293,-96,35376,-58,34,127,0,0,2067,-54,0,22384,10685,187,42264,-4,0,252,16,437433,0
437466,227,-2074,211,-80,39,103,5822,-6,3,-337,-96,35382,-68,34,127,0,0,2064,-27,0,22384,10685,187,42274,-4,0,252,16,437433,0
437476,224,-2068,213,-85,33,102,5823,1,-6,-352,-96,35381,-57,34,127,0,0,2064,-16,0,22384,10685,187,42284,-4,0,252,16,437464,0
437486,202,-2075,215,-84,34,99,5822,-5,0,-364,-112,35381,-63,34,127,0,0,2065,-27,0,22384,10685,187,42294,-4,0,252,16,437464,0
437496,201,-2068,205,-82,35,100,5822,0,-1,-361,-136,35372,-68,34,127,0,0,2066,-32,0,22384,10685,187,42304,-4,0,252,16,437480,0
437506,209,-2066,199,-82,36,96,5821,-5,2,-371,-112,35360,-69,34,127,0,0,2065,0,0,22384,10685,187,42314,-4,0,252,16,437480,0
437516,215,-2064,202,-84,39,94,5821,2,-1,-396,-152,35369,-67,34,127,0,0,2064,-10,0,22384,10685,187,42324,-4,0,252,16,437511,0
437526,217,-2064,211,-83,46,101,5819,1,-1,-383,-128,35372,-79,34,127,0,0,2066,-16,0,22384,10685,187,42334,-4,0,252,16,437511,0
437536,227,-2068,221,-84,37,106,5819,9,3,-371,-128,35377,-77,34,127,0,0,2059,-71,0,22384,10685,187,42344,-4,0,252,16,437511,0
437546,203,-2067,214,-82,31,104,5818,-5,2,-387,-152,35377,-90,34,127,0,0,2064,-65,0,22384,10685,187,42354,-4,0,252,16,437511,0
437556,193,-2070,208,-86,38,108,5816,0,-2,-428,-120,35372,-68,34,127,0,0,2063,54,0,22384,10685,187,42364,-4,0,252,16,437542,0
437566,211,-2068,211,-87,41,103,5813,-5,3,-423,-120,35376,-77,34,127,0,0,2059,-10,0,22384,10685,187,42374,-4,0,252,16,437542,0
437576,236,-2072,210,-88,37,103,5814,-2,5,-400,-120,35373,-78,34,127,0,0,2056,-104,0,22384,10685,187,42384,-4,0,252,16,437558,0
437586,222,-2071,219,-92,31,108,5812,-7,-3,-456,-152,35370,-88,34,127,0,0,2065,60,0,22384,10685,187,42394,-4,0,252,16,437558,0
437596,195,-2067,219,-88,29,109,5812,4,0,-389,-136,35369,-97,34,127,0,0,2061,-10,0,22384,10685,187,42404,-4,0,252,16,437589,0
437606,196,-2069,216,-94,28,97,5810,-1,0,-419,-128,35374,-79,34,127,0,0,2061,5,0,22384,10685,187,42414,-4,0,252,16,437589,0
437616,196,-2053,219,-94,34,91,5811,2,-3,-387,-112,35381,-71,34,127,0,0,2063,-10,0,22384,10685,187,42424,-4,0,252,16,437589,0
437626,190,-2054,235,-107,28,72,5810,5,1,-405,-112,35373,-74,34,127,0,0,2063,43,0,22384,10685,187,42434,-4,0,252,16,437589,0
437636,191,-2061,204,-106,32,57,5807,-6,-4,-446,-144,35368,-66,34,127,0,0,2058,-5,0,22384,10685,187,42444,-4,0,252,16,437651,0
437646,191,-2063,184,-87,41,41,5797,-34,-20,-414,-120,35370,-49,34,127,0,0,2058,-27,0,22384,10685,187,42454,-4,0,252,16,437651,0
437656,218,-2075,184,-86,36,49,5771,-67,-43,-325,-120,35379,-59,34,127,0,0,2057,10,0,22384,10685,187,42464,-4,0,252,16,437651,0
437666,210,-2093,198,-82,38,47,5760,5,-3,-285,-88,35376,-76,34,127,0,0,2051,-54,0,22384,10685,187,42474,-4,0,252,16,437651,0
437676,220,-2087,208,-78,16,55,5759,3,52,-396,-112,35373,-81,34,127,0,0,2048,-21,0,22384,10685,187,42484,-4,0,252,16,437667,0
437686,222,-2088,158,-64,39,46,5759,0,13,-449,-152,35365,-63,34,127,0,0,2051,-5,0,22384,10685,187,42494,-4,0,252,16,437667,0
437697,272,-2094,143,-33,55,53,5756,-7,2,-455,-152,35371,-50,34,127,0,0,2047,-32,0,22384,10685,187,42505,-4,0,252,16,437667,0
437707,285,-2079,166,-18,58,84,5754,-9,-6,-516,-160,35390,-64,35,127,0,0,2045,0,0,22384,10685,187,42515,-4,0,252,16,437667,0
437717,317,-2063,145,2,57,135,5750,-9,-5,-513,-152,35398,-69,34,127,0,0,2047,21,0,22384,10685,187,42525,-4,0,252,16,437698,0
437727,302,-2045,126,13,66,163,5749,-2,5,-485,-120,35401,-63,34,127,0,0,2045,-10,0,22384,10685,187,42535,-4,0,252,16,437714,0
437737,265,-2057,141,62,90,192,5750,0,6,-479,-128,35381,-53,34,127,0,0,2047,0,0,22384,10685,187,42545,-4,0,252,16,437714,0
437747,250,-2054,184,69,107,217,5750,-2,-2,-460,-128,35366,-48,34,127,0,0,2050,32,0,22384,10685,187,42555,-4,0,252,16,437714,0
437757,257,-2077,230,73,77,250,5751,-2,4,-409,-104,35376,-66,35,127,0,0,2052,21,0,22384,10685,187,42565,-4,0,252,16,437730,0
437767,248,-2062,232,77,55,279,5751,1,-1,-339,-32,35376,-65,34,127,0,0,2058,76,0,22384,10685,187,42575,-4,0,252,16,437761,0
437777,184,-2066,233,74,58,282,5758,22,16,-175,-16,35375,-70,34,127,0,0,2061,0,0,22384,10685,187,42585,-4,0,252,16,437776,0
437787,182,-2033,234,69,70,263,5761,14,3,-83,24,35366,-54,35,127,0,0,2067,43,0,22384,10685,187,42595,-4,0,252,16,437776,0
437797,185,-2048,226,75,73,265,5769,18,0,62,40,35362,-71,34,127,0,0,2074,65,0,22384,10685,187,42605,-4,0,252,16,437776,0
437807,188,-2045,247,71,69,263,5776,21,10,236,88,35366,-52,34,127,0,0,2076,10,0,22384,10685,187,42615,-4,0,252,16,437792,0
437817,227,-2047,243,64,65,274,5783,3,0,277,88,35369,-52,34,127,0,0,2078,21,0,22384,10685,187,42625,-4,0,252,16,437792,0
437827,238,-2063,253,52,68,286,5791,23,1,379,128,35370,-31,34,127,0,0,2089,65,0,22384,10685,187,42635,-4,0,252,16,437792,0
437837,246,-2082,247,42,63,307,5830,112,68,286,152,35389,-53,35,127,0,0,2091,54,0,22384,10685,187,42645,-4,0,252,16,437839,0
437847,283,-2061,257,31,44,331,5868,59,68,259,152,35392,-76,34,127,0,0,2102,76,0,22384,10685,187,42655,-4,0,252,16,437839,0
437857,212,-2099,244,14,42,356,5904,77,-17,258,80,35398,-68,34,127,0,0,2109,65,0,22384,10685,187,42665,-4,0,252,16,437839,0
437867,222,-2067,248,14,48,350,5921,24,-40,393,168,35387,-57,34,127,0,0,2118,87,0,22384,10685,187,42675,-4,0,252,16,437839,0
437877,199,-2086,250,2,66,356,5940,62,-34,459,176,35378,-50,34,127,0,0,2124,76,0,22384,10685,187,42685,-4,0,252,16,437855,0
437887,214,-2093,261,2,60,351,5991,112,73,338,160,35380,-61,34,127,0,0,2135,87,0,22384,10685,187,42695,-4,0,252,16,437855,0
437897,210,-2107,260,-15,37,366,6051,139,83,238,120,35374,-62,34,127,0,0,2140,32,0,22384,10685,187,42705,-4,0,252,16,437870,0
437907,179,-2060,257,-23,26,344,6081,48,-39,320,104,35378,-68,34,127,0,0,2151,76,0,22384,10685,187,42715,-4,0,252,16,437886,0
437918,171,-2051,244,-35,45,323,6104,28,-89,442,168,35375,-71,34,127,0,0,2161,82,0,22384,10685,187,42726,-4,0,252,16,437886,0
437928,145,-2074,230,-40,52,300,6117,28,-32,542,200,35379,-95,34,127,0,0,2164,65,0,22384,10685,187,42736,-4,0,252,16,437901,0
437938,143,-2056,231,-34,58,273,6161,125,45,405,136,35376,-98,34,127,0,0,2173,54,0,22384,10685,187,42746,-4,0,252,16,437901,0
437948,177,-2051,256,-41,49,272,6219,120,93,189,80,35374,-78,34,127,0,0,2176,98,0,22384,10685,187,42756,-4,0,252,16,437933,0
437958,149,-2040,257,-50,43,248,6237,10,-49,313,80,35385,-87,35,127,0,0,2180,-27,0,22384,10685,187,42766,-4,0,252,16,437933,0
437968,115,-2062,251,-61,63,229,6238,4,-115,401,120,35390,-74,34,127,0,0,2185,5,0,22384,10685,187,42776,-4,0,252,16,437933,0
437978,160,-2040,255,-62,56,212,6242,26,-20,494,152,35392,-56,35,127,0,0,2189,21,0,22384,10685,187,42786,-4,0,252,16,437964,0
437988,160,-2055,274,-71,46,207,6252,29,19,498,152,35390,-41,34,127,0,0,2191,27,0,22384,10685,187,42796,-4,0,252,16,437964,0
437998,136,-2069,278,-92,41,183,6279,77,45,376,120,35381,-35,34,127,0,0,2193,32,0,22384,10685,187,42806,-4,0,252,16,437964,0
438008,136,-2077,267,-96,35,170,6303,32,34,284,112,35380,-52,34,127,0,0,2191,32,0,22384,10685,187,42816,-4,0,252,16,437980,0
438018,120,-2079,237,-103,39,136,6305,1,-53,342,104,35386,-50,34,127,0,0,2195,-5,0,22384,10685,187,42826,-4,0,252,16,438011,0
438028,129,-2071,217,-93,35,115,6306,-4,-46,339,104,35388,-41,34,127,0,0,2195,5,0,22384,10685,187,42836,-4,0,252,16,438011,0
438038,143,-2078,214,-86,29,90,6306,0,-2,347,104,35388,-38,35,127,0,0,2195,0,0,22384,10685,187,42846,-4,0,252,16,438011,0
438048,154,-2082,221,-77,33,87,6307,3,-3,361,104,35379,-47,35,127,0,0,2195,-5,0,22384,10685,187,42856,-4,0,252,16,438011,0
438058,157,-2087,246,-80,33,64,6311,7,0,356,96,35386,-54,34,127,0,0,2195,-16,0,22384,10685,187,42866,-4,0,252,16,438042,0
438068,160,-2082,256,-80,26,62,6313,-6,4,287,72,35382,-60,34,127,0,0,2192,21,0,22384,10685,187,42876,-4,0,252,16,438042,0
438078,195,-2077,254,-86,31,53,6313,1,-5,231,48,35386,-64,34,127,0,0,2190,5,0,22384,10685,187,42886,-4,0,252,16,438042,0
438088,204,-2074,250,-92,31,60,6314,4,0,236,48,35380,-63,34,127,0,0,2190,-43,0,22384,10685,187,42896,-4,0,252,16,438073,0
438098,211,-2074,235,-95,19,80,6313,-3,0,200,32,35391,-62,34,127,0,0,2191,0,0,22384,10685,187,42906,-4,0,252,16,438073,0
438108,199,-2066,229,-86,32,90,6314,0,0,221,32,35392,-52,34,127,0,0,2191,-5,0,22384,10685,187,42916,-4,0,252,16,438073,0
438118,233,-2070,225,-78,35,111,6313,-3,-1,197,48,35388,-50,34,127,0,0,2190,27,0,22384,10685,187,42926,-4,0,252,16,438089,0
438128,217,-2056,231,-78,37,126,6314,-1,-3,214,48,35399,-60,34,127,0,0,2190,0,0,22384,10685,187,42936,-4,0,252,16,438183,0
438138,207,-2053,239,-80,33,144,6313,5,-2,206,72,35401,-63,34,127,0,0,2189,16,0,22384,10685,187,42946,-4,0,252,16,438183,0
438148,189,-2066,232,-80,35,151,6312,-7,0,209,56,35399,-52,34,127,0,0,2190,0,0,22384,10685,187,42956,-4,0,252,16,438183,0
438158,172,-2066,225,-72,30,155,6313,-3,-1,220,72,35392,-45,34,127,0,0,2189,5,0,22384,10685,187,42966,-4,0,252,16,438183,0
438168,167,-2065,225,-72,29,158,6315,1,1,220,72,35381,-33,34,127,0,0,2192,10,0,22384,10685,187,42976,-4,0,252,16,438183,0
438178,175,-2069,216,-64,37,160,6315,4,0,249,48,35376,-48,35,127,0,0,2193,5,0,22384,10685,187,42986,-4,0,252,16,438198,0
438188,172,-2067,222,-51,33,156,6317,11,3,298,88,35379,-52,34,127,0,0,2195,-10,0,22384,10685,187,42996,-4,0,252,16,438198,0
438198,175,-2068,245,-56,30,163,6328,31,17,258,104,35382,-47,34,127,0,0,2192,10,0,22384,10685,187,43006,-4,0,252,16,438198,0
438208,189,-2077,241,-59,27,168,6353,57,44,123,32,35387,-38,35,127,0,0,2197,0,0,22384,10685,187,43016,-4,0,252,16,438198,0
438219,181,-2055,257,-63,21,165,6359,-1,-13,173,64,35383,-47,34,127,0,0,2203,32,0,22384,10685,187,43027,-4,0,252,16,438198,0
438229,150,-2078,261,-71,24,160,6361,3,-49,247,48,35384,-67,35,127,0,0,2203,21,0,22384,10685,187,43037,-4,0,252,16,438198,0
438239,151,-2070,243,-74,22,149,6363,11,-3,276,72,35391,-87,34,127,0,0,2203,10,0,22384,10685,187,43047,-4,0,252,16,438229,0
438249,158,-2070,233,-77,17,143,6367,2,5,336,104,35400,-85,34,127,0,0,2208,21,0,22384,10685,187,43057,-4,0,252,16,438229,0
438259,138,-2079,241,-69,19,143,6377,12,15,319,80,35396,-61,34,127,0,0,2208,21,0,22384,10685,187,43067,-4,0,252,16,438229,0
438269,157,-2081,241,-78,21,117,6384,19,6,293,64,35385,-73,34,127,0,0,2210,21,0,22384,10685,187,43077,-4,0,252,16,438292,0
438279,157,-2083,233,-64,20,118,6396,33,4,231,48,35380,-60,35,127,0,0,2208,0,0,22384,10685,187,43087,-4,0,252,16,438292,0
438289,155,-2067,239,-64,20,112,6410,30,13,153,40,35386,-66,34,127,0,0,2210,0,0,22384,10685,187,43097,-4,0,252,16,438292,0
438299,176,-2073,244,-71,11,113,6415,-4,-11,120,56,35387,-68,34,127,0,0,2212,32,0,22384,10685,187,43107,-4,0,252,16,438292,0
438309,167,-2067,232,-74,23,102,6416,-6,-25,181,8,35381,-67,34,127,0,0,2212,-10,0,22384,10685,187,43117,-4,0,252,16,438292,0
438319,176,-2074,225,-64,28,110,6418,0,-12,149,40,35374,-66,34,127,0,0,2212,21,0,22384,10685,187,43127,-4,0,252,16,438292,0
438329,192,-2060,250,-64,22,126,6418,-2,-11,172,40,35371,-65,34,127,0,0,2212,0,0,22384,10685,187,43137,-4,0,252,16,438308,0
438339,216,-2077,251,-64,18,140,6418,0,-2,189,72,35371,-58,34,127,0,0,2214,0,0,22384,10685,187,43147,-4,0,252,16,438308,0
438349,204,-2061,258,-79,22,168,6420,9,3,255,72,35374,-47,34,127,0,0,2214,0,0,22384,10685,187,43157,-4,0,252,16,438323,0
438359,216,-2060,269,-91,13,188,6423,3,6,270,96,35372,-47,34,127,0,0,2223,76,0,22384,10685,187,43167,-4,0,252,16,438339,0
438369,198,-2080,265,-101,11,200,6429,11,5,394,112,35374,-40,34,127,0,0,2223,43,0,22384,10685,187,43177,-4,0,252,16,438339,0
438379,197,-2051,258,-98,7,212,6436,16,10,427,152,35381,-61,34,127,0,0,2228,43,0,22384,10685,187,43187,-4,0,252,16,438382,0
438389,183,-2085,258,-107,10,222,6449,29,15,453,136,35389,-63,34,127,0,0,2232,43,0,22384,10685,187,43197,-4,0,252,16,438382,0
438399,175,-2078,241,-108,16,232,6481,88,51,320,128,35393,-62,34,127,0,0,2239,87,0,22384,10685,187,43207,-4,0,252,16,438382,0
438409,204,-2052,243,-110,14,245,6514,44,41,301,104,35388,-51,34,127,0,0,2243,43,0,22384,10685,187,43217,-4,0,252,16,438382,0
438419,163,-2084,233,-115,14,253,6531,42,-41,359,112,35379,-54,34,127,0,0,2247,21,0,22384,10685,187,43227,-4,0,252,16,438398,0
438430,162,-2061,236,-112,15,251,6557,50,-6,279,96,35383,-40,34,127,0,0,2253,60,0,22384,10685,187,43238,-4,0,252,16,438398,0
438440,164,-2076,238,-115,16,246,6566,5,-16,389,136,35394,-55,34,127,0,0,2256,32,0,22384,10685,187,43248,-4,0,252,16,438414,0
438450,161,-2071,227,-108,26,243,6576,27,-37,403,136,35393,-64,34,127,0,0,2262,38,0,22384,10685,187,43258,-4,0,252,16,438414,0
438460,149,-2063,221,-110,28,238,6601,79,30,396,168,35389,-76,34,127,0,0,2264,43,0,22384,10685,187,43268,-4,0,252,16,438445,0
438470,178,-2088,238,-102,19,252,6646,73,78,214,96,35378,-78,34,127,0,0,2269,54,0,22384,10685,187,43278,-4,0,252,16,438445,0
438480,132,-2056,223,-95,12,240,6673,66,-5,256,80,35376,-68,34,127,0,0,2277,54,0,22384,10685,187,43288,-4,0,252,16,438461,0
438490,148,-2067,226,-96,31,236,6697,36,-45,274,96,35378,-75,34,127,0,0,2280,27,0,22384,10685,187,43298,-4,0,252,16,438461,0
438500,141,-2055,228,-89,35,222,6698,5,-53,374,128,35392,-85,34,127,0,0,2288,71,0,22384,10685,187,43308,-4,0,252,16,438476,0
438510,149,-2079,239,-88,32,210,6707,28,-21,460,128,35392,-86,35,127,0,0,2290,32,0,22384,10685,187,43318,-4,0,252,16,438492,0
438520,150,-2071,249,-91,22,209,6729,65,36,403,128,35386,-78,34,127,0,0,2291,16,0,22384,10685,187,43328,-4,0,252,16,438507,0
438530,150,-2086,249,-100,27,213,6767,69,53,201,88,35377,-80,34,127,0,0,2299,82,0,22384,10685,187,43338,-4,0,252,16,438523,0
438540,126,-2059,244,-100,25,188,6788,42,-7,248,64,35377,-58,35,127,0,0,2301,32,0,22384,10685,187,43348,-4,0,252,16,438523,0
438550,123,-2071,226,-104,33,178,6820,73,-11,123,40,35376,-51,34,127,0,0,2302,32,0,22384,10685,187,43358,-4,0,252,16,438523,0
438560,142,-2055,242,-102,27,164,6821,-6,-35,162,56,35373,-46,34,127,0,0,2308,76,0,22384,10685,187,43368,-4,0,252,16,438554,0
438570,135,-2060,246,-97,34,146,6822,-7,-63,220,72,35367,-54,34,127,0,0,2307,49,0,22384,10685,187,43378,-4,0,252,16,438570,0
438580,133,-2079,231,-99,32,137,6822,0,2,285,88,35371,-58,34,127,0,0,2309,21,0,22384,10685,187,43388,-4,0,252,16,438570,0
438590,141,-2073,232,-94,22,126,6824,0,-2,315,88,35369,-48,35,127,0,0,2312,32,0,22384,10685,187,43398,-4,0,252,16,438570,0
438600,126,-2074,235,-101,24,126,6826,6,2,339,104,35376,-61,34,127,0,0,2308,10,0,22384,10685,187,43408,-4,0,252,16,438570,0
438610,144,-2070,235,-95,36,107,6828,8,1,347,104,35383,-71,34,127,0,0,2314,43,0,22384,10685,187,43418,-4,0,252,16,438601,0
438620,155,-2074,237,-95,36,113,6831,5,-4,372,96,35385,-80,34,127,0,0,2314,43,0,22384,10685,187,43428,-4,0,252,16,438601,0
438630,145,-2080,248,-97,33,114,6830,0,-2,389,112,35384,-80,34,127,0,0,2313,16,0,22384,10685,187,43438,-4,0,252,16,438601,0
438640,136,-2076,243,-98,27,105,6830,0,2,368,112,35376,-86,34,127,0,0,2313,43,0,22384,10685,187,43448,-4,0,252,16,438601,0
438650,141,-2072,238,-104,28,106,6830,4,-2,367,96,35377,-75,34,127,0,0,2314,43,0,22384,10685,187,43458,-4,0,252,16,438617,0
438661,156,-2074,233,-104,35,101,6830,0,1,382,88,35378,-75,34,127,0,0,2311,-10,0,22384,10685,187,43469,-4,0,252,16,438648,0
438671,156,-2066,231,-102,26,98,6831,5,3,349,104,35370,-86,34,127,0,0,2313,43,0,22384,10685,187,43479,-4,0,252,16,438648,0
438681,158,-2069,237,-99,31,108,6831,6,0,380,112,35369,-81,34,127,0,0,2313,0,0,22384,10685,187,43489,-4,0,252,16,438648,0
438691,162,-2069,232,-109,31,114,6830,0,-2,376,112,35373,-75,34,127,0,0,2311,-21,0,22384,10685,187,43499,-4,0,252,16,438679,0
438701,181,-2073,239,-103,30,121,6831,0,4,361,96,35372,-67,34,127,0,0,2311,10,0,22384,10685,187,43509,-4,0,252,16,438679,0
438711,178,-2076,248,-108,24,130,6830,-2,2,373,120,35377,-61,34,127,0,0,2311,-10,0,22384,10685,187,43519,-4,0,252,16,438679,0
438721,155,-2077,249,-106,19,139,6832,5,2,375,112,35373,-65,34,127,0,0,2311,0,0,22384,10685,187,43529,-4,0,252,16,438695,0
438731,154,-2071,234,-109,22,144,6831,-1,0,354,96,35384,-83,34,127,0,0,2311,0,0,22384,10685,187,43539,-4,0,252,16,438742,0
438741,154,-2066,219,-105,28,139,6831,0,-2,349,112,35383,-90,34,127,0,0,2313,43,0,22384,10685,187,43549,-4,0,252,16,438742,0
438751,136,-2060,218,-104,30,139,6831,-8,1,379,112,35389,-85,34,127,0,0,2313,0,0,22384,10685,187,43559,-4,0,252,16,438742,0
438761,122,-2065,231,-104,26,135,6832,0,1,375,112,35386,-64,34,127,0,0,2313,-10,0,22384,10685,187,43569,-4,0,252,16,438742,0
438771,110,-2066,244,-106,20,131,6831,-4,-3,361,120,35392,-64,34,127,0,0,2311,-10,0,22384,10685,187,43579,-4,0,252,16,438742,0
438781,124,-2051,219,-109,28,116,6832,0,-3,363,112,35384,-73,34,127,0,0,2313,10,0,22384,10685,187,43589,-4,0,252,16,438742,0
438791,107,-2053,223,-111,30,113,6832,3,-2,362,120,35389,-86,34,127,0,0,2313,10,0,22384,10685,187,43599,-4,0,252,16,438773,0
438801,115,-2056,242,-114,32,99,6832,0,0,348,88,35382,-90,34,127,0,0,2313,21,0,22384,10685,187,43609,-4,0,252,16,438789,0
438811,108,-2082,247,-113,25,91,6834,4,2,362,80,35381,-93,34,127,0,0,2311,0,0,22384,10685,187,43619,-4,0,252,16,438789,0
438821,110,-2068,247,-119,22,65,6833,0,-1,341,88,35369,-90,34,127,0,0,2311,0,0,22384,10685,187,43629,-4,0,252,16,438789,0
438831,117,-2073,245,-126,15,40,6831,-1,4,312,104,35373,-72,34,127,0,0,2309,0,0,22384,10685,187,43639,-4,0,252,16,438820,0
438841,106,-2080,234,-132,23,-8,6830,-11,-1,213,24,35381,-64,34,127,0,0,2304,-10,0,22384,10685,187,43649,-4,0,252,16,438820,0
438851,103,-2115,213,-127,41,-23,6829,-5,-4,104,16,35383,-63,34,127,0,0,2300,-32,0,22384,10685,187,43659,-4,0,252,16,438820,0
438861,143,-2103,211,-112,40,-46,6826,-14,-4,-5,-56,35386,-67,35,127,0,0,2293,-65,0,22384,10685,187,43669,-4,0,252,16,438929,0
438871,154,-2093,223,-109,39,-45,6818,-24,-17,-189,-56,35380,-81,34,127,0,0,2291,0,0,22384,10685,187,43679,-4,0,252,16,438929,0
438881,183,-2086,221,-102,28,-39,6815,-5,7,-294,-88,35382,-77,34,127,0,0,2285,-43,0,22384,10685,187,43689,-4,0,252,16,438929,0
438891,164,-2076,219,-101,35,-42,6811,-5,14,-402,-152,35377,-64,34,127,0,0,2280,-43,0,22384,10685,187,43699,-4,0,252,16,438945,0
438901,180,-2083,243,-109,41,-25,6804,-14,-6,-505,-168,35371,-66,34,127,0,0,2274,-32,0,22384,10685,187,43709,-4,0,252,16,438945,0
438911,209,-2063,250,-113,41,-18,6796,-20,-6,-540,-168,35364,-44,34,127,0,0,2271,-54,0,22384,10685,187,43719,-4,0,252,16,438945,0
438921,226,-2048,247,-128,26,20,6786,-29,-5,-582,-216,35369,-43,34,127,0,0,2267,-21,0,22384,10685,187,43729,-4,0,252,16,438945,0
438931,216,-2036,237,-133,11,40,6753,-82,-43,-434,-176,35375,-39,34,127,0,0,2265,-21,0,22384,10685,187,43739,-4,0,252,16,438945,0
438941,165,-2059,215,-141,21,50,6732,-26,-23,-390,-144,35376,-57,34,127,0,0,2260,-43,0,22384,10685,187,43749,-4,0,252,16,438945,0
438951,184,-2047,220,-138,28,54,6731,-2,63,-469,-168,35371,-52,34,127,0,0,2260,-21,0,22384,10685,187,43759,-4,0,252,16,438945,0
438961,148,-2059,215,-139,30,62,6729,-6,33,-506,-176,35370,-53,34,127,0,0,2258,0,0,22384,10685,187,43769,-4,0,252,16,438960,0
438972,146,-2057,228,-139,24,51,6708,-67,-32,-505,-168,35375,-57,34,127,0,0,2254,21,0,22384,10685,187,43780,-4,0,252,16,438960,0
438982,115,-2076,230,-143,38,12,6671,-74,-71,-303,-120,35375,-49,34,127,0,0,2252,10,0,22384,10685,187,43790,-4,0,252,16,438960,0
438992,111,-2112,225,-144,41,5,6666,-9,32,-472,-168,35390,-73,34,127,0,0,2245,5,0,22384,10685,187,43800,-4,0,252,16,438960,0
439002,138,-2091,210,-136,34,-25,6657,-18,54,-485,-184,35395,-65,34,127,0,0,2237,-60,0,22384,10685,187,43810,-4,0,252,16,438992,0
439012,157,-2095,213,-131,25,-26,6634,-69,-39,-502,-200,35399,-83,34,127,0,0,2234,-49,0,22384,10685,187,43820,-4,0,252,16,439007,0
439022,122,-2093,205,-135,50,-60,6604,-41,-48,-450,-200,35390,-66,34,127,0,0,2228,-60,0,22384,10685,187,43830,-4,0,252,16,439007,0
439032,172,-2075,230,-127,44,-56,6592,-32,34,-611,-192,35374,-67,34,127,0,0,2219,-54,0,22384,10685,187,43840,-4,0,252,16,439007,0
439042,178,-2078,234,-130,22,-45,6571,-71,15,-568,-208,35369,-73,34,127,0,0,2219,-38,0,22384,10685,187,43850,-4,0,252,16,439007,0
439052,170,-2061,231,-128,34,-58,6529,-79,-69,-419,-184,35378,-76,34,127,0,0,2215,-10,0,22384,10685,187,43860,-4,0,252,16,439023,0
439062,201,-2074,217,-135,48,-42,6497,-73,-12,-390,-160,35384,-61,35,127,0,0,2208,-43,0,22384,10685,187,43870,-4,0,252,16,439039,0
439072,204,-2078,205,-126,46,-45,6478,-30,41,-446,-184,35391,-58,34,127,0,0,2201,-65,0,22384,10685,187,43880,-4,0,252,16,439039,0
439082,221,-2068,223,-127,31,-29,6474,-16,59,-624,-208,35390,-42,34,127,0,0,2197,-27,0,22384,10685,187,43890,-4,0,252,16,439054,0
439092,186,-2081,225,-130,34,-29,6465,-18,11,-634,-232,35386,-32,34,127,0,0,2192,-71,0,22384,10685,187,43900,-4,0,252,16,439054,0
439102,175,-2076,227,-130,30,-17,6439,-78,-33,-611,-200,35387,-35,34,127,0,0,2190,27,0,22384,10685,187,43910,-4,0,252,16,439101,0
439112,164,-2065,211,-127,49,-31,6402,-61,-55,-417,-168,35379,-49,35,127,0,0,2179,-76,0,22384,10685,187,43920,-4,0,252,16,439101,0
439122,231,-2055,211,-119,49,-15,6401,-1,44,-612,-248,35384,-73,34,127,0,0,2184,-54,0,22384,10685,187,43930,-4,0,252,16,439101,0
439132,214,-2058,221,-124,28,3,6388,-37,49,-656,-240,35387,-80,34,127,0,0,2175,-43,0,22384,10685,187,43940,-4,0,252,16,439101,0
439142,180,-2068,237,-132,31,11,6358,-67,-52,-519,-200,35387,-54,34,127,0,0,2173,-43,0,22384,10685,187,43950,-4,0,252,16,439117,0
439152,167,-2083,216,-130,46,2,6340,-31,-11,-587,-224,35386,-46,34,127,0,0,2166,-49,0,22384,10685,187,43960,-4,0,252,16,439132,0
439163,206,-2073,217,-131,42,9,6330,-21,37,-672,-224,35386,-39,35,127,0,0,2162,-21,0,22384,10685,187,43971,-4,0,252,16,439132,0
439173,223,-2071,221,-130,28,19,6304,-76,-24,-596,-224,35385,-39,34,127,0,0,2159,-10,0,22384,10685,187,43981,-4,0,252,16,439148,0
439183,182,-2056,224,-140,28,14,6264,-68,-60,-411,-184,35392,-44,35,127,0,0,2155,-54,0,22384,10685,187,43991,-4,0,252,16,439163,0
439193,202,-2059,220,-136,21,20,6234,-74,2,-389,-168,35384,-20,34,127,0,0,2148,-54,0,22384,10685,187,44001,-4,0,252,16,439163,0
439203,177,-2058,196,-135,36,7,6214,-9,30,-359,-112,35381,-23,35,127,0,0,2146,-65,0,22384,10685,187,44011,-4,0,252,16,439179,0
439213,208,-2039,217,-125,37,10,6214,0,68,-500,-152,35379,-27,34,127,0,0,2144,-32,0,22384,10685,187,44021,-4,0,252,16,439179,0
439223,189,-2078,217,-131,30,7,6211,-7,33,-561,-200,35383,-29,34,127,0,0,2137,-65,0,22384,10685,187,44031,-4,0,252,16,439257,0
439233,204,-2052,198,-130,37,5,6201,-28,-24,-654,-208,35387,-35,34,127,0,0,2137,-21,0,22384,10685,187,44041,-4,0,252,16,439257,0
439243,206,-2080,203,-130,31,5,6193,-13,-13,-574,-224,35383,-45,34,127,0,0,2133,-65,0,22384,10685,187,44051,-4,0,252,16,439257,0
439253,220,-2053,227,-130,20,25,6170,-67,-21,-574,-224,35380,-63,34,127,0,0,2129,-65,0,22384,10685,187,44061,-4,0,252,16,439273,0
439263,193,-2067,218,-133,25,21,6142,-34,-46,-498,-224,35379,-50,34,127,0,0,2126,-43,0,22384,10685,187,44071,-4,0,252,16,439273,0
439273,228,-2073,208,-136,18,33,6128,-24,30,-555,-216,35375,-41,34,127,0,0,2122,-32,0,22384,10685,187,44081,-4,0,252,16,439273,0
439283,225,-2062,215,-138,8,32,6092,-102,-19,-435,-160,35375,-54,35,127,0,0,2120,-21,0,22384,10685,187,44091,-4,0,252,16,439273,0
439293,167,-2093,200,-135,25,30,6061,-45,-36,-334,-112,35376,-75,34,127,0,0,2115,-54,0,22384,10685,187,44101,-4,0,252,16,439273,0
439303,224,-2063,197,-125,24,27,6043,-48,43,-369,-128,35381,-71,34,127,0,0,2115,0,0,22384,10685,187,44111,-4,0,252,16,439273,0
439313,198,-2085,197,-123,33,24,6032,-5,33,-320,-120,35390,-47,34,127,0,0,2113,0,0,22384,10685,187,44121,-4,0,252,16,439273,0
439323,226,-2075,204,-123,29,40,6031,-4,33,-402,-128,35403,-55,34,127,0,0,2109,-21,0,22384,10685,187,44131,-4,0,252,16,439304,0
439333,218,-2075,202,-121,20,54,6028,-5,12,-475,-168,35402,-61,35,127,0,0,2109,0,0,22384,10685,187,44141,-4,0,252,16,439304,0
439343,210,-2066,199,-123,28,58,6026,10,-5,-460,-136,35395,-74,34,127,0,0,2107,-10,0,22384,10685,187,44151,-4,0,252,16,439320,0
439353,233,-2071,205,-119,24,66,6024,-4,6,-525,-160,35392,-76,34,127,0,0,2102,-32,0,22384,10685,187,44161,-4,0,252,16,439320,0
439363,237,-2071,205,-121,27,77,6022,3,-3,-572,-176,35393,-82,35,127,0,0,2102,-21,0,22384,10685,187,44171,-4,0,252,16,439335,0
439373,238,-2066,204,-123,22,85,6019,-16,-4,-595,-168,35394,-97,35,127,0,0,2102,-10,0,22384,10685,187,44181,-4,0,252,16,439335,0
439383,217,-2067,205,-121,17,93,6019,0,3,-609,-184,35396,-93,34,127,0,0,2100,-10,0,22384,10685,187,44191,-4,0,252,16,439367,0
439393,216,-2064,199,-124,15,97,6017,-2,4,-603,-184,35388,-82,34,127,0,0,2102,21,0,22384,10685,187,44201,-4,0,252,16,439367,0
439403,206,-2063,191,-115,21,103,6018,-3,2,-593,-160,35379,-56,34,127,0,0,2100,-10,0,22384,10685,187,44211,-4,0,252,16,439367,0
439414,196,-2069,189,-105,29,108,6017,-1,-3,-601,-184,35373,-57,34,127,0,0,2100,-32,0,22384,10685,187,44222,-4,0,252,16,439382,0
439424,230,-2072,194,-106,29,104,6017,-3,0,-584,-160,35370,-42,34,127,0,0,2099,-49,0,22384,10685,187,44232,-4,0,252,16,439413,0
439434,218,-2080,211,-110,32,105,6017,7,-2,-574,-184,35371,-47,34,127,0,0,2100,-49,0,22384,10685,187,44242,-4,0,252,16,439413,0
439444,226,-2079,212,-110,34,115,6017,3,-1,-584,-160,35369,-42,34,127,0,0,2102,5,0,22384,10685,187,44252,-4,0,252,16,439413,0
439454,264,-2087,204,-110,30,123,6016,-2,0,-602,-176,35371,-45,34,127,0,0,2103,43,0,22384,10685,187,44262,-4,0,252,16,439429,0
439464,244,-2087,207,-114,30,133,6017,2,0,-547,-184,35371,-48,34,127,0,0,2103,-32,0,22384,10685,187,44272,-4,0,252,16,439445,0
439474,219,-2085,202,-108,30,148,6016,2,2,-541,-160,35368,-34,34,127,0,0,2102,0,0,22384,10685,187,44282,-4,0,252,16,439445,0
439484,218,-2076,201,-107,37,152,6016,0,1,-530,-160,35367,-36,35,127,0,0,2109,32,0,22384,10685,187,44292,-4,0,252,16,439445,0
439494,225,-2040,202,-113,25,172,6017,0,-1,-491,-120,35376,-50,34,127,0,0,2103,38,0,22384,10685,187,44302,-4,0,252,16,439476,0
439504,233,-2040,208,-114,18,173,6017,0,2,-425,-104,35377,-55,34,127,0,0,2109,-27,0,22384,10685,187,44312,-4,0,252,16,439507,0
439514,184,-2040,203,-122,21,163,6018,0,0,-404,-80,35376,-62,34,127,0,0,2108,5,0,22384,10685,187,44322,-4,0,252,16,439507,0
439524,194,-2060,201,-134,24,146,6018,0,-4,-372,-80,35372,-62,34,127,0,0,2108,-5,0,22384,10685,187,44332,-4,0,252,16,439523,0
439534,168,-2046,205,-138,19,126,6021,8,7,-297,-72,35370,-61,34,127,0,0,2113,-21,0,22384,10685,187,44342,-4,0,252,16,439523,0
439544,160,-2059,202,-143,19,124,6021,-3,0,-272,-72,35370,-64,34,127,0,0,2113,-5,0,22384,10685,187,44352,-4,0,252,16,439523,0
439554,142,-2053,197,-146,21,94,6021,0,-3,-308,-72,35376,-66,34,127,0,0,2113,5,0,22384,10685,187,44362,-4,0,252,16,439523,0
439564,153,-2061,205,-144,16,82,6020,-8,-4,-332,-88,35375,-52,34,127,0,0,2108,-32,0,22384,10685,187,44372,-4,0,252,16,439538,0
439574,177,-2051,202,-143,27,48,6021,10,3,-350,-72,35390,-57,34,127,0,0,2113,16,0,22384,10685,187,44382,-4,0,252,16,439632,0
439584,188,-2059,195,-148,21,38,6019,-12,-1,-329,-104,35383,-53,34,127,0,0,2112,-16,0,22384,10685,187,44392,-4,0,252,16,439648,0
439594,201,-2095,193,-151,13,10,6020,0,4,-363,-112,35372,-51,34,127,0,0,2109,-5,0,22384,10685,187,44402,-4,0,252,16,439648,0
439604,192,-2101,175,-142,26,-11,6019,-6,-4,-429,-128,35361,-54,34,127,0,0,2100,-93,0,22384,10685,187,44412,-4,0,252,16,439648,0
439614,226,-2096,149,-126,41,-26,6015,-8,-8,-593,-160,35363,-52,34,127,0,0,2102,21,0,22384,10685,187,44422,-4,0,252,16,439648,0
439624,253,-2111,142,-122,51,-13,6012,-13,-8,-632,-216,35363,-62,34,127,0,0,2092,-49,0,22384,10685,187,44432,-4,0,252,16,439648,0
439634,279,-2085,155,-103,27,24,6003,-22,-13,-697,-232,35364,-66,34,127,0,0,2091,-54,0,22384,10685,187,44442,-4,0,252,16,439648,0
439644,272,-2088,170,-93,32,45,5979,-70,-40,-641,-216,35366,-54,34,127,0,0,2092,16,0,22384,10685,187,44452,-4,0,252,16,439648,0
439654,280,-2076,173,-86,50,68,5947,-49,-46,-402,-168,35365,-47,35,127,0,0,2087,-27,0,22384,10685,187,44462,-4,0,252,16,439648,0
439664,307,-2069,190,-78,43,98,5943,1,40,-460,-152,35364,-33,34,127,0,0,2087,0,0,22384,10685,187,44472,-4,0,252,16,439648,0
439674,295,-2071,211,-87,22,148,5941,-2,59,-473,-152,35358,-47,34,127,0,0,2087,0,0,22384,10685,187,44482,-4,0,252,16,439663,0
439685,233,-2070,189,-90,23,166,5941,-6,4,-487,-152,35362,-56,34,127,0,0,2087,0,0,22384,10685,187,44493,-4,0,252,16,439663,0
439695,231,-2064,171,-88,37,164,5941,1,2,-474,-152,35372,-90,34,127,0,0,2085,-21,0,22384,10685,187,44503,-4,0,252,16,439663,0
439705,237,-2062,170,-79,44,178,5940,-2,6,-490,-152,35384,-78,34,127,0,0,2089,21,0,22384,10685,187,44513,-4,0,252,16,439679,0
439715,229,-2060,181,-67,39,188,5940,5,-1,-437,-152,35387,-93,34,127,0,0,2091,10,0,22384,10685,187,44523,-4,0,252,16,439695,0
439725,215,-2070,194,-67,36,204,5940,5,4,-375,-112,35379,-76,34,127,0,0,2091,0,0,22384,10685,187,44533,-4,0,252,16,439695,0
439735,207,-2053,201,-71,38,203,5940,-4,1,-352,-128,35378,-73,34,127,0,0,2096,43,0,22384,10685,187,44543,-4,0,252,16,439726,0
439745,207,-2057,206,-81,27,199,5941,1,-1,-303,-72,35376,-78,34,127,0,0,2096,21,0,22384,10685,187,44553,-4,0,252,16,439726,0
439755,183,-2075,199,-83,16,183,5943,4,3,-244,-56,35375,-66,34,127,0,0,2096,-32,0,22384,10685,187,44563,-4,0,252,16,439726,0
439765,152,-2072,185,-86,28,168,5944,11,0,-212,-24,35371,-73,34,127,0,0,2100,-21,0,22384,10685,187,44573,-4,0,252,16,439726,0
439775,177,-2065,177,-80,34,154,5945,-4,-1,-191,-40,35377,-70,34,127,0,0,2098,0,0,22384,10685,187,44583,-4,0,252,16,439757,0
439785,175,-2071,194,-85,34,134,5947,1,-4,-175,-40,35377,-53,34,127,0,0,2102,21,0,22384,10685,187,44593,-4,0,252,16,439757,0
439795,166,-2065,213,-81,32,122,5949,-2,-3,-104,-24,35377,-47,34,127,0,0,2100,-21,0,22384,10685,187,44603,-4,0,252,16,439757,0
439805,152,-2086,218,-86,32,106,5950,2,3,-164,-48,35369,-42,34,127,0,0,2102,0,0,22384,10685,187,44613,-4,0,252,16,439804,0
439815,153,-2084,213,-94,21,90,5950,-1,-3,-182,-16,35372,-42,34,127,0,0,2098,-21,0,22384,10685,187,44623,-4,0,252,16,439804,0
439825,154,-2072,191,-96,26,58,5950,5,2,-188,-32,35373,-44,34,127,0,0,2100,-10,0,22384,10685,187,44633,-4,0,252,16,439804,0
439835,185,-2072,176,-96,36,48,5952,11,-3,-151,-32,35370,-61,34,127,0,0,2102,-10,0,22384,10685,187,44643,-4,0,252,16,439804,0
439845,237,-2073,185,-92,28,46,5950,-2,-1,-169,-56,35374,-57,34,127,0,0,2098,-21,0,22384,10685,187,44653,-4,0,252,16,439820,0
439855,227,-2053,198,-94,26,49,5951,9,2,-199,-88,35384,-63,34,127,0,0,2098,-21,0,22384,10685,187,44663,-4,0,252,16,439835,0
439865,220,-2061,186,-91,30,53,5950,1,-2,-247,-96,35388,-69,34,127,0,0,2096,-32,0,22384,10685,187,44673,-4,0,252,16,439835,0
439875,211,-2057,176,-85,34,42,5949,-1,3,-272,-64,35388,-72,34,127,0,0,2096,-32,0,22384,10685,187,44683,-4,0,252,16,439851,0
439885,230,-2052,161,-82,47,49,5949,1,6,-289,-96,35368,-69,34,127,0,0,2091,-65,0,22384,10685,187,44693,-4,0,252,16,439866,0
439895,252,-2052,179,-76,46,42,5947,0,-4,-358,-136,35366,-53,34,127,0,0,2091,-54,0,22384,10685,187,44703,-4,0,252,16,439866,0
439905,225,-2070,195,-71,42,53,5945,-4,-2,-420,-152,35367,-55,34,127,0,0,2089,-21,0,22384,10685,187,44713,-4,0,252,16,439882,0
439916,218,-2077,193,-75,41,47,5945,0,0,-396,-160,35369,-62,34,127,0,0,2087,-87,0,22384,10685,187,44724,-4,0,252,16,439882,0
439926,200,-2077,187,-77,44,36,5942,-6,-2,-460,-176,35366,-67,34,127,0,0,2081,-71,0,22384,10685,187,44734,-4,0,252,16,439913,0
439936,218,-2079,188,-74,41,30,5933,-22,-15,-503,-176,35377,-73,34,127,0,0,2083,-76,0,22384,10685,187,44744,-4,0,252,16,439913,0
439946,218,-2071,183,-64,50,25,5915,-57,-27,-430,-176,35380,-69,34,127,0,0,2078,-76,0,22384,10685,187,44754,-4,0,252,16,439913,0
439956,224,-2058,187,-65,49,18,5890,-31,-46,-316,-128,35386,-51,34,127,0,0,2078,-43,0,22384,10685,187,44764,-4,0,252,16,440007,0
439966,263,-2063,194,-61,52,32,5888,-8,35,-474,-168,35374,-47,34,127,0,0,2074,-21,0,22384,10685,187,44774,-4,0,252,16,440007,0
439976,250,-2063,196,-67,43,32,5882,-6,44,-530,-192,35370,-50,34,127,0,0,2069,-54,0,22384,10685,187,44784,-4,0,252,16,440007,0
439986,238,-2066,190,-70,39,33,5869,-31,-23,-535,-168,35371,-72,34,127,0,0,2069,38,0,22384,10685,187,44794,-4,0,252,16,440007,0
439996,228,-2076,175,-68,46,40,5851,-45,-19,-426,-176,35370,-73,35,127,0,0,2065,-54,0,22384,10685,187,44804,-4,0,252,16,440023,0
440006,218,-2058,191,-67,44,33,5826,-58,-31,-390,-120,35370,-71,34,127,0,0,2062,-27,0,22384,10685,187,44814,-4,0,252,16,440023,0
440016,220,-2082,192,-66,50,45,5824,1,30,-479,-160,35370,-69,35,127,0,0,2061,-16,0,22384,10685,187,44824,-4,0,252,16,440023,0
440026,250,-2063,193,-57,45,57,5824,5,51,-487,-176,35371,-78,34,127,0,0,2058,-38,0,22384,10685,187,44834,-4,0,252,16,440023,0
440036,250,-2070,188,-59,37,68,5819,-14,-5,-556,-168,35374,-66,34,127,0,0,2055,-5,0,22384,10685,187,44844,-4,0,252,16,440023,0
440046,240,-2065,190,-52,51,68,5813,-10,-12,-564,-200,35372,-64,34,127,0,0,2057,-32,0,22384,10685,187,44854,-4,0,252,16,440023,0
440056,264,-2068,184,-56,51,72,5808,-14,-4,-553,-184,35377,-74,34,127,0,0,2054,-21,0,22384,10685,187,44864,-4,0,252,16,440023,0
440066,273,-2068,189,-54,48,88,5799,-24,-8,-485,-192,35389,-74,34,127,0,0,2052,-43,0,22384,10685,187,44874,-4,0,252,16,440054,0
440076,276,-2069,196,-58,34,106,5773,-77,-38,-421,-160,35395,-80,34,127,0,0,2053,-10,0,22384,10685,187,44884,-4,0,252,16,440054,0
440086,222,-2078,195,-59,46,111,5758,-10,-21,-385,-128,35389,-66,34,127,0,0,2046,-54,0,22384,10685,187,44894,-4,0,252,16,440054,0
440096,237,-2053,202,-53,44,119,5757,-4,51,-478,-128,35377,-53,34,127,0,0,2050,-5,0,22384,10685,187,44904,-4,0,252,16,440070,0
440106,253,-2068,202,-55,47,122,5759,0,23,-452,-128,35384,-50,34,127,0,0,2050,0,0,22384,10685,187,44914,-4,0,252,16,440085,0
440116,242,-2056,208,-57,44,120,5759,-4,3,-451,-128,35389,-44,34,127,0,0,2046,-32,0,22384,10685,187,44924,-4,0,252,16,440085,0
440126,221,-2065,195,-55,44,125,5759,0,0,-458,-88,35385,-40,34,127,0,0,2047,5,0,22384,10685,187,44934,-4,0,252,16,440085,0
440136,262,-2079,192,-62,41,116,5759,0,-1,-448,-128,35375,-41,34,127,0,0,2050,0,0,22384,10685,187,44944,-4,0,252,16,440116,0
440146,215,-2069,198,-56,43,119,5760,6,-4,-462,-152,35381,-32,34,127,0,0,2051,0,0,22384,10685,187,44954,-4,0,252,16,440148,0
440156,208,-2075,187,-61,45,116,5759,0,1,-459,-128,35381,-36,34,127,0,0,2050,5,0,22384,10685,187,44964,-4,0,252,16,440148,0
440167,220,-2075,185,-55,41,104,5757,-2,1,-449,-128,35386,-44,34,127,0,0,2050,-10,0,22384,10685,187,44975,-4,0,252,16,440148,0
440177,218,-2062,206,-57,51,104,5758,-3,-2,-458,-160,35379,-39,34,127,0,0,2047,-32,0,22384,10685,187,44985,-4,0,252,16,440163,0
440187,223,-2064,198,-51,56,94,5757,-2,-1,-517,-144,35374,-40,34,127,0,0,2047,10,0,22384,10685,187,44995,-4,0,252,16,440163,0
440197,239,-2064,207,-53,47,88,5756,-1,5,-477,-144,35383,-48,34,127,0,0,2047,-32,0,22384,10685,187,45005,-4,0,252,16,440163,0
440207,239,-2059,194,-57,59,86,5755,-2,-7,-549,-136,35384,-49,34,127,0,0,2047,21,0,22384,10685,187,45015,-4,0,252,16,440179,0
440217,249,-2074,203,-61,42,104,5755,7,2,-521,-160,35402,-51,34,127,0,0,2043,-43,0,22384,10685,187,45025,-4,0,252,16,440210,0
440227,244,-2063,210,-69,44,97,5753,-5,0,-546,-184,35397,-48,34,127,0,0,2043,-32,0,22384,10685,187,45035,-4,0,252,16,440210,0
440237,239,-2058,210,-69,49,102,5748,-8,-1,-576,-176,35386,-41,34,127,0,0,2043,-21,0,22384,10685,187,45045,-4,0,252,16,440210,0
440247,222,-2057,200,-69,52,94,5743,-5,-1,-567,-160,35378,-28,34,127,0,0,2043,-21,0,22384,10685,187,45055,-4,0,252,16,440210,0
440257,231,-2060,209,-69,43,104,5738,-9,-5,-556,-144,35383,-44,34,127,0,0,2041,-10,0,22384,10685,187,45065,-4,0,252,16,440241,0
440267,249,-2072,212,-75,42,103,5730,-27,-1,-559,-176,35389,-50,35,127,0,0,2041,21,0,22384,10685,187,45075,-4,0,252,16,440241,0
440277,245,-2057,211,-76,43,102,5714,-38,-23,-430,-112,35385,-54,35,127,0,0,2036,-21,0,22384,10685,187,45085,-4,0,252,16,440241,0
440287,247,-2071,196,-81,48,98,5706,-4,1,-435,-128,35382,-39,34,127,0,0,2039,10,0,22384,10685,187,45095,-4,0,252,16,440273,0
440297,253,-2067,200,-76,44,108,5706,-6,33,-439,-144,35382,-36,34,127,0,0,2036,-21,0,22384,10685,187,45105,-4,0,252,16,440273,0
440307,240,-2074,193,-75,43,105,5705,3,12,-485,-144,35383,-30,34,127,0,0,2036,0,0,22384,10685,187,45115,-4,0,252,16,440273,0
440317,232,-2073,191,-79,42,113,5706,0,-5,-517,-160,35380,-27,34,127,0,0,2034,-32,0,22384,10685,187,45125,-4,0,252,16,440288,0
440327,223,-2064,198,-74,41,108,5700,0,-6,-531,-120,35377,-38,34,127,0,0,2034,10,0,22384,10685,187,45135,-4,0,252,16,440304,0
440337,211,-2059,204,-78,37,104,5701,-4,6,-503,-152,35382,-25,34,127,0,0,2034,-32,0,22384,10685,187,45145,-4,0,252,16,440319,0
440347,218,-2064,202,-75,39,102,5698,-11,2,-559,-144,35385,-31,34,127,0,0,2034,10,0,22384,10685,187,45155,-4,0,252,16,440319,0
440357,234,-2062,209,-78,48,93,5697,-1,1,-533,-152,35383,-37,34,127,0,0,2032,-32,0,22384,10685,187,45165,-4,0,252,16,440319,0
440367,243,-2067,206,-75,44,91,5695,-8,1,-622,-152,35376,-41,34,127,0,0,2032,0,0,22384,10685,187,45175,-4,0,252,16,440335,0
440377,250,-2078,205,-79,32,103,5695,-1,-4,-568,-184,35382,-52,34,127,0,0,2028,-32,0,22384,10685,187,45185,-4,0,252,16,440351,0
440387,269,-2063,176,-84,44,109,5692,-5,4,-622,-200,35387,-56,35,127,0,0,2030,10,0,22384,10685,187,45195,-4,0,252,16,440351,0
440397,271,-2068,180,-76,40,126,5690,-5,0,-575,-200,35386,-39,34,127,0,0,2032,32,0,22384,10685,187,45205,-4,0,252,16,440366,0
440408,264,-2076,173,-78,38,135,5689,-1,7,-555,-176,35380,-29,34,127,0,0,2026,-10,0,22384,10685,187,45216,-4,0,252,16,440382,0
440418,235,-2041,176,-63,54,145,5688,-1,-6,-616,-192,35387,-25,34,127,0,0,2031,0,0,22384,10685,187,45226,-4,0,252,16,440413,0
440428,243,-2063,209,-70,60,149,5689,8,0,-535,-152,35385,-28,34,127,0,0,2029,-10,0,22384,10685,187,45236,-4,0,252,16,440413,0
440438,260,-2070,241,-81,55,151,5685,-20,-4,-625,-144,35386,-40,35,127,0,0,2032,87,0,22384,10685,187,45246,-4,0,252,16,440413,0
440448,259,-2084,235,-98,67,165,5685,-12,-1,-520,-184,35377,-34,34,127,0,0,2031,-21,0,22384,10685,187,45256,-4,0,252,16,440413,0
440458,259,-2073,228,-101,69,180,5685,3,7,-499,-168,35378,-34,34,127,0,0,2033,-5,0,22384,10685,187,45266,-4,0,252,16,440460,0
440468,260,-2063,245,-113,46,195,5685,2,-4,-514,-144,35382,-41,34,127,0,0,2032,60,0,22384,10685,187,45276,-4,0,252,16,440460,0
440478,259,-2066,254,-128,35,219,5686,6,5,-459,-144,35380,-50,34,127,0,0,2032,-16,0,22384,10685,187,45286,-4,0,252,16,440460,0
440488,255,-2084,245,-141,30,231,5687,6,4,-425,-104,35374,-55,35,127,0,0,2036,21,0,22384,10685,187,45296,-4,0,252,16,440460,0
440498,237,-2076,206,-159,16,231,5687,-6,1,-374,-88,35369,-57,34,127,0,0,2039,32,0,22384,10685,187,45306,-4,0,252,16,440460,0
440508,216,-2080,196,-158,16,237,5690,9,2,-316,-48,35374,-53,34,127,0,0,2046,115,0,22384,10685,187,45316,-4,0,252,16,440491,0
440518,234,-2078,184,-158,22,240,5696,7,10,-211,-48,35380,-55,35,127,0,0,2045,43,0,22384,10685,187,45326,-4,0,252,16,440491,0
440528,238,-2074,206,-159,21,235,5700,18,1,-82,8,35384,-57,34,127,0,0,2048,10,0,22384,10685,187,45336,-4,0,252,16,440491,0
440538,230,-2077,234,-175,7,241,5706,6,-4,-44,24,35382,-61,34,127,0,0,2057,87,0,22384,10685,187,45346,-4,0,252,16,440523,0
440548,194,-2083,217,-183,7,228,5714,28,7,152,40,35383,-39,34,127,0,0,2062,49,0,22384,10685,187,45356,-4,0,252,16,440523,0
440558,201,-2084,211,-188,6,209,5723,0,11,145,48,35375,-38,34,127,0,0,2061,43,0,22384,10685,187,45366,-4,0,252,16,440523,0
440568,191,-2078,199,-182,5,184,5727,0,-11,161,72,35374,-46,34,127,0,0,2065,60,0,22384,10685,187,45376,-4,0,252,16,440554,0
440578,208,-2085,184,-190,15,165,5746,55,20,203,64,35365,-43,34,127,0,0,2070,54,0,22384,10685,187,45386,-4,0,252,16,440554,0
440588,208,-2076,192,-190,-2,160,5773,42,44,74,24,35366,-53,34,127,0,0,2069,27,0,22384,10685,187,45396,-4,0,252,16,440554,0
440598,168,-2058,179,-196,-4,141,5774,12,-45,138,24,35365,-51,34,127,0,0,2069,-21,0,22384,10685,187,45406,-4,0,252,16,440569,0
440608,162,-2058,178,-190,13,121,5775,10,-54,145,64,35380,-56,34,127,0,0,2070,0,0,22384,10685,187,45416,-4,0,252,16,440601,0
440618,227,-2065,169,-181,26,90,5773,-10,-1,154,48,35378,-58,34,127,0,0,2075,60,0,22384,10685,187,45426,-4,0,252,16,440601,0
440628,237,-2059,193,-187,12,97,5774,0,-6,186,24,35385,-56,34,127,0,0,2073,5,0,22384,10685,187,45436,-4,0,252,16,440601,0
440638,231,-2066,217,-196,0,111,5774,-4,-5,186,40,35379,-68,35,127,0,0,2072,-27,0,22384,10685,187,45446,-4,0,252,16,440601,0
440648,227,-2077,204,-204,-10,113,5775,7,-1,150,24,35385,-75,34,127,0,0,2073,21,0,22384,10685,187,45456,-4,0,252,16,440632,0
440658,212,-2071,181,-205,-5,103,5775,3,-1,199,16,35384,-82,34,127,0,0,2073,-10,0,22384,10685,187,45466,-4,0,252,16,440632,0
440669,229,-2068,155,-208,-7,105,5775,7,0,191,40,35377,-79,34,127,0,0,2072,-21,0,22384,10685,187,45477,-4,0,252,16,440632,0
440679,211,-2073,151,-208,-9,94,5775,0,4,127,48,35373,-73,34,127,0,0,2072,0,0,22384,10685,187,45487,-4,0,252,16,440648,0
440689,193,-2065,149,-200,0,84,5776,3,3,158,8,35380,-55,34,127,0,0,2069,-43,0,22384,10685,187,45497,-4,0,252,16,440663,0
440699,202,-2059,165,-194,-3,77,5773,-1,0,145,40,35377,-41,34,127,0,0,2069,-32,0,22384,10685,187,45507,-4,0,252,16,440694,0
440709,211,-2079,168,-185,10,74,5775,6,0,134,40,35376,-46,35,127,0,0,2069,-43,0,22384,10685,187,45517,-4,0,252,16,440710,0
440719,204,-2060,185,-182,14,61,5773,-1,-3,84,-8,35375,-60,34,127,0,0,2069,0,0,22384,10685,187,45527,-4,0,252,16,440710,0
440729,233,-2072,181,-191,4,57,5775,9,5,71,0,35372,-56,34,127,0,0,2067,-21,0,22384,10685,187,45537,-4,0,252,16,440726,0
440739,227,-2084,174,-194,11,47,5772,-4,3,7,-24,35371,-58,35,127,0,0,2065,-21,0,22384,10685,187,45547,-4,0,252,16,440726,0
440749,218,-2078,175,-203,9,43,5771,1,-4,-71,-64,35374,-68,34,127,0,0,2061,-43,0,22384,10685,187,45557,-4,0,252,16,440726,0
440759,219,-2072,182,-205,6,31,5767,-5,-3,-158,-64,35377,-55,34,127,0,0,2058,-43,0,22384,10685,187,45567,-4,0,252,16,440726,0
440769,201,-2080,165,-201,6,33,5764,-1,-1,-209,-88,35379,-48,34,127,0,0,2056,-54,0,22384,10685,187,45577,-4,0,252,16,440804,0
440779,216,-2058,166,-204,4,23,5761,-6,-2,-298,-96,35381,-26,34,127,0,0,2052,-32,0,22384,10685,187,45587,-4,0,252,16,440804,0
440789,221,-2065,170,-204,9,16,5759,-9,3,-365,-136,35375,-31,34,127,0,0,2047,-43,0,22384,10685,187,45597,-4,0,252,16,440804,0
440799,230,-2066,174,-198,9,10,5752,-18,-11,-441,-144,35371,-37,34,127,0,0,2047,-10,0,22384,10685,187,45607,-4,0,252,16,440819,0
440809,229,-2032,176,-203,9,10,5749,-4,1,-491,-152,35364,-61,35,127,0,0,2043,-32,0,22384,10685,187,45617,-4,0,252,16,440819,0
440819,212,-2080,165,-216,-10,9,5740,-22,-2,-532,-184,35371,-63,34,127,0,0,2039,-32,0,22384,10685,187,45627,-4,0,252,16,440819,0
440829,217,-2077,170,-196,-3,16,5716,-71,-38,-484,-136,35370,-58,34,127,0,0,2036,0,0,22384,10685,187,45637,-4,0,252,16,440819,0
440839,208,-2055,158,-206,11,-8,5693,-29,-34,-422,-136,35365,-56,34,127,0,0,2032,-32,0,22384,10685,187,45647,-4,0,252,16,440819,0
440849,266,-2097,172,-197,7,-3,5692,-5,46,-534,-184,35365,-43,34,127,0,0,2028,-21,0,22384,10685,187,45657,-4,0,252,16,440819,0
440859,259,-2072,158,-193,-11,10,5689,-19,30,-604,-168,35375,-53,35,127,0,0,2028,-10,0,22384,10685,187,45667,-4,0,252,16,440819,0
440869,249,-2096,169,-199,-5,13,5684,-16,-12,-643,-232,35397,-55,34,127,0,0,2023,-21,0,22384,10685,187,45677,-4,0,252,16,440851,0
440879,255,-2075,155,-196,2,10,5670,-35,-16,-561,-184,35396,-48,34,127,0,0,2023,-10,0,22384,10685,187,45687,-4,0,252,16,440851,0
440889,237,-2065,140,-189,1,17,5640,-69,-43,-408,-152,35397,-42,34,127,0,0,2019,-43,0,22384,10685,187,45697,-4,0,252,16,440866,0
440899,253,-2085,123,-191,9,20,5633,9,12,-469,-168,35381,-53,34,127,0,0,2021,0,0,22384,10685,187,45707,-4,0,252,16,440866,0
440910,289,-2073,139,-176,4,47,5631,-13,63,-507,-152,35387,-60,34,127,0,0,2015,-32,0,22384,10685,187,45718,-4,0,252,16,440882,0
440920,279,-2061,153,-181,0,62,5632,3,5,-533,-176,35383,-73,34,127,0,0,2023,-5,0,22384,10685,187,45728,-4,0,252,16,440882,0
440930,302,-2096,137,-191,-3,76,5631,-2,2,-510,-152,35384,-61,34,127,0,0,2022,65,0,22384,10685,187,45738,-4,0,252,16,440897,0
440940,260,-2080,148,-175,2,78,5631,-12,0,-515,-152,35389,-62,34,127,0,0,2022,71,0,22384,10685,187,45748,-4,0,252,16,440929,0
440950,254,-2068,147,-173,-2,77,5632,2,-1,-483,-160,35391,-66,34,127,0,0,2022,38,0,22384,10685,187,45758,-4,0,252,16,440944,0
440960,257,-2084,126,-164,7,78,5632,3,-2,-462,-120,35382,-63,34,127,0,0,2017,-21,0,22384,10685,187,45768,-4,0,252,16,440944,0
440970,254,-2070,149,-156,9,80,5632,0,1,-449,-120,35372,-57,34,127,0,0,2023,21,0,22384,10685,187,45778,-4,0,252,16,440944,0
440980,282,-2084,166,-156,2,80,5630,-17,-4,-448,-136,35377,-64,34,127,0,0,2021,38,0,22384,10685,187,45788,-4,0,252,16,440944,0
440990,272,-2069,159,-168,-12,99,5633,0,-3,-456,-136,35383,-50,34,127,0,0,2024,16,0,22384,10685,187,45798,-4,0,252,16,440976,0
441000,241,-2086,148,-171,-14,111,5634,2,1,-379,-120,35384,-42,34,127,0,0,2023,0,0,22384,10685,187,45808,-4,0,252,16,440976,0
441010,224,-2073,136,-169,-21,107,5632,-2,4,-382,-96,35377,-45,34,127,0,0,2025,38,0,22384,10685,187,45818,-4,0,252,16,440991,0
441020,210,-2080,129,-164,-18,86,5634,2,0,-361,-80,35375,-58,34,127,0,0,2028,38,0,22384,10685,187,45828,-4,0,252,16,440991,0
441030,179,-2089,136,-160,-4,47,5634,0,4,-316,-64,35393,-71,35,127,0,0,2030,54,0,22384,10685,187,45838,-4,0,252,16,441022,0
441040,183,-2078,131,-158,-11,15,5637,1,1,-240,-88,35398,-73,35,127,0,0,2031,0,0,22384,10685,187,45848,-4,0,252,16,441022,0
441050,205,-2092,124,-150,-15,-24,5637,1,2,-244,-64,35398,-65,34,127,0,0,2026,-16,0,22384,10685,187,45858,-4,0,252,16,441022,0
441060,212,-2063,118,-144,-14,-38,5636,3,-1,-286,-64,35391,-69,34,127,0,0,2030,21,0,22384,10685,187,45868,-4,0,252,16,441022,0
441070,265,-2042,134,-146,-19,-61,5637,1,3,-262,-64,35399,-60,35,127,0,0,2026,0,0,22384,10685,187,45878,-4,0,252,16,441101,0
441080,282,-2019,123,-152,-18,-60,5636,1,-1,-294,-104,35398,-63,34,127,0,0,2029,-32,0,22384,10685,187,45888,-4,0,252,16,441101,0
441090,286,-2048,108,-147,-11,-64,5635,-3,3,-323,-120,35393,-64,34,127,0,0,2023,-76,0,22384,10685,187,45898,-4,0,252,16,441101,0
441100,286,-2027,102,-133,14,-68,5634,0,1,-448,-160,35385,-63,35,127,0,0,2019,-54,0,22384,10685,187,45908,-4,0,252,16,441101,0
441110,343,-2050,107,-127,33,-6,5632,-1,-1,-516,-176,35382,-50,34,127,0,0,2017,-32,0,22384,10685,187,45918,-4,0,252,16,441116,0
441120,366,-2039,117,-130,16,37,5628,-11,-3,-612,-192,35379,-46,35,127,0,0,2014,10,0,22384,10685,187,45928,-4,0,252,16,441116,0
441130,360,-2046,126,-131,6,88,5624,-3,-7,-635,-200,35380,-53,34,127,0,0,2012,-5,0,22384,10685,187,45938,-4,0,252,16,441116,0
441140,343,-2052,115,-130,13,118,5623,2,10,-610,-184,35386,-63,34,127,0,0,2014,-10,0,22384,10685,187,45948,-4,0,252,16,441116,0
441150,331,-2052,92,-135,21,141,5622,-1,10,-616,-200,35401,-65,34,127,0,0,2015,21,0,22384,10685,187,45958,-4,0,252,16,441132,0
441161,297,-2033,104,-114,18,167,5622,-3,6,-593,-208,35398,-44,34,127,0,0,2014,-10,0,22384,10685,187,45969,-4,0,252,16,441132,0
441171,243,-2077,93,-125,19,166,5621,-11,2,-602,-208,35399,-39,34,127,0,0,2012,-21,0,22384,10685,187,45979,-4,0,252,16,441163,0
441181,229,-2068,105,-112,35,155,5623,4,3,-613,-208,35393,-58,34,127,0,0,2014,0,0,22384,10685,187,45989,-4,0,252,16,441163,0
441191,229,-2078,114,-107,47,143,5622,0,0,-601,-168,35391,-64,35,127,0,0,2014,-21,0,22384,10685,187,45999,-4,0,252,16,441163,0
441201,271,-2059,129,-108,49,141,5620,0,1,-662,-152,35390,-60,34,127,0,0,2012,21,0,22384,10685,187,46009,-4,0,252,16,441163,0
441211,286,-2051,129,-105,40,136,5620,-4,-1,-638,-192,35395,-79,34,127,0,0,2014,0,0,22384,10685,187,46019,-4,0,252,16,441194,0
441221,261,-2059,123,-117,34,146,5618,-3,2,-635,-184,35394,-84,34,127,0,0,2014,21,0,22384,10685,187,46029,-4,0,252,16,441210,0
441231,270,-2063,124,-116,39,141,5617,-8,4,-629,-216,35388,-86,34,127,0,0,2012,-21,0,22384,10685,187,46039,-4,0,252,16,441210,0
441241,265,-2067,123,-123,28,136,5614,-12,-6,-650,-208,35381,-74,34,127,0,0,2010,10,0,22384,10685,187,46049,-4,0,252,16,441210,0
441251,266,-2062,116,-116,40,138,5613,-5,1,-635,-200,35376,-52,34,127,0,0,2012,-10,0,22384,10685,187,46059,-4,0,252,16,441210,0
441261,268,-2058,114,-116,29,135,5612,-2,4,-625,-200,35388,-41,34,127,0,0,2010,0,0,22384,10685,187,46069,-4,0,252,16,441241,0
441271,242,-2057,118,-118,31,135,5609,-7,-3,-643,-192,35384,-50,35,127,0,0,2008,-21,0,22384,10685,187,46079,-4,0,252,16,441241,0
441281,237,-2087,123,-111,43,114,5601,-25,-11,-639,-240,35387,-71,34,127,0,0,2010,0,0,22384,10685,187,46089,-4,0,252,16,441288,0
441291,230,-2077,126,-105,44,107,5589,-28,-16,-518,-208,35382,-48,34,127,0,0,2006,-10,0,22384,10685,187,46099,-4,0,252,16,441288,0
441301,250,-2069,124,-111,53,90,5579,-10,-2,-524,-200,35389,-52,34,127,0,0,2003,-43,0,22384,10685,187,46109,-4,0,252,16,441288,0
441311,275,-2064,125,-106,44,89,5573,-6,18,-628,-168,35390,-48,34,127,0,0,2001,-32,0,22384,10685,187,46119,-4,0,252,16,441288,0
441321,440,-2093,88,-114,44,28,5571,0,25,-661,-200,35388,-52,34,127,0,0,2001,0,0,22384,10685,187,46129,-4,0,252,16,441288,0
441331,827,-2179,108,-82,81,-332,5570,0,12,-662,-168,35382,-47,34,127,0,0,1999,-43,0,22384,10685,187,46139,-4,0,252,16,441304,0
441341,526,-1671,102,-29,93,-443,5563,-35,-4,-774,-360,35366,-38,34,127,0,0,1977,-274,0,22384,10685,187,46149,-4,0,252,16,441304,0
441351,483,-1879,211,-126,-89,52,5505,-172,-114,-743,-400,35372,-38,34,127,0,0,1968,-76,0,22384,10685,187,46159,-4,0,252,16,441319,0
441361,406,-2088,-30,-175,-80,26,5424,-152,-157,-410,-192,35382,-57,34,127,0,0,1968,-10,0,22384,10685,187,46169,-4,0,252,16,441350,0
441371,767,-2166,-44,-130,91,-316,5390,-60,62,-409,-144,35389,-56,35,127,0,0,1966,-32,0,22384,10685,187,46179,-4,0,252,16,441350,0
441381,817,-1840,84,-77,118,-501,5374,-37,122,-561,-280,35384,-78,34,127,0,0,1946,-186,0,22384,10685,187,46189,-4,0,252,16,441350,0
441391,703,-1792,200,-97,-31,-193,5326,-147,-29,-653,-336,35384,-76,34,127,0,0,1935,-87,0,22384,10685,187,46199,-4,0,252,16,441366,0
441401,624,-1864,76,-159,-151,-101,5260,-130,-110,-486,-224,35388,-75,34,127,0,0,1933,-10,0,22384,10685,187,46209,-4,0,252,16,441366,0
441412,546,-1965,-41,-137,-11,-363,5237,-10,75,-649,-232,35390,-51,34,127,0,0,1920,-104,0,22384,10685,187,46220,-4,0,252,16,441382,0
441422,681,-1870,10,-108,102,-591,5218,-87,93,-947,-392,35385,-43,34,127,0,0,1900,-197,0,22384,10685,187,46230,-4,0,252,16,441460,0
441432,677,-1830,105,-130,21,-471,5144,-180,-129,-693,-432,35378,-39,34,127,0,0,1884,-170,0,22384,10685,187,46240,-4,0,252,16,441475,0
441442,490,-2017,171,-128,-114,-212,5059,-182,-126,-532,-344,35377,-55,35,127,0,0,1875,-93,0,22384,10685,187,46250,-4,0,252,16,441475,0
441452,527,-2081,81,-107,-77,-206,4990,-137,13,-459,-224,35373,-62,34,127,0,0,1879,-10,0,22384,10685,187,46260,-4,0,252,16,441475,0
441462,738,-2275,149,17,2,-233,4967,-33,111,-448,-144,35372,-60,35,127,0,0,1881,27,0,22384,10685,187,46270,-4,0,252,16,441475,0
441472,875,-2344,207,141,-48,-116,4959,-10,116,-349,-24,35371,-53,34,127,0,0,1889,126,0,22384,10685,187,46280,-4,0,252,16,441491,0
441482,765,-2187,270,51,-466,101,4972,47,71,7,136,35373,-50,34,127,0,0,1919,335,0,22384,10685,187,46290,-4,0,252,16,441491,0
441492,523,-2122,67,129,-789,58,5047,199,149,290,296,35372,-50,35,127,0,0,1946,307,0,22384,10685,187,46300,-4,0,252,16,441491,0
441502,-87,-2752,-84,215,-920,-105,5158,265,190,314,408,35371,-56,34,127,0,0,1988,417,0,22384,10685,187,46310,-4,0,252,16,441491,0
441512,-356,-2695,221,199,-799,-306,5297,331,121,309,520,35372,-62,35,127,0,0,2026,422,0,22384,10685,187,46320,-4,0,252,16,441491,0
441522,-464,-2512,400,214,-875,-882,5460,370,99,333,560,35377,-66,34,127,0,0,2063,318,0,22384,10685,187,46330,-4,0,252,16,441491,0
441532,-314,-2763,27,216,-1012,-1190,5628,381,52,296,552,35382,-56,34,127,0,0,2101,340,0,22384,10685,187,46340,-4,0,252,16,441538,0
441542,-526,-2959,-297,173,-1006,-1575,5796,355,18,297,568,35383,-28,34,127,0,0,2144,428,0,22384,10685,187,46350,-4,0,252,16,441538,0
441552,-821,-2863,-263,8,-839,-1964,5958,355,-7,382,608,35376,-24,34,127,0,0,2184,461,0,22384,10685,187,46360,-4,0,252,16,441538,0
441562,-1026,-3669,53,191,-958,-2695,6130,379,9,352,648,35369,-43,34,127,0,0,2222,417,0,22384,10685,187,46370,-4,0,252,16,441538,0
441572,-1025,-3640,-153,284,-650,-3181,6306,389,25,342,688,35367,-62,34,127,0,0,2269,494,0,22384,10685,187,46380,-4,0,252,16,441554,0
441582,-805,-3587,-32,342,-361,-3764,6488,407,21,355,656,35372,-37,34,127,0,0,2303,417,0,22384,10685,187,46390,-4,0,-41,0,441554,0
441592,-828,-3826,318,319,-341,-4018,6672,411,12,354,664,35369,-22,34,127,0,0,2355,488,0,22384,10685,187,46400,-4,0,-40,0,441585,0
441602,-647,-3911,687,332,-723,-4171,6864,428,10,356,896,35368,-27,34,127,0,0,2426,807,0,22384,10685,187,46410,-4,0,-39,0,441585,0
441612,-567,-3760,510,342,-892,-4310,7083,529,69,576,1352,35362,-54,34,127,0,0,2531,999,0,22384,10685,187,46420,-4,0,-37,0,441585,0
441622,-244,-3798,311,498,-1149,-4391,7379,705,208,697,1896,35361,-69,34,127,0,0,2665,1345,0,22384,10685,187,46430,-4,0,-35,0,441585,0
441632,-292,-3605,305,583,-1178,-4539,7767,915,329,830,2432,35357,-28,34,127,0,0,2800,1400,0,22384,10685,187,46440,-4,0,-33,0,441600,0
441642,313,-3122,478,679,-1068,-4619,8242,1112,343,896,2952,35353,-7,34,127,0,0,2958,1593,0,22384,10685,187,46450,-4,0,-29,0,441616,0
441652,569,-3280,564,607,-1085,-4659,8796,1256,327,794,3216,35352,14,34,127,0,0,3099,1461,0,22384,10685,187,46460,-4,0,-27,0,441647,0
441663,762,-2795,689,306,-1342,-4059,9470,1409,250,888,3768,35354,38,34,127,0,0,3289,1768,0,22384,10685,187,46471,-4,0,-23,0,441647,0
441673,537,-2052,518,-140,-1436,-3646,10189,1642,305,865,4152,35351,41,34,127,0,0,3465,1768,0,22384,10685,187,46481,-4,0,-20,0,441647,0
441683,587,-1476,366,-291,-1298,-3506,10898,1759,333,691,4296,35343,48,34,127,0,0,3625,1571,0,22384,10685,187,46491,-4,0,-16,0,441663,0
441693,508,-872,301,-343,-936,-3040,11697,1744,152,536,4264,35342,28,34,127,0,0,3766,1373,0,22384,10685,187,46501,-4,0,-13,0,441663,0
441703,882,-259,339,-333,157,-2682,12463,1656,-59,457,4008,35358,28,34,127,0,0,3867,999,0,22384,10685,187,46511,-4,0,-8,0,441679,0
441713,644,-440,32,-737,1943,-2937,13184,1525,-161,117,2600,35363,25,34,127,0,0,3832,-461,0,22384,10685,187,46521,-4,0,-5,0,441679,0
441723,276,-742,233,-475,2322,-2183,13752,1111,-409,-277,576,35368,-11,34,127,0,0,3744,-867,0,22384,10685,187,46531,-4,0,0,0,441710,0
441733,161,-332,464,-363,1947,-809,13972,45,-1028,-1816,-704,35370,-45,34,127,0,0,3673,-626,0,22384,10685,187,46541,-4,0,2,0,441710,0
441743,-221,-40,348,-232,1774,-386,13785,-469,-1526,-407,-1064,35373,-59,34,127,0,0,3599,-747,0,22384,10685,187,46551,-4,0,7,0,441710,0
441753,395,-170,68,-257,1370,574,13531,-597,-773,-408,-1392,35378,-73,34,127,0,0,3502,-944,0,22384,10685,187,46561,-4,0,10,0,441741,0
441763,407,-367,62,-244,1053,1563,13218,-724,-227,-481,-1824,35368,-47,34,127,0,0,3403,-1021,0,22384,10685,187,46571,-4,0,15,0,441741,0
441773,-34,-378,280,-288,514,2934,12852,-834,-213,-473,-2072,35367,-52,34,127,0,0,3313,-911,0,22384,10685,187,46581,-4,0,19,0,441741,0
441783,-172,-418,311,-255,182,3578,12447,-906,-76,-429,-2192,35368,-37,34,127,0,0,3223,-911,0,22384,10685,187,46591,-4,0,24,0,441757,0
441793,0,-612,51,-227,-184,4510,12021,-950,-57,-430,-2264,35372,-41,34,127,0,0,3133,-911,0,22384,10685,187,46601,-4,0,28,0,441788,0
441803,168,-696,-41,-202,-292,5221,11576,-981,-165,-353,-2264,35370,-32,34,127,0,0,3047,-889,0,22384,10685,187,46611,-4,0,33,0,441804,0
441813,121,-709,-59,-107,-316,6177,11129,-979,-39,-324,-2104,35367,-16,34,127,0,0,2972,-692,0,22384,10685,187,46621,-4,0,37,0,441819,0
441823,86,-703,-91,-76,-235,6645,10701,-916,27,-268,-1896,35363,-16,34,127,0,0,2902,-714,0,22384,10685,187,46631,-4,0,43,0,441819,0
441833,285,-932,-132,-35,-51,7243,10308,-853,109,-313,-1776,35367,-31,34,127,0,0,2843,-604,0,22384,10685,187,46641,-4,0,47,0,441819,0
441843,348,-1111,-182,2,98,7604,9944,-777,118,-288,-1560,35366,-49,34,127,0,0,2788,-549,0,22384,10685,187,46651,-4,0,53,0,441835,0
441853,450,-1391,-116,78,441,7928,9615,-706,124,-290,-1320,35359,-30,34,127,0,0,2746,-417,0,22384,10685,187,46661,-4,0,57,0,441835,0
441863,484,-1566,-49,125,742,7966,9323,-612,133,-275,-1136,35362,-24,34,127,0,0,2707,-395,0,22384,10685,187,46671,-4,0,63,0,441835,0
441873,750,-1813,28,150,1192,7967,9072,-530,146,-337,-968,35372,-29,34,127,0,0,2669,-351,0,22384,10685,187,46681,-4,0,67,0,441850,0
441883,922,-1985,96,117,1461,7926,8845,-488,118,-323,-824,35383,-31,34,127,0,0,2638,-274,0,22384,10685,187,46691,-4,0,73,0,441866,0
441893,939,-2163,146,91,1840,7644,8642,-424,93,-306,-704,35385,-46,34,127,0,0,2612,-274,0,22384,10685,187,46701,-4,0,77,0,441866,0
441903,1096,-2306,158,28,2056,7308,8464,-379,99,-322,-560,35389,-31,34,127,0,0,2588,-241,0,22384,10685,187,46711,-4,0,82,55,441866,0
441914,1341,-2494,294,-136,2224,6746,8288,-328,71,-308,-432,35391,-38,34,127,0,0,2564,-219,0,22384,10685,187,46722,-4,0,87,49,441897,0
441924,1406,-2553,406,-296,2191,6370,8145,-305,66,-232,-232,35384,-41,34,127,0,0,2558,-43,0,22384,10685,187,46732,-4,0,89,46,441897,0
441934,1419,-2606,441,-499,2037,5645,8041,-191,98,-36,-40,35377,-54,35,127,0,0,2556,-60,0,22384,10685,187,46742,-4,0,93,42,441897,0
441944,1615,-2574,421,-544,1854,5157,8018,-5,233,-27,-16,35373,-53,34,127,0,0,2557,0,0,22384,10685,187,46752,-4,0,95,40,441929,0
441954,1559,-2401,419,-563,1503,4421,8020,-9,215,-98,-24,35374,-42,34,127,0,0,2557,16,0,22384,10685,187,46762,-4,0,98,38,441929,0
441964,1513,-2304,433,-514,1275,3901,8021,4,31,-73,-24,35371,-33,34,127,0,0,2557,0,0,22384,10685,187,46772,-4,0,99,37,441929,0
441974,1414,-2218,411,-307,997,3046,8022,2,-7,-38,-24,35372,-49,34,127,0,0,2557,-43,0,22384,10685,187,46782,-4,0,100,35,441960,0
441984,1362,-2122,396,-75,846,2447,8022,2,-8,-33,-8,35373,-65,34,127,0,0,2559,16,0,22384,10685,187,46792,-4,0,100,35,441975,0
441994,1209,-4646,-1777,-1538,1804,1495,8027,24,3,247,640,35384,-64,34,127,0,0,2682,1593,0,22384,10685,187,46802,-4,0,100,35,441975,0
442004,2283,-2293,253,-381,2807,-1226,8217,614,344,1242,2008,35383,-49,34,127,0,0,2843,1373,0,22384,10685,187,46812,-4,0,100,35,441975,0
442014,669,-3296,-805,322,5132,-3755,8593,829,758,368,1112,35379,-39,35,127,0,0,2768,-977,0,22384,10685,187,46822,-4,0,100,35,441991,0
442024,1203,-3057,1115,381,4000,-3766,8858,401,158,-967,-592,35374,-37,34,127,0,0,2640,-1252,0,2529,200,188,8,1,0,100,35,441991,0
442034,-593,-1741,1263,-192,589,-2135,8703,-443,-1039,-583,-1000,35378,-37,34,127,0,0,2589,-510,0,2529,200,188,18,1,0,100,35,442022,0
442044,-586,-2040,93,-524,-781,-1430,8476,-499,-949,-236,-648,35382,-26,34,127,0,0,2601,186,0,2529,200,188,28,1,0,100,35,442022,0
442054,694,-1762,-1193,-420,-1612,-1561,8288,-334,-50,223,224,35378,-37,34,127,0,0,2654,582,0,2529,200,188,38,1,0,100,35,442038,0
442064,876,-1594,-1107,-240,-1459,-1696,8335,238,532,714,472,35373,-53,34,127,0,0,2688,346,0,2529,200,188,48,1,0,100,35,442038,0
442074,544,-1659,-77,-179,-627,-1747,8470,293,645,337,288,35376,-49,34,127,0,0,2683,-76,0,2529,200,188,58,1,0,100,35,442085,0
442084,-81,-2161,739,-120,-40,-1857,8566,147,74,-9,-72,35384,-56,35,127,0,0,2666,-197,0,2529,200,188,68,1,0,100,35,442085,0
442094,-268,-2111,620,-42,342,-1909,8534,-138,-327,-305,-208,35385,-52,34,127,0,0,2644,-186,0,2529,200,188,78,1,0,100,35,442085,0
442104,242,-2251,61,-165,409,-1833,8446,-200,-364,-252,-216,35384,-64,35,127,0,0,2618,-252,0,2529,200,188,88,1,0,100,35,442100,0
442114,687,-2312,-427,94,276,-1858,8350,-212,-118,-285,-288,35377,-63,34,127,0,0,2589,-329,0,2529,200,188,98,1,0,100,35,442100,0
442124,629,-2273,-308,219,150,-1866,8246,-247,-36,-398,-456,35379,-66,34,127,0,0,2546,-401,0,2529,200,188,108,1,0,100,35,442100,0
442134,690,-2240,-141,255,-10,-1832,8105,-328,-86,-391,-600,35384,-67,34,127,0,0,2500,-477,0,2529,200,188,118,1,0,100,35,442100,0
442144,526,-2209,-22,279,7,-1771,7936,-379,-130,-422,-760,35395,-46,34,127,0,0,2447,-538,0,2529,200,188,128,1,0,100,35,442132,0
442154,87,-2024,64,392,76,-1501,7754,-416,-76,-422,-848,35387,-28,34,127,0,0,2396,-521,0,2529,200,188,138,1,0,100,35,442132,0
442164,78,-2089,161,401,168,-1491,7557,-444,-60,-435,-872,35381,-27,34,127,0,0,2351,-477,0,2529,200,188,148,1,0,100,35,442132,0
442175,238,-2004,209,459,347,-1440,7339,-441,-27,-427,-912,35372,-44,34,127,0,0,2304,-450,0,2529,200,188,159,1,0,100,35,442178,0
442185,526,-1929,179,428,299,-1252,7145,-412,18,-504,-872,35381,-56,34,127,0,0,2263,-406,0,2529,200,188,169,1,0,100,35,442194,0
442195,518,-2053,206,391,170,-1058,6966,-399,45,-567,-904,35383,-57,34,127,0,0,2225,-373,0,2529,200,188,179,1,0,100,35,442194,0
442205,269,-2125,275,344,92,-891,6785,-412,13,-554,-800,35380,-52,34,127,0,0,2192,-307,0,2529,200,188,189,1,0,100,35,442194,0
442215,163,-2212,260,344,137,-901,6614,-362,9,-484,-736,35378,-51,34,127,0,0,2162,-329,0,2529,200,188,199,1,0,100,35,442194,0
442225,78,-2189,246,376,231,-908,6455,-350,44,-536,-736,35376,-48,34,127,0,0,2124,-373,0,2529,200,188,209,1,0,100,35,442194,0
442235,114,-2107,249,358,213,-864,6303,-332,32,-601,-752,35375,-53,34,127,0,0,2096,-296,0,2529,200,188,219,1,0,100,35,442210,0
442245,229,-2012,247,331,195,-790,6150,-341,3,-536,-728,35382,-46,34,127,0,0,2065,-274,0,2529,200,188,229,1,0,100,35,442241,0
442255,343,-1978,236,353,165,-728,5991,-364,-18,-521,-624,35389,-44,35,127,0,0,2041,-252,0,2529,200,188,239,1,0,100,35,442257,0
442265,337,-1974,217,368,223,-666,5844,-322,6,-456,-608,35386,-49,34,127,0,0,2017,-252,0,2529,200,188,249,1,0,100,35,442257,0
442275,352,-2115,318,320,183,-535,5708,-279,42,-456,-496,35379,-55,34,127,0,0,1995,-197,0,2529,200,188,259,1,0,100,35,442257,0
442285,338,-2159,450,273,112,-422,5595,-229,72,-496,-448,35372,-57,34,127,0,0,1977,-197,0,2529,200,188,269,1,0,100,35,442257,0
442295,328,-2186,391,194,111,-371,5505,-203,93,-606,-400,35376,-45,34,127,0,0,1959,-175,0,2529,200,188,279,1,0,100,35,442257,0
442305,378,-2141,217,189,98,-293,5409,-202,28,-473,-352,35384,-26,34,127,0,0,1951,-98,0,2529,200,188,289,1,0,100,35,442288,0
442315,391,-2084,130,187,99,-234,5331,-162,25,-450,-288,35395,-41,34,127,0,0,1937,-109,0,2529,200,188,299,1,0,100,35,442288,0
442325,362,-2086,165,208,72,-161,5259,-140,49,-436,-224,35389,-52,34,127,0,0,1929,-109,0,2529,200,188,309,1,0,100,35,442288,0
442335,301,-2043,178,233,75,-85,5218,-69,80,-598,-224,35389,-55,34,127,0,0,1920,-65,0,2529,200,188,319,1,0,100,35,442319,0
442345,252,-1991,153,273,62,4,5178,-86,64,-522,-176,35383,-53,34,127,0,0,1916,-43,0,2529,200,188,329,1,0,100,35,442335,0
442355,261,-2000,97,307,85,57,5159,-43,33,-559,-184,35380,-48,34,127,0,0,1916,0,0,2529,200,188,339,1,0,100,35,442335,0
442365,245,-2072,128,353,99,50,5137,-48,32,-412,-136,35374,-55,34,127,0,0,1916,0,0,2529,200,188,349,1,0,100,35,442335,0
442375,236,-2111,206,377,122,31,5133,4,25,-420,-152,35373,-60,34,127,0,0,1913,-10,0,2529,200,188,359,1,0,100,35,442350,0
442385,249,-2092,292,359,101,-11,5132,-1,44,-455,-144,35383,-61,34,127,0,0,1911,-43,0,2529,200,188,369,1,0,100,35,442350,0
442395,265,-2086,324,323,84,-35,5129,-9,-1,-514,-192,35385,-73,34,127,0,0,1905,-76,0,2529,200,188,379,1,0,100,35,442366,0
442406,216,-2058,392,281,76,-78,5117,-24,-19,-615,-240,35388,-78,34,127,0,0,1907,-10,0,2529,200,188,390,1,0,100,35,442381,0
442416,199,-1997,381,259,89,-108,5102,-43,-20,-640,-256,35377,-86,34,127,0,0,1896,-32,0,2529,200,188,400,1,0,100,35,442397,0
442426,267,-1945,316,236,82,-110,5061,-94,-59,-446,-240,35380,-90,34,127,0,0,1889,-104,0,2529,200,188,410,1,0,100,35,442397,0
442436,298,-1953,212,248,78,-104,5026,-71,-33,-514,-208,35372,-89,34,127,0,0,1881,-60,0,2529,200,188,420,1,0,100,35,442413,0
442446,301,-1994,278,216,78,-148,4993,-66,13,-465,-200,35374,-83,35,127,0,0,1878,-71,0,2529,200,188,430,1,0,100,35,442413,0
442456,237,-2076,372,193,73,-186,4977,-31,34,-640,-256,35371,-68,34,127,0,0,1866,-115,0,2529,200,188,440,1,0,100,35,442428,0
442466,241,-2050,438,123,33,-261,4936,-113,-8,-589,-240,35375,-50,34,127,0,0,1856,-82,0,2529,200,188,450,1,0,100,35,442444,0
442476,211,-2094,359,84,36,-313,4889,-109,-68,-527,-272,35378,-27,35,127,0,0,1843,-170,0,2529,200,188,460,1,0,100,35,442444,0
442486,306,-2025,290,59,78,-386,4848,-77,-3,-671,-304,35377,-30,34,127,0,0,1830,-142,0,2529,200,188,470,1,0,100,35,442460,0
442496,375,-1999,368,20,46,-364,4803,-120,14,-788,-392,35374,-31,35,127,0,0,1816,-153,0,2529,200,188,480,1,0,100,35,442475,0
442506,381,-1992,451,-40,-13,-330,4730,-185,-63,-588,-392,35369,-57,34,127,0,0,1803,-131,0,2529,200,188,490,1,0,100,35,442475,0
442516,397,-1989,413,-87,-35,-335,4651,-146,-73,-461,-296,35374,-48,34,127,0,0,1790,-104,0,2529,200,188,500,1,0,100,35,442491,0
442526,409,-1990,388,-130,-25,-399,4585,-143,25,-486,-336,35375,-49,35,127,0,0,1776,-197,0,2529,200,188,510,1,0,100,35,442569,0
442536,371,-2017,371,-150,-45,-430,4509,-168,4,-509,-304,35373,-57,34,127,0,0,1762,-126,0,2529,200,188,520,1,0,100,35,442569,0
442546,348,-2084,324,-182,-83,-415,4444,-141,9,-594,-352,35371,-61,34,127,0,0,1744,-175,0,2529,200,188,530,1,0,100,35,442569,0
442556,326,-2078,311,-199,-99,-402,4380,-146,23,-658,-336,35366,-51,34,127,0,0,1733,-98,0,2529,200,188,540,1,0,100,35,442569,0
442566,382,-2052,249,-212,-96,-469,4311,-166,-9,-601,-352,35359,-48,34,127,0,0,1718,-131,0,2529,200,188,550,1,0,100,35,442585,0
442576,374,-2027,228,-211,-91,-517,4235,-161,-28,-576,-384,35360,-49,34,127,0,0,1703,-148,0,2529,200,188,560,1,0,100,35,442600,0
442586,384,-2000,310,-217,-95,-526,4157,-172,-20,-560,-392,35364,-58,34,127,0,0,1688,-170,0,2529,200,188,570,1,0,100,35,442600,0
442596,351,-2030,379,-246,-109,-527,4081,-153,-7,-620,-392,35366,-57,34,127,0,0,1673,-115,0,2529,200,188,580,1,0,100,35,442600,0
442606,418,-2042,420,-297,-154,-547,4002,-188,16,-613,-424,35362,-46,34,127,0,0,1655,-159,0,2529,200,188,590,1,0,100,35,442600,0
442616,437,-2046,379,-322,-182,-571,3915,-192,-28,-530,-352,35361,-40,34,127,0,0,1638,-126,0,2529,200,188,600,1,0,100,35,442600,0
442626,502,-2006,312,-340,-221,-574,3829,-189,-16,-504,-344,35364,-41,34,127,0,0,1625,-137,0,2529,200,188,610,1,0,100,35,442600,0
442636,436,-1993,288,-345,-263,-554,3743,-187,3,-475,-352,35383,-47,34,127,0,0,1614,-131,0,2529,200,188,620,1,0,100,35,442600,0
442646,358,-2040,280,-343,-342,-511,3671,-139,25,-475,-272,35388,-61,34,127,0,0,1598,-164,0,2529,200,188,630,1,0,100,35,442631,0
442656,230,-1981,323,-335,-346,-500,3617,-127,50,-493,-272,35383,-59,34,127,0,0,1594,-131,0,2529,200,188,640,1,0,100,35,442647,0
442666,-53,-2163,528,-350,-495,-411,3560,-128,16,-425,-176,35373,-65,35,127,0,0,1591,-27,0,2529,200,188,650,1,0,100,35,442647,0
442676,128,-2173,439,-358,-529,-909,3539,-5,58,-426,-152,35363,-72,34,127,0,0,1586,-98,0,2529,200,188,660,1,0,100,35,442647,0
442687,254,-1765,291,-341,-769,-1671,3532,-45,100,-746,-416,35366,-69,34,127,0,0,1555,-351,0,2529,200,188,671,1,0,100,35,442663,0
442697,-666,-2320,319,-513,-1022,-1798,3458,-201,-138,-754,-648,35371,-55,34,127,0,0,1522,-395,0,2529,200,188,681,1,0,100,35,442663,0
442707,-698,-2342,402,-552,-954,-2238,3327,-297,-233,-672,-688,35368,-33,34,127,0,0,1487,-384,0,2529,200,188,691,1,0,100,35,442678,0
442717,-394,-2497,481,-484,-752,-2918,3181,-346,-117,-659,-968,35367,-25,34,127,0,0,1430,-571,0,2529,200,188,701,1,0,100,35,442725,0
442727,135,-2430,588,-358,-871,-3216,2989,-452,-118,-701,-1128,35368,-34,34,127,0,0,1382,-505,0,2529,200,188,711,1,0,0,0,442725,0
442737,821,-2987,599,-378,-1295,-3137,2772,-498,-137,-695,-1224,35365,-43,34,127,0,0,1342,-362,0,2529,200,188,721,1,0,-1,0,442725,0
442747,540,-3204,807,-544,-1534,-2849,2544,-494,-68,-547,-984,35357,-34,34,127,0,0,1333,-54,0,2529,200,188,731,1,0,-1,0,442725,0
442757,288,-2912,711,-635,-1705,-3173,2353,-392,65,-393,-552,35349,-32,34,127,0,0,1340,87,0,2529,200,188,741,1,0,0,0,442743,0
442767,536,-3352,407,-440,-1811,-3272,2212,-262,183,-274,-128,35351,-44,34,127,0,0,1353,175,0,2529,200,188,751,1,0,0,0,442745,0
442777,370,-3387,593,-331,-2170,-3223,2187,88,342,201,280,35359,-47,35,127,0,0,1393,439,0,2529,200,188,761,1,0,0,0,442762,0
442787,283,-3456,830,-395,-2509,-3421,2294,280,479,467,608,35374,-67,35,127,0,0,1445,527,0,2529,200,188,771,1,0,0,0,442762,0
442797,80,-3962,499,-497,-2799,-3699,2463,404,334,412,896,35373,-69,34,127,0,0,1511,725,0,2529,200,188,781,1,0,1,0,442762,0
442807,-133,-3883,227,-393,-2832,-3984,2685,532,219,500,1360,35373,-68,34,127,0,0,1597,856,0,2529,200,188,791,1,0,2,0,442809,0
442817,-434,-4187,202,-319,-3044,-4365,2968,665,223,617,1736,35371,-50,34,127,0,0,1700,1021,0,2529,200,188,801,1,0,3,0,442809,0
442827,-622,-4295,690,-161,-3427,-4478,3325,832,258,693,2304,35365,-27,34,127,0,0,1836,1406,0,2529,200,188,811,1,0,4,0,442809,0
442837,-541,-4447,933,71,-3976,-4774,3775,1046,318,751,2888,35355,-18,35,127,0,0,2006,1735,0,2529,200,188,821,1,0,6,0,442809,0
442847,-634,-4351,774,169,-4345,-4956,4324,1291,368,866,3576,35350,-9,34,127,0,0,2201,1999,0,2529,200,188,831,1,0,9,0,442809,0
442857,-292,-4063,979,145,-4756,-5245,4982,1520,406,796,4152,35354,15,34,127,0,0,2412,2153,0,2529,200,188,841,1,0,11,0,442840,0
442867,165,-4316,877,160,-4839,-5596,5755,1762,435,665,4496,35356,41,34,127,0,0,2612,1966,0,2529,200,188,851,1,0,15,0,442840,0
442877,573,-4069,764,236,-5036,-5845,6610,1927,380,562,4592,35344,51,34,127,0,0,2810,1977,0,2529,200,188,861,1,0,18,0,442840,0
442887,508,-3659,773,68,-5208,-5703,7505,1968,241,465,4608,35344,43,34,127,0,0,2990,1812,0,2529,200,188,871,1,0,22,0,442871,0
442897,191,-3009,902,-302,-5502,-4984,8377,1900,33,602,4776,35353,18,34,127,0,0,3199,2054,0,2529,200,188,881,1,0,25,0,442871,0
442907,-43,-2766,859,-545,-5647,-4372,9269,2000,-14,855,5208,35355,29,34,127,0,0,3412,2120,0,2529,200,188,891,1,0,31,0,442918,0
442918,-76,-2405,429,-597,-5236,-3298,10340,2196,211,833,5528,35347,63,35,127,0,0,3655,2213,0,2529,200,188,902,1,0,36,0,442918,0
442928,299,-1286,353,-556,-3965,-2726,11382,2327,278,814,5912,35332,74,34,127,0,0,3879,2153,0,2529,200,188,912,1,0,41,0,442934,0
442938,787,-1164,-973,-295,-514,-4187,12445,2285,170,254,4584,35325,90,34,127,0,0,3881,-153,0,2529,200,188,922,1,0,48,0,442934,0
442948,714,-1484,-964,188,1170,-4036,13351,1823,-251,-585,1720,35336,52,34,127,0,0,3762,-1323,0,2529,200,188,932,0,0,52,0,442934,0
442958,406,-1141,-319,841,2386,-2763,13833,677,-1085,-2056,-704,35353,-12,34,127,0,0,3626,-1296,0,2529,200,188,942,0,0,59,0,442934,0
442968,-127,-646,264,908,2760,-2280,13656,-548,-2119,-743,-1576,35366,-53,34,127,0,0,3510,-1170,0,2529,200,188,952,0,0,64,0,442934,0
442978,-416,-606,556,883,2757,-1906,13324,-779,-1528,-559,-1976,35378,-61,34,127,0,0,3414,-944,0,2529,200,188,962,0,0,71,0,442980,0
442988,-52,-1048,272,1022,2724,-1429,12931,-891,-381,-424,-2120,35383,-29,34,127,0,0,3331,-802,0,2529,200,188,972,0,0,75,0,442980,0
442998,408,-1063,-94,1299,2802,-153,12518,-900,-153,-247,-1800,35380,-5,34,127,0,0,3295,-307,0,2529,200,188,982,0,0,83,117,442980,0
443008,268,-732,-53,1416,2992,556,12141,-788,27,-88,-1232,35370,-6,34,127,0,0,3281,-115,0,2529,200,188,992,0,0,88,111,442980,0
443018,315,-452,16,1501,3247,1144,11839,-614,211,-51,-792,35360,-29,34,127,0,0,3262,-236,0,2529,200,188,1002,0,0,95,102,442980,0
443028,495,-571,-68,1547,3377,1535,11604,-477,276,-156,-688,35372,-36,34,127,0,0,3217,-461,0,2529,200,188,1012,0,0,100,97,443012,0
443038,618,-681,-79,1593,3489,2444,11403,-424,196,-315,-864,35389,-28,34,127,0,0,3166,-571,0,2529,200,188,1022,0,0,108,89,443012,0
443048,541,-607,25,1592,3415,3102,11196,-470,54,-390,-960,35386,-32,34,127,0,0,3116,-422,0,2529,200,188,1032,0,0,113,85,443012,0
443058,407,-583,99,1588,3077,3848,10978,-480,-38,-376,-1016,35383,-29,34,127,0,0,3066,-417,0,2529,200,188,1042,0,0,120,78,443043,0
443068,531,-657,39,1575,2759,4327,10749,-504,-35,-342,-984,35385,-35,34,127,0,0,3022,-422,0,2529,200,188,1052,0,0,125,74,443059,0
443078,686,-863,5,1569,2282,5205,10532,-472,3,-354,-824,35388,-26,34,127,0,0,2997,-241,0,2529,200,188,1062,0,0,132,68,443059,0
443088,653,-931,30,1551,2083,5770,10321,-453,31,-252,-592,35382,-22,34,127,0,0,2983,-98,0,2529,200,188,1072,0,0,137,64,443059,0
443098,573,-1029,17,1534,1886,6407,10148,-355,80,-239,-352,35374,-37,34,127,0,0,2963,-159,0,2529,200,188,1082,0,0,144,59,443074,0
443108,560,-1123,-26,1553,1740,6741,10012,-272,148,-229,-296,35383,-33,34,127,0,0,2944,-225,0,2529,200,188,1092,0,0,149,56,443105,0
443118,647,-1209,-122,1566,1479,7274,9901,-224,121,-306,-280,35398,-42,34,127,0,0,2922,-197,0,2529,200,188,1102,0,0,156,52,443105,0
443128,624,-1262,-126,1567,1291,7611,9807,-214,71,-384,-328,35400,-45,34,127,0,0,2894,-241,0,2529,200,188,1112,0,0,161,49,443105,0
443138,505,-1433,-104,1533,1025,8037,9700,-246,6,-361,-344,35390,-77,34,127,0,0,2870,-252,0,2529,200,188,1122,0,0,168,45,443105,0
443148,411,-1581,-77,1512,888,8253,9587,-262,-38,-357,-328,35389,-87,34,127,0,0,2855,-181,0,2529,200,188,1132,0,0,173,43,443137,0
443158,333,-1802,-46,1481,799,8506,9479,-214,-7,-340,-280,35397,-88,34,127,0,0,2841,-93,0,2529,200,188,1142,0,0,180,40,443137,0
443168,384,-1913,-9,1431,786,8671,9386,-197,43,-292,-200,35400,-66,35,127,0,0,2835,27,0,2529,200,188,1152,0,0,184,38,443137,0
443179,423,-2018,80,1300,853,8814,9321,-83,88,-191,-56,35397,-55,34,127,0,0,2832,21,0,2529,200,188,1163,0,0,191,35,443152,0
443189,489,-2261,109,1164,947,8933,9309,4,163,-66,40,35389,-37,34,127,0,0,2838,87,0,2529,200,188,1173,0,0,196,33,443152,0
443199,648,-2357,146,1050,991,9021,9321,27,129,164,112,35385,-33,34,127,0,0,2852,131,0,2529,200,188,1183,0,0,203,31,443183,0
443209,808,-2413,287,887,989,9008,9363,134,96,381,248,35385,-50,34,127,0,0,2880,252,0,2529,200,188,1193,0,0,207,30,443183,0
443219,946,-2480,366,807,869,8902,9454,210,162,332,312,35385,-42,35,127,0,0,2904,252,0,2529,200,188,1203,0,0,214,28,443183,0
443229,1105,-2552,427,740,570,8633,9561,250,118,372,328,35382,-47,34,127,0,0,2924,186,0,2529,200,188,1213,0,0,218,27,443230,0
443239,1235,-2587,420,666,372,8455,9673,231,45,342,256,35386,-51,34,127,0,0,2942,142,0,2529,200,188,1223,0,0,224,26,443230,0
443249,1222,-2619,332,576,166,8046,9774,207,-14,265,184,35388,-47,34,127,0,0,2955,109,0,2529,200,188,1233,0,0,228,25,443230,0
443259,1127,-2664,196,527,186,7675,9853,169,-71,229,88,35386,-58,34,127,0,0,2953,-10,0,2529,200,188,1243,0,0,233,24,443230,0
443269,1186,-2681,55,450,311,7014,9890,30,-109,-60,-32,35377,-51,34,127,0,0,2953,-10,0,2529,200,188,1253,0,0,236,23,443230,0
443279,1084,-2661,1,430,488,6303,9880,-5,-170,-25,-72,35382,-61,34,127,0,0,2944,-120,0,2529,200,188,1263,0,0,241,23,443246,0
443289,1198,-2724,-51,410,953,5148,9872,-36,-84,-325,-160,35391,-74,34,127,0,0,2931,-153,0,2529,200,188,1273,0,0,243,23,443262,0
443299,1263,-2697,-35,320,1311,4412,9837,-105,-46,-460,-272,35396,-59,34,127,0,0,2913,-186,0,2529,200,188,1283,0,0,247,22,443262,0
443309,1302,-2552,10,122,1936,3279,9760,-195,-130,-386,-240,35388,-62,35,127,0,0,2900,-109,0,2529,200,188,1293,0,0,248,22,443277,0
443319,1413,-2485,-25,-14,2429,2474,9674,-187,-92,-298,-224,35382,-72,34,127,0,0,2887,-131,0,2529,200,188,1303,0,0,251,22,443293,0
443329,1675,-2305,-62,-225,3157,1304,9603,-148,3,-257,-152,35378,-79,34,127,0,0,2880,-109,0,2529,200,188,1313,0,0,251,22,443293,0
443339,1809,-2143,14,-342,3561,528,9548,-103,49,-225,-120,35377,-63,35,127,0,0,2869,-76,0,2529,200,188,1323,0,0,251,22,443387,0
443349,2052,-1890,124,-491,3944,-592,9545,6,137,-479,-160,35378,-63,34,127,0,0,2860,-87,0,2529,200,188,1333,0,0,251,22,443387,0
443359,2329,-1795,216,-564,4001,-1295,9537,-30,91,-664,-264,35374,-53,34,127,0,0,2856,-87,0,2529,200,188,1343,0,0,251,22,443387,0
443369,3662,-5262,646,-455,3007,-2858,9495,-100,-80,-482,-104,35380,-65,34,127,0,0,2885,384,0,1267,306,189,1,1,1,251,22,443387,0
443379,4170,-3328,1640,-62,2619,-4432,9554,316,101,861,1352,35376,-72,34,127,0,0,2957,714,0,1267,306,189,11,1,1,251,22,443387,0
443389,2819,-1005,775,-297,2088,-5188,9854,787,690,1021,2136,35374,-69,34,127,0,0,2972,32,0,1267,306,189,21,1,1,251,22,443402,0
443399,2170,-2034,226,-826,1734,-4927,10265,918,693,536,2040,35367,-58,34,127,0,0,2917,-659,0,1267,306,189,31,1,1,251,22,443402,0
443409,-1349,-2160,93,-632,-75,-4652,10655,810,171,174,1384,35366,-29,34,127,0,0,2832,-802,0,1267,306,189,41,1,1,251,22,443402,0
443419,-1768,-1986,-117,-844,-937,-3901,10962,610,-205,187,1184,35369,-17,34,127,0,0,2794,-296,0,1267,306,189,51,1,1,251,22,443402,0
443430,-281,-1782,-948,-1272,-1515,-3360,11259,628,-229,629,1744,35368,-32,34,127,0,0,2807,203,0,1267,306,189,62,1,1,251,22,443402,0
443440,1185,-2225,-671,-1121,-1401,-3006,11617,883,118,1008,2608,35376,-1,34,127,0,0,2869,615,0,1267,306,189,72,1,1,251,22,443433,0
443450,1100,-1536,58,-921,-436,-3935,12119,1173,457,813,2928,35378,4,34,127,0,0,2855,-241,520,1267,306,189,82,1,1,251,22,443433,0
443460,1282,-1961,701,-858,345,-4750,12639,1092,326,229,2520,35380,19,34,127,0,0,2747,-1252,720,1267,306,189,92,1,1,251,22,443433,0
443470,1174,-1772,-13,-1022,64,-4146,13106,992,-81,449,2096,35366,-9,34,127,0,0,2611,-1312,920,1267,306,189,102,1,1,251,22,443433,0
