state_time,accelx,accely,accelz,gyrox,gyroy,gyroz,mot_ang,mot_vel,mot_acc,mot_cur,mot_volt,batt_volt,batt_curr,temperature,status_mn,status_ex,status_re,ank_ang,ank_vel,ank_torque,peak_ank_torque,step_energy,step_count,step_time,gait_state,movement,speed,incline,sys_time,eventFlags
76703,-99,-2080,208,-110,40,140,14691,0,1,385,88,35483,-92,33,127,0,0,3897,0,0,3668,197,29,3015,-4,0,114,8,879843,0
76713,-77,-2081,210,-113,45,139,14691,5,2,377,88,35484,-93,33,127,0,0,3900,0,0,3668,197,29,3025,-4,0,114,8,76703,0
76723,-83,-2075,200,-114,47,143,14692,2,2,375,160,35485,-71,33,127,0,0,3900,32,0,3668,197,29,3035,-4,0,114,8,76703,0
76733,-65,-2088,206,-114,49,133,14693,0,-2,392,160,35492,-74,34,127,0,0,3897,-10,0,3668,197,29,3045,-4,0,114,8,76719,0
76743,-58,-2077,217,-116,46,135,14692,0,-1,366,120,35502,-93,34,127,0,0,3902,65,0,3668,197,29,3055,-4,0,114,8,76734,0
76753,-75,-2075,213,-120,33,139,14695,9,4,460,96,35505,-103,34,127,0,0,3900,-21,0,3668,197,29,3065,-4,0,114,8,76734,0
76763,-75,-2072,209,-123,41,141,14696,5,3,453,128,35497,-100,33,127,0,0,3902,0,0,3668,197,29,3075,-4,0,114,8,76750,0
76773,-71,-2066,205,-123,37,143,14696,2,-10,442,136,35500,-87,33,127,0,0,3902,10,0,3668,197,29,3085,-4,0,114,8,76766,0
76783,-74,-2064,206,-122,43,144,14697,2,0,459,128,35496,-94,34,127,0,0,3902,0,0,3668,197,29,3095,-4,0,114,8,76766,0
76793,-74,-2074,210,-125,44,148,14700,7,3,436,168,35510,-91,33,127,0,0,3902,10,0,3668,197,29,3105,-4,0,114,8,76781,0
76803,-78,-2080,213,-125,43,153,14704,4,6,413,144,35504,-75,34,127,0,0,3904,21,0,3668,197,29,3115,-4,0,114,8,76781,0
76813,-78,-2091,209,-130,38,151,14716,41,15,402,120,35504,-65,34,127,0,0,3904,-10,0,3668,197,29,3125,-4,0,114,8,76797,0
76823,-72,-2092,205,-128,34,153,14734,38,34,302,72,35512,-82,33,127,0,0,3906,10,0,3668,197,29,3135,-4,0,114,8,76812,0
76833,-95,-2090,203,-128,26,152,14737,9,-25,312,56,35511,-79,34,127,0,0,3906,21,0,3668,197,29,3145,-4,0,114,8,76812,0
76843,-88,-2091,190,-118,35,148,14739,12,-22,368,120,35506,-94,33,127,0,0,3906,-21,0,3668,197,29,3155,-4,0,114,8,76844,0
76853,-80,-2081,188,-113,32,131,14740,6,2,382,96,35501,-84,33,127,0,0,3906,0,0,3668,197,29,3165,-4,0,114,8,76844,0
76863,-68,-2084,198,-110,32,136,14743,-8,2,392,88,35495,-88,34,127,0,0,3908,-10,0,3668,197,29,3175,-4,0,114,8,76844,0
76873,-95,-2077,185,-101,36,124,14745,6,-4,418,120,35515,-92,33,127,0,0,3911,21,0,3668,197,29,3185,-4,0,114,8,76859,0
76883,-99,-2088,188,-101,32,114,14748,5,3,441,112,35506,-80,34,127,0,0,3908,-21,0,3668,197,29,3195,-4,0,114,8,76859,0
76894,-122,-2082,190,-96,31,107,14750,13,-2,424,136,35511,-60,34,127,0,0,3906,-60,0,3668,197,29,3206,-4,0,114,8,76891,0
76904,-87,-2075,201,-94,36,107,14750,1,0,388,112,35505,-59,34,127,0,0,3907,-43,0,3668,197,29,3216,-4,0,114,8,76891,0
76914,-96,-2090,212,-93,34,97,14749,5,-1,385,112,35506,-62,33,127,0,0,3911,-5,0,3668,197,29,3226,-4,0,114,8,76891,0
76924,-103,-2084,217,-93,28,101,14750,1,-2,393,88,35509,-75,33,127,0,0,3912,0,0,3668,197,29,3236,-4,0,114,8,76906,0
76934,-83,-2073,202,-100,26,86,14749,1,0,404,112,35501,-65,33,127,0,0,3911,0,0,3668,197,29,3246,-4,0,114,8,76906,0
76944,-98,-2073,201,-96,21,85,14750,1,-1,363,112,35507,-62,34,127,0,0,3911,43,0,3668,197,29,3256,-4,0,114,8,76922,0
76954,-70,-2078,193,-95,26,71,14748,-14,-6,370,112,35512,-69,34,127,0,0,3907,10,0,3668,197,29,3266,-4,0,114,8,76937,0
76964,-54,-2071,199,-94,34,67,14751,0,0,375,112,35515,-74,34,127,0,0,3911,-5,0,3668,197,29,3276,-4,0,114,8,76937,0
76974,-81,-2081,187,-85,29,71,14748,-6,-1,346,72,35526,-69,34,127,0,0,3906,-38,0,3668,197,29,3286,-4,0,114,8,76969,0
76984,-83,-2071,183,-86,34,66,14748,6,-2,305,72,35518,-64,34,127,0,0,3906,-16,0,3668,197,29,3296,-4,0,114,8,76969,0
76994,-80,-2079,181,-77,35,66,14747,0,4,285,72,35516,-50,33,127,0,0,3903,-32,0,3668,197,29,3306,-4,0,114,8,76984,0
77004,-57,-2079,191,-69,31,53,14747,7,2,268,72,35513,-69,34,127,0,0,3903,-43,0,3668,197,29,3316,-4,0,114,8,76984,0
77014,-83,-2081,192,-72,37,58,14747,0,-1,225,72,35504,-74,33,127,0,0,3900,-49,0,3668,197,29,3326,-4,0,114,8,77000,0
77024,-66,-2082,202,-72,36,59,14745,1,1,183,32,35501,-67,33,127,0,0,3902,-32,0,3668,197,29,3336,-4,0,114,8,77016,0
77034,-59,-2087,205,-67,31,56,14740,-19,-8,106,16,35493,-60,34,127,0,0,3900,5,0,3668,197,29,3346,-4,0,114,8,77016,0
77044,-64,-2082,208,-62,34,57,14738,0,-6,19,16,35508,-71,34,127,0,0,3896,-10,0,3668,197,29,3356,-4,0,114,8,77031,0
77054,-57,-2085,208,-72,42,46,14737,-7,6,-17,-24,35503,-65,34,127,0,0,3899,0,0,3668,197,29,3366,-4,0,114,8,77047,0
77064,-65,-2086,212,-74,45,47,14734,-2,-7,-56,-16,35492,-64,33,127,0,0,3895,27,0,3668,197,29,3376,-4,0,114,8,77062,0
77074,-43,-2076,214,-76,40,57,14730,-14,0,-117,-32,35484,-63,33,127,0,0,3893,10,0,3668,197,29,3386,-4,0,114,8,77062,0
77084,-64,-2082,209,-76,29,59,14729,3,4,-76,-56,35490,-79,34,127,0,0,3894,-32,0,3668,197,29,3396,-4,0,114,8,77078,0
77094,-76,-2075,202,-74,31,71,14727,0,4,-111,-56,35499,-81,34,127,0,0,3891,-21,0,3668,197,29,3406,-4,0,114,8,77078,0
77104,-55,-2076,189,-74,42,76,14721,-19,-4,-200,-64,35500,-75,33,127,0,0,3889,5,0,3668,197,29,3416,-4,0,114,8,77094,0
77114,-44,-2069,189,-67,33,79,14715,-13,-14,-231,-72,35498,-77,33,127,0,0,3886,10,0,3668,197,29,3426,-4,0,114,8,77094,0
77124,-54,-2064,196,-66,36,78,14695,-54,-27,-185,-32,35505,-89,33,127,0,0,3883,10,0,3668,197,29,3436,-4,0,114,8,77109,0
77134,-65,-2062,199,-63,43,77,14675,-29,-30,-40,8,35513,-97,34,127,0,0,3883,-21,0,3668,197,29,3446,-4,0,114,8,77109,0
77145,-37,-2073,211,-66,34,90,14676,-13,44,-99,-8,35515,-88,34,127,0,0,3882,-21,0,3668,197,29,3457,-4,0,114,8,77141,0
77155,-46,-2074,223,-71,27,100,14671,-9,31,-182,-32,35505,-80,34,127,0,0,3882,0,0,3668,197,29,3467,-4,0,114,8,77141,0
77165,-54,-2092,218,-77,40,110,14670,-2,-4,-208,-8,35500,-84,33,127,0,0,3878,-32,0,3668,197,29,3477,-4,0,114,8,77141,0
77175,-52,-2098,215,-75,35,100,14669,1,7,-168,-64,35510,-101,34,127,0,0,3882,-10,0,3668,197,29,3487,-4,0,114,8,77156,0
77185,-59,-2103,210,-85,39,111,14670,7,6,-124,-32,35506,-117,33,127,0,0,3878,-54,0,3668,197,29,3497,-4,0,114,8,77156,0
77195,-43,-2109,220,-85,32,110,14669,4,-1,-155,-32,35507,-109,33,127,0,0,3880,-32,0,3668,197,29,3507,-4,0,114,8,77187,0
77205,-74,-2100,226,-90,44,118,14667,-6,-4,-212,0,35502,-108,34,127,0,0,3880,10,0,3668,197,29,3517,-4,0,114,8,77187,0
77215,-40,-2106,224,-100,38,120,14667,0,2,-216,-88,35499,-107,33,127,0,0,3880,32,0,3668,197,29,3527,-4,0,114,8,77187,0
77225,-56,-2099,216,-106,34,123,14667,3,4,-126,-24,35508,-107,34,127,0,0,3878,-54,0,3668,197,29,3537,-4,0,114,8,77219,0
77235,-60,-2088,217,-103,36,120,14665,-6,-3,-184,-96,35503,-71,33,127,0,0,3880,10,0,3668,197,29,3547,-4,0,114,8,77219,0
77245,-83,-2083,217,-115,35,122,14665,1,0,-177,-48,35506,-70,33,127,0,0,3880,0,0,3668,197,29,3557,-4,0,114,8,77234,0
77255,-74,-2076,214,-113,36,115,14666,6,2,-183,-48,35504,-78,34,127,0,0,3880,0,0,3668,197,29,3567,-4,0,114,8,77234,0
77265,-58,-2078,202,-118,32,108,14664,-14,1,-224,0,35502,-90,33,127,0,0,3880,21,0,3668,197,29,3577,-4,0,114,8,77250,0
77275,-54,-2084,200,-113,34,97,14664,-6,4,-227,-32,35509,-85,33,127,0,0,3878,-21,0,3668,197,29,3587,-4,0,114,8,77266,0
77285,-64,-2065,189,-111,37,101,14664,0,0,-254,-72,35496,-71,33,127,0,0,3878,10,0,3668,197,29,3597,-4,0,114,8,77266,0
77295,-45,-2067,182,-108,33,108,14664,-4,-3,-239,-32,35493,-102,33,127,0,0,3878,10,0,3668,197,29,3607,-4,0,114,8,77281,0
77305,-51,-2074,180,-93,32,112,14663,-7,0,-247,-32,35491,-107,33,127,0,0,3880,21,0,3668,197,29,3617,-4,0,114,8,77281,0
77315,-49,-2068,186,-95,35,116,14663,-11,0,-229,-64,35489,-91,33,127,0,0,3878,0,0,3668,197,29,3627,-4,0,114,8,77312,0
77325,-35,-2079,173,-75,39,125,14664,0,1,-199,-80,35494,-73,33,127,0,0,3878,-10,0,3668,197,29,3637,-4,0,114,8,77312,0
77335,-48,-2080,177,-72,31,132,14662,-14,-6,-257,-64,35492,-74,33,127,0,0,3878,21,0,3668,197,29,3647,-4,0,114,8,77312,0
77345,-54,-2096,180,-61,39,136,14664,2,-3,-225,-64,35497,-78,34,127,0,0,3878,10,0,3668,197,29,3657,-4,0,114,8,77344,0
77355,-37,-2092,182,-58,35,139,14662,-6,1,-216,-32,35493,-87,33,127,0,0,3875,-21,0,3668,197,29,3667,-4,0,114,8,77344,0
77365,-67,-2083,181,-45,36,143,14661,-12,-11,-279,-96,35489,-89,33,127,0,0,3878,32,0,3668,197,29,3677,-4,0,114,8,77344,0
77375,-48,-2093,187,-40,35,152,14660,-8,0,-228,-24,35499,-108,34,127,0,0,3880,54,0,3668,197,29,3687,-4,0,114,8,77359,0
77385,-67,-2076,191,-28,36,148,14661,-3,7,-189,-32,35502,-116,33,127,0,0,3875,-32,0,3668,197,29,3697,-4,0,114,8,77359,0
77396,-47,-2070,192,-24,36,153,14662,2,-5,-252,-64,35511,-115,33,127,0,0,3881,21,0,3668,197,29,3708,-4,0,114,8,77406,0
77406,-77,-2068,196,-18,38,157,14662,3,0,-163,-40,35505,-100,33,127,0,0,3883,43,0,3668,197,29,3718,-4,0,114,8,77406,0
77416,-59,-2069,200,-6,33,157,14664,3,-2,-82,-16,35489,-86,33,127,0,0,3875,-38,0,3668,197,29,3728,-4,0,114,8,77437,0
77426,-67,-2078,205,-14,33,149,14662,-6,-5,-180,-40,35486,-97,34,127,0,0,3877,-43,0,3668,197,29,3738,-4,0,114,8,77437,0
77436,-53,-2077,219,-7,32,151,14663,5,-1,-182,-40,35481,-105,33,127,0,0,3880,-10,0,3668,197,29,3748,-4,0,114,8,77437,0
77446,-83,-2082,227,-18,34,146,14662,-1,1,-174,-64,35478,-106,33,127,0,0,3884,32,0,3668,197,29,3758,-4,0,114,8,77437,0
77456,-105,-2083,220,-16,31,144,14666,11,5,-82,-48,35488,-88,34,127,0,0,3883,21,0,3668,197,29,3768,-4,0,114,8,77437,0
77466,-89,-2078,212,-27,31,142,14664,5,-2,-82,-24,35494,-97,33,127,0,0,3882,16,0,3668,197,29,3778,-4,0,114,8,77453,0
77476,-74,-2066,218,-29,32,129,14665,4,-5,-15,0,35510,-99,33,127,0,0,3881,-43,0,3668,197,29,3788,-4,0,114,8,77484,0
77486,-91,-2069,213,-29,36,113,14666,4,-5,-65,-16,35512,-97,33,127,0,0,3885,32,0,3668,197,29,3798,-4,0,114,8,77484,0
77496,-92,-2071,215,-29,33,115,14665,-5,-8,-59,8,35505,-92,33,127,0,0,3881,16,0,3668,197,29,3808,-4,0,114,8,77484,0
77506,-72,-2096,231,-39,32,100,14665,-6,-4,-96,-24,35487,-81,33,127,0,0,3885,49,0,3668,197,29,3818,-4,0,114,8,77484,0
77516,-61,-2080,230,-44,31,103,14665,-4,1,-75,-24,35489,-85,33,127,0,0,3882,16,0,3668,197,29,3828,-4,0,114,8,77500,0
77526,-55,-2083,229,-55,33,101,14665,-5,1,-91,-24,35497,-89,33,127,0,0,3879,-16,0,3668,197,29,3838,-4,0,114,8,77515,0
77536,-43,-2089,237,-64,30,102,14664,3,-2,-142,-24,35500,-85,33,127,0,0,3879,-5,0,3668,197,29,3848,-4,0,114,8,77515,0
77546,-78,-2084,236,-73,36,105,14664,-5,-1,-136,-40,35499,-94,34,127,0,0,3880,-16,0,3668,197,29,3858,-4,0,114,8,77547,0
77556,-38,-2090,230,-84,33,101,14663,-1,2,-152,-40,35492,-91,33,127,0,0,3880,-5,0,3668,197,29,3868,-4,0,114,8,77562,0
77566,-58,-2081,220,-81,35,104,14662,-1,-8,-203,-16,35490,-77,34,127,0,0,3879,49,0,3668,197,29,3878,-4,0,114,8,77562,0
77576,-25,-2080,215,-81,33,113,14664,-2,2,-168,-64,35487,-65,33,127,0,0,3881,16,0,3668,197,29,3888,-4,0,114,8,77562,0
77586,-74,-2079,210,-80,39,121,14666,13,4,-84,-24,35473,-58,33,127,0,0,3882,-10,0,3668,197,29,3898,-4,0,114,8,77562,0
77596,-59,-2076,205,-76,36,125,14664,-7,-2,-120,-64,35494,-93,34,127,0,0,3884,10,0,3668,197,29,3908,-4,0,114,8,77594,0
77606,-33,-2080,202,-73,37,134,14665,3,-4,-107,-40,35502,-102,33,127,0,0,3880,-5,0,3668,197,29,3918,-4,0,114,8,77594,0
77616,-69,-2090,206,-72,42,136,14663,0,0,-168,-64,35504,-101,33,127,0,0,3878,-38,0,3668,197,29,3928,-4,0,114,8,77594,0
77626,-89,-2089,214,-71,43,138,14664,4,2,-147,-40,35502,-92,34,127,0,0,3883,5,0,3668,197,29,3938,-4,0,114,8,77609,0
77636,-71,-2086,212,-69,36,141,14665,1,1,-48,-40,35490,-94,33,127,0,0,3880,-38,0,3668,197,29,3948,-4,0,114,8,77625,0
77647,-103,-2087,213,-66,35,140,14663,2,-3,-128,-8,35496,-111,34,127,0,0,3882,21,0,3668,197,29,3959,-4,0,114,8,77656,0
77657,-79,-2084,212,-63,35,128,14666,9,6,-81,-56,35493,-112,33,127,0,0,3880,-21,0,3668,197,29,3969,-4,0,114,8,77656,0
77667,-84,-2080,215,-67,34,126,14665,15,3,-80,-24,35489,-92,33,127,0,0,3882,-10,0,3668,197,29,3979,-4,0,114,8,77656,0
77677,-79,-2087,220,-68,29,129,14665,0,4,-60,-24,35487,-72,33,127,0,0,3882,-10,0,3668,197,29,3989,-4,0,114,8,77656,0
77687,-96,-2087,227,-63,35,115,14665,6,2,-110,-48,35488,-90,34,127,0,0,3882,0,0,3668,197,29,3999,-4,0,114,8,77672,0
77697,-36,-2083,224,-71,36,108,14663,-9,-5,-136,-8,35495,-85,33,127,0,0,3882,10,0,3668,197,29,4009,-4,0,114,8,77687,0
77707,-70,-2090,218,-76,34,105,14665,9,11,-81,-24,35500,-80,33,127,0,0,3882,0,0,3668,197,29,4019,-4,0,114,8,77687,0
77717,-49,-2081,219,-77,32,101,14664,-3,-1,-108,-88,35503,-72,33,127,0,0,3880,10,0,3668,197,29,4029,-4,0,114,8,77703,0
77727,-71,-2079,216,-78,30,94,14664,6,0,-160,-72,35495,-83,34,127,0,0,3880,-10,0,3668,197,29,4039,-4,0,114,8,77719,0
77737,-62,-2055,224,-83,34,91,14663,0,5,-161,-40,35497,-87,33,127,0,0,3880,0,0,3668,197,29,4049,-4,0,114,8,77719,0
77747,-80,-2044,219,-81,35,91,14663,0,0,-179,-40,35491,-86,33,127,0,0,3878,-10,0,3668,197,29,4059,-4,0,114,8,77734,0
77757,-68,-2060,207,-75,36,77,14661,-3,-3,-230,-64,35497,-73,33,127,0,0,3878,-10,0,3668,197,29,4069,-4,0,114,8,77734,0
77767,-58,-2069,211,-78,40,79,14662,0,2,-224,-72,35499,-81,34,127,0,0,3878,-10,0,3668,197,29,4079,-4,0,114,8,77828,0
77777,-50,-2057,211,-81,47,83,14662,3,2,-229,-96,35507,-96,34,127,0,0,3875,-32,0,3668,197,29,4089,-4,0,114,8,77828,0
77787,-38,-2066,210,-76,41,91,14659,-3,-6,-322,-104,35513,-102,34,127,0,0,3873,-21,0,3668,197,29,4099,-4,0,114,8,77843,0
77797,-21,-2081,217,-72,38,112,14652,-18,-10,-363,-88,35509,-90,34,127,0,0,3873,21,0,3668,197,29,4109,-4,0,114,8,77843,0
77807,-28,-2097,223,-79,34,126,14642,-18,-16,-307,-104,35502,-91,33,127,0,0,3873,21,0,3668,197,29,4119,-4,0,114,8,77843,0
77817,-14,-2088,205,-74,33,150,14630,-34,-8,-187,-80,35500,-108,34,127,0,0,3873,0,0,3668,197,29,4129,-4,0,114,8,77843,0
77827,-55,-2093,202,-72,45,161,14613,-40,-17,-82,-32,35491,-98,33,127,0,0,3873,32,0,3668,197,29,4139,-4,0,114,8,77843,0
77837,-18,-2103,215,-61,46,157,14611,8,24,-28,-8,35487,-80,33,127,0,0,3875,43,0,3668,197,29,4149,-4,0,114,8,77843,0
77847,-50,-2108,222,-56,47,164,14610,0,35,18,32,35484,-62,34,127,0,0,3875,21,0,3668,197,29,4159,-4,0,114,8,77843,0
77857,-69,-2101,234,-66,49,163,14610,0,-4,10,-40,35487,-72,33,127,0,0,3873,-10,0,3668,197,29,4169,-4,0,114,8,77843,0
77867,-103,-2090,234,-69,45,161,14613,22,7,2,-8,35496,-70,34,127,0,0,3875,0,0,3668,197,29,4179,-4,0,0,0,77843,0
77877,-90,-2088,225,-76,36,159,14612,9,7,43,-24,35506,-60,33,127,0,0,3875,0,0,3668,197,29,4189,-4,0,0,0,77875,0
77887,-100,-2097,229,-77,35,147,14614,9,0,116,-16,35507,-60,33,127,0,0,3880,32,0,3668,197,29,4199,-4,0,0,0,77875,0
77897,-81,-2096,234,-83,32,137,14615,2,8,171,32,35509,-67,34,127,0,0,3878,0,0,3668,197,29,4209,-4,0,0,0,77875,0
77908,-78,-2082,227,-82,34,126,14615,0,-4,154,8,35507,-82,33,127,0,0,3879,-5,0,3668,197,29,4220,-4,0,0,0,77906,0
77918,-89,-2059,226,-88,34,123,14615,8,-1,157,8,35501,-62,33,127,0,0,3879,-5,0,3668,197,29,4230,-4,0,0,0,77906,0
77928,-110,-2051,217,-92,37,107,14615,3,-1,150,32,35498,-57,33,127,0,0,3878,0,0,3668,197,29,4240,-4,0,0,0,77922,0
77938,-63,-2060,219,-86,28,103,14615,0,0,128,32,35493,-62,33,127,0,0,3878,16,0,3668,197,29,4250,-4,0,0,0,77922,0
77948,-49,-2051,220,-92,29,105,14616,4,2,151,32,35497,-80,33,127,0,0,3878,0,0,3668,197,29,4260,-4,0,0,0,77953,0
77958,-76,-2049,210,-90,34,104,14614,-10,0,161,8,35495,-71,33,127,0,0,3875,-65,0,3668,197,29,4270,-4,0,0,0,77953,0
77968,-60,-2058,209,-86,38,95,14614,1,-1,106,8,35495,-65,34,127,0,0,3875,-21,0,3668,197,29,4280,-4,0,0,0,77953,0
77978,-80,-2077,203,-79,37,115,14613,-2,-2,71,8,35497,-58,34,127,0,0,3875,-21,0,3668,197,29,4290,-4,0,0,0,77953,0
77988,-69,-2082,202,-74,34,123,14617,16,6,120,0,35494,-68,34,127,0,0,3875,-49,0,3668,197,29,4300,-4,0,0,0,77968,0
77998,-50,-2088,208,-66,46,132,14612,0,1,62,40,35497,-69,33,127,0,0,3874,5,0,3668,197,29,4310,-4,0,0,0,77984,0
78008,-22,-2087,214,-66,48,129,14615,12,6,122,32,35497,-45,33,127,0,0,3874,-43,0,3668,197,29,4320,-4,0,0,0,78000,0
78018,-57,-2092,224,-59,41,147,14614,7,1,83,32,35500,-43,34,127,0,0,3874,-10,0,3668,197,29,4330,-4,0,0,0,78000,0
78028,-58,-2085,228,-66,34,147,14614,7,3,98,8,35494,-41,33,127,0,0,3882,21,0,3668,197,29,4340,-4,0,0,0,78031,0
78038,-41,-2080,236,-76,42,158,14616,5,6,145,32,35495,-61,34,127,0,0,3878,16,0,3668,197,29,4350,-4,0,0,0,78031,0
78048,-77,-2075,237,-73,45,157,14614,0,4,150,32,35492,-58,34,127,0,0,3874,-32,0,3668,197,29,4360,-4,0,0,0,78031,0
78058,-74,-2086,237,-74,50,141,14614,-1,-2,107,32,35497,-61,34,127,0,0,3874,-16,0,3668,197,29,4370,-4,0,0,0,78047,0
78068,-46,-2084,247,-79,37,148,14614,0,3,102,56,35506,-69,34,127,0,0,3880,32,0,3668,197,29,4380,-4,0,0,0,78047,0
78078,-67,-2085,234,-85,38,150,14615,-3,11,155,32,35510,-83,33,127,0,0,3878,10,0,3668,197,29,4390,-4,0,0,0,78062,0
78088,-79,-2081,228,-88,40,142,14616,1,1,159,32,35513,-83,33,127,0,0,3878,-27,0,3668,197,29,4400,-4,0,0,0,78093,0
78098,-69,-2083,218,-83,34,136,14616,2,-4,154,72,35503,-67,34,127,0,0,3875,10,0,3668,197,29,4410,-4,0,0,0,78093,0
78108,-52,-2070,212,-86,38,139,14616,-4,3,140,56,35495,-74,33,127,0,0,3877,0,0,3668,197,29,4420,-4,0,0,0,78093,0
78118,-62,-2088,212,-84,39,124,14617,7,-5,193,24,35490,-84,33,127,0,0,3884,16,0,3668,197,29,4430,-4,0,0,0,78109,0
78128,-107,-2085,213,-87,37,134,14617,5,0,233,72,35498,-79,33,127,0,0,3875,-21,0,3668,197,29,4440,-4,0,0,0,78109,0
78138,-83,-2076,207,-85,32,134,14618,11,0,190,48,35500,-64,33,127,0,0,3880,-38,0,3668,197,29,4450,-4,0,0,0,78125,0
78149,-43,-2077,220,-80,39,133,14620,4,4,284,56,35506,-54,34,127,0,0,3884,32,0,3668,197,29,4461,-4,0,0,0,78172,0
78159,-64,-2082,224,-82,34,132,14620,1,3,282,104,35500,-74,34,127,0,0,3882,0,0,3668,197,29,4471,-4,0,0,0,78172,0
78169,-69,-2083,219,-72,38,145,14621,-3,-6,269,104,35498,-72,33,127,0,0,3884,10,0,3668,197,29,4481,-4,0,0,0,78172,0
78179,-58,-2064,216,-79,31,141,14622,3,2,318,56,35498,-55,33,127,0,0,3884,-10,0,3668,197,29,4491,-4,0,0,0,78172,0
78189,-78,-2047,212,-76,35,138,14622,1,2,317,88,35488,-39,34,127,0,0,3884,0,0,3668,197,29,4501,-4,0,0,0,78172,0
78199,-85,-2077,209,-80,35,136,14624,11,3,337,120,35490,-52,34,127,0,0,3884,-32,0,3668,197,29,4511,-4,0,0,0,78187,0
78209,-85,-2085,231,-77,38,128,14623,1,2,307,120,35500,-59,34,127,0,0,3884,0,0,3668,197,29,4521,-4,0,0,0,78218,0
78219,-62,-2083,234,-77,47,126,14625,7,6,353,104,35499,-64,33,127,0,0,3884,-21,0,3668,197,29,4531,-4,0,0,0,78218,0
78229,-67,-2092,239,-85,33,126,14628,0,5,354,96,35498,-58,33,127,0,0,3884,-21,0,3668,197,29,4541,-4,0,0,0,78218,0
78239,-75,-2091,230,-90,31,118,14629,-5,5,329,112,35483,-68,34,127,0,0,3886,10,0,3668,197,29,4551,-4,0,0,0,78234,0
78249,-66,-2088,220,-99,51,112,14632,9,4,373,88,35483,-83,33,127,0,0,3886,0,0,3668,197,29,4561,-4,0,0,0,78234,0
78259,-44,-2087,216,-95,37,114,14633,-2,2,323,88,35487,-81,33,127,0,0,3886,0,0,3668,197,29,4571,-4,0,0,0,78265,0
78269,-43,-2078,229,-97,42,135,14634,0,-8,326,48,35501,-79,34,127,0,0,3886,0,0,3668,197,29,4581,-4,0,0,0,78265,0
78279,-55,-2069,228,-91,39,135,14635,7,2,346,88,35499,-79,34,127,0,0,3889,0,0,3668,197,29,4591,-4,0,0,0,78265,0
78289,-51,-2068,212,-94,35,147,14639,15,7,328,80,35494,-91,34,127,0,0,3886,0,0,3668,197,29,4601,-4,0,0,0,78265,0
78299,-51,-2078,205,-92,35,149,14645,15,3,289,64,35486,-111,33,127,0,0,3886,0,0,3668,197,29,4611,-4,0,0,0,78297,0
78309,-52,-2074,211,-75,37,169,14657,24,7,199,80,35495,-100,33,127,0,0,3889,32,0,3668,197,29,4621,-4,0,0,0,78297,0
78319,-60,-2079,213,-79,19,180,14666,16,5,164,48,35497,-81,34,127,0,0,3889,21,0,3668,197,29,4631,-4,0,0,0,78312,0
78329,-64,-2074,218,-81,28,175,14668,4,-14,242,56,35491,-88,34,127,0,0,3891,21,0,3668,197,29,4641,-4,0,0,0,78312,0
78339,-74,-2081,221,-81,28,183,14672,0,-14,242,96,35484,-84,34,127,0,0,3891,10,0,3668,197,29,4651,-4,0,0,0,78343,0
78349,-69,-2078,208,-76,35,175,14674,-3,0,283,80,35480,-71,33,127,0,0,3893,0,0,3668,197,29,4661,-4,0,0,0,78343,0
78359,-77,-2078,212,-75,24,176,14676,4,-4,338,64,35482,-57,33,127,0,0,3897,21,0,3668,197,29,4671,-4,0,0,0,78343,0
78369,-106,-2082,224,-73,26,161,14682,19,7,423,136,35485,-54,34,127,0,0,3897,-10,0,3668,197,29,4681,-4,0,0,0,78343,0
78379,-88,-2084,232,-74,23,154,14688,1,7,398,80,35494,-70,33,127,0,0,3900,10,0,3668,197,29,4691,-4,0,0,0,78379,0
78389,-90,-2081,226,-79,25,149,14690,5,-3,403,136,35498,-74,33,127,0,0,3902,32,0,3668,197,29,4701,-4,0,0,0,78383,0
78399,-108,-2082,222,-82,33,131,14693,7,-7,456,136,35497,-72,33,127,0,0,3902,21,0,3668,197,29,4711,-4,0,0,0,78383,0
78410,-76,-2080,237,-91,27,115,14700,15,8,416,120,35486,-80,34,127,0,0,3902,32,0,3668,197,29,4722,-4,0,0,0,78383,0
78420,-105,-2084,239,-94,27,116,14707,16,7,408,80,35484,-85,34,127,0,0,3903,-5,0,3668,197,29,4732,-4,0,0,0,78414,0
78430,-85,-2073,230,-97,27,105,14715,10,2,321,88,35490,-84,34,127,0,0,3899,10,0,3668,197,29,4742,-4,0,0,0,78414,0
78440,-61,-2079,220,-98,17,92,14727,25,12,268,64,35490,-75,33,127,0,0,3902,-10,0,3668,197,29,4752,-4,0,0,0,78414,0
78450,-69,-2073,212,-107,20,90,14730,-6,-10,221,32,35494,-67,33,127,0,0,3900,-10,0,3668,197,29,4762,-4,0,0,0,78445,0
78460,-75,-2077,219,-99,28,84,14731,7,-23,203,56,35494,-68,34,127,0,0,3899,-38,0,3668,197,29,4772,-4,0,0,0,78445,0
78470,-83,-2075,221,-103,25,89,14730,7,-2,227,32,35495,-79,33,127,0,0,3900,-49,0,3668,197,29,4782,-4,0,0,0,78445,0
78480,-74,-2081,219,-100,31,84,14730,0,-1,175,40,35492,-64,33,127,0,0,3900,0,0,3668,197,29,4792,-4,0,0,0,78477,0
78490,-61,-2075,204,-99,29,87,14729,-1,0,167,40,35483,-60,33,127,0,0,3893,-65,0,3668,197,29,4802,-4,0,0,0,78477,0
78500,-42,-2065,207,-98,31,90,14727,6,-2,95,24,35479,-58,33,127,0,0,3897,-43,0,3668,197,29,4812,-4,0,0,0,78477,0
78510,-57,-2082,204,-87,36,100,14724,-12,-13,24,0,35485,-64,33,127,0,0,3895,-16,0,3668,197,29,4822,-4,0,0,0,78586,0
78520,-59,-2087,215,-82,39,108,14723,-5,1,-4,0,35491,-84,33,127,0,0,3895,0,0,3668,197,29,4832,-4,0,0,0,78586,0
78530,-56,-2081,219,-83,29,116,14723,0,5,-25,-24,35490,-78,34,127,0,0,3896,16,0,3668,197,29,4842,-4,0,0,0,78602,0
78540,-66,-2078,217,-81,31,118,14725,18,5,71,-24,35489,-78,34,127,0,0,3896,-38,0,3668,197,29,4852,-4,0,0,0,78602,0
78550,-99,-2066,218,-77,39,129,14721,-5,-6,25,32,35484,-81,34,127,0,0,3894,5,0,3668,197,29,4862,-4,0,0,0,78602,0
78560,-49,-2066,218,-76,33,130,14722,-10,-2,10,0,35475,-71,33,127,0,0,3899,32,0,3668,197,29,4872,-4,0,0,0,78617,0
78570,-55,-2081,216,-76,35,132,14723,-9,7,51,24,35474,-69,33,127,0,0,3897,43,0,3668,197,29,4882,-4,0,0,0,78617,0
78580,-47,-2085,214,-75,29,133,14723,-2,-2,35,24,35473,-68,33,127,0,0,3894,16,0,3668,197,29,4892,-4,0,0,0,78617,0
78590,-64,-2090,213,-74,36,123,14722,0,0,44,0,35477,-86,33,127,0,0,3892,-49,0,3668,197,29,4902,-4,0,0,0,78617,0
78600,-80,-2085,214,-68,37,126,14722,-3,-2,4,8,35477,-70,33,127,0,0,3895,-10,0,3668,197,29,4912,-4,0,0,0,78617,0
78610,-66,-2080,221,-71,33,131,14722,-6,-5,13,8,35483,-64,34,127,0,0,3895,0,0,3668,197,29,4922,-4,0,0,0,78617,0
78620,-67,-2082,224,-68,40,128,14723,0,2,18,8,35482,-44,33,127,0,0,3899,32,0,3668,197,29,4932,-4,0,0,0,78617,0
78631,-65,-2092,229,-73,45,131,14723,-1,1,70,-8,35491,-56,33,127,0,0,3900,32,0,3668,197,29,4943,-4,0,0,0,78617,0
78641,-57,-2072,219,-74,39,138,14727,18,2,135,8,35508,-62,34,127,0,0,3897,0,0,3668,197,29,4953,-4,0,0,0,78633,0
78651,-60,-2073,221,-72,40,130,14727,5,1,173,8,35530,-67,34,127,0,0,3897,-54,0,3668,197,29,4963,-4,0,0,0,78633,0
78661,-81,-2069,220,-74,40,138,14726,9,-7,129,-24,35534,-73,33,127,0,0,3895,-32,0,3668,197,29,4973,-4,0,0,0,78664,0
78671,-80,-2076,227,-68,41,133,14725,-3,0,91,24,35523,-83,34,127,0,0,3897,10,0,3668,197,29,4983,-4,0,0,0,78664,0
78681,-78,-2086,224,-67,39,134,14725,-11,11,97,32,35506,-84,33,127,0,0,3900,21,0,3668,197,29,4993,-4,0,0,0,78664,0
78691,-73,-2076,218,-73,39,136,14730,19,11,178,40,35504,-78,34,127,0,0,3897,-21,0,3668,197,29,5003,-4,0,0,0,78664,0
78701,-79,-2093,215,-67,41,128,14725,0,-11,121,8,35504,-87,34,127,0,0,3900,10,0,3668,197,29,5013,-4,0,0,0,78711,0
78711,-89,-2088,217,-67,47,126,14727,0,-5,115,16,35509,-92,34,127,0,0,3902,32,0,3668,197,29,5023,-4,0,0,0,78711,0
78721,-43,-2086,232,-68,31,122,14730,13,17,221,24,35507,-115,33,127,0,0,3900,-10,0,3668,197,29,5033,-4,0,0,0,78711,0
78731,-91,-2076,225,-72,36,124,14728,-8,0,175,40,35503,-96,33,127,0,0,3902,21,0,3668,197,29,5043,-4,0,0,0,78727,0
78741,-83,-2071,220,-73,35,110,14729,-6,-5,183,72,35497,-75,34,127,0,0,3900,0,0,3668,197,29,5053,-4,0,0,0,78727,0
78751,-66,-2067,222,-79,41,101,14729,4,0,191,24,35514,-73,34,127,0,0,3902,10,0,3668,197,29,5063,-4,0,0,0,78758,0
78761,-74,-2062,223,-78,38,100,14728,-7,-2,157,0,35512,-80,33,127,0,0,3900,10,0,3668,197,29,5073,-4,0,0,0,78758,0
78771,-96,-2064,236,-83,40,102,14727,1,-2,113,40,35514,-74,33,127,0,0,3900,54,0,3668,197,29,5083,-4,0,0,0,78758,0
78781,-65,-2067,223,-77,28,84,14729,-7,7,174,40,35502,-63,33,127,0,0,3895,-32,0,3668,197,29,5093,-4,0,0,0,78758,0
78791,-24,-2064,224,-79,32,83,14726,-20,-7,88,88,35506,-66,34,127,0,0,3900,21,0,3668,197,29,5103,-4,0,0,0,78773,0
78801,-68,-2083,224,-78,27,83,14727,-3,-2,106,-32,35509,-71,33,127,0,0,3897,-10,0,3668,197,29,5113,-4,0,0,0,78805,0
78811,-82,-2079,220,-76,37,85,14727,6,1,124,40,35509,-90,33,127,0,0,3900,21,0,3668,197,29,5123,-4,0,0,0,78805,0
78821,-67,-2087,217,-84,36,92,14727,-11,-5,108,-40,35502,-86,34,127,0,0,3893,-65,0,3668,197,29,5133,-4,0,0,0,78805,0
78831,-71,-2082,215,-77,40,91,14721,0,-17,19,8,35494,-83,33,127,0,0,3893,-32,0,3668,197,29,5143,-4,0,0,0,78805,0
78841,-60,-2083,219,-70,39,90,14721,-2,6,-21,-32,35509,-76,34,127,0,0,3893,-21,0,3668,197,29,5153,-4,0,0,0,78836,0
78851,-59,-2096,213,-73,40,93,14718,-6,0,-55,-8,35506,-74,33,127,0,0,3893,-10,0,3668,197,29,5163,-4,0,0,0,78836,0
78861,-52,-2082,220,-67,33,99,14718,-1,-1,-51,-24,35510,-73,33,127,0,0,3891,-10,0,3668,197,29,5173,-4,0,0,0,78836,0
78871,-37,-2082,225,-68,37,105,14717,-8,-3,-43,-56,35512,-69,34,127,0,0,3891,-43,0,3668,197,29,5183,-4,0,0,0,78852,0
78882,-74,-2084,222,-64,36,124,14716,-6,-2,-74,-32,35522,-89,34,127,0,0,3891,-32,0,3668,197,29,5194,-4,0,0,0,78883,0
78892,-53,-2083,224,-69,38,126,14716,6,8,-66,-32,35521,-83,34,127,0,0,3894,16,0,3668,197,29,5204,-4,0,0,0,78883,0
78902,-48,-2082,229,-70,42,142,14717,7,10,-23,-8,35516,-70,34,127,0,0,3893,5,0,3668,197,29,5214,-4,0,0,0,78898,0
78912,-67,-2083,230,-69,38,139,14718,6,-2,-5,-8,35503,-59,33,127,0,0,3890,-32,0,3668,197,29,5224,-4,0,0,0,78914,0
78922,-68,-2083,228,-71,40,138,14716,-3,-4,-63,-8,35500,-67,34,127,0,0,3893,21,0,3668,197,29,5234,-4,0,0,0,78914,0
78932,-68,-2083,227,-78,33,149,14716,-4,0,-32,-8,35498,-76,34,127,0,0,3893,27,0,3668,197,29,5244,-4,0,0,0,78914,0
78942,-64,-2075,226,-69,39,150,14716,-6,1,-50,-32,35505,-79,34,127,0,0,3891,-16,0,3668,197,29,5254,-4,0,0,0,78930,0
78952,-60,-2067,220,-68,40,152,14715,0,-1,-68,-8,35506,-69,34,127,0,0,3893,21,0,3668,197,29,5264,-4,0,0,0,78977,0
78962,-64,-2068,225,-67,41,155,14715,-3,1,-6,-8,35504,-66,34,127,0,0,3893,0,0,3668,197,29,5274,-4,0,0,0,78977,0
78972,-74,-2073,235,-74,38,157,14715,-9,0,-2,-8,35499,-67,33,127,0,0,3893,0,0,3668,197,29,5284,-4,0,0,0,78977,0
78982,-91,-2074,232,-75,39,147,14717,7,-5,-1,-8,35494,-56,33,127,0,0,3893,0,0,3668,197,29,5294,-4,0,0,0,78977,0
78992,-90,-2081,230,-74,41,148,14717,3,-1,8,-8,35494,-61,34,127,0,0,3893,-5,0,3668,197,29,5304,-4,0,0,0,78977,0
79002,-104,-2078,227,-75,34,137,14716,0,1,8,-8,35494,-64,33,127,0,0,3896,5,0,3668,197,29,5314,-4,0,0,0,78977,0
79012,-101,-2078,225,-79,31,133,14718,0,1,26,-8,35495,-73,34,127,0,0,3893,-32,0,3668,197,29,5324,-4,0,0,0,79008,0
79022,-73,-2077,233,-75,38,119,14717,1,-4,-19,-8,35495,-71,34,127,0,0,3890,-10,0,3668,197,29,5334,-4,0,0,0,79008,0
79032,-65,-2075,236,-81,40,108,14715,0,-1,-61,-8,35499,-77,34,127,0,0,3893,21,0,3668,197,29,5344,-4,0,0,0,79023,0
79042,-73,-2087,241,-88,37,108,14716,0,3,-53,-32,35510,-92,34,127,0,0,3891,-5,0,3668,197,29,5354,-4,0,0,0,79023,0
79052,-88,-2085,235,-92,34,104,14716,-2,1,-33,-32,35523,-101,33,127,0,0,3891,-49,0,3668,197,29,5364,-4,0,0,0,79055,0
79062,-88,-2084,219,-86,38,102,14715,-6,-8,-66,-8,35530,-92,33,127,0,0,3890,0,0,3668,197,29,5374,-4,0,0,0,79055,0
79072,-52,-2092,224,-90,38,94,14713,-12,-5,-92,-24,35520,-82,34,127,0,0,3891,0,0,3668,197,29,5384,-4,0,0,0,79055,0
79082,-59,-2085,230,-91,31,100,14715,5,4,-69,-8,35497,-68,33,127,0,0,3890,-10,0,3668,197,29,5394,-4,0,0,0,79055,0
79092,-54,-2091,236,-96,36,103,14715,0,-5,-76,-32,35498,-71,33,127,0,0,3894,27,0,3668,197,29,5404,-4,0,0,0,79086,0
79102,-55,-2078,230,-94,38,100,14714,0,-6,-56,-24,35498,-80,33,127,0,0,3891,5,0,3668,197,29,5414,-4,0,0,0,79086,0
79112,-63,-2084,226,-93,36,102,14715,2,-7,-76,-32,35500,-81,33,127,0,0,3891,-5,0,3668,197,29,5424,-4,0,0,0,79102,0
79122,-75,-2074,228,-86,35,103,14714,-1,-1,-84,-24,35506,-75,34,127,0,0,3888,-32,0,3668,197,29,5434,-4,0,0,0,79102,0
79133,-80,-2072,223,-91,33,105,14713,4,3,-93,-56,35515,-82,34,127,0,0,3891,0,0,3668,197,29,5445,-4,0,0,0,79117,0
79143,-82,-2066,224,-91,32,113,14711,-9,3,-91,-24,35518,-85,33,127,0,0,3889,0,0,3668,197,29,5455,-4,0,0,0,79148,0
79153,-82,-2083,223,-85,37,98,14711,-7,1,-84,-24,35505,-83,33,127,0,0,3889,-43,0,3668,197,29,5465,-4,0,0,0,79148,0
79163,-77,-2084,226,-90,42,99,14705,-20,-10,-165,-24,35497,-81,33,127,0,0,3891,32,0,3668,197,29,5475,-4,0,0,0,79148,0
79173,-70,-2069,218,-85,35,100,14699,-2,-10,-66,-40,35500,-88,34,127,0,0,3889,10,0,3668,197,29,5485,-4,0,0,0,79148,0
79183,-90,-2069,226,-82,40,99,14689,-18,0,-19,-32,35514,-102,34,127,0,0,3886,-10,0,3668,197,29,5495,-4,0,0,0,79211,0
79193,-70,-2080,225,-81,36,84,14684,0,-1,12,8,35516,-107,33,127,0,0,3886,-10,0,3668,197,29,5505,-4,0,0,0,79211,0
79203,-61,-2071,230,-83,43,87,14683,-4,16,-17,-24,35514,-89,33,127,0,0,3886,-10,0,3668,197,29,5515,-4,0,0,0,79211,0
79213,-72,-2087,226,-88,43,95,14684,1,7,-35,-16,35495,-88,34,127,0,0,3886,0,0,3668,197,29,5525,-4,0,0,0,79211,0
79223,-65,-2086,224,-87,36,88,14683,1,2,-46,-48,35491,-103,33,127,0,0,3886,0,0,3668,197,29,5535,-4,0,0,0,79211,0
79233,-56,-2081,234,-90,33,86,14681,-4,2,-27,-8,35493,-121,33,127,0,0,3884,0,0,3668,197,29,5545,-4,0,0,0,79227,0
79243,-57,-2085,226,-89,36,90,14678,-17,-1,-89,-24,35498,-121,34,127,0,0,3882,-21,0,3668,197,29,5555,-4,0,0,0,79227,0
79253,-81,-2084,227,-90,34,75,14676,0,-11,-91,-56,35491,-95,33,127,0,0,3882,-21,0,3668,197,29,5565,-4,0,0,0,79242,0
79263,-62,-2086,226,-86,41,79,14674,-3,3,-156,-40,35500,-110,33,127,0,0,3882,0,0,3668,197,29,5575,-4,0,0,0,79258,0
79273,-60,-2080,223,-87,36,79,14669,-5,1,-166,-72,35501,-93,33,127,0,0,3882,21,0,3668,197,29,5585,-4,0,0,0,79273,0
79283,-55,-2076,222,-86,37,90,14667,-17,7,-189,-56,35504,-100,33,127,0,0,3880,10,0,3668,197,29,5595,-4,0,0,0,79273,0
79293,-57,-2075,229,-81,34,78,14666,-3,0,-228,-80,35497,-90,34,127,0,0,3878,0,0,3668,197,29,5605,-4,0,0,0,79273,0
79303,-57,-2079,222,-84,25,82,14666,-1,-3,-252,-64,35480,-83,33,127,0,0,3875,-21,0,3668,197,29,5615,-4,0,0,0,79289,0
79313,-64,-2081,220,-87,32,77,14662,-13,-3,-307,-88,35482,-80,34,127,0,0,3875,0,0,3668,197,29,5625,-4,0,0,0,79320,0
79323,-62,-2078,216,-89,29,82,14658,-11,-6,-313,-80,35489,-77,33,127,0,0,3875,21,0,3668,197,29,5635,-4,0,0,0,79320,0
79333,-50,-2073,219,-79,32,77,14657,-7,0,-277,-80,35494,-85,33,127,0,0,3871,-21,0,3668,197,29,5645,-4,0,0,0,79336,0
79343,-25,-2071,230,-81,24,85,14654,-31,-2,-352,-96,35496,-92,34,127,0,0,3871,0,0,3668,197,29,5655,-4,0,0,0,79336,0
79353,-55,-2081,231,-81,37,84,14641,-27,-26,-277,-80,35498,-101,34,127,0,0,3871,-43,0,3668,197,29,5665,-4,0,0,0,79336,0
79363,-47,-2082,240,-82,29,92,14619,-69,-36,-220,-16,35499,-94,33,127,0,0,3871,0,0,3668,197,29,5675,-4,0,0,0,79352,0
79373,-76,-2082,228,-85,38,84,14605,0,-17,-52,-16,35500,-96,33,127,0,0,3871,0,0,3668,197,29,5685,-4,0,0,0,79352,0
79384,-37,-2077,231,-89,29,94,14604,-23,50,-101,-40,35503,-99,33,127,0,0,3869,5,0,3668,197,29,5696,-4,0,0,0,79367,0
79394,-79,-2083,219,-89,34,92,14606,7,18,-107,-48,35507,-114,34,127,0,0,3869,-43,0,3668,197,29,5706,-4,0,0,0,79398,0
79404,-77,-2073,213,-86,44,75,14604,-3,-3,-137,-40,35503,-92,33,127,0,0,3869,-27,0,3668,197,29,5716,-4,0,0,0,79398,0
79414,-71,-2078,223,-80,33,79,14604,3,4,-169,-64,35501,-82,33,127,0,0,3867,-38,0,3668,197,29,5726,-4,0,0,0,79398,0
79424,-54,-2078,224,-78,43,77,14601,-6,-2,-206,-56,35493,-56,33,127,0,0,3867,-16,0,3668,197,29,5736,-4,0,0,0,79398,0
79434,-63,-2078,222,-83,32,85,14601,6,4,-230,-64,35493,-58,34,127,0,0,3863,-32,0,3668,197,29,5746,-4,0,0,0,79430,0
79444,-49,-2082,221,-83,34,83,14599,-6,-3,-283,-56,35498,-65,34,127,0,0,3860,-43,0,3668,197,29,5756,-4,0,0,0,79445,0
79454,-68,-2085,230,-77,40,76,14597,0,1,-293,-96,35498,-46,33,127,0,0,3866,-43,0,3668,197,29,5766,-4,0,0,0,79445,0
79464,-59,-2075,228,-78,31,77,14593,-10,4,-324,-88,35496,-53,34,127,0,0,3859,-21,0,3668,197,29,5776,-4,0,0,0,79445,0
79474,-59,-2088,228,-82,33,80,14590,-7,-8,-364,-104,35493,-50,33,127,0,0,3860,-43,0,3668,197,29,5786,-4,0,0,0,79476,0
79484,-66,-2076,231,-82,36,79,14587,-5,-3,-368,-104,35496,-62,33,127,0,0,3860,-5,0,3668,197,29,5796,-4,0,0,0,79476,0
79494,-58,-2082,225,-86,35,82,14586,-7,8,-405,-96,35494,-37,33,127,0,0,3860,5,0,3668,197,29,5806,-4,0,0,0,79476,0
79504,-49,-2083,221,-82,41,86,14583,0,-2,-385,-88,35496,-29,33,127,0,0,3857,16,0,3668,197,29,5816,-4,0,0,0,79508,0
79514,-42,-2082,229,-80,35,85,14580,-1,-1,-407,-112,35486,-27,33,127,0,0,3858,5,0,3668,197,29,5826,-4,0,0,0,79508,0
79524,-56,-2081,232,-79,28,88,14575,-10,-4,-376,-152,35483,-58,33,127,0,0,3860,-10,0,3668,197,29,5836,-4,0,0,0,79508,0
79534,-57,-2078,231,-90,41,98,14561,-32,-22,-322,-120,35489,-74,33,127,0,0,3854,-54,0,3668,197,29,5846,-4,0,0,0,79508,0
79544,-44,-2084,224,-85,35,92,14539,-38,-33,-190,-56,35499,-59,34,127,0,0,3852,-71,0,3668,197,29,5856,-4,0,0,0,79539,0
79554,-59,-2083,219,-85,33,101,14542,18,39,-190,-80,35499,-52,33,127,0,0,3854,-87,0,3668,197,29,5866,-4,0,0,0,79539,0
79564,-66,-2085,226,-83,34,108,14537,0,42,-246,-72,35496,-47,33,127,0,0,3854,0,0,3668,197,29,5876,-4,0,0,0,79555,0
79574,-52,-2081,215,-78,32,105,14537,-2,-4,-257,-72,35493,-55,33,127,0,0,3854,0,0,3668,197,29,5886,-4,0,0,0,79555,0
79584,-48,-2081,216,-79,35,109,14537,0,8,-245,-72,35496,-57,33,127,0,0,3854,-16,0,3668,197,29,5896,-4,0,0,0,79570,0
79594,-49,-2069,221,-70,39,111,14537,6,2,-255,-72,35495,-57,33,127,0,0,3854,0,0,3668,197,29,5906,-4,0,0,0,79570,0
79604,-48,-2078,229,-75,35,107,14537,3,2,-259,-96,35502,-71,34,127,0,0,3855,-5,0,3668,197,29,5916,-4,0,0,0,79664,0
79614,-48,-2077,233,-79,33,116,14537,3,-3,-302,-72,35504,-72,33,127,0,0,3854,49,0,3668,197,29,5926,-4,0,0,0,79664,0
79624,-35,-2076,240,-80,32,117,14537,6,-2,-276,-72,35503,-53,33,127,0,0,3854,27,0,3668,197,29,5936,-4,0,0,0,79664,0
79634,-59,-2084,233,-81,39,113,14537,3,7,-271,-96,35502,-61,34,127,0,0,3855,0,0,3668,197,29,5946,-4,0,0,0,79664,0
79644,-71,-2077,232,-85,39,117,14536,1,-3,-278,-88,35492,-56,33,127,0,0,3855,10,0,3668,197,29,5956,-4,0,0,0,79680,0
79654,-47,-2078,217,-87,36,121,14534,-6,4,-255,-72,35495,-70,34,127,0,0,3854,0,0,3668,197,29,5966,-4,0,0,0,79680,0
79664,-48,-2078,219,-75,34,123,14537,0,-2,-238,-48,35495,-55,33,127,0,0,3849,-54,0,3668,197,29,5976,-4,0,0,0,79680,0
79674,-58,-2079,224,-79,32,114,14535,0,-1,-270,-72,35485,-46,33,127,0,0,3850,-43,0,3668,197,29,5986,-4,0,0,0,79680,0
79684,-51,-2077,235,-79,37,113,14535,-2,-5,-294,-64,35487,-44,34,127,0,0,3850,-27,0,3668,197,29,5996,-4,0,0,0,79680,0
79695,-61,-2082,220,-81,28,115,14536,3,-1,-293,-104,35493,-61,33,127,0,0,3854,21,0,3668,197,29,6007,-4,0,0,0,79680,0
79705,-45,-2078,224,-77,31,115,14535,-1,8,-252,-104,35496,-55,33,127,0,0,3851,-32,0,3668,197,29,6017,-4,0,0,0,79680,0
79715,-64,-2073,226,-77,38,121,14534,-3,0,-313,-88,35509,-57,34,127,0,0,3851,0,0,3668,197,29,6027,-4,0,0,0,79711,0
79725,-53,-2078,232,-75,41,113,14536,5,-5,-320,-88,35513,-58,34,127,0,0,3851,-10,0,3668,197,29,6037,-4,0,0,0,79711,0
79735,-72,-2082,227,-74,40,111,14535,7,2,-296,-56,35515,-68,33,127,0,0,3851,-10,0,3668,197,29,6047,-4,0,0,0,79726,0
79745,-49,-2074,223,-72,38,111,14535,8,4,-264,-64,35505,-76,33,127,0,0,3854,0,0,3668,197,29,6057,-4,0,0,0,79726,0
79755,-60,-2087,210,-66,35,113,14533,-3,0,-278,-48,35508,-68,33,127,0,0,3851,10,0,3668,197,29,6067,-4,0,0,0,79758,0
79765,-44,-2078,214,-61,40,108,14533,-3,0,-307,-56,35504,-45,33,127,0,0,3851,0,0,3668,197,29,6077,-4,0,0,0,79758,0
79775,-27,-2078,223,-66,29,108,14534,6,0,-292,-64,35498,-53,34,127,0,0,3851,0,0,3668,197,29,6087,-4,0,0,0,79758,0
79785,-47,-2077,237,-63,34,119,14533,-7,-4,-300,-48,35496,-55,34,127,0,0,3854,21,0,3668,197,29,6097,-4,0,0,0,79789,0
79795,-45,-2077,223,-60,37,121,14533,-2,-4,-292,-88,35495,-62,33,127,0,0,3849,-21,0,3668,197,29,6107,-4,0,0,0,79789,0
79805,-54,-2069,228,-65,35,124,14531,-7,-4,-346,-72,35495,-58,33,127,0,0,3851,10,0,3668,197,29,6117,-4,0,0,0,79789,0
79815,-38,-2077,230,-65,29,122,14532,-3,1,-343,-104,35494,-60,33,127,0,0,3849,-10,0,3668,197,29,6127,-4,0,0,0,79789,0
79825,-41,-2089,233,-66,31,126,14531,-3,1,-333,-80,35510,-66,34,127,0,0,3851,10,0,3668,197,29,6137,-4,0,0,0,79851,0
79835,-68,-2089,240,-62,43,121,14531,3,3,-301,-80,35512,-64,33,127,0,0,3851,0,0,3668,197,29,6147,-4,0,0,0,79851,0
79845,-42,-2084,214,-62,36,130,14532,-1,-1,-319,-80,35511,-57,33,127,0,0,3851,21,0,3668,197,29,6157,-4,0,0,0,79867,0
79855,-34,-2084,214,-58,34,135,14531,-1,-1,-319,-80,35501,-53,34,127,0,0,3851,21,0,3668,197,29,6167,-4,0,0,0,79867,0
79865,-49,-2081,220,-51,43,138,14531,-3,0,-308,-80,35497,-54,34,127,0,0,3851,0,0,3668,197,29,6177,-4,0,0,0,79867,0
79875,-44,-2073,230,-50,47,140,14530,-7,-3,-293,-80,35500,-54,33,127,0,0,3851,0,0,3668,197,29,6187,-4,0,0,0,79867,0
79886,-73,-2093,247,-52,44,145,14531,1,2,-290,-80,35497,-63,34,127,0,0,3851,-27,0,3668,197,29,6198,-4,0,0,0,79867,0
79896,-68,-2095,249,-55,46,145,14532,4,2,-306,-80,35506,-81,33,127,0,0,3851,0,0,3668,197,29,6208,-4,0,0,0,79867,0
79906,-56,-2086,244,-58,44,141,14531,2,-4,-335,-80,35520,-84,34,127,0,0,3848,-10,0,3668,197,29,6218,-4,0,0,0,79898,0
79916,-45,-2084,235,-60,45,139,14530,-6,1,-339,-104,35526,-84,33,127,0,0,3852,0,0,3668,197,29,6228,-4,0,0,0,79898,0
79926,-59,-2084,236,-63,41,134,14531,0,0,-296,-80,35516,-58,33,127,0,0,3851,5,0,3668,197,29,6238,-4,0,0,0,79898,0
79936,-62,-2083,234,-60,42,138,14531,-4,-4,-327,-80,35505,-32,34,127,0,0,3851,43,0,3668,197,29,6248,-4,0,0,0,79914,0
79946,-72,-2078,228,-56,39,130,14531,-2,-2,-305,-104,35497,-39,33,127,0,0,3852,10,0,3668,197,29,6258,-4,0,0,0,79929,0
79956,-53,-2077,229,-60,41,131,14530,-6,2,-343,-80,35495,-50,34,127,0,0,3851,49,0,3668,197,29,6268,-4,0,0,0,79945,0
79966,-28,-2080,236,-60,52,126,14531,-1,1,-306,-80,35498,-50,33,127,0,0,3848,-27,0,3668,197,29,6278,-4,0,0,0,79945,0
79976,-51,-2070,232,-57,44,129,14531,5,-3,-320,-80,35494,-52,34,127,0,0,3855,43,0,3668,197,29,6288,-4,0,0,0,80023,0
79986,-53,-2068,240,-65,44,128,14531,-5,-5,-294,-80,35498,-42,34,127,0,0,3851,38,0,3668,197,29,6298,-4,0,0,0,80039,0
79996,-38,-2075,242,-64,42,123,14531,1,-2,-283,-80,35500,-74,34,127,0,0,3848,-32,0,3668,197,29,6308,-4,0,0,0,80039,0
80006,-59,-2063,240,-65,42,125,14530,-2,-3,-349,-80,35498,-57,33,127,0,0,3851,32,0,3668,197,29,6318,-4,0,0,0,80039,0
80016,-44,-2070,238,-68,47,129,14531,-5,-4,-311,-56,35495,-56,33,127,0,0,3850,10,0,3668,197,29,6328,-4,0,0,0,80039,0
80026,-25,-2067,237,-70,40,119,14529,-13,2,-313,-80,35495,-45,34,127,0,0,3848,-5,0,3668,197,29,6338,-4,0,0,0,80039,0
80036,-31,-2078,225,-74,43,120,14530,-11,-8,-316,-104,35492,-64,33,127,0,0,3852,-16,0,3668,197,29,6348,-4,0,0,0,80039,0
80046,-52,-2070,237,-72,34,132,14530,1,-2,-298,-80,35493,-58,33,127,0,0,3851,27,0,3668,197,29,6358,-4,0,0,0,80039,0
80056,-57,-2077,240,-71,40,124,14532,10,1,-296,-104,35496,-60,34,127,0,0,3849,-32,0,3668,197,29,6368,-4,0,0,0,80039,0
80066,-52,-2077,247,-77,38,129,14531,9,-3,-300,-80,35498,-45,33,127,0,0,3851,-10,0,3668,197,29,6378,-4,0,0,0,80054,0
80076,-59,-2070,246,-81,36,126,14529,-7,-1,-300,-80,35497,-46,34,127,0,0,3855,60,0,3668,197,29,6388,-4,0,0,0,80054,0
80086,-60,-2086,232,-80,40,123,14529,-10,3,-291,-80,35501,-53,34,127,0,0,3851,27,0,3668,197,29,6398,-4,0,0,0,80070,0
80096,-49,-2083,233,-76,44,121,14531,2,1,-290,-104,35506,-48,34,127,0,0,3852,-5,0,3668,197,29,6408,-4,0,0,0,80101,0
80106,-69,-2079,236,-76,31,123,14531,8,0,-266,-104,35511,-32,34,127,0,0,3852,-5,0,3668,197,29,6418,-4,0,0,0,80101,0
80116,-80,-2088,239,-75,30,116,14530,0,-1,-314,-80,35497,-32,34,127,0,0,3848,-10,0,3668,197,29,6428,-4,0,0,0,80101,0
80126,-44,-2081,236,-83,34,103,14531,9,0,-328,-104,35494,-44,34,127,0,0,3852,0,0,3668,197,29,6438,-4,0,0,0,80101,0
80137,-41,-2068,240,-79,35,101,14528,-4,6,-358,-64,35496,-58,33,127,0,0,3849,0,0,3668,197,29,6449,-4,0,0,0,80133,0
80147,-46,-2083,243,-81,32,95,14531,12,1,-305,-80,35502,-80,33,127,0,0,3851,0,0,3668,197,29,6459,-4,0,0,0,80133,0
80157,-68,-2072,243,-84,30,103,14530,-1,0,-287,-112,35506,-67,34,127,0,0,3851,-10,0,3668,197,29,6469,-4,0,0,0,80148,0
80167,-85,-2074,243,-83,35,104,14530,3,-1,-344,-104,35503,-76,33,127,0,0,3849,0,0,3668,197,29,6479,-4,0,0,0,80148,0
80177,-56,-2087,237,-85,32,87,14528,-6,-1,-381,-96,35503,-64,33,127,0,0,3849,0,0,3668,197,29,6489,-4,0,0,0,80164,0
80187,-62,-2087,236,-83,41,76,14530,5,4,-381,-104,35513,-68,34,127,0,0,3849,0,0,3668,197,29,6499,-4,0,0,0,80164,0
80197,-64,-2080,230,-83,52,64,14529,-1,1,-379,-104,35519,-79,33,127,0,0,3845,-43,0,3668,197,29,6509,-4,0,0,0,80195,0
80207,-48,-2082,239,-79,46,68,14525,-16,-6,-459,-144,35517,-87,34,127,0,0,3845,0,0,3668,197,29,6519,-4,0,0,0,80195,0
80217,-47,-2085,240,-78,37,68,14520,-6,-6,-413,-128,35505,-77,33,127,0,0,3845,0,0,3668,197,29,6529,-4,0,0,0,80195,0
80227,-46,-2077,235,-78,34,72,14519,-8,5,-453,-152,35500,-82,33,127,0,0,3843,0,0,3668,197,29,6539,-4,0,0,0,80226,0
80237,-39,-2080,242,-77,32,78,14513,-21,-6,-487,-160,35499,-41,33,127,0,0,3840,0,0,3668,197,29,6549,-4,0,0,0,80226,0
80247,-42,-2077,233,-76,44,87,14491,-53,-36,-371,-120,35508,-43,34,127,0,0,3838,-54,0,3668,197,29,6559,-4,0,0,0,80226,0
80257,-52,-2073,229,-68,38,80,14457,-70,-57,-225,-40,35510,-63,34,127,0,0,3838,0,0,3668,197,29,6569,-4,0,0,0,80258,0
80267,-34,-2073,224,-68,39,93,14451,6,30,-243,-88,35503,-88,33,127,0,0,3836,-21,0,3668,197,29,6579,-4,0,0,0,80258,0
80277,-37,-2069,240,-71,23,104,14446,-14,70,-276,-80,35502,-99,34,127,0,0,3836,0,0,3668,197,29,6589,-4,0,0,0,80258,0
80287,-41,-2072,233,-65,24,111,14447,-6,1,-292,-80,35507,-89,33,127,0,0,3834,0,0,3668,197,29,6599,-4,0,0,0,80273,0
80297,-39,-2086,230,-60,44,112,14445,-1,2,-262,-72,35509,-85,34,127,0,0,3836,0,0,3668,197,29,6609,-4,0,0,0,80289,0
80307,-33,-2073,231,-57,30,119,14442,-1,-4,-242,-64,35508,-78,33,127,0,0,3834,-21,0,3668,197,29,6619,-4,0,0,0,80289,0
80317,-31,-2078,240,-59,33,132,14437,-13,-4,-232,-64,35500,-90,33,127,0,0,3836,0,0,3668,197,29,6629,-4,0,0,0,80336,0
80327,-45,-2084,240,-54,33,138,14431,-16,-10,-179,-48,35491,-85,34,127,0,0,3834,-21,0,3668,197,29,6639,-4,0,0,0,80382,0
80337,-52,-2080,240,-53,38,141,14418,-41,-15,-168,-48,35491,-93,33,127,0,0,3836,32,0,3668,197,29,6649,-4,0,0,0,80382,0
80347,-62,-2080,245,-59,43,145,14413,3,2,-37,-32,35496,-79,33,127,0,0,3836,10,0,3668,197,29,6659,-4,0,0,0,80382,0
80357,-30,-2083,251,-60,35,135,14413,4,32,-6,-8,35503,-78,34,127,0,0,3834,-21,0,3668,197,29,6669,-4,0,0,0,80382,0
80367,-44,-2089,250,-66,37,130,14413,-1,7,-26,-8,35504,-76,34,127,0,0,3836,0,0,3668,197,29,6679,-4,0,0,0,80398,0
80377,-77,-2081,248,-64,23,130,14414,7,4,9,-8,35495,-77,34,127,0,0,3836,-21,0,3668,197,29,6689,-4,0,0,0,80398,0
80387,-59,-2074,242,-65,39,129,14413,0,-7,-10,-8,35492,-69,33,127,0,0,3836,0,0,3668,197,29,6699,-4,0,0,0,80398,0
80397,-55,-2077,242,-64,42,123,14412,0,-5,-10,-8,35487,-64,33,127,0,0,3836,0,0,3668,197,29,6709,-4,0,0,0,80398,0
80408,-54,-2082,244,-71,40,116,14412,-1,2,5,-8,35486,-64,33,127,0,0,3836,-27,0,3668,197,29,6720,-4,0,0,0,80398,0
80418,-46,-2065,255,-79,34,112,14413,2,6,17,-8,35493,-75,34,127,0,0,3833,-49,0,3668,197,29,6730,-4,0,0,0,80398,0
80428,-59,-2069,254,-79,34,108,14414,12,-3,-23,-8,35502,-86,34,127,0,0,3839,5,0,3668,197,29,6740,-4,0,0,0,80445,0
80438,-65,-2065,243,-81,25,109,14412,0,3,19,-8,35503,-83,34,127,0,0,3839,38,0,3668,197,29,6750,-4,0,0,0,80445,0
80448,-56,-2062,233,-84,37,101,14412,-6,0,-2,-8,35499,-88,34,127,0,0,3836,10,0,3668,197,29,6760,-4,0,0,0,80445,0
80458,-57,-2076,241,-85,31,97,14413,0,-1,-12,-8,35486,-78,33,127,0,0,3836,0,0,3668,197,29,6770,-4,0,0,0,80445,0
80468,-52,-2081,250,-85,30,97,14412,0,4,-19,-8,35482,-77,34,127,0,0,3836,0,0,3668,197,29,6780,-4,0,0,0,80476,0
80478,-36,-2083,249,-83,38,90,14412,0,-3,-59,-8,35488,-68,33,127,0,0,3836,32,0,3668,197,29,6790,-4,0,0,0,80476,0
80488,-37,-2075,238,-89,33,92,14412,-7,-2,-39,-8,35487,-74,33,127,0,0,3833,-5,0,3668,197,29,6800,-4,0,0,0,80476,0
80498,-65,-2075,238,-91,35,87,14412,6,-4,-79,-8,35490,-84,34,127,0,0,3836,21,0,3668,197,29,6810,-4,0,0,0,80476,0
80508,-49,-2065,228,-85,35,85,14413,2,-2,-25,-32,35488,-85,33,127,0,0,3834,-32,0,3668,197,29,6820,-4,0,0,0,80507,0
80518,-65,-2067,232,-83,43,84,14409,-6,1,-111,-24,35486,-73,33,127,0,0,3834,0,0,3668,197,29,6830,-4,0,0,0,80507,0
80528,-52,-2075,242,-85,42,80,14409,-7,3,-116,-56,35486,-55,34,127,0,0,3832,-38,0,3668,197,29,6840,-4,0,0,0,80523,0
80538,-52,-2075,246,-86,44,81,14409,7,1,-101,-48,35490,-64,33,127,0,0,3832,-49,0,3668,197,29,6850,-4,0,0,0,80523,0
80548,-35,-2078,249,-86,34,79,14405,-12,-7,-187,-64,35494,-69,33,127,0,0,3829,-16,0,3668,197,29,6860,-4,0,0,0,80539,0
80558,-35,-2078,246,-90,45,78,14399,-14,-4,-260,-56,35498,-83,33,127,0,0,3826,32,0,3668,197,29,6870,-4,0,0,0,80539,0
80568,-54,-2081,253,-91,39,81,14399,2,5,-264,-96,35499,-85,34,127,0,0,3825,-21,0,3668,197,29,6880,-4,0,0,0,80554,0
80578,-42,-2084,260,-98,45,82,14396,-4,8,-272,-120,35497,-91,34,127,0,0,3823,-60,0,3668,197,29,6890,-4,0,0,0,80586,0
80588,-36,-2086,254,-103,36,78,14392,-11,-3,-323,-88,35481,-75,33,127,0,0,3825,16,0,3668,197,29,6900,-4,0,0,0,80586,0
80598,-30,-2085,246,-107,36,90,14393,1,4,-336,-112,35486,-67,34,127,0,0,3823,-5,0,3668,197,29,6910,-4,0,0,0,80586,0
80608,-42,-2092,247,-111,38,94,14392,1,5,-349,-104,35488,-60,33,127,0,0,3823,-16,0,3668,197,29,6920,-4,0,0,0,80586,0
80618,-44,-2091,245,-108,39,102,14390,1,1,-370,-104,35491,-75,33,127,0,0,3823,0,0,3668,197,29,6930,-4,0,0,0,80601,0
80629,-51,-2092,242,-112,33,103,14390,1,6,-376,-104,35509,-88,34,127,0,0,3821,-21,0,3668,197,29,6941,-4,0,0,0,80601,0
80639,-52,-2092,231,-105,37,95,14389,-5,0,-384,-136,35510,-104,34,127,0,0,3821,-21,0,3668,197,29,6951,-4,0,0,0,80632,0
80649,-57,-2086,226,-105,42,91,14389,-2,-3,-374,-104,35513,-91,33,127,0,0,3821,-21,0,3668,197,29,6961,-4,0,0,0,80632,0
80659,-42,-2079,232,-101,43,82,14387,-10,5,-417,-160,35501,-86,33,127,0,0,3818,-10,0,3668,197,29,6971,-4,0,0,0,80648,0
80669,-59,-2075,248,-104,41,76,14380,-14,-13,-413,-128,35495,-66,34,127,0,0,3823,32,0,3668,197,29,6981,-4,0,0,0,80664,0
80679,-52,-2063,252,-111,45,74,14379,-3,10,-383,-128,35500,-87,33,127,0,0,3818,-10,0,3668,197,29,6991,-4,0,0,0,80664,0
80689,-41,-2051,254,-110,37,73,14372,-20,-4,-453,-104,35500,-74,33,127,0,0,3814,-21,0,3668,197,29,7001,-4,0,0,0,80664,0
80699,-40,-2048,245,-113,35,68,14351,-57,-35,-402,-96,35506,-74,34,127,0,0,3814,-21,0,3668,197,29,7011,-4,0,0,0,80757,0
80709,-60,-2052,249,-120,37,54,14326,-37,-41,-265,-72,35502,-60,34,127,0,0,3812,-21,0,3668,197,29,7021,-4,0,0,0,80773,0
80719,-21,-2053,247,-121,36,61,14327,1,46,-340,-96,35495,-45,34,127,0,0,3812,0,0,3668,197,29,7031,-4,0,0,0,80773,0
80729,-22,-2069,250,-128,36,70,14326,0,42,-358,-96,35492,-38,33,127,0,0,3812,10,0,3668,197,29,7041,-4,0,0,0,80773,0
80739,-46,-2064,238,-130,36,65,14326,3,1,-372,-128,35487,-15,33,127,0,0,3807,-21,0,3668,197,29,7051,-4,0,0,0,80773,0
80749,-36,-2059,220,-132,38,54,14324,3,-2,-371,-160,35488,-31,34,127,0,0,3807,-65,0,3668,197,29,7061,-4,0,0,0,80773,0
80759,-19,-2063,224,-131,46,52,14317,-17,-6,-420,-200,35486,-39,34,127,0,0,3805,-54,0,3668,197,29,7071,-4,0,0,0,80773,0
80769,-35,-2065,234,-130,43,69,14298,-56,-38,-382,-112,35487,-46,34,127,0,0,3803,-21,0,3668,197,29,7081,-4,0,0,0,80773,0
80779,-22,-2070,225,-123,49,66,14257,-99,-65,-191,-88,35490,-32,33,127,0,0,3803,0,0,3668,197,29,7091,-4,0,0,0,80773,0
80789,-29,-2082,218,-119,52,77,14248,6,24,-144,-88,35491,-37,33,127,0,0,3799,-54,0,3668,197,29,7101,-4,0,0,0,80773,0
80799,-15,-2096,228,-117,40,85,14245,-6,74,-277,-72,35496,-42,33,127,0,0,3796,-21,0,3668,197,29,7111,-4,0,0,0,80789,0
80809,-24,-2111,229,-115,37,95,14243,-10,8,-288,-104,35512,-53,34,127,0,0,3796,-32,0,3668,197,29,7121,-4,0,0,0,80789,0
80819,-16,-2116,213,-100,42,92,14234,-29,-13,-257,-72,35527,-50,34,127,0,0,3796,-21,0,3668,197,29,7131,-4,0,0,0,80804,0
80829,-18,-2114,197,-80,43,103,14221,-41,-25,-189,-80,35533,-50,34,127,0,0,3794,-32,0,3668,197,29,7141,-4,0,0,0,80820,0
80839,-27,-2107,194,-73,39,108,14211,-4,-4,-145,-48,35520,-42,34,127,0,0,3794,-21,0,3668,197,29,7151,-4,0,0,0,80820,0
80849,-23,-2100,212,-58,44,130,14211,3,35,-194,-48,35497,-47,33,127,0,0,3792,-21,0,3668,197,29,7161,-4,0,0,0,80836,0
80859,-11,-2099,216,-48,39,131,14211,8,16,-153,-64,35488,-45,33,127,0,0,3794,-32,0,3668,197,29,7171,-4,0,0,0,80851,0
80869,-39,-2094,223,-37,45,141,14209,-3,-6,-178,-48,35488,-52,34,127,0,0,3794,0,0,3668,197,29,7181,-4,0,0,0,80851,0
80879,-16,-2090,215,-36,40,141,14211,4,0,-147,-64,35494,-59,33,127,0,0,3796,21,0,3668,197,29,7191,-4,0,0,0,80851,0
80890,0,-2077,213,-32,37,148,14212,3,8,-116,-32,35496,-68,34,127,0,0,3796,27,0,3668,197,29,7202,-4,0,0,0,80882,0
80900,-20,-2069,223,-30,41,157,14210,-11,-3,-159,-48,35495,-79,33,127,0,0,3794,10,0,3668,197,29,7212,-4,0,0,0,80898,0
80910,-30,-2055,242,-26,36,155,14210,-3,-4,-173,-48,35497,-56,33,127,0,0,3794,0,0,3668,197,29,7222,-4,0,0,0,80898,0
80920,-25,-2058,245,-27,36,156,14210,-1,3,-161,-48,35504,-49,34,127,0,0,3797,27,0,3668,197,29,7232,-4,0,0,0,80898,0
80930,-46,-2049,249,-34,31,164,14210,-3,0,-108,-24,35499,-59,33,127,0,0,3796,16,0,3668,197,29,7242,-4,0,0,0,80914,0
80940,-38,-2056,242,-32,37,162,14211,-1,6,-113,-24,35493,-58,33,127,0,0,3796,27,0,3668,197,29,7252,-4,0,0,0,80929,0
80950,-50,-2077,249,-33,32,155,14212,2,0,-79,-56,35492,-51,33,127,0,0,3797,-10,0,3668,197,29,7262,-4,0,0,0,80929,0
80960,-55,-2082,252,-35,42,145,14213,7,-1,-55,-32,35496,-44,33,127,0,0,3800,0,0,3668,197,29,7272,-4,0,0,0,80945,0
80970,-49,-2063,247,-40,29,155,14213,6,2,-5,-8,35495,-37,34,127,0,0,3799,0,0,3668,197,29,7282,-4,0,0,0,80945,0
80980,-40,-2075,256,-44,34,160,14213,-5,-4,4,16,35493,-50,34,127,0,0,3797,5,0,3668,197,29,7292,-4,0,0,0,80960,0
80990,-24,-2067,261,-47,33,168,14214,0,-1,0,-8,35487,-51,33,127,0,0,3805,65,0,3668,197,29,7302,-4,0,0,0,80992,0
81000,-48,-2069,263,-55,29,171,14216,4,3,78,32,35489,-57,34,127,0,0,3800,32,0,3668,197,29,7312,-4,0,0,0,80992,0
81010,-58,-2077,267,-66,27,166,14218,15,2,133,32,35492,-58,34,127,0,0,3803,-10,0,3668,197,29,7322,-4,0,0,0,81007,0
81020,-60,-2090,263,-68,27,156,14217,-10,-1,143,56,35492,-56,33,127,0,0,3802,5,0,3668,197,29,7332,-4,0,0,0,81007,0
81030,-67,-2091,248,-75,44,129,14221,8,0,236,48,35496,-44,33,127,0,0,3802,-65,0,3668,197,29,7342,-4,0,0,0,81007,0
81040,-35,-2098,250,-85,35,126,14220,-12,-3,149,48,35503,-41,33,127,0,0,3805,16,0,3668,197,29,7352,-4,0,0,0,81039,0
81050,-82,-2091,239,-88,32,116,14223,-3,-1,190,40,35509,-42,33,127,0,0,3802,-43,0,3668,197,29,7362,-4,0,0,0,81039,0
81060,-59,-2086,240,-87,29,98,14224,9,4,189,40,35504,-49,33,127,0,0,3802,-71,0,3668,197,29,7372,-4,0,0,0,81039,0
81070,-73,-2087,239,-85,32,93,14221,-2,-6,128,48,35501,-40,33,127,0,0,3805,10,0,3668,197,29,7382,-4,0,0,0,81054,0
81080,-65,-2079,251,-89,30,92,14222,-9,2,161,24,35497,-25,33,127,0,0,3803,-21,0,3668,197,29,7392,-4,0,0,0,81164,0
81090,-47,-2090,257,-87,35,76,14222,6,4,118,24,35497,-39,34,127,0,0,3803,-27,0,3668,197,29,7402,-4,0,0,0,81164,0
81100,-45,-2081,258,-95,31,81,14222,6,-2,173,48,35493,-47,33,127,0,0,3802,-43,0,3668,197,29,7412,-4,0,0,0,81164,0
81110,-47,-2085,251,-103,42,79,14220,-6,-2,131,24,35488,-50,34,127,0,0,3800,-60,0,3668,197,29,7422,-4,0,0,0,81164,0
81120,-35,-2080,242,-105,39,74,14221,-1,-8,37,24,35487,-50,33,127,0,0,3800,0,0,3668,197,29,7432,-4,0,0,0,81179,0
81130,-24,-2076,251,-105,44,74,14220,-2,5,15,0,35485,-34,33,127,0,0,3797,-32,0,3668,197,29,7442,-4,0,0,0,81179,0
81140,-2,-2074,244,-107,42,75,14218,0,-1,-46,8,35481,-43,33,127,0,0,3797,5,0,3668,197,29,7452,-4,0,0,0,81179,0
81150,-40,-2061,236,-108,48,88,14217,6,4,8,-40,35482,-34,33,127,0,0,3800,-65,0,3668,197,29,7462,-4,0,0,0,81179,0
81160,-40,-2055,237,-112,55,87,14215,-2,1,-30,-8,35481,-34,33,127,0,0,3799,0,0,3668,197,29,7472,-4,0,0,0,81179,0
81170,-19,-2053,236,-114,37,107,14215,-3,1,-44,-8,35486,-20,34,127,0,0,3799,0,0,3668,197,29,7482,-4,0,0,0,81179,0
81180,-17,-2068,248,-109,39,105,14214,-6,1,-50,-32,35485,-28,33,127,0,0,3800,-5,0,3668,197,29,7492,-4,0,0,0,81179,0
81191,-26,-2077,261,-114,44,126,14215,1,1,-38,-8,35490,-29,34,127,0,0,3799,0,0,3668,197,29,7503,-4,0,0,0,81179,0
81201,-19,-2073,247,-126,34,132,14215,1,3,-74,-32,35497,-47,33,127,0,0,3799,0,0,3668,197,29,7513,-4,0,0,0,81195,0
81211,-29,-2069,230,-121,47,147,14215,6,-1,-82,-72,35515,-48,33,127,0,0,3799,32,0,3668,197,29,7523,-4,0,0,0,81195,0
81221,-3,-2079,229,-113,44,139,14215,5,4,-16,-8,35511,-41,34,127,0,0,3799,-10,0,3668,197,29,7533,-4,0,0,0,81195,0
81231,-53,-2083,239,-115,39,139,14213,0,1,-65,-32,35507,-41,34,127,0,0,3799,0,0,3668,197,29,7543,-4,0,0,0,81242,0
81241,-16,-2090,246,-116,44,146,14216,14,1,-18,24,35493,-23,33,127,0,0,3799,-10,0,3668,197,29,7553,-4,0,0,0,81242,0
81251,-45,-2090,242,-118,44,139,14213,-2,1,-62,-8,35488,-16,34,127,0,0,3799,10,0,3668,197,29,7563,-4,0,0,0,81242,0
81261,-53,-2086,245,-115,37,144,14214,0,2,-29,-8,35491,-20,33,127,0,0,3799,0,0,3668,197,29,7573,-4,0,0,0,81242,0
81271,-58,-2079,239,-114,43,135,14214,-2,-5,-21,-8,35480,-33,34,127,0,0,3799,-10,0,3668,197,29,7583,-4,0,0,0,81257,0
81281,-55,-2078,220,-113,38,123,14214,0,3,-44,-8,35476,-35,33,127,0,0,3799,0,0,3668,197,29,7593,-4,0,0,0,81289,0
81291,-52,-2079,225,-105,37,125,14213,-5,2,-39,0,35480,-28,33,127,0,0,3799,10,0,3668,197,29,7603,-4,0,0,0,81289,0
81301,-34,-2087,222,-99,37,99,14214,-2,-3,-34,24,35488,-25,34,127,0,0,3799,21,0,3668,197,29,7613,-4,0,0,0,81289,0
81311,-22,-2094,221,-96,38,95,14214,0,-4,-32,-8,35495,-38,33,127,0,0,3799,0,0,3668,197,29,7623,-4,0,0,0,81289,0
81321,-30,-2075,229,-91,34,99,14213,-9,-4,-46,-48,35503,-58,33,127,0,0,3799,21,0,3668,197,29,7633,-4,0,0,0,81304,0
81331,-33,-2088,233,-92,32,98,14216,2,-2,-24,-8,35510,-52,33,127,0,0,3799,0,0,3668,197,29,7643,-4,0,0,0,81335,0
81341,-37,-2081,226,-88,30,91,14214,-3,0,-25,-8,35508,-52,33,127,0,0,3799,0,0,3668,197,29,7653,-4,0,0,0,81335,0
81351,-44,-2075,231,-84,33,94,14214,3,-1,-39,-48,35492,-54,34,127,0,0,3799,21,0,3668,197,29,7663,-4,0,0,0,81335,0
81361,-38,-2067,231,-79,27,93,14215,1,-3,-1,-8,35488,-48,33,127,0,0,3799,0,0,3668,197,29,7673,-4,0,0,0,81335,0
81371,-33,-2068,230,-79,25,96,14214,0,6,-9,-16,35489,-70,33,127,0,0,3799,-10,0,3668,197,29,7683,-4,0,0,0,81351,0
81382,-47,-2063,220,-74,25,87,14215,7,0,-17,-8,35503,-73,33,127,0,0,3795,-32,0,3668,197,29,7694,-4,0,0,0,81367,0
81392,-40,-2067,226,-68,28,81,14215,7,-3,-70,-8,35498,-67,33,127,0,0,3795,-10,0,3668,197,29,7704,-4,0,0,0,81382,0
81402,-42,-2078,251,-72,30,74,14214,0,1,-81,-32,35494,-62,34,127,0,0,3796,-27,0,3668,197,29,7714,-4,0,0,0,81382,0
81412,-26,-2077,253,-75,38,74,14214,0,-4,-112,-56,35500,-54,33,127,0,0,3797,0,0,3668,197,29,7724,-4,0,0,0,81413,0
81422,-41,-2074,249,-79,30,79,14210,-7,0,-165,-56,35499,-46,33,127,0,0,3794,10,0,3668,197,29,7734,-4,0,0,0,81413,0
81432,-37,-2070,239,-80,32,75,14208,-9,-1,-246,-72,35500,-55,33,127,0,0,3785,-54,0,3668,197,29,7744,-4,0,0,0,81413,0
81442,-45,-2077,242,-79,34,71,14205,-8,-10,-299,-80,35504,-67,34,127,0,0,3786,-71,0,3668,197,29,7754,-4,0,0,0,81413,0
81452,-31,-2082,237,-78,36,70,14203,-4,1,-340,-104,35511,-70,33,127,0,0,3788,-27,0,3668,197,29,7764,-4,0,0,0,81507,0
81462,-38,-2075,240,-85,32,69,14199,-13,3,-388,-120,35509,-70,33,127,0,0,3789,16,0,3668,197,29,7774,-4,0,0,0,81507,0
81472,-42,-2081,240,-81,37,67,14199,0,-1,-378,-112,35498,-72,33,127,0,0,3785,10,0,3668,197,29,7784,-4,0,0,0,81507,0
81482,-21,-2082,236,-89,36,58,14198,-6,6,-380,-120,35483,-70,33,127,0,0,3782,-32,0,3668,197,29,7794,-4,0,0,0,81507,0
81492,-18,-2091,236,-89,42,65,14195,-10,-7,-460,-136,35483,-66,33,127,0,0,3783,0,0,3668,197,29,7804,-4,0,0,0,81523,0
81502,-21,-2088,240,-91,37,65,14193,-10,-6,-470,-176,35485,-72,34,127,0,0,3785,21,0,3668,197,29,7814,-4,0,0,0,81523,0
81512,-37,-2080,244,-90,36,65,14187,-16,0,-526,-216,35488,-69,33,127,0,0,3781,27,0,3668,197,29,7824,-4,0,0,0,81523,0
81522,-45,-2078,247,-90,38,63,14174,-31,-22,-552,-192,35487,-74,34,127,0,0,3774,-5,0,3668,197,29,7834,-4,0,0,0,81523,0
81532,-35,-2083,243,-90,30,61,14147,-79,-46,-410,-136,35486,-69,33,127,0,0,3771,-32,0,3668,197,29,7844,-4,0,0,0,81523,0
81542,-55,-2078,230,-90,45,52,14116,-47,-44,-285,-96,35489,-60,34,127,0,0,3772,-32,0,3668,197,29,7854,-4,0,0,0,81523,0
81552,-5,-2084,221,-87,43,62,14108,-11,39,-324,-80,35503,-54,34,127,0,0,3769,-16,0,3668,197,29,7864,-4,0,0,0,81538,0
81562,8,-2078,236,-85,37,75,14095,-39,39,-315,-104,35519,-42,34,127,0,0,3771,0,0,3668,197,29,7874,-4,0,0,0,81554,0
81572,-9,-2081,239,-91,31,75,14070,-43,-36,-146,-80,35517,-35,33,127,0,0,3766,-54,0,3668,197,29,7884,-4,0,0,0,81570,0
81582,-3,-2076,246,-90,47,91,14064,3,15,-234,-64,35511,-32,33,127,0,0,3766,0,0,3668,197,29,7894,-4,0,0,0,81570,0
81592,19,-2085,245,-95,38,107,14064,-4,51,-244,-64,35501,-44,33,127,0,0,3766,5,0,3668,197,29,7904,-4,0,0,0,81570,0
81602,13,-2075,253,-103,25,122,14064,-6,5,-266,-88,35508,-42,34,127,0,0,3767,27,0,3668,197,29,7914,-4,0,0,0,81585,0
81612,-37,-2079,241,-106,30,132,14064,0,0,-244,-64,35514,-47,34,127,0,0,3766,16,0,3668,197,29,7924,-4,0,0,0,81601,0
81622,-15,-2084,232,-105,42,131,14063,-6,4,-247,-64,35515,-61,34,127,0,0,3766,16,0,3668,197,29,7934,-4,0,0,0,81601,0
81633,-48,-2073,223,-106,42,135,14063,-4,-4,-252,-96,35507,-57,34,127,0,0,3766,0,0,3668,197,29,7945,-4,0,0,0,81632,0
81643,-44,-2074,239,-101,38,143,14064,1,0,-216,-64,35501,-62,34,127,0,0,3766,0,0,3668,197,29,7955,-4,0,0,0,81632,0
81653,-30,-2084,240,-109,37,131,14064,-5,-5,-252,-48,35500,-58,33,127,0,0,3766,0,0,3668,197,29,7965,-4,0,0,0,81632,0
81663,-38,-2072,240,-115,38,128,14063,-4,4,-235,-64,35499,-57,33,127,0,0,3766,0,0,3668,197,29,7975,-4,0,0,0,81648,0
81673,-13,-2074,243,-119,36,125,14063,-5,2,-238,-56,35503,-41,34,127,0,0,3766,21,0,3668,197,29,7985,-4,0,0,0,81663,0
81683,-30,-2085,237,-112,39,116,14065,7,1,-221,-64,35497,-36,34,127,0,0,3766,-10,0,3668,197,29,7995,-4,0,0,0,81663,0
81693,-29,-2077,238,-114,41,121,14063,7,1,-265,-88,35504,-46,34,127,0,0,3763,-10,0,3668,197,29,8005,-4,0,0,0,81695,0
81703,-23,-2079,239,-123,31,110,14063,1,0,-271,-80,35501,-57,33,127,0,0,3766,10,0,3668,197,29,8015,-4,0,0,0,81695,0
81713,-30,-2092,232,-116,35,99,14064,5,6,-218,-64,35501,-48,33,127,0,0,3766,0,0,3668,197,29,8025,-4,0,0,0,81695,0
81723,-34,-2084,225,-117,36,86,14062,-8,2,-249,-48,35499,-45,34,127,0,0,3763,-21,0,3668,197,29,8035,-4,0,0,0,81695,0
81733,-27,-2074,224,-106,40,78,14060,-10,-8,-349,-96,35506,-22,33,127,0,0,3763,32,0,3668,197,29,8045,-4,0,0,0,81757,0
81743,-42,-2070,232,-114,33,75,14059,3,0,-278,-112,35505,-18,33,127,0,0,3759,-54,0,3668,197,29,8055,-4,0,0,0,81757,0
81753,-35,-2072,233,-103,43,65,14055,-11,0,-340,-128,35510,-13,33,127,0,0,3759,-32,0,3668,197,29,8065,-4,0,0,0,81773,0
81763,-21,-2071,225,-103,29,62,14051,-13,-10,-369,-104,35497,-28,33,127,0,0,3759,-21,0,3668,197,29,8075,-4,0,0,0,81773,0
81773,-35,-2073,240,-106,33,63,14038,-45,-13,-422,-96,35495,-24,33,127,0,0,3752,-21,0,3668,197,29,8085,-4,0,0,0,81773,0
81783,-12,-2078,244,-113,33,49,14008,-91,-58,-245,-104,35491,-36,34,127,0,0,3752,-54,0,3668,197,29,8095,-4,0,0,0,81773,0
81793,-48,-2083,225,-118,47,42,13990,-7,-7,-192,-56,35498,-32,34,127,0,0,3750,-21,0,3668,197,29,8105,-4,0,0,0,81773,0
81803,11,-2082,232,-108,30,44,13993,-9,75,-275,-80,35507,-33,34,127,0,0,3748,-32,0,3668,197,29,8115,-4,0,0,0,81788,0
81813,-24,-2076,233,-113,33,43,13988,-11,7,-355,-136,35515,-37,33,127,0,0,3746,-21,0,3668,197,29,8125,-4,0,0,0,81867,0
81823,-20,-2070,226,-107,30,34,13987,-3,-2,-374,-120,35509,-32,34,127,0,0,3741,-54,0,3668,197,29,8135,-4,0,0,0,81867,0
81833,-8,-2071,229,-109,45,32,13978,-27,-14,-410,-128,35505,-38,33,127,0,0,3741,-32,0,3668,197,29,8145,-4,0,0,0,81867,0
81843,-4,-2066,238,-112,36,38,13950,-73,-53,-275,-88,35502,-52,33,127,0,0,3741,-21,0,3668,197,29,8155,-4,0,0,0,81867,0
81853,-29,-2083,223,-113,38,32,13927,-25,-20,-228,-96,35498,-65,33,127,0,0,3737,-21,0,3668,197,29,8165,-4,0,0,0,81882,0
81863,11,-2080,215,-111,36,36,13925,-1,60,-317,-128,35497,-73,34,127,0,0,3733,-54,0,3668,197,29,8175,-4,0,0,0,81882,0
81873,-23,-2083,225,-105,21,31,13922,-18,32,-413,-168,35495,-74,34,127,0,0,3730,-21,0,3668,197,29,8185,-4,0,0,0,81882,0
81883,-46,-2097,221,-101,38,21,13909,-28,-30,-446,-136,35497,-80,33,127,0,0,3726,-32,0,3668,197,29,8195,-4,0,0,0,81882,0
81893,-43,-2095,216,-96,44,-13,13876,-82,-48,-335,-96,35494,-90,34,127,0,0,3724,-54,0,3668,197,29,8205,-4,0,0,0,81882,0
81904,-64,-2088,236,-96,46,-23,13848,-31,-22,-332,-120,35506,-73,33,127,0,0,3716,-82,0,3668,197,29,8216,-4,0,0,0,81882,0
81914,-19,-2095,264,-106,42,-45,13824,-71,29,-313,-96,35519,-68,33,127,0,0,3714,-76,0,3668,197,29,8226,-4,0,0,0,81913,0
81924,-41,-2081,247,-119,39,-52,13791,-49,-27,-275,-104,35518,-63,33,127,0,0,3707,-54,0,3668,197,29,8236,-4,0,0,0,81913,0
81934,20,-2071,217,-113,42,-53,13788,-9,44,-454,-144,35510,-78,33,127,0,0,3703,-71,0,3668,197,29,8246,-4,0,0,0,81913,0
81944,11,-2062,225,-111,37,-49,13777,-49,39,-565,-192,35503,-80,34,127,0,0,3696,-54,0,3668,197,29,8256,-4,0,0,0,81929,0
81954,10,-2067,237,-111,55,-46,13741,-89,-69,-399,-192,35511,-73,34,127,0,0,3696,-49,0,3668,197,29,8266,-4,0,0,0,81945,0
81964,14,-2069,230,-117,48,-25,13720,-23,-20,-441,-176,35512,-70,34,127,0,0,3688,-54,0,3668,197,29,8276,-4,0,0,0,81945,0
81974,75,-2068,214,-114,40,16,13704,-58,46,-520,-208,35510,-68,34,127,0,0,3688,-32,0,3668,197,29,8286,-4,0,0,0,81960,0
81984,72,-2065,205,-109,40,30,13661,-106,-51,-303,-128,35504,-74,33,127,0,0,3684,-16,0,3668,197,29,8296,-4,0,0,0,81960,0
81994,81,-2084,202,-91,44,79,13621,-86,-44,-210,-72,35519,-75,34,127,0,0,3679,-49,0,3668,197,29,8306,-4,0,0,0,81991,0
82004,63,-2075,215,-87,52,105,13611,18,65,-190,-48,35518,-87,33,127,0,0,3682,-5,0,3668,197,29,8316,-4,0,0,0,81991,0
82014,73,-2079,256,-96,31,152,13611,0,84,-212,-72,35514,-86,33,127,0,0,3683,16,0,3668,197,29,8326,-4,0,0,0,81991,0
82024,48,-2087,253,-103,31,170,13609,-7,17,-202,-48,35511,-93,33,127,0,0,3679,-5,0,3668,197,29,8336,-4,0,0,0,82007,0
82034,8,-2084,214,-105,42,174,13610,-2,-6,-241,-72,35508,-72,34,127,0,0,3683,27,0,3668,197,29,8346,-4,0,0,0,82023,0
82044,-2,-2090,206,-93,49,191,13611,0,2,-197,-48,35509,-75,34,127,0,0,3682,5,0,3668,197,29,8356,-4,0,0,0,82054,0
82054,8,-2076,233,-90,34,206,13611,0,4,-186,-24,35509,-55,33,127,0,0,3681,5,0,3668,197,29,8366,-4,0,0,0,82054,0
82064,29,-2085,232,-90,33,228,13611,0,1,-162,-48,35504,-72,34,127,0,0,3685,27,0,3668,197,29,8376,-4,0,0,0,82054,0
82074,7,-2080,229,-90,39,227,13612,-1,-5,-85,-8,35507,-72,33,127,0,0,3687,32,0,3668,197,29,8386,-4,0,0,0,82054,0
82084,-7,-2082,229,-97,33,223,13616,12,3,51,32,35510,-93,34,127,0,0,3691,21,0,3668,197,29,8396,-4,0,0,0,82070,0
82094,7,-2093,220,-92,33,228,13621,0,6,131,24,35513,-104,33,127,0,0,3697,65,0,3668,197,29,8406,-4,0,0,0,82085,0
82104,-14,-2083,209,-78,36,221,13622,5,-6,231,72,35512,-90,33,127,0,0,3699,76,0,3668,197,29,8416,-4,0,0,0,82085,0
82114,-3,-2088,241,-87,40,230,13628,20,2,338,80,35509,-103,34,127,0,0,3701,0,0,3668,197,29,8426,-4,0,0,0,82085,0
82124,25,-2079,244,-88,34,243,13634,19,3,402,96,35507,-93,33,127,0,0,3703,-16,0,3668,197,29,8436,-4,0,0,0,82101,0
82135,14,-2079,221,-93,33,249,13646,40,12,437,136,35506,-100,33,127,0,0,3711,54,0,3668,197,29,8447,-4,0,0,0,82132,0
82145,-15,-2074,219,-85,24,258,13678,90,54,359,120,35508,-91,33,127,0,0,3713,54,0,3668,197,29,8457,-4,0,0,0,82148,0
82155,-1,-2069,221,-88,28,248,13712,69,52,335,104,35503,-100,33,127,0,0,3715,0,0,3668,197,29,8467,-4,0,0,0,82148,0
82165,-44,-2075,221,-93,27,253,13750,95,3,168,128,35501,-97,34,127,0,0,3719,43,0,3668,197,29,8477,-4,0,0,0,82148,0
82175,-24,-2069,218,-90,35,226,13764,3,-25,213,72,35493,-82,33,127,0,0,3724,43,0,3668,197,29,8487,-4,0,0,0,82163,0
82185,-58,-2071,217,-90,38,213,13766,3,-80,330,88,35497,-52,34,127,0,0,3722,-10,0,3668,197,29,8497,-4,0,0,0,82241,0
82195,-58,-2064,220,-87,43,190,13773,12,-15,328,136,35503,-42,34,127,0,0,3728,32,0,3668,197,29,8507,-4,0,0,0,82241,0
82205,-59,-2074,238,-92,33,162,13796,63,40,268,72,35509,-47,33,127,0,0,3728,0,0,3668,197,29,8517,-4,0,0,0,82257,0
82215,-40,-2073,246,-93,30,147,13806,-16,12,197,88,35500,-48,34,127,0,0,3728,0,0,3668,197,29,8527,-4,0,0,0,82257,0
82225,-81,-2074,233,-91,35,111,13807,3,-59,204,88,35490,-59,33,127,0,0,3728,0,0,3668,197,29,8537,-4,0,0,0,82257,0
82235,-61,-2082,221,-94,48,85,13807,3,-15,229,40,35489,-72,33,127,0,0,3733,32,0,3668,197,29,8547,-4,0,0,0,82257,0
82245,-21,-2077,237,-96,21,74,13808,5,5,274,88,35490,-87,33,127,0,0,3728,-21,0,3668,197,29,8557,-4,0,0,0,82257,0
82255,-14,-2080,227,-100,24,65,13807,5,-1,210,88,35492,-85,34,127,0,0,3728,0,0,3668,197,29,8567,-4,0,0,0,82257,0
82265,-44,-2084,222,-106,25,57,13809,9,2,230,88,35489,-79,33,127,0,0,3728,-21,0,3668,197,29,8577,-4,0,0,0,82257,0
82275,-31,-2085,221,-111,28,46,13808,6,0,207,88,35489,-78,33,127,0,0,3726,-21,0,3668,197,29,8587,-4,0,0,0,82257,0
82285,-5,-2090,203,-100,40,36,13806,-1,-7,169,24,35500,-85,34,127,0,0,3726,0,0,3668,197,29,8597,-4,0,0,0,82273,0
82295,24,-2090,212,-97,37,42,13806,0,0,154,0,35522,-96,34,127,0,0,3726,-21,0,3668,197,29,8607,-4,0,0,0,82288,0
82305,-4,-2089,218,-94,42,65,13804,2,-3,61,24,35533,-87,33,127,0,0,3724,-10,0,3668,197,29,8617,-4,0,0,0,82288,0
82315,25,-2076,214,-91,41,80,13803,-3,1,33,-16,35520,-82,33,127,0,0,3722,-10,0,3668,197,29,8627,-4,0,0,0,82288,0
82325,49,-2085,225,-97,36,107,13802,-5,4,-38,8,35511,-66,33,127,0,0,3722,0,0,3668,197,29,8637,-4,0,0,0,82320,0
82335,30,-2079,227,-89,40,126,13801,3,2,-18,24,35503,-42,33,127,0,0,3724,21,0,3668,197,29,8647,-4,0,0,0,82320,0
82345,50,-2076,223,-88,40,147,13801,-3,1,-15,0,35504,-52,33,127,0,0,3719,0,0,3668,197,29,8657,-4,0,0,0,82335,0
82355,48,-2077,215,-87,50,154,13799,-2,1,-53,0,35506,-46,33,127,0,0,3722,21,0,3668,197,29,8667,-4,0,0,0,82335,0
82365,-11,-2075,212,-83,41,175,13801,1,-3,26,-16,35501,-63,34,127,0,0,3722,-10,0,3668,197,29,8677,-4,0,0,0,82366,0
82375,-26,-2078,219,-80,56,181,13801,-3,0,3,-8,35497,-51,33,127,0,0,3722,0,0,3668,197,29,8687,-4,0,0,0,82366,0
82385,0,-2073,218,-71,48,188,13802,4,-2,23,16,35494,-59,34,127,0,0,3724,21,0,3668,197,29,8697,-4,0,0,0,82382,0
82396,-2,-2078,228,-74,34,198,13804,11,3,99,16,35492,-66,33,127,0,0,3727,10,0,3668,197,29,8708,-4,0,0,0,82398,0
82406,-31,-2073,230,-74,28,212,13804,1,4,153,32,35493,-59,33,127,0,0,3729,10,0,3668,197,29,8718,-4,0,0,0,82398,0
82416,-38,-2079,222,-81,36,216,13806,3,5,222,80,35495,-68,34,127,0,0,3734,71,0,3668,197,29,8728,-4,0,0,0,82398,0
82426,-44,-2070,216,-83,29,201,13809,1,2,324,96,35496,-66,33,127,0,0,3733,43,0,3668,197,29,8738,-4,0,0,0,82413,0
82436,-41,-2076,221,-78,30,199,13811,9,-2,400,120,35505,-73,33,127,0,0,3735,-10,0,3668,197,29,8748,-4,0,0,0,82445,0
82446,-37,-2078,215,-75,35,176,13813,5,0,439,136,35509,-67,33,127,0,0,3737,10,0,3668,197,29,8758,-4,0,0,0,82445,0
82456,-42,-2093,223,-76,21,171,13817,0,-2,478,128,35513,-85,33,127,0,0,3740,5,0,3668,197,29,8768,-4,0,0,0,82445,0
82466,-69,-2089,227,-76,34,142,13822,4,-1,520,168,35492,-72,33,127,0,0,3741,5,0,3668,197,29,8778,-4,0,0,0,82445,0
82476,-66,-2080,222,-78,31,116,13828,16,8,552,152,35480,-65,33,127,0,0,3741,0,0,3668,197,29,8788,-4,0,0,0,82460,0
82486,-45,-2080,218,-84,34,94,13831,10,0,541,144,35492,-62,34,127,0,0,3741,-21,0,3668,197,29,8798,-4,0,0,0,82486,0
82496,-32,-2085,225,-78,35,84,13838,19,7,496,128,35501,-54,33,127,0,0,3741,-5,0,3668,197,29,8808,-4,0,0,0,82486,0
82506,-45,-2077,238,-87,37,82,13851,39,15,443,112,35506,-68,34,127,0,0,3741,-60,0,3668,197,29,8818,-4,0,0,0,82486,0
82516,-24,-2080,240,-87,35,83,13869,23,32,224,72,35499,-77,33,127,0,0,3741,32,0,3668,197,29,8828,-4,0,0,0,82501,0
82526,18,-2083,238,-93,33,82,13871,-2,-27,254,72,35501,-70,33,127,0,0,3741,0,0,3668,197,29,8838,-4,0,0,0,82517,0
82536,20,-2071,228,-94,35,90,13871,-5,-41,260,24,35498,-79,33,127,0,0,3740,-43,0,3668,197,29,8848,-4,0,0,0,82532,0
82546,-26,-2079,200,-91,30,102,13871,13,0,245,64,35497,-84,33,127,0,0,3738,-43,0,3668,197,29,8858,-4,0,0,0,82532,0
82556,2,-2073,204,-84,36,89,13871,7,4,222,64,35488,-100,34,127,0,0,3738,-32,0,3668,197,29,8868,-4,0,0,0,82579,0
82566,8,-2059,230,-84,39,99,13869,-6,-2,178,24,35490,-107,33,127,0,0,3740,21,0,3668,197,29,8878,-4,0,0,0,82579,0
82576,0,-2094,223,-86,35,97,13871,6,3,190,64,35491,-109,33,127,0,0,3735,-21,0,3668,197,29,8888,-4,0,0,0,82579,0
82586,1,-2076,219,-94,46,89,13869,1,3,115,24,35492,-123,34,127,0,0,3737,0,0,3668,197,29,8898,-4,0,0,0,82579,0
82596,-18,-2074,210,-92,42,88,13868,0,4,89,0,35487,-107,33,127,0,0,3732,-54,0,3668,197,29,8908,-4,0,0,0,82579,0
82606,236,-2192,189,-95,-4,3,13863,-7,-11,-39,-16,35487,-109,33,127,0,0,3736,32,0,3668,197,29,8918,-4,0,0,0,82595,0
82616,600,-2102,132,-138,31,-282,13864,-9,1,-53,-40,35500,-96,34,127,0,0,3730,-10,0,3668,197,29,8928,-4,0,0,0,82626,0
82626,-58,-2014,172,-134,68,-412,13848,-61,-14,-335,-248,35515,-83,33,127,0,0,3702,-241,0,3668,197,29,8938,-4,0,0,0,82626,0
82636,-79,-1931,319,-107,-28,-68,13763,-218,-174,-361,-232,35514,-75,33,127,0,0,3692,-93,0,3668,197,29,8948,-4,0,0,0,82626,0
82646,-102,-2244,231,-123,0,53,13687,-136,-126,-206,-72,35503,-74,33,127,0,0,3692,-10,0,3668,197,29,8958,-4,0,0,0,82626,0
82657,674,-2128,4,-133,166,-441,13664,8,148,-120,-56,35497,-73,33,127,0,0,3687,-65,0,3668,197,29,8969,-4,0,0,0,82642,0
82667,498,-2032,109,-128,128,-572,13654,-50,135,-399,-272,35502,-79,33,127,0,0,3665,-230,0,3668,197,29,8979,-4,0,0,0,82657,0
82677,298,-2027,299,-131,-48,-221,13584,-192,-117,-471,-328,35512,-88,34,127,0,0,3647,-164,0,3668,197,29,8989,-4,0,0,0,82657,0
82687,115,-2140,270,-160,-87,-32,13487,-214,-175,-348,-232,35508,-74,34,127,0,0,3645,-32,0,3668,197,29,8999,-4,0,0,0,82673,0
82697,221,-2148,106,-143,76,-291,13414,-121,0,-164,-96,35499,-59,33,127,0,0,3638,-87,0,3668,197,29,9009,-4,0,0,0,82689,0
82707,349,-2047,88,-150,124,-470,13404,-4,177,-476,-216,35501,-31,33,127,0,0,3623,-153,0,3668,197,29,9019,-4,0,0,0,82689,0
82717,382,-2032,206,-154,1,-368,13379,-94,98,-711,-384,35506,-44,33,127,0,0,3610,-142,0,3668,197,29,9029,-4,0,0,0,82704,0
82727,227,-2088,243,-144,-72,-196,13299,-185,-149,-454,-232,35508,-67,34,127,0,0,3603,-32,0,3668,197,29,9039,-4,0,0,0,82720,0
82737,204,-2081,110,-120,-27,-182,13217,-167,-106,-272,-120,35501,-66,33,127,0,0,3603,0,0,3668,197,29,9049,-4,0,0,0,82720,0
82747,316,-2094,64,-115,57,-305,13179,-59,88,-198,-88,35501,-55,33,127,0,0,3594,-65,0,3668,197,29,9059,-4,0,0,0,82735,0
82757,497,-2076,114,-101,38,-358,13161,-32,117,-284,-160,35502,-56,34,127,0,0,3588,-87,0,3668,197,29,9069,-4,0,0,0,82735,0
82767,409,-2096,191,-102,-58,-272,13149,-32,46,-492,-152,35501,-66,33,127,0,0,3579,-76,0,3668,197,29,9079,-4,0,0,0,82751,0
82777,109,-2139,246,-118,-108,-217,13117,-102,-29,-572,-264,35493,-80,33,127,0,0,3572,-32,0,3668,197,29,9089,-4,0,0,0,82767,0
82787,-3,-2118,227,-118,-49,-313,13065,-122,-98,-328,-128,35494,-84,34,127,0,0,3568,-54,0,3668,197,29,9099,-4,0,0,0,82782,0
82797,89,-2109,192,-105,23,-471,13020,-69,-23,-293,-136,35497,-79,33,127,0,0,3559,-120,0,3668,197,29,9109,-4,0,0,0,82782,0
82807,198,-2106,197,-100,-41,-486,13012,-16,102,-588,-176,35506,-77,34,127,0,0,3550,-98,0,3668,197,29,9119,-4,0,0,0,82782,0
82817,126,-2132,227,-80,-146,-495,12995,-58,48,-635,-264,35512,-78,33,127,0,0,3544,-87,0,3668,197,29,9129,-4,0,0,0,82814,0
82827,48,-2167,209,-72,-153,-571,12953,-81,-71,-504,-256,35515,-63,33,127,0,0,3537,-65,0,3668,197,29,9139,-4,0,0,0,82814,0
82837,91,-2226,262,-48,-159,-694,12906,-130,-44,-447,-232,35518,-71,34,127,0,0,3524,-109,0,3668,197,29,9149,-4,0,0,0,82814,0
82847,18,-2119,320,-34,-195,-753,12838,-154,-58,-389,-240,35515,-79,34,127,0,0,3513,-120,0,3668,197,29,9159,-4,0,0,0,82845,0
82857,106,-2133,198,-104,-262,-761,12779,-135,-19,-434,-280,35508,-76,34,127,0,0,3498,-153,0,3668,197,29,9169,-4,0,0,0,82845,0
82867,39,-2130,202,-140,-307,-763,12705,-170,-19,-365,-216,35506,-63,34,127,0,0,3489,-76,0,3668,197,29,9179,-4,0,0,0,82845,0
82877,-49,-2282,128,-162,-219,-855,12643,-120,-3,-315,-184,35505,-48,34,127,0,0,3480,-109,0,3668,197,29,9189,-4,0,0,0,82860,0
82888,-47,-2240,133,-188,-110,-878,12605,-85,89,-431,-208,35508,-45,33,127,0,0,3473,-65,0,3668,197,29,9200,-4,0,0,0,82923,0
82898,25,-2062,81,-187,-16,-1003,12575,-46,49,-448,-168,35520,-51,34,127,0,0,3465,-82,0,3668,197,29,9210,-4,0,0,0,82939,0
82908,177,-2112,49,-179,-6,-1045,12554,-62,24,-540,-216,35526,-49,33,127,0,0,3456,-148,0,3668,197,29,9220,-4,0,0,0,82939,0
82918,157,-2017,106,-147,-45,-1102,12510,-103,-31,-470,-240,35524,-40,33,127,0,0,3448,-137,0,3668,197,29,9230,-4,0,0,0,82939,0
82928,177,-1992,109,-158,-57,-1164,12456,-138,-65,-421,-240,35520,-34,34,127,0,0,3437,-93,0,3668,197,29,9240,-4,0,0,0,82939,0
82938,103,-2083,253,-229,-44,-1262,12400,-124,-29,-462,-288,35509,-46,33,127,0,0,3415,-197,0,3668,197,29,9250,-4,0,0,0,82939,0
82948,37,-2120,321,-252,-34,-1329,12340,-159,-4,-590,-344,35501,-50,33,127,0,0,3401,-175,0,3668,197,29,9260,-4,0,0,0,82954,0
82958,8,-2075,324,-293,-42,-1464,12257,-175,-67,-487,-352,35502,-57,34,127,0,0,3387,-175,0,3668,197,29,9270,-4,0,0,0,82954,0
82968,51,-2155,312,-300,-71,-1543,12184,-166,-25,-621,-416,35498,-54,33,127,0,0,3364,-214,0,3668,197,29,9280,-4,0,0,0,82954,0
82978,46,-2210,343,-299,-101,-1663,12088,-221,-24,-517,-432,35505,-65,34,127,0,0,3340,-214,0,3668,197,29,9290,-4,0,0,0,82954,0
82988,97,-2233,322,-308,-123,-1735,11983,-240,-62,-493,-472,35506,-71,33,127,0,0,3323,-236,0,3668,197,29,9300,-4,0,0,0,83001,0
82998,130,-2240,281,-320,-142,-1823,11870,-238,-32,-466,-432,35510,-55,33,127,0,0,3305,-120,0,3668,197,29,9310,-4,0,-14,0,83001,0
83008,118,-2221,254,-339,-152,-1858,11767,-227,9,-507,-464,35504,-52,33,127,0,0,3287,-159,0,3668,197,29,9320,-4,0,-15,0,83001,0
83018,185,-2232,268,-352,-189,-1881,11662,-221,14,-445,-368,35500,-40,33,127,0,0,3269,-131,0,3668,197,29,9330,-4,0,-15,0,83032,0
83028,255,-2317,262,-328,-249,-1854,11576,-193,34,-497,-312,35497,-50,34,127,0,0,3268,-54,0,3668,197,29,9340,-4,0,-16,0,83032,0
83038,229,-2339,299,-313,-378,-1838,11503,-129,63,-375,-184,35496,-50,34,127,0,0,3259,-65,0,3668,197,29,9350,-4,0,-16,0,83032,0
83048,205,-2381,311,-311,-449,-1896,11481,-30,127,-498,-144,35494,-59,34,127,0,0,3262,16,0,3668,197,29,9360,-4,0,-16,0,83032,0
83058,8,-2522,354,-317,-536,-1976,11475,-1,129,-373,-88,35492,-55,33,127,0,0,3270,71,0,3668,197,29,9370,-4,0,-16,0,83032,0
83068,-26,-2640,388,-334,-574,-2018,11479,11,41,-152,24,35502,-48,34,127,0,0,3284,197,0,3668,197,29,9380,-4,0,-16,0,83048,0
83078,-68,-2745,412,-355,-637,-2170,11514,119,79,194,160,35489,-45,33,127,0,0,3307,274,0,3668,197,29,9390,-4,0,-15,0,83079,0
83088,-66,-2840,424,-369,-698,-2298,11592,180,153,327,256,35493,-37,33,127,0,0,3328,230,0,3668,197,29,9400,-4,0,-15,0,83079,0
83098,-319,-2987,464,-401,-741,-2470,11685,242,96,406,424,35494,-56,34,127,0,0,3365,335,0,3668,197,29,9410,-4,0,-15,0,83095,0
83108,-388,-2940,446,-400,-787,-2547,11810,280,98,419,608,35495,-63,33,127,0,0,3410,455,0,3668,197,29,9420,-4,0,-15,0,83095,0
83118,-273,-2812,208,-368,-735,-2727,11969,372,123,459,840,35491,-56,33,127,0,0,3465,554,0,3668,197,29,9430,-4,0,-14,0,83095,0
83128,-29,-2708,81,-312,-677,-2892,12158,440,126,481,1000,35499,-41,34,127,0,0,3527,554,0,3668,197,29,9440,-4,0,-14,0,83126,0
83138,263,-2564,79,-188,-722,-3009,12378,498,113,467,1160,35506,-40,34,127,0,0,3580,571,0,3668,197,29,9450,-4,0,-13,0,83126,0
83148,576,-2385,174,-226,-709,-3082,12615,537,99,509,1328,35507,-47,34,127,0,0,3641,593,0,3668,197,29,9460,-4,0,-13,0,83126,0
83159,707,-1984,385,-411,-671,-3006,12906,595,84,504,1416,35503,-68,33,127,0,0,3708,615,0,3668,197,29,9471,-4,0,-12,0,83157,0
83169,1010,-2021,452,-639,-612,-3029,13193,632,84,463,1424,35499,-51,33,127,0,0,3757,516,0,3668,197,29,9481,-4,0,-11,0,83157,0
83179,1042,-1855,540,-693,-486,-2847,13480,636,34,408,1296,35499,-47,34,127,0,0,3796,395,0,3668,197,29,9491,-4,0,-10,0,83157,0
83189,1158,-1191,469,-723,-361,-2321,13747,573,-37,405,1168,35496,-47,33,127,0,0,3827,252,0,3668,197,29,9501,-4,0,-10,0,83188,0
83199,577,-824,342,-650,-69,-1457,13984,499,-101,379,840,35486,-29,34,127,0,0,3829,-21,0,3668,197,29,9511,-4,0,-9,0,83188,0
83209,176,-691,-84,-396,224,-349,14166,370,-157,322,400,35487,-36,33,127,0,0,3818,-186,0,3668,197,29,9521,-4,0,-8,0,83188,0
83219,-673,-492,75,23,315,365,14279,153,-224,-147,-200,35488,-40,33,127,0,0,3779,-428,0,3668,197,29,9531,-4,0,-7,0,83220,0
83229,-618,-246,157,349,484,1398,14190,-274,-530,-391,-456,35492,-44,34,127,0,0,3739,-428,0,3668,197,29,9541,-4,0,-6,0,83220,0
83239,-380,-196,261,437,644,2283,14037,-379,-515,-351,-632,35500,-54,34,127,0,0,3700,-384,0,3668,197,29,9551,-4,0,-4,0,83220,0
83249,-319,-297,55,530,920,3650,13850,-426,-183,-272,-688,35497,-55,33,127,0,0,3651,-494,0,3668,197,29,9561,-4,0,-3,0,83220,0
83259,-394,-453,-48,654,1026,4495,13649,-435,-97,-275,-736,35498,-65,33,127,0,0,3612,-417,0,3668,197,29,9571,-4,0,-1,0,83251,0
83269,-302,-800,47,868,1098,5521,13451,-435,-13,-293,-800,35504,-49,33,127,0,0,3577,-351,0,3668,197,29,9581,-4,0,0,0,83251,0
83279,-119,-1118,181,924,1152,6072,13259,-420,16,-331,-624,35500,-41,34,127,0,0,3552,-252,0,3668,197,29,9591,-4,0,2,0,83251,0
83289,108,-1533,262,859,1266,6816,13072,-392,27,-265,-552,35500,-37,33,127,0,0,3531,-186,0,3668,197,29,9601,-4,0,4,0,83329,0
83299,157,-1774,223,826,1325,7185,12913,-309,67,-271,-344,35497,-39,33,127,0,0,3517,-131,0,3668,197,29,9611,-4,0,7,0,83329,0
83309,207,-2109,124,853,1378,7498,12790,-231,128,-230,-232,35497,-60,33,127,0,0,3511,-65,0,3668,197,29,9621,-4,0,9,0,83345,0
83319,317,-2338,132,896,1516,7524,12711,-141,152,-67,-32,35492,-72,34,127,0,0,3513,0,0,3668,197,29,9631,-4,0,12,0,83345,0
83329,443,-2590,109,913,1888,7527,12719,64,253,44,8,35485,-58,33,127,0,0,3522,43,0,3668,197,29,9641,-4,0,14,0,83345,0
83339,499,-2658,85,837,2153,7475,12732,3,183,192,152,35489,-46,33,127,0,0,3537,186,0,3668,197,29,9651,-4,0,17,0,83345,0
83349,490,-2676,123,690,2482,7168,12753,73,8,541,320,35494,-37,34,127,0,0,3561,263,0,3668,197,29,9661,-4,0,19,0,83345,0
83359,521,-2791,155,601,2639,6797,12838,227,145,472,392,35495,-32,33,127,0,0,3585,252,0,3668,197,29,9671,-4,0,21,0,83345,0
83369,692,-2911,297,448,2734,6239,12956,264,188,393,504,35494,-34,34,127,0,0,3618,340,0,3668,197,29,9681,-4,0,23,0,83345,0
83379,721,-2890,390,324,2761,5828,13102,325,106,386,520,35487,-39,33,127,0,0,3651,318,0,3668,197,29,9691,-4,0,25,0,83376,0
83389,768,-2755,451,108,2835,5097,13254,344,62,428,584,35492,-49,33,127,0,0,3678,252,0,3668,197,29,9701,-4,0,27,0,83376,0
83400,819,-2612,420,17,2811,4582,13431,364,28,358,560,35491,-50,33,127,0,0,3708,236,0,3668,197,29,9712,-4,0,29,0,83376,0
83410,947,-2393,272,132,2758,3716,13585,319,5,312,408,35501,-59,33,127,0,0,3721,137,0,3668,197,29,9722,-4,0,30,0,83407,0
83420,952,-2165,157,250,2629,3123,13710,240,-75,254,176,35488,-50,33,127,0,0,3719,-32,0,3668,197,29,9732,-4,0,31,0,83407,0
83430,1079,-1832,210,399,2323,2388,13781,107,-159,59,-8,35487,-58,34,127,0,0,3717,-38,0,3668,197,29,9742,-4,0,32,0,83423,0
83440,1049,-1687,251,480,2025,1862,13775,-47,-251,-103,-56,35486,-56,33,127,0,0,3710,-54,0,3668,197,29,9752,-4,0,32,0,83423,0
83450,1097,-1767,394,589,1476,1095,13745,-68,-202,-139,-64,35496,-55,34,127,0,0,3700,-87,0,3668,197,29,9762,-4,0,32,0,83438,0
83460,991,-2207,364,579,1085,690,13732,-6,-8,-299,-104,35499,-51,33,127,0,0,3700,-32,0,3668,197,29,9772,-4,0,32,0,83438,0
83470,1515,-5671,-624,-763,1423,492,13733,27,59,-39,560,35497,-59,33,127,0,0,3814,1455,0,3668,197,29,9782,-4,0,32,0,83454,0
83480,-433,-1093,1393,515,976,-1005,13906,505,334,1053,1528,35498,-65,33,127,0,0,3900,791,0,3668,197,29,9792,-4,0,32,0,83470,0
83490,425,-2178,-241,-261,740,-1471,14204,688,590,634,1528,35485,-61,33,127,0,0,3941,313,0,3668,197,29,9802,-4,0,31,0,83470,0
83500,-201,-2602,237,-229,-224,-908,14507,627,246,344,1216,35488,-35,33,127,0,0,3983,483,0,3668,197,29,9812,-4,0,30,0,83485,0
83510,-800,-2155,-422,-90,-1342,-463,14776,579,-74,458,1288,35482,-28,33,127,0,0,4049,708,0,3668,197,29,9822,-4,0,29,0,83485,0
83520,-523,-2006,-478,-127,-1393,-703,15056,652,-44,585,1552,35480,-37,34,127,0,0,4120,736,0,3668,197,29,9832,-4,0,29,0,83501,0
83530,-351,-2701,-669,-27,-1246,-1173,15376,714,106,551,1680,35482,-37,33,127,0,0,4192,659,0,3668,197,29,9842,-4,0,28,0,83517,0
83540,-383,-2491,-116,263,-1044,-1442,15713,740,102,487,1560,35492,-45,33,127,0,0,4241,390,0,3668,197,29,9852,-4,0,27,0,83532,0
83550,-478,-2322,350,437,-566,-1888,16032,665,2,292,1144,35498,-32,33,127,0,0,4257,98,0,3668,197,29,9862,-4,0,26,0,83532,0
83560,-324,-2327,727,452,-201,-2132,16284,514,-156,223,600,35498,-35,33,127,0,0,4245,-164,0,3668,197,29,9872,-4,0,25,0,83563,0
83570,-100,-2032,468,415,109,-2577,16448,280,-292,-47,-120,35499,-52,34,127,0,0,4203,-439,0,3668,197,29,9882,-4,0,24,0,83579,0
83580,385,-1947,414,327,189,-2554,16389,-267,-587,-541,-528,35501,-44,33,127,0,0,4157,-477,0,3668,197,29,9892,-4,0,23,0,83579,0
83590,289,-2178,310,310,39,-2267,16223,-407,-653,-364,-672,35498,-30,33,127,0,0,4107,-444,0,3668,197,29,9902,-4,0,22,0,83579,0
83600,265,-2142,399,298,-120,-2100,16021,-454,-259,-291,-696,35492,-25,34,127,0,0,4066,-422,0,3668,197,29,9912,-4,0,21,0,83579,0
83610,161,-2187,470,315,16,-2317,15816,-461,-63,-308,-896,35489,-39,33,127,0,0,4006,-670,0,3668,197,29,9922,-4,0,19,0,83610,0
83620,144,-1961,452,288,101,-2216,15595,-522,-38,-469,-1160,35496,-28,33,127,0,0,3938,-631,0,3668,197,29,9932,-4,0,19,0,83610,0
83630,235,-1969,402,299,21,-1969,15329,-610,-119,-427,-1288,35495,-23,33,127,0,0,3877,-587,0,3668,197,29,9942,-4,0,19,0,83610,0
83641,41,-1884,269,268,-18,-1686,15011,-641,-128,-377,-1336,35488,-12,34,127,0,0,3816,-538,0,3668,197,29,9953,-4,0,19,0,83626,0
83651,89,-1911,126,298,21,-1640,14719,-639,-45,-313,-1248,35491,-14,33,127,0,0,3770,-494,0,3668,197,29,9963,-4,0,19,0,83720,0
83661,166,-2034,-90,388,100,-1585,14435,-608,11,-299,-1176,35493,-37,33,127,0,0,3722,-472,0,3668,197,29,9973,-4,0,19,0,83720,0
83671,228,-2117,69,493,97,-1518,14164,-596,43,-303,-1120,35492,-38,33,127,0,0,3676,-472,0,3668,197,29,9983,-4,0,19,0,83735,0
83681,190,-2051,415,531,51,-1357,13907,-570,47,-308,-1120,35485,-46,33,127,0,0,3632,-461,0,3668,197,29,9993,-4,0,19,0,83735,0
83691,139,-2126,533,493,10,-1243,13657,-523,36,-309,-1032,35482,-61,33,127,0,0,3594,-373,0,3668,197,29,10003,-4,0,19,0,83735,0
83701,35,-2093,479,437,-23,-1193,13426,-498,57,-326,-896,35484,-65,34,127,0,0,3559,-340,0,3668,197,29,10013,-4,0,19,0,83735,0
83711,66,-2072,373,434,-7,-1193,13216,-454,84,-345,-872,35482,-63,33,127,0,0,3524,-340,0,3668,197,29,10023,-4,0,19,0,83735,0
83721,247,-1971,266,491,31,-1265,13018,-432,61,-342,-792,35480,-52,33,127,0,0,3489,-351,0,3668,197,29,10033,-4,0,19,0,83735,0
83731,139,-1989,204,546,41,-1155,12834,-408,51,-392,-832,35476,-44,34,127,0,0,3456,-329,0,3668,197,29,10043,-4,0,19,0,83735,0
83741,193,-2118,493,555,-8,-950,12656,-399,26,-376,-760,35475,-50,33,127,0,0,3427,-263,0,3668,197,29,10053,-4,0,19,0,83735,0
83751,203,-2090,593,503,-3,-937,12489,-356,19,-423,-696,35485,-51,33,127,0,0,3396,-263,0,3668,197,29,10063,-4,0,19,0,83735,0
83761,271,-2059,612,393,41,-961,12327,-346,35,-420,-616,35497,-39,34,127,0,0,3370,-285,0,3668,197,29,10073,-4,0,19,0,83751,0
83771,391,-2088,520,359,9,-896,12180,-313,38,-480,-584,35511,-39,34,127,0,0,3346,-263,0,3668,197,29,10083,-4,0,19,0,83766,0
83781,407,-2123,404,382,-90,-785,12039,-309,45,-485,-608,35509,-33,34,127,0,0,3322,-252,0,3668,197,29,10093,-4,0,19,0,83766,0
83791,329,-2078,394,392,-72,-774,11908,-320,7,-421,-536,35502,-26,33,127,0,0,3302,-186,0,3668,197,29,10103,-4,0,19,0,83766,0
83801,246,-1979,409,374,6,-746,11780,-268,28,-436,-472,35501,-28,33,127,0,0,3280,-208,0,3668,197,29,10113,-4,0,19,0,83798,0
83811,311,-1916,372,351,-4,-694,11655,-261,41,-443,-464,35499,-16,33,127,0,0,3260,-197,0,3668,197,29,10123,-4,0,19,0,83798,0
83821,376,-1942,310,345,-51,-568,11540,-251,27,-474,-376,35497,-22,33,127,0,0,3245,-153,0,3668,197,29,10133,-4,0,19,0,83813,0
83831,330,-1977,326,364,-58,-531,11442,-201,47,-512,-320,35492,-41,34,127,0,0,3232,-98,0,3668,197,29,10143,-4,0,19,0,83813,0
83841,286,-2020,491,319,-32,-555,11358,-178,60,-418,-264,35482,-45,34,127,0,0,3223,-109,0,3668,197,29,10153,-4,0,19,0,83829,0
83851,303,-2051,615,254,-20,-553,11282,-153,36,-417,-216,35487,-41,34,127,0,0,3210,-98,0,3668,197,29,10163,-4,0,19,0,83845,0
83861,321,-2077,607,165,-64,-549,11210,-150,31,-428,-272,35486,-33,33,127,0,0,3197,-120,0,3668,197,29,10173,-4,0,19,0,83845,0
83871,339,-1999,511,136,-89,-572,11150,-134,27,-497,-280,35497,-30,34,127,0,0,3183,-98,0,3668,197,29,10183,-4,0,19,0,83860,0
83881,266,-1979,413,138,-77,-616,11091,-104,21,-464,-272,35495,-45,33,127,0,0,3170,-175,0,3668,197,29,10193,-4,0,19,0,83860,0
83892,275,-1942,413,130,-54,-644,11036,-101,34,-624,-320,35503,-56,33,127,0,0,3156,-120,0,3668,197,29,10204,-4,0,19,0,83876,0
83902,291,-1983,476,72,-25,-635,10968,-168,-32,-502,-288,35507,-47,34,127,0,0,3145,-87,0,3668,197,29,10214,-4,0,19,0,83891,0
83912,391,-1979,491,0,-2,-656,10898,-122,-53,-464,-280,35508,-12,34,127,0,0,3132,-126,0,3668,197,29,10224,-4,0,19,0,83891,0
83922,473,-1996,478,-32,-34,-659,10842,-120,35,-524,-248,35510,-12,34,127,0,0,3120,-60,0,3668,197,29,10234,-4,0,19,0,83938,0
83932,515,-2050,457,-41,-96,-647,10780,-131,17,-479,-256,35492,-21,34,127,0,0,3110,-93,0,3668,197,29,10244,-4,0,19,0,83938,0
83942,406,-2068,496,-54,-107,-620,10728,-109,1,-517,-256,35487,-49,33,127,0,0,3095,-153,0,3668,197,29,10254,-4,0,19,0,83938,0
83952,375,-2067,547,-80,-97,-598,10683,-114,42,-676,-296,35488,-54,34,127,0,0,3082,-137,0,3668,197,29,10264,-4,0,19,0,83938,0
83962,374,-1997,549,-139,-67,-614,10621,-136,-22,-492,-232,35496,-64,33,127,0,0,3072,-131,0,3668,197,29,10274,-4,0,19,0,83938,0
83972,390,-2012,531,-166,-67,-597,10566,-109,-13,-519,-256,35503,-56,33,127,0,0,3066,-104,0,3668,197,29,10284,-4,0,19,0,83954,0
83982,440,-1990,504,-162,-119,-576,10509,-116,9,-427,-200,35516,-56,34,127,0,0,3059,-38,0,3668,197,29,10294,-4,0,19,0,83970,0
83992,459,-2052,514,-179,-169,-592,10461,-73,5,-388,-192,35518,-55,33,127,0,0,3050,-93,0,3668,197,29,10304,-4,0,19,0,83970,0
84002,438,-2103,598,-193,-208,-615,10428,-79,63,-482,-168,35509,-33,34,127,0,0,3046,-49,0,3668,197,29,10314,-4,0,19,0,83985,0
84012,416,-2063,621,-208,-266,-637,10395,-51,21,-385,-120,35506,-7,33,127,0,0,3044,-21,0,3668,197,29,10324,-4,0,19,0,84048,0
84022,450,-2150,594,-218,-397,-627,10380,-30,35,-457,-160,35500,-9,33,127,0,0,3037,-65,0,3668,197,29,10334,-4,0,19,0,84048,0
84032,479,-2106,589,-169,-476,-617,10352,-66,8,-345,-144,35498,-24,34,127,0,0,3043,0,0,3668,197,29,10344,-4,0,19,0,84048,0
84042,387,-2144,534,-186,-542,-605,10345,-4,10,-391,-112,35489,-48,33,127,0,0,3038,60,0,3668,197,29,10354,-4,0,19,0,84048,0
84052,275,-2110,522,-188,-566,-585,10348,14,59,-301,-48,35487,-50,33,127,0,0,3048,104,0,3668,197,29,10364,-4,0,19,0,84048,0
84062,311,-2059,365,-222,-495,-635,10354,23,20,21,64,35491,-57,34,127,0,0,3065,164,0,3668,197,29,10374,-4,0,19,0,84063,0
84072,320,-2108,327,-195,-415,-693,10373,43,35,285,72,35502,-60,33,127,0,0,3069,65,0,3668,197,29,10384,-4,0,19,0,84063,0
84082,342,-2090,330,-124,-373,-814,10386,41,6,390,128,35516,-44,33,127,0,0,3075,71,0,3668,197,29,10394,-4,0,19,0,84063,0
84092,357,-2089,392,-118,-377,-863,10423,79,32,288,96,35519,-22,34,127,0,0,3076,32,0,3668,197,29,10404,-4,0,19,0,84095,0
84102,328,-2060,468,-159,-399,-945,10440,22,8,321,104,35512,-15,34,127,0,0,3077,-27,0,3668,197,29,10414,-4,0,19,0,84110,0
84112,306,-2034,432,-200,-405,-1012,10457,50,-46,355,112,35504,-10,33,127,0,0,3088,27,0,3668,197,29,10424,-4,0,19,0,84110,0
84122,286,-2048,363,-189,-442,-1120,10495,82,46,241,104,35496,-34,34,127,0,0,3094,82,0,3668,197,29,10434,-4,0,19,0,84110,0
84132,243,-2021,332,-179,-501,-1212,10512,24,3,326,112,35497,-47,33,127,0,0,3095,38,0,3668,197,29,10444,-4,0,19,0,84110,0
84143,126,-2076,401,-167,-471,-1382,10529,45,-42,311,128,35507,-49,33,127,0,0,3098,10,0,3668,197,29,10455,-4,0,19,0,84126,0
84153,141,-2133,397,-150,-433,-1610,10552,36,15,261,96,35521,-58,34,127,0,0,3102,21,0,3668,197,29,10465,-4,0,19,0,84157,0
84163,213,-2118,345,-143,-409,-1755,10556,4,-30,302,88,35518,-68,33,127,0,0,3104,21,0,3668,197,29,10475,-4,0,19,0,84157,0
84173,317,-2154,316,-130,-423,-1931,10556,1,-44,330,88,35518,-80,34,127,0,0,3102,10,0,3668,197,29,10485,-4,0,19,0,84157,0
84183,368,-2145,329,-92,-450,-2027,10556,0,-5,322,88,35511,-92,33,127,0,0,3102,0,0,3668,197,29,10495,-4,0,19,0,84157,0
84193,378,-2128,334,-91,-441,-2132,10556,-1,-5,306,88,35515,-88,33,127,0,0,3102,0,0,3668,197,29,10505,-4,0,19,0,84188,0
84203,382,-2178,386,-97,-420,-2179,10557,3,1,351,136,35515,-96,33,127,0,0,3109,54,0,3668,197,29,10515,-4,0,19,0,84188,0
84213,419,-2146,491,-93,-426,-2248,10562,27,14,491,192,35506,-103,33,127,0,0,3120,98,0,3668,197,29,10525,-4,0,19,0,84204,0
84223,459,-2178,523,-101,-560,-2364,10591,93,52,533,232,35506,-99,33,127,0,0,3126,98,0,3668,197,29,10535,-4,0,-2,0,84204,0
84233,366,-2196,579,-108,-769,-2456,10663,155,130,346,224,35509,-89,34,127,0,0,3144,153,0,3668,197,29,10545,-4,0,-3,0,84219,0
84243,70,-2127,556,-171,-943,-2490,10747,193,93,292,216,35513,-70,33,127,0,0,3159,153,0,3668,197,29,10555,-4,0,-3,0,84219,0
84253,81,-2207,499,-586,-820,-2453,10823,158,11,323,264,35511,-69,33,127,0,0,3192,395,0,3668,197,29,10565,-4,0,-2,0,84235,0
84263,68,-2663,778,-503,-769,-3016,10910,237,5,581,528,35506,-78,33,127,0,0,3225,329,0,3668,197,29,10575,-4,0,-1,0,84266,0
84273,-436,-2716,432,-274,-1001,-3241,11044,297,127,498,576,35501,-65,33,127,0,0,3254,230,0,3668,197,29,10585,-4,0,-1,0,84266,0
84283,-509,-2746,400,-162,-1117,-3266,11200,346,128,394,624,35501,-57,33,127,0,0,3287,362,0,3668,197,29,10595,-4,0,0,0,84266,0
84293,67,-2824,527,-49,-1213,-3909,11362,364,51,425,728,35497,-47,34,127,0,0,3333,417,0,3668,197,29,10605,-4,0,0,0,84266,0
84303,176,-2970,579,46,-1266,-4316,11541,410,48,418,816,35503,-51,33,127,0,0,3372,384,0,3668,197,29,10615,-4,0,2,0,84329,0
84313,-148,-3139,337,187,-1649,-4280,11726,410,54,453,912,35502,-55,33,127,0,0,3425,527,0,3668,197,29,10625,-4,0,3,0,84329,0
84323,-487,-3069,230,177,-2053,-4043,11930,479,37,549,1224,35498,-54,34,127,0,0,3504,791,0,3668,197,29,10635,-4,0,5,0,84344,0
84333,-473,-2983,231,119,-1711,-4399,12185,616,136,687,1728,35485,-40,34,127,0,0,3605,1021,0,3668,197,29,10645,-4,0,7,0,84344,0
84343,-533,-3143,315,198,-1500,-4969,12524,788,260,688,2120,35482,-26,34,127,0,0,3702,955,0,3668,197,29,10655,-4,0,10,0,84344,0
84353,-213,-3219,543,334,-1265,-5364,12923,905,277,589,2248,35480,-23,33,127,0,0,3788,856,0,3668,197,29,10665,-4,0,12,0,84344,0
84363,459,-2951,594,376,-1166,-5615,13351,958,178,533,2456,35482,-28,34,127,0,0,3886,977,0,3668,197,29,10675,-4,0,16,0,84344,0
84373,465,-3411,566,306,-1244,-5820,13816,1026,127,509,2328,35485,-26,34,127,0,0,3952,615,0,3668,197,29,10685,-4,0,19,0,84344,0
84383,738,-3417,701,361,-1832,-5693,14264,966,31,396,2168,35493,-47,34,127,0,0,4034,867,0,3668,197,29,10695,-4,0,23,0,84446,0
84394,609,-3077,821,47,-2322,-5290,14745,970,-62,547,2296,35492,-44,34,127,0,0,4146,1016,0,3668,197,29,10706,-4,0,28,0,84446,0
84404,376,-2728,881,-320,-2536,-4820,15207,1044,36,668,2576,35487,-41,34,127,0,0,4269,1203,0,3668,197,29,10716,-4,0,31,0,84462,0
84414,273,-2444,986,-795,-2776,-4172,15723,1181,151,821,3064,35480,-17,33,127,0,0,4420,1488,0,3668,197,29,10726,-4,0,37,0,84493,0
84424,231,-2237,1021,-838,-2805,-3726,16322,1377,263,902,3520,35472,-2,34,127,0,0,4576,1527,0,3668,197,29,10736,-4,0,41,0,84493,0
84434,1131,-1513,1168,-642,-2306,-3230,16990,1499,302,776,3744,35464,6,33,127,0,0,4705,1274,0,3668,197,29,10746,-4,0,47,0,84493,0
84444,1050,-1433,571,-816,-1104,-3546,17677,1471,172,297,2672,35462,11,33,127,0,0,4687,-390,0,3668,197,29,10756,-4,0,52,0,84493,0
84454,1125,-1758,634,-1004,425,-2591,18228,1076,-225,-186,608,35470,-16,34,127,0,0,4585,-1098,0,3668,197,29,10766,-4,0,58,0,84493,0
84464,800,-1601,566,-964,743,-1515,18383,-171,-994,-1989,-1104,35479,-49,33,127,0,0,4461,-1186,0,3668,197,29,10776,-4,0,63,0,84493,0
84474,96,-1088,471,-859,764,-623,18113,-690,-1680,-611,-1800,35483,-49,34,127,0,0,4350,-1131,0,3668,197,29,10786,-4,0,70,0,84493,0
84484,115,-793,528,-781,672,-227,17736,-893,-1001,-592,-2160,35481,-31,34,127,0,0,4245,-1043,0,3668,197,29,10796,-4,0,75,0,84493,0
84494,483,-647,507,-746,517,315,17299,-984,-325,-461,-2368,35491,-28,33,127,0,0,4141,-1076,0,3668,197,29,10806,-4,0,82,0,84493,0
84504,796,-653,446,-732,347,965,16822,-1069,-185,-420,-2448,35492,-28,33,127,0,0,4050,-906,0,3668,197,29,10816,-4,0,87,77,84493,0
84514,741,-567,317,-696,186,2061,16335,-1063,-94,-283,-2312,35498,-39,33,127,0,0,3963,-840,0,3668,197,29,10826,-4,0,94,71,84493,0
84524,693,-433,260,-642,68,2695,15855,-1047,-8,-246,-2120,35493,-42,33,127,0,0,3894,-681,0,3668,197,29,10836,-4,0,99,67,84509,0
84534,657,-357,158,-581,-145,3521,15401,-978,64,-216,-1936,35501,-43,33,127,0,0,3823,-752,0,3668,197,29,10846,-4,0,106,61,84525,0
84544,700,-343,97,-497,-271,4099,14977,-917,98,-249,-1832,35506,-50,33,127,0,0,3759,-703,0,3668,197,29,10856,-4,0,111,58,84525,0
84554,726,-399,35,-365,-398,5020,14578,-863,107,-276,-1736,35498,-50,33,127,0,0,3700,-571,0,3668,197,29,10866,-4,0,118,52,84540,0
84564,644,-391,7,-260,-479,5585,14204,-799,93,-239,-1616,35491,-44,33,127,0,0,3634,-642,0,3668,197,29,10876,-4,0,122,49,84556,0
84574,557,-356,-58,-105,-570,6299,13856,-755,96,-265,-1528,35482,-38,34,127,0,0,3580,-587,0,3668,197,29,10886,-4,0,129,44,84571,0
84584,468,-411,-82,-14,-579,6737,13529,-705,92,-296,-1456,35484,-54,33,127,0,0,3520,-587,0,3668,197,29,10896,-4,0,133,41,84571,0
84594,431,-670,-90,149,-506,7450,13224,-660,83,-324,-1392,35485,-55,34,127,0,0,3471,-505,0,3668,197,29,10906,-4,0,139,37,84571,0
84604,359,-810,-79,267,-425,7927,12933,-620,63,-311,-1248,35494,-77,33,127,0,0,3431,-335,0,3668,197,29,10916,-4,0,144,34,84603,0
84614,274,-934,-33,407,-237,8554,12671,-560,87,-289,-1016,35487,-61,33,127,0,0,3405,-219,0,3668,197,29,10926,-4,0,150,30,84603,0
84624,271,-1053,-106,505,-51,8856,12448,-460,124,-252,-712,35484,-58,34,127,0,0,3396,-98,0,3668,197,29,10936,-4,0,155,28,84603,0
84635,384,-1336,-259,622,222,9247,12255,-352,165,-259,-360,35485,-52,33,127,0,0,3394,-21,0,3668,197,29,10947,-4,0,161,24,84618,0
84645,299,-1656,-248,759,575,9556,12152,-184,218,-167,-128,35497,-45,33,127,0,0,3401,43,0,3668,197,29,10957,-4,0,166,22,84634,0
84655,444,-1962,-162,824,815,9762,12141,56,304,97,104,35499,-52,33,127,0,0,3418,186,0,3668,197,29,10967,-4,0,172,18,84650,0
84665,650,-2420,119,842,1137,10128,12199,134,327,333,288,35496,-56,33,127,0,0,3454,362,0,3668,197,29,10977,-4,0,177,17,84650,0
84675,606,-2673,267,855,1306,10250,12310,286,222,404,576,35498,-49,33,127,0,0,3502,494,0,3668,197,29,10987,-4,0,184,14,84681,0
84685,722,-2947,321,859,1595,10110,12462,367,185,464,752,35500,-60,33,127,0,0,3550,461,0,3668,197,29,10997,-4,0,188,12,84681,0
84695,806,-3119,281,877,1844,9938,12641,412,132,411,768,35495,-52,33,127,0,0,3579,274,0,3668,197,29,11007,-4,0,195,11,84681,0
84705,744,-3244,233,911,2265,9772,12823,379,60,308,560,35495,-54,33,127,0,0,3592,131,0,3668,197,29,11017,-4,0,199,9,84681,0
84715,599,-3146,223,916,2532,9642,12978,317,-47,268,328,35499,-60,34,127,0,0,3599,54,0,3668,197,29,11027,-4,0,205,8,84712,0
84725,487,-3063,285,906,2831,9390,13098,200,-118,124,96,35507,-63,34,127,0,0,3601,21,0,3668,197,29,11037,-4,0,209,8,84712,0
84735,479,-3129,440,898,2915,9224,13130,1,-245,97,-16,35506,-83,33,127,0,0,3599,-10,0,3668,197,29,11047,-4,0,215,7,84712,0
84745,547,-3212,677,868,2860,8952,13113,-31,-275,161,64,35506,-82,34,127,0,0,3596,10,0,3668,197,29,11057,-4,0,219,6,84743,0
84755,612,-3243,732,869,2761,8762,13115,8,-46,176,48,35506,-80,33,127,0,0,3599,10,0,3668,197,29,11067,-4,0,224,6,84743,0
84765,557,-3187,696,1007,2502,8404,13113,-8,30,150,32,35508,-81,34,127,0,0,3596,0,0,3668,197,29,11077,-4,0,228,6,84790,0
84775,521,-3007,520,1112,2303,8069,13116,12,-1,163,64,35506,-85,33,127,0,0,3599,10,0,3668,197,29,11087,-4,0,232,6,84790,0
84785,500,-2733,415,1129,1986,7442,13115,-2,1,187,48,35495,-87,33,127,0,0,3601,32,0,3668,197,29,11097,-4,0,235,6,84790,0
84795,461,-2729,449,1042,1780,7002,13116,8,0,221,120,35496,-94,34,127,0,0,3603,54,0,3668,197,29,11107,-4,0,238,6,84790,0
84805,557,-2888,586,865,1465,6233,13121,17,13,328,152,35502,-94,33,127,0,0,3612,120,0,3668,197,29,11117,-4,0,241,6,84790,0
84815,622,-2817,664,737,1176,5630,13144,72,43,472,224,35501,-93,34,127,0,0,3623,109,0,3668,197,29,11127,-4,0,243,6,84806,0
84825,884,-2434,599,623,582,4566,13204,138,109,396,200,35509,-81,33,127,0,0,3636,131,0,3668,197,29,11137,-4,0,245,6,84806,0
84835,906,-2247,487,657,126,3803,13270,139,74,368,224,35516,-68,33,127,0,0,3647,120,0,3668,197,29,11147,-4,0,246,7,84837,0
84845,854,-1949,331,567,-499,2550,13341,152,14,302,208,35521,-55,33,127,0,0,3660,131,0,3668,197,29,11157,-4,0,247,7,84837,0
84855,792,-1908,303,508,-753,1665,13415,168,11,284,144,35515,-50,33,127,0,0,3667,87,0,3668,197,29,11167,-4,0,247,7,84837,0
84865,620,-2126,297,380,-852,405,13479,118,-16,178,-24,35507,-43,33,127,0,0,3667,-10,0,3668,197,29,11177,-4,0,247,7,84853,0
84875,561,-2196,294,269,-758,-365,13478,-29,-157,184,64,35500,-46,34,127,0,0,3662,-32,0,3668,197,29,11187,-4,0,247,7,84853,0
84886,546,-2131,263,112,-406,-1367,13478,-5,-96,81,8,35510,-46,34,127,0,0,3662,-60,0,3668,197,29,11198,-4,0,247,7,84884,0
84896,556,-2071,205,52,-101,-1958,13480,6,12,92,-24,35515,-48,34,127,0,0,3660,-82,0,3668,197,29,11208,-4,0,247,7,84884,0
84906,587,-1939,129,85,415,-2660,13470,-19,-13,-86,-96,35513,-45,34,127,0,0,3651,-98,0,3668,197,29,11218,-4,0,247,7,84884,0
84916,530,-1896,146,138,762,-3010,13447,-65,-44,-261,-120,35504,-46,34,127,0,0,3641,-93,0,3668,197,29,11228,-4,0,247,7,84899,0
84926,409,-2277,269,181,1329,-3392,13405,-95,-67,-247,-128,35506,-58,33,127,0,0,3633,-109,0,3668,197,29,11238,-4,0,247,7,84915,0
84936,-2060,-7256,-294,-145,1725,-2863,13395,6,17,179,768,35513,-62,34,127,0,0,3704,845,0,1524,214,30,8,1,1,247,7,84915,0
84946,-1514,-1047,2555,681,2248,-2814,13626,780,495,1872,2960,35512,-54,34,127,0,0,3836,1203,0,1524,214,30,18,1,1,247,7,84978,0
84956,-1695,-1118,210,591,2173,-3155,14197,1405,1162,1186,3792,35487,19,33,127,0,0,3927,878,0,1524,214,30,28,1,1,247,7,84978,0
84966,595,-1364,-685,-791,1625,-2774,14938,1703,973,860,4280,35470,35,34,127,0,0,4014,939,0,1524,214,30,38,1,1,247,7,84978,0
84976,297,-2161,-1000,-380,1266,-2509,15770,1884,496,854,4696,35464,64,33,127,0,0,4119,1060,0,1524,214,30,48,1,1,247,7,84978,0
84986,-204,-2541,-914,51,679,-2616,16675,2037,311,866,5152,35464,41,34,127,0,0,4228,1027,0,1524,214,30,58,1,1,247,7,84993,0
84996,-371,-2388,-533,213,296,-2698,17642,2164,256,733,5296,35463,51,33,127,0,0,4322,917,0,1524,214,30,68,1,1,247,7,84993,0
85006,394,-2193,73,-14,-330,-2663,18642,2200,189,590,5160,35461,50,33,127,0,0,4395,708,0,1524,214,30,78,1,1,247,7,84993,0
85016,779,-2370,117,-122,-819,-2465,19611,2071,4,366,4448,35474,27,34,127,0,0,4469,730,0,1524,214,30,88,1,1,247,7,84993,0
85026,635,-2549,-45,38,-1266,-2361,20445,1720,-311,52,3400,35491,-8,33,127,0,0,4521,505,0,1524,214,30,98,1,1,247,7,85009,0
85036,307,-2200,83,80,-1320,-2364,21113,1362,-591,-5,2480,35504,-28,33,127,0,0,4554,318,0,1524,214,30,108,1,1,247,7,85040,0
85046,-221,-2049,137,272,-1113,-2301,21638,1059,-592,-13,1656,35507,-23,34,127,0,0,4576,153,0,1524,214,30,118,1,1,247,7,85040,0
85056,-306,-2241,323,294,-814,-2295,22028,764,-533,20,1016,35498,-40,33,127,0,0,4580,43,0,1524,214,30,128,1,1,247,7,85040,0
85066,-237,-2488,709,696,-562,-2448,22291,495,-501,97,496,35492,-33,33,127,0,0,4583,16,0,1524,214,30,138,1,1,247,7,85040,0
85076,-74,-2051,427,724,-353,-2784,22457,304,-429,-33,-96,35502,-36,33,127,0,0,4549,-335,0,1524,214,30,148,1,1,247,7,85071,0
85086,-110,-1986,985,447,-165,-2736,22431,-201,-546,-562,-456,35501,-31,33,127,0,0,4509,-411,0,1524,214,30,158,1,1,247,7,85071,0
85096,-141,-1948,997,200,-294,-2575,22297,-318,-600,-455,-600,35501,-39,34,127,0,0,4470,-401,0,1524,214,30,168,1,1,247,7,85071,0
85106,-190,-2045,630,-34,-406,-2377,22127,-402,-260,-383,-704,35501,-58,33,127,0,0,4425,-368,560,1524,214,30,178,1,1,247,7,85181,0
85116,79,-2407,438,49,43,-2804,22012,-137,11,377,112,35502,-57,34,127,0,0,4354,-791,760,1524,214,30,188,1,1,247,7,85181,0
85126,-300,-1591,219,125,142,-2833,22060,145,445,443,264,35511,-57,34,127,0,0,4271,-807,960,1524,214,30,198,1,1,247,7,85181,0
85136,1090,-1940,588,101,-275,-1856,22055,-101,220,666,48,35510,-60,34,127,0,0,4256,-82,1160,1524,214,30,208,1,1,247,7,85181,0
85146,214,-2054,669,-18,-1962,-1599,21865,-549,-467,620,-248,35503,-68,33,127,0,0,4244,-148,1360,1524,214,30,218,1,1,247,7,85196,0
85156,-1076,-2162,59,-126,-535,-1846,21507,-849,-695,549,-480,35503,-71,34,127,0,0,4190,-670,1500,1524,214,30,228,1,1,247,7,85212,0
85166,-601,-2040,-200,62,554,-2404,21134,-787,-362,856,-224,35499,-75,33,127,0,0,4115,-719,1500,1524,214,30,238,1,1,247,7,85212,0
85176,539,-2179,412,147,548,-2117,20807,-720,76,975,-248,35504,-86,33,127,0,0,4047,-648,1500,1524,214,30,248,1,1,247,7,85212,0
85186,328,-2077,942,151,-130,-1660,20463,-771,57,829,-288,35507,-106,34,127,0,0,3981,-648,1500,1524,214,30,258,1,1,247,7,85212,0
85196,-139,-2064,752,-27,-291,-1566,20163,-584,37,956,-40,35504,-110,33,127,0,0,3934,-499,1500,1524,214,30,268,1,1,247,7,85212,0
85206,160,-1964,158,-64,-162,-1336,19976,-336,311,1076,24,35499,-98,33,127,0,0,3899,-318,1500,1524,214,30,278,1,1,247,7,85212,0
85217,338,-1969,151,13,-252,-1107,19791,-397,253,883,-40,35502,-88,34,127,0,0,3869,-296,1500,1524,214,30,289,1,1,247,7,85212,0
85227,-80,-2023,241,52,-65,-1169,19559,-540,-118,768,-112,35509,-92,33,127,0,0,3827,-417,1500,1524,214,30,299,1,1,247,7,85212,0
85237,67,-2077,430,171,323,-1351,19307,-549,-167,853,-72,35521,-87,34,127,0,0,3783,-461,1500,1524,214,30,309,1,1,247,7,85212,0
85247,452,-1972,388,150,236,-1223,19089,-448,27,955,-24,35531,-105,34,127,0,0,3741,-417,1500,1524,214,30,319,1,1,247,7,85243,0
85257,311,-2009,642,71,-196,-841,18902,-389,131,906,0,35526,-96,34,127,0,0,3711,-296,1500,1524,214,30,329,1,1,247,7,85243,0
85267,0,-2035,519,17,-225,-731,18750,-313,123,903,56,35518,-90,34,127,0,0,3684,-263,1500,1524,214,30,339,1,1,247,7,85243,0
85277,179,-2006,332,12,-21,-790,18634,-241,139,916,72,35504,-81,33,127,0,0,3665,-197,1500,1524,214,30,349,1,1,247,7,85274,0
85287,260,-1960,397,57,30,-829,18503,-296,49,868,32,35506,-77,34,127,0,0,3640,-208,1500,1524,214,30,359,1,1,247,7,85274,0
85297,233,-1968,457,43,-21,-797,18347,-368,-83,866,8,35508,-76,33,127,0,0,3612,-318,1500,1524,214,30,369,1,1,247,7,85274,0
85307,102,-2008,486,11,16,-811,18175,-377,-85,886,16,35510,-85,33,127,0,0,3581,-307,1500,1524,214,30,379,1,1,247,7,85306,0
85317,167,-2011,381,-22,27,-768,18030,-285,17,902,72,35510,-69,33,127,0,0,3555,-241,1500,1524,214,30,389,1,1,247,7,85306,0
85327,322,-2005,409,-32,-35,-717,17910,-264,103,908,48,35503,-76,33,127,0,0,3533,-219,1500,1524,214,30,399,1,1,247,7,85306,0
85337,194,-2025,404,-34,-92,-731,17778,-319,23,890,16,35506,-71,33,127,0,0,3513,-186,1500,1524,214,30,409,1,1,247,7,85337,0
85347,-25,-2032,374,-12,22,-783,17629,-323,-59,876,32,35509,-63,34,127,0,0,3482,-318,1500,1524,214,30,419,1,1,247,7,85337,0
85357,328,-1995,398,8,82,-816,17493,-295,-9,904,40,35506,-73,34,127,0,0,3456,-296,1500,1524,214,30,429,1,1,247,7,85337,0
85367,386,-1977,472,-22,11,-788,17345,-336,-1,871,24,35503,-60,33,127,0,0,3427,-307,1500,1524,214,30,439,1,1,247,7,85352,0
85377,231,-2028,456,-67,-25,-777,17188,-344,-37,888,16,35501,-64,33,127,0,0,3401,-296,1500,1524,214,30,449,1,1,247,7,85352,0
85388,166,-2049,410,-76,-10,-782,17031,-314,9,912,8,35502,-53,34,127,0,0,3371,-280,1500,1524,214,30,460,1,1,247,7,85384,0
85398,223,-2079,428,-67,-3,-811,16888,-303,21,881,48,35507,-68,33,127,0,0,3343,-252,1500,1524,214,30,470,1,1,247,7,85384,0
85408,292,-2054,479,-75,-32,-804,16749,-302,8,889,40,35497,-77,33,127,0,0,3320,-258,1500,1524,214,30,480,1,1,247,7,85384,0
85418,192,-2045,506,-118,-32,-816,16605,-317,4,887,32,35491,-88,33,127,0,0,3292,-241,1500,1524,214,30,490,1,1,247,7,85446,0
85428,168,-2083,496,-134,-42,-860,16456,-321,-16,889,8,35497,-78,33,127,0,0,3268,-280,1500,1524,214,30,500,1,1,247,7,85446,0
85438,230,-2032,473,-144,-41,-936,16296,-357,-29,876,-8,35500,-75,34,127,0,0,3234,-291,1500,1524,214,30,510,1,1,247,7,85446,0
85448,140,-2027,459,-143,-41,-998,16120,-379,-54,878,16,35502,-82,33,127,0,0,3201,-302,1500,1524,214,30,520,1,1,247,7,85462,0
85458,186,-2045,439,-170,-55,-1039,15950,-370,-19,893,24,35499,-82,34,127,0,0,3169,-357,1500,1524,214,30,530,1,1,247,7,85462,0
85468,256,-2058,446,-175,-98,-1074,15777,-388,5,896,0,35503,-74,33,127,0,0,3137,-351,1520,1524,214,30,540,1,1,247,7,85462,0
85478,152,-2037,430,-192,-106,-1166,15599,-403,-15,933,8,35507,-64,33,127,0,0,3105,-379,1640,1524,214,30,550,1,1,247,7,85462,0
85488,130,-2029,418,-195,-121,-1240,15415,-421,-29,1021,-16,35511,-63,34,127,0,0,3072,-346,1780,1524,214,30,560,1,1,247,7,85462,0
85498,29,-2043,452,-191,-157,-1348,15224,-410,-30,1092,32,35514,-80,34,127,0,0,3035,-373,1930,1524,214,30,570,1,1,247,7,85493,0
85508,65,-2024,496,-199,-204,-1394,15041,-397,5,1213,24,35512,-93,33,127,0,0,3004,-258,2100,1524,214,30,580,1,1,247,7,85509,0
85518,138,-2046,519,-219,-249,-1533,14846,-432,-5,1286,32,35507,-98,33,127,0,0,2968,-346,2280,1524,214,30,590,1,1,247,7,85524,0
85528,119,-2057,514,-224,-262,-1614,14656,-411,-19,1440,0,35499,-86,33,127,0,0,2939,-296,2490,1524,214,30,600,1,1,247,7,85524,0
85538,136,-1999,480,-235,-304,-1719,14471,-396,13,1541,72,35497,-72,33,127,0,0,2903,-335,2720,1524,214,30,610,1,1,247,7,85524,0
85548,270,-2057,486,-228,-377,-1749,14306,-342,51,1704,96,35499,-80,33,127,0,0,2874,-313,2980,1524,214,30,620,1,1,247,7,85524,0
85558,392,-1995,589,-139,-661,-1848,14156,-321,72,1859,136,35505,-81,34,127,0,0,2844,-236,3250,1524,214,30,630,1,1,247,7,85556,0
85568,583,-2315,572,-88,-879,-1774,14037,-239,76,2016,224,35517,-64,33,127,0,0,2823,-230,3430,1524,214,30,640,1,1,247,7,85571,0
85578,-58,-2410,723,-274,-807,-1651,13952,-157,122,2079,320,35512,-51,33,127,0,0,2805,-153,3550,1524,214,30,650,1,1,247,7,85571,0
85588,-196,-2211,457,-449,-680,-1744,13922,-15,167,2084,584,35504,-52,34,127,0,0,2801,-60,3670,1524,214,30,660,1,1,247,7,85587,0
85598,341,-2306,133,-377,-517,-1776,13930,11,187,2222,640,35491,-34,34,127,0,0,2804,-5,3790,1524,214,30,670,1,1,247,7,85587,0
85608,280,-2075,-43,-279,-560,-1862,13931,4,56,2316,632,35484,-33,34,127,0,0,2803,32,3920,1524,214,30,680,1,1,247,7,85602,0
85618,323,-2211,136,-328,-551,-1995,13933,8,-12,2389,688,35479,-28,33,127,0,0,2805,38,4060,1524,214,30,690,1,1,247,7,85602,0
85628,271,-2300,357,-311,-515,-2092,13938,12,7,2450,776,35479,-40,34,127,0,0,2802,0,4210,1524,214,30,700,1,1,247,7,85602,0
85639,241,-2243,306,-395,-533,-2188,13953,43,22,2556,864,35480,-34,33,127,0,0,2810,65,4380,1524,214,30,711,1,1,247,7,85649,0
85649,29,-2184,247,-464,-565,-2229,13997,146,72,2587,1160,35483,-28,33,127,0,0,2814,76,4540,1524,214,30,721,1,1,247,7,85649,0
85659,-109,-2345,481,-480,-616,-2294,14125,341,215,2602,1704,35480,-3,34,127,0,0,2838,241,4710,1524,214,30,731,1,1,247,7,85649,0
85669,-9,-2756,877,-520,-985,-2141,14353,558,352,2806,2328,35465,39,33,127,0,0,2878,373,4900,1524,214,30,741,1,1,247,7,85649,0
85679,-21,-2766,962,-625,-1142,-2193,14662,735,345,3017,2640,35457,73,33,127,0,0,2931,527,5120,1524,214,30,751,1,1,247,7,85681,0
85689,-103,-2732,689,-704,-1260,-2535,15039,859,294,3158,2976,35450,132,34,127,0,0,2997,670,5370,1524,214,30,761,1,1,247,7,85681,0
85699,31,-2769,468,-592,-1298,-2840,15438,866,173,3274,2944,35439,173,34,127,0,0,3069,758,5660,1524,214,30,771,1,1,247,7,85681,0
85709,-215,-2574,334,-395,-1372,-3243,15797,755,-36,3406,2728,35426,218,33,127,0,0,3133,626,5990,1524,214,30,781,1,1,247,7,85696,0
85719,-378,-2653,336,-328,-1398,-3525,16123,708,-140,3556,2744,35417,214,33,127,0,0,3197,604,6360,1524,214,30,791,1,1,247,7,85696,0
85729,-412,-2978,482,-227,-1456,-3861,16477,824,-9,3808,3352,35416,209,33,127,0,0,3258,637,6740,1524,214,30,801,1,1,247,7,85712,0
85739,-237,-3150,535,-180,-1559,-3844,16925,1059,236,4027,3872,35416,210,33,127,0,0,3339,834,7110,1524,214,30,811,1,1,247,7,85743,0
85749,-561,-2952,449,-248,-1755,-3772,17510,1395,441,4301,4896,35406,271,34,127,0,0,3447,1087,7540,1524,214,30,821,1,1,247,7,85743,0
85759,-563,-2989,488,-427,-1866,-3735,18272,1808,601,4543,5880,35382,371,34,127,0,0,3585,1428,7900,1524,214,30,831,1,1,247,7,85743,0
85769,-235,-3369,545,-266,-1877,-3744,19213,2176,692,4765,6784,35341,494,34,127,0,0,3750,1713,8210,1524,214,30,841,1,1,247,7,85743,0
85779,-199,-2998,631,-288,-2184,-3851,20265,2341,557,4903,7208,35298,647,33,127,0,0,3939,1889,8550,1524,214,30,851,1,1,247,7,85774,0
85789,-293,-2761,806,-389,-2462,-4164,21225,2347,236,5039,7344,35257,790,33,127,0,0,4135,1977,8890,1524,214,30,861,1,1,247,7,85774,0
85799,128,-3263,281,-288,-2516,-4437,22297,2352,33,5334,7192,35216,912,34,127,0,0,4330,1944,9220,1524,214,30,871,1,1,247,7,85774,0
85809,724,-3305,362,-107,-2557,-4709,23335,2242,-64,5459,6680,35187,999,33,127,0,0,4513,1768,9320,1524,214,30,881,1,1,247,7,85806,0
85819,627,-2939,245,-191,-2694,-4847,24281,2003,-259,5308,6104,35187,1006,33,127,0,0,4669,1571,8910,1524,214,30,891,1,1,247,7,85806,0
85829,406,-2636,514,-377,-2835,-4972,25098,1714,-437,4886,5136,35199,956,34,127,0,0,4807,1362,6790,1524,214,30,901,1,1,247,7,85806,0
85839,710,-2541,349,-439,-2830,-5251,25720,1183,-640,3544,3088,35237,810,33,127,0,0,4915,999,4620,1524,214,30,911,1,1,247,7,85837,0
85849,703,-2110,706,-478,-2904,-5533,26028,458,-1020,2359,1080,35295,605,33,127,0,0,4965,472,3480,1524,214,30,921,1,1,247,7,85837,0
85859,252,-1843,937,-251,-3042,-5261,26068,14,-1111,1920,472,35369,345,34,127,0,0,4974,65,2650,1524,214,30,931,1,1,247,7,85852,0
85869,450,-945,793,-271,-2775,-4183,26070,4,-508,1303,280,35437,117,33,127,0,0,4976,21,0,1524,214,30,941,1,1,247,7,85868,0
85879,2642,-1988,129,-705,-1107,-3712,25863,-886,-502,-1638,-2680,35473,4,33,127,0,0,4937,-505,0,1524,214,30,951,0,1,247,7,85884,0
85890,1181,-1742,-130,-445,241,-2566,25129,-1797,-1260,-1564,-6152,35480,-19,33,127,0,0,4810,-1274,0,1524,214,30,962,0,1,247,7,85899,0
85900,593,-1455,-66,20,1213,-2489,23875,-3230,-1830,-3188,-9784,35463,65,33,127,0,0,4614,-2125,0,1524,214,30,972,0,1,247,7,85899,0
85910,-211,-943,-27,99,1589,-1537,22103,-3863,-2292,-265,-8272,35400,281,33,127,0,0,4411,-1983,0,1524,214,30,982,0,1,247,7,85899,0
85920,332,-760,506,-54,1448,-802,20519,-3340,-587,190,-6888,35396,276,33,127,0,0,4247,-1576,0,1524,214,30,992,0,1,247,7,85899,0
85930,352,-429,436,-193,1191,510,19103,-3014,714,397,-5192,35417,208,34,127,0,0,4148,-1010,0,1524,214,30,1002,0,1,247,7,85915,0
85940,248,-232,200,-229,1104,1032,17919,-2392,744,684,-3496,35493,-1,34,127,0,0,4086,-648,0,1524,214,30,1012,0,1,247,7,85946,0
85950,357,-199,-25,-157,910,1551,17054,-1713,1072,523,-2216,35518,-87,34,127,0,0,4025,-527,0,1524,214,30,1022,0,1,247,7,85946,0
85960,538,-349,-135,-111,853,1933,16432,-1240,1088,275,-1496,35519,-88,33,127,0,0,3967,-604,0,1524,214,30,1032,0,1,247,7,85962,0
85970,740,-633,20,-26,1010,2793,15975,-911,781,120,-1104,35507,-108,33,127,0,0,3902,-615,0,1524,214,30,1042,0,1,247,7,85962,0
85980,702,-710,104,-40,1220,3440,15637,-674,544,-45,-952,35504,-80,33,127,0,0,3840,-631,0,1524,214,30,1052,0,1,247,7,85962,0
85990,530,-697,210,-70,1386,4351,15368,-568,361,-218,-968,35498,-73,33,127,0,0,3779,-620,0,1524,214,30,1062,0,1,247,7,85993,0
86000,456,-653,170,-81,1401,4831,15131,-518,184,-332,-992,35507,-63,33,127,0,0,3722,-609,0,1524,214,30,1072,0,1,247,7,85993,0
86010,527,-658,81,-74,1274,5497,14896,-517,61,-376,-1000,35500,-56,33,127,0,0,3667,-593,0,1524,214,30,1082,0,1,247,7,85993,0
86020,599,-700,12,-45,1159,5961,14661,-525,4,-381,-1008,35496,-29,33,127,0,0,3618,-461,0,1524,214,30,1092,0,1,247,7,86009,0
86030,590,-808,14,9,1028,6671,14426,-499,-1,-350,-952,35494,-34,34,127,0,0,3570,-483,0,1524,214,30,1102,0,1,247,7,86009,0
86040,545,-900,41,33,948,7135,14198,-495,20,-311,-832,35494,-48,34,127,0,0,3528,-390,0,1524,214,30,1112,0,1,247,7,86024,0
86050,452,-1083,90,72,825,7800,13991,-441,55,-287,-616,35498,-50,34,127,0,0,3506,-263,0,1524,214,30,1122,0,1,247,7,86055,0
86060,460,-1219,82,106,762,8186,13806,-379,83,-212,-352,35496,-42,33,127,0,0,3493,-137,0,1524,214,30,1132,0,1,247,7,86055,0
86070,586,-1443,66,138,684,8705,13684,-210,155,-94,-24,35496,-34,33,127,0,0,3491,16,0,1524,214,30,1142,0,1,247,7,86055,0
86080,627,-1615,112,156,643,8949,13677,80,339,221,96,35498,-45,34,127,0,0,3491,5,0,1524,214,30,1152,0,1,247,7,86055,0
86090,736,-1932,206,167,558,9344,13714,87,325,335,176,35502,-69,34,127,0,0,3499,43,0,1524,214,30,1162,0,1,247,7,86087,0
86100,669,-2146,277,171,431,9600,13784,173,141,333,304,35507,-58,34,127,0,0,3517,241,0,1524,214,30,1172,0,1,247,7,86087,0
86110,728,-2514,376,221,263,9881,13881,230,111,528,528,35499,-61,33,127,0,0,3549,291,0,1524,214,30,1182,0,1,247,7,86087,0
86120,692,-2725,390,284,202,9969,14024,344,129,559,840,35492,-54,33,127,0,0,3595,417,0,1524,214,30,1192,0,1,247,7,86118,0
86130,735,-2942,325,408,273,9830,14214,454,178,561,1032,35490,-52,34,127,0,0,3643,384,0,1524,214,30,1202,0,1,247,7,86118,0
86140,757,-3044,228,509,417,9681,14445,515,173,464,1024,35489,-47,33,127,0,0,3676,302,0,1524,214,30,1212,0,1,247,7,86118,0
86151,659,-3126,210,701,709,9470,14706,515,79,357,912,35497,-42,34,127,0,0,3700,230,0,1524,214,30,1223,0,1,247,7,86134,0
86161,477,-3021,207,948,1090,9170,14924,464,-29,328,760,35498,-25,34,127,0,0,3711,120,0,1524,214,30,1233,0,1,247,7,86149,0
86171,367,-2952,123,1094,1381,8870,15126,424,-69,305,544,35503,-29,34,127,0,0,3715,32,0,1524,214,30,1243,0,1,247,7,86165,0
86181,351,-2932,183,1266,1785,8527,15288,327,-108,252,280,35500,-27,34,127,0,0,3713,-21,0,1524,214,30,1253,0,1,247,7,86165,0
86191,347,-2900,228,1404,2038,8341,15408,229,-157,201,144,35501,-36,34,127,0,0,3715,0,0,1524,214,30,1263,0,1,247,7,86180,0
86201,203,-2811,299,1516,2394,7975,15472,102,-194,249,128,35501,-51,34,127,0,0,3715,32,0,1524,214,30,1273,0,1,247,7,86196,0
86211,197,-2786,311,1542,2629,7694,15499,26,-178,399,152,35495,-57,34,127,0,0,3711,0,0,1524,214,30,1283,0,1,247,7,86196,0
86221,142,-2757,268,1457,2924,7245,15506,19,-110,613,208,35495,-66,33,127,0,0,3711,-10,0,1524,214,30,1293,0,1,247,7,86305,0
86231,117,-2820,290,1338,3094,6885,15548,130,26,555,224,35494,-68,33,127,0,0,3708,-32,0,1524,214,30,1303,0,1,247,7,86321,0
86241,117,-2974,396,1005,3238,6210,15619,170,125,372,216,35492,-56,34,127,0,0,3711,0,0,1524,214,30,1313,0,1,247,7,86321,0
86251,240,-3072,492,762,3200,5707,15687,139,58,321,216,35486,-52,33,127,0,0,3715,43,0,1524,214,30,1323,0,1,247,7,86321,0
86261,477,-2831,505,469,2872,4826,15746,151,-25,425,264,35479,-45,34,127,0,0,3724,98,0,1524,214,30,1333,0,1,247,7,86321,0
86271,653,-2642,514,479,2496,4134,15843,228,59,345,280,35478,-40,33,127,0,0,3733,87,0,1524,214,30,1343,0,1,247,7,86321,0
86281,931,-2192,302,494,1694,2925,15937,199,78,387,304,35479,-34,33,127,0,0,3741,54,0,1524,214,30,1353,0,1,247,7,86321,0
86291,1006,-1937,308,478,1144,2130,16029,201,-15,363,216,35477,-40,34,127,0,0,3744,0,0,1524,214,30,1363,0,1,247,7,86321,0
86301,996,-1883,300,339,412,993,16107,168,-28,317,176,35476,-51,33,127,0,0,3744,-10,0,1524,214,30,1373,0,1,247,7,86321,0
86311,917,-2085,305,325,59,252,16168,136,-47,314,152,35475,-60,33,127,0,0,3744,10,0,1524,214,30,1383,0,1,247,7,86321,0
86321,886,-2182,292,230,-236,-744,16219,131,-44,317,152,35477,-66,34,127,0,0,3741,-10,0,1524,214,30,1393,0,1,247,7,86321,0
86331,901,-2135,348,124,-278,-1301,16261,77,-30,381,160,35480,-68,33,127,0,0,3741,-21,0,1524,214,30,1403,0,1,247,7,86321,0
86341,985,-2060,357,-13,-264,-1978,16299,61,-29,410,176,35484,-80,33,127,0,0,3739,10,0,1524,214,30,1413,0,1,247,7,86321,0
86351,936,-2191,298,-56,-234,-2335,16319,59,-42,607,216,35493,-79,33,127,0,0,3739,-21,0,1524,214,30,1423,0,1,247,7,86337,0
86361,-1217,-6885,-365,-371,-473,-2061,16367,106,31,448,224,35505,-86,34,127,0,0,3768,373,0,1524,214,30,1433,0,1,247,7,86368,0
86371,164,-3122,1720,-527,737,-2188,16475,380,153,1183,1464,35499,-72,34,127,0,0,3924,1549,0,10494,3205,31,3,1,1,269,3,86368,0
86381,227,-1486,25,-82,-769,-2560,16723,504,415,225,1280,35487,-56,33,127,0,0,4034,1087,0,10494,3205,31,13,1,1,269,3,86368,0
86391,-108,-2029,-478,-1044,-688,-2234,17010,759,306,1255,2432,35465,-53,33,127,0,0,4139,1010,0,10494,3205,31,23,1,1,269,3,86368,0
86402,-773,-2300,-801,-523,-939,-2102,17548,1210,512,1082,3320,35469,6,33,127,0,0,4256,1065,0,10494,3205,31,34,1,1,269,3,86383,0
86412,-687,-2561,-876,-291,-825,-2188,18194,1496,655,881,3824,35471,30,34,127,0,0,4360,1043,0,10494,3205,31,44,1,1,269,3,86415,0
86422,-704,-2251,-550,134,-457,-2483,18926,1650,451,737,3992,35473,33,34,127,0,0,4454,933,0,10494,3205,31,54,1,1,269,3,86415,0
86432,-225,-1983,-245,51,-318,-2601,19680,1654,211,578,3952,35459,18,34,127,0,0,4529,752,0,10494,3205,31,64,1,1,269,3,86415,0
86442,230,-2448,334,34,-383,-2562,20408,1581,-3,500,3840,35460,-1,34,127,0,0,4590,609,0,10494,3205,31,74,1,1,269,3,86415,0
86452,336,-2690,461,81,-453,-2673,21099,1493,-123,394,3432,35465,-2,34,127,0,0,4639,433,0,10494,3205,31,84,1,1,269,3,86446,0
86462,434,-2218,523,17,-522,-2801,21723,1304,-195,89,2392,35474,-26,34,127,0,0,4648,126,0,10494,3205,31,94,1,1,269,3,86446,0
86472,284,-2312,422,65,-583,-2672,22225,1008,-355,-18,1384,35475,-44,33,127,0,0,4650,-10,0,10494,3205,31,104,1,1,269,3,86462,0
86482,163,-2233,304,105,-672,-2339,22581,694,-521,-25,648,35475,-60,33,127,0,0,4643,0,0,10494,3205,31,114,1,1,269,3,86477,0
86492,-9,-2506,479,251,-620,-2219,22799,399,-543,7,160,35480,-37,34,127,0,0,4645,0,0,10494,3205,31,124,1,1,269,3,86477,0
86502,-218,-2165,684,357,-568,-2430,22873,37,-535,-289,-232,35486,-47,33,127,0,0,4621,-252,0,10494,3205,31,134,1,1,269,3,86477,0
86512,-120,-1872,246,350,-361,-2553,22793,-229,-577,-413,-464,35485,-33,34,127,0,0,4580,-444,0,10494,3205,31,144,1,1,269,3,86508,0
86522,-181,-1752,531,166,-130,-2383,22655,-331,-396,-466,-680,35492,-46,33,127,0,0,4530,-488,0,10494,3205,31,154,1,1,269,3,86508,0
86532,-137,-1922,505,75,-153,-2299,22479,-392,-193,-376,-720,35488,-33,33,127,0,0,4493,-379,560,10494,3205,31,164,1,1,269,3,86508,0
86542,222,-2448,390,1,-39,-2450,22370,-93,51,357,144,35485,-53,33,127,0,0,4443,-538,760,10494,3205,31,174,1,1,269,3,86524,0
86552,-305,-2099,336,96,52,-2471,22437,218,498,393,416,35486,-64,34,127,0,0,4365,-769,960,10494,3205,31,184,1,1,269,3,86555,0
86562,1450,-1807,408,187,-550,-1617,22502,57,344,678,160,35493,-70,33,127,0,0,4343,-38,1160,10494,3205,31,194,1,1,269,3,86555,0
86572,747,-2060,472,2,-977,-1529,22392,-375,-358,731,-112,35489,-71,33,127,0,0,4336,-98,1360,10494,3205,31,204,1,1,269,3,86555,0
86582,-429,-2086,134,-99,-361,-1765,22091,-783,-711,579,-568,35488,-72,34,127,0,0,4294,-466,1500,10494,3205,31,214,1,1,269,3,86555,0
86592,-1220,-2130,-74,-34,255,-2213,21676,-936,-598,687,-552,35497,-80,34,127,0,0,4216,-780,1500,10494,3205,31,224,1,1,269,3,86633,0
86602,-369,-2066,38,106,557,-2329,21270,-864,-191,860,-400,35513,-84,33,127,0,0,4137,-812,1500,10494,3205,31,234,1,1,269,3,86649,0
86612,136,-2189,803,223,372,-2049,20910,-757,110,927,-208,35508,-89,33,127,0,0,4064,-758,1500,10494,3205,31,244,1,1,269,3,86649,0
86622,174,-2095,905,-22,-77,-1759,20606,-621,196,962,-64,35492,-80,33,127,0,0,4004,-543,1500,10494,3205,31,254,1,1,269,3,86649,0
86632,46,-2120,799,-37,-383,-1626,20376,-456,255,1054,-16,35482,-93,33,127,0,0,3970,-307,1500,10494,3205,31,264,1,1,269,3,86649,0
