state_time,accelx,accely,accelz,gyrox,gyroy,gyroz,mot_ang,mot_vel,mot_acc,mot_cur,mot_volt,batt_volt,batt_curr,temperature,status_mn,status_ex,status_re,ank_ang,ank_vel,ank_torque,peak_ank_torque,step_energy,step_count,step_time,gait_state,movement,speed,incline,sys_time,eventFlags
295320,-94,-2070,282,-88,36,102,15523,-1,2,-193,-64,35455,-119,34,127,0,0,4042,0,0,993,20,139,1988,1,0,88,15,295308,0
295330,-108,-2065,269,-86,37,121,15523,-9,3,-192,-64,35455,-102,34,127,0,0,4042,0,0,993,20,139,1998,1,0,88,15,295308,0
295340,-106,-2079,270,-80,43,117,15521,-9,-3,-246,-56,35447,-125,34,127,0,0,4042,21,0,993,20,139,2008,1,0,88,15,295308,0
295350,-97,-2075,285,-80,43,114,15519,-1,-4,-212,-56,35454,-128,34,127,0,0,4039,-5,0,993,20,139,2018,1,0,88,15,295355,0
295360,-98,-2078,290,-80,41,118,15515,-6,1,-186,-48,35463,-145,34,127,0,0,4042,-10,0,993,20,139,2028,1,0,88,15,295355,0
295370,-117,-2071,286,-83,34,122,15513,-7,0,-150,-40,35449,-124,34,127,0,0,4042,0,0,993,20,139,2038,1,0,88,15,295371,0
295380,-121,-2077,280,-90,39,126,15505,-25,1,-155,-32,35455,-131,34,127,0,0,4042,43,0,993,20,139,2048,1,0,88,15,295371,0
295390,-131,-2069,271,-83,36,125,15501,-5,-13,-43,-16,35450,-129,34,127,0,0,4042,0,0,993,20,139,2058,1,0,88,15,295371,0
295400,-126,-2064,273,-79,41,122,15501,-2,12,-49,-40,35462,-127,34,127,0,0,4040,-38,0,993,20,139,2068,1,0,88,15,295371,0
295411,-135,-2073,278,-82,35,116,15495,-7,-5,-41,-8,35457,-122,34,127,0,0,4042,-10,0,993,20,139,2079,1,0,88,15,295386,0
295421,-140,-2063,286,-77,36,122,15494,0,0,-55,8,35436,-120,34,127,0,0,4042,10,0,993,20,139,2089,1,0,88,15,295418,0
295431,-116,-2061,279,-78,36,118,15495,-5,14,-9,-8,35448,-137,34,127,0,0,4040,-43,0,993,20,139,2099,1,0,88,15,295418,0
295441,-147,-2068,285,-82,42,112,15491,-5,-13,-52,8,35451,-147,34,127,0,0,4040,0,0,993,20,139,2109,1,0,88,15,295418,0
295451,-107,-2075,285,-83,30,111,15491,-9,5,-14,-32,35451,-132,34,127,0,0,4042,0,0,993,20,139,2119,1,0,88,15,295418,0
295461,-123,-2072,285,-82,38,115,15492,0,14,7,0,35445,-130,34,127,0,0,4038,-43,0,993,20,139,2129,1,0,88,15,295433,0
295471,-110,-2067,283,-84,37,110,15487,-14,-5,-57,-16,35447,-141,34,127,0,0,4038,-10,0,993,20,139,2139,1,0,88,15,295465,0
295481,-116,-2066,279,-83,35,107,15488,-15,-4,-93,-40,35455,-146,34,127,0,0,4038,-10,0,993,20,139,2149,1,0,88,15,295465,0
295491,-126,-2059,271,-85,36,109,15487,9,6,-62,-48,35446,-140,34,127,0,0,4040,-10,0,993,20,139,2159,1,0,88,15,295465,0
295501,-121,-2064,277,-79,43,111,15487,1,2,-77,-32,35439,-122,34,127,0,0,4040,0,0,993,20,139,2169,1,0,88,15,295480,0
295511,-137,-2065,278,-77,45,105,15486,8,7,-54,-80,35429,-120,34,127,0,0,4038,-32,0,993,20,139,2179,1,0,88,15,295543,0
295521,-136,-2064,290,-80,40,99,15484,3,3,-102,-32,35434,-142,34,127,0,0,4038,0,0,993,20,139,2189,1,0,88,15,295543,0
295531,-118,-2068,288,-84,34,101,15485,6,3,-122,-32,35440,-142,34,127,0,0,4036,-21,0,993,20,139,2199,1,0,88,15,295558,0
295541,-130,-2069,285,-85,36,97,15483,3,4,-135,-32,35429,-143,34,127,0,0,4038,-10,0,993,20,139,2209,1,0,88,15,295558,0
295551,-133,-2075,283,-79,39,96,15482,-7,-4,-162,-48,35427,-133,34,127,0,0,4036,10,0,993,20,139,2219,1,0,88,15,295558,0
295561,-135,-2067,287,-82,40,88,15483,-5,3,-152,-48,35434,-142,34,127,0,0,4036,-21,0,993,20,139,2229,1,0,88,15,295558,0
295571,-134,-2064,279,-80,39,82,15482,1,2,-150,-48,35446,-133,34,127,0,0,4036,-21,0,993,20,139,2239,1,0,88,15,295558,0
295581,-116,-2067,282,-79,37,74,15481,1,-6,-179,-80,35438,-129,34,127,0,0,4034,-10,0,993,20,139,2249,1,0,88,15,295574,0
295591,-115,-2070,270,-80,43,82,15477,-12,-3,-248,-48,35425,-126,34,127,0,0,4034,21,0,993,20,139,2259,1,0,88,15,295574,0
295601,-113,-2073,287,-79,35,85,15474,2,4,-235,-56,35426,-126,34,127,0,0,4034,21,0,993,20,139,2269,1,0,88,15,295574,0
295611,-110,-2066,292,-84,34,87,15472,-22,8,-263,-64,35457,-132,34,127,0,0,4031,10,0,993,20,139,2279,1,0,88,15,295590,0
295621,-116,-2073,286,-79,29,83,15471,4,-2,-261,-72,35465,-125,34,127,0,0,4029,-21,0,993,20,139,2289,1,0,88,15,295605,0
295631,-104,-2065,275,-87,38,84,15471,-4,-3,-309,-88,35465,-119,34,127,0,0,4029,-10,0,993,20,139,2299,1,0,88,15,295605,0
295641,-104,-2076,279,-80,39,87,15466,-3,-10,-349,-136,35440,-122,34,127,0,0,4027,10,0,993,20,139,2309,1,0,88,15,295621,0
295651,-112,-2071,284,-82,41,92,15459,-18,-6,-341,-112,35438,-137,34,127,0,0,4025,-21,0,993,20,139,2319,1,0,88,15,295621,0
295662,-113,-2072,281,-78,26,95,15445,-36,-17,-343,-88,35448,-139,34,127,0,0,4025,0,0,993,20,139,2330,1,0,88,15,295652,0
295672,-109,-2071,280,-77,38,93,15422,-45,-31,-172,-40,35454,-116,34,127,0,0,4025,0,0,993,20,139,2340,1,0,88,15,295652,0
295682,-108,-2061,273,-75,36,98,15419,20,24,-123,-56,35454,-109,34,127,0,0,4023,-32,0,993,20,139,2350,1,0,88,15,295668,0
295692,-98,-2062,280,-78,39,99,15418,10,44,-141,-48,35445,-100,34,127,0,0,4023,-21,0,993,20,139,2360,1,0,88,15,295668,0
295702,-117,-2072,285,-77,30,111,15414,-4,-1,-178,-48,35443,-96,34,127,0,0,4026,27,0,993,20,139,2370,1,0,88,15,295668,0
295712,-99,-2075,295,-77,45,118,15414,-16,2,-175,-24,35444,-85,34,127,0,0,4025,49,0,993,20,139,2380,1,0,88,15,295683,0
295722,-69,-2065,288,-78,40,116,15416,-1,11,-149,-48,35448,-105,34,127,0,0,4023,5,0,993,20,139,2390,1,0,88,15,295715,0
295732,-84,-2061,283,-77,38,121,15415,0,-5,-195,-48,35449,-121,34,127,0,0,4026,60,0,993,20,139,2400,1,0,88,15,295715,0
295742,-107,-2067,274,-84,31,128,15413,-16,-10,-185,-64,35455,-130,34,127,0,0,4024,21,0,993,20,139,2410,1,0,88,15,295715,0
295752,-112,-2063,277,-77,38,121,15415,9,1,-193,-24,35448,-102,34,127,0,0,4022,32,0,993,20,139,2420,1,0,88,15,295730,0
295762,-105,-2072,280,-74,35,115,15414,-3,3,-179,-48,35436,-98,34,127,0,0,4023,0,0,993,20,139,2430,1,0,88,15,295746,0
295772,-101,-2077,281,-72,35,117,15414,1,-2,-175,-64,35444,-111,34,127,0,0,4024,-5,0,993,20,139,2440,1,0,88,15,295746,0
295782,-121,-2066,289,-76,43,124,15414,0,3,-174,-48,35451,-119,34,127,0,0,4019,-32,0,993,20,139,2450,1,0,88,15,295761,0
295792,-102,-2071,286,-78,34,114,15412,3,-8,-191,-40,35450,-104,34,127,0,0,4023,-10,0,993,20,139,2460,1,0,88,15,295761,0
295802,-119,-2072,284,-76,36,124,15412,-5,-1,-186,-40,35435,-92,34,127,0,0,4026,49,0,993,20,139,2470,1,0,88,15,295777,0
295812,-109,-2072,283,-77,35,124,15416,-7,10,-136,-48,35442,-92,34,127,0,0,4019,-38,0,993,20,139,2480,1,0,88,15,295793,0
295822,-137,-2077,281,-72,37,125,15412,4,-11,-192,-16,35458,-109,34,127,0,0,4022,-5,0,993,20,139,2490,1,0,88,15,295793,0
295832,-98,-2084,281,-75,32,120,15412,-14,-1,-161,-40,35461,-99,34,127,0,0,4019,-49,0,993,20,139,2500,1,0,88,15,295808,0
295842,-132,-2073,292,-74,39,125,15413,-1,-1,-209,-40,35461,-97,34,127,0,0,4023,5,0,993,20,139,2510,-4,0,88,15,295839,0
295852,-115,-2082,291,-79,37,123,15413,-6,-1,-199,-40,35443,-91,34,127,0,0,4023,16,0,993,20,139,2520,-4,0,88,15,295839,0
295862,-96,-2076,289,-73,43,118,15414,0,5,-178,-64,35445,-113,34,127,0,0,4024,-5,0,993,20,139,2530,-4,0,88,15,295839,0
295872,-138,-2075,283,-77,35,120,15414,6,-3,-171,-64,35450,-109,34,127,0,0,4024,-5,0,993,20,139,2540,-4,0,88,15,295839,0
295882,-121,-2070,284,-79,37,126,15415,7,-8,-166,-48,35440,-87,34,127,0,0,4026,32,0,993,20,139,2550,-4,0,88,15,295871,0
295892,-125,-2066,282,-81,39,125,15415,0,1,-138,-48,35450,-80,34,127,0,0,4026,32,0,993,20,139,2560,-4,0,88,15,295871,0
295902,-77,-2059,283,-76,31,129,15415,13,2,-118,-48,35442,-98,34,127,0,0,4023,-5,0,993,20,139,2570,-4,0,88,15,295918,0
295913,-112,-2059,284,-73,36,125,15414,5,-4,-169,-48,35445,-112,34,127,0,0,4023,10,0,993,20,139,2581,-4,0,88,15,295933,0
295923,-88,-2043,294,-79,28,123,15413,-8,-2,-140,-40,35448,-108,34,127,0,0,4023,-10,0,993,20,139,2591,-4,0,88,15,295933,0
295933,-108,-2042,290,-80,37,114,15414,-6,-1,-130,-56,35442,-102,34,127,0,0,4020,-32,0,993,20,139,2601,-4,0,88,15,295933,0
295943,-123,-2047,287,-82,34,114,15413,3,-3,-189,-40,35440,-99,34,127,0,0,4020,-21,0,993,20,139,2611,-4,0,88,15,295933,0
295953,-149,-2046,283,-80,37,116,15413,0,-1,-154,-56,35437,-112,34,127,0,0,4023,0,0,993,20,139,2621,-4,0,88,15,295933,0
295963,-120,-2069,275,-76,32,119,15413,-9,1,-158,-72,35435,-104,34,127,0,0,4023,0,0,993,20,139,2631,-4,0,88,15,295949,0
295973,-91,-2065,277,-77,49,116,15415,20,2,-183,-80,35441,-88,34,127,0,0,4023,0,0,993,20,139,2641,-4,0,88,15,295949,0
295983,-103,-2079,286,-81,38,126,15413,3,5,-192,-32,35437,-75,34,127,0,0,4023,10,0,993,20,139,2651,-4,0,88,15,295980,0
295993,-80,-2096,278,-70,38,126,15413,5,3,-142,-88,35442,-70,34,127,0,0,4023,-10,0,993,20,139,2661,-4,0,88,15,295980,0
296003,-127,-2106,276,-68,33,144,15413,5,4,-163,-40,35447,-77,34,127,0,0,4020,-21,0,993,20,139,2671,-4,0,88,15,295980,0
296013,-94,-2093,273,-62,43,147,15413,3,-1,-186,-40,35445,-80,34,127,0,0,4023,0,0,993,20,139,2681,-4,0,88,15,295980,0
296023,-86,-2096,278,-62,47,157,15413,0,-1,-172,-40,35445,-93,34,127,0,0,4023,0,0,993,20,139,2691,-4,0,88,15,296011,0
296033,-90,-2094,286,-50,50,170,15414,4,0,-134,-56,35448,-112,34,127,0,0,4023,-10,0,993,20,139,2701,-4,0,88,15,296011,0
296043,-120,-2088,279,-48,50,173,15412,0,2,-166,-40,35455,-128,34,127,0,0,4023,10,0,993,20,139,2711,-4,0,88,15,296011,0
296053,-98,-2082,289,-53,50,177,15413,-10,3,-123,-56,35454,-113,34,127,0,0,4025,21,0,993,20,139,2721,-4,0,88,15,296043,0
296063,-106,-2075,293,-50,45,199,15417,9,6,-56,-32,35451,-90,34,127,0,0,4025,-21,0,993,20,139,2731,-4,0,88,15,296043,0
296073,-145,-2059,289,-50,39,213,15418,26,5,-2,-8,35448,-95,34,127,0,0,4029,0,0,993,20,139,2741,-4,0,88,15,296058,0
296083,-95,-2078,276,-50,34,205,15420,18,2,91,32,35458,-91,34,127,0,0,4031,10,0,993,20,139,2751,-4,0,88,15,296058,0
296093,-141,-2065,284,-51,26,205,15422,1,1,141,64,35461,-111,34,127,0,0,4036,32,0,993,20,139,2761,-4,0,88,15,296089,0
296103,-150,-2063,295,-53,33,200,15425,10,7,229,64,35457,-110,34,127,0,0,4036,21,0,993,20,139,2771,-4,0,88,15,296089,0
296113,-139,-2044,294,-60,27,182,15429,0,-2,255,96,35452,-128,34,127,0,0,4038,32,0,993,20,139,2781,-4,0,88,15,296089,0
296123,-155,-2056,293,-65,28,176,15433,13,-4,283,88,35448,-133,34,127,0,0,4038,10,0,993,20,139,2791,-4,0,88,15,296121,0
296133,-150,-2048,296,-62,41,152,15432,5,-1,321,96,35441,-119,34,127,0,0,4038,0,0,993,20,139,2801,-4,0,88,15,296121,0
296143,-137,-2053,299,-65,34,139,15437,9,0,294,88,35436,-112,34,127,0,0,4040,10,0,993,20,139,2811,-4,0,88,15,296121,0
296154,-152,-2061,306,-69,34,130,15437,-3,-3,323,64,35430,-102,34,127,0,0,4041,-5,0,993,20,139,2822,-4,0,88,15,296152,0
296164,-152,-2057,297,-73,36,112,15437,5,-2,329,88,35428,-112,34,127,0,0,4040,0,0,993,20,139,2832,-4,0,88,15,296152,0
296174,-139,-2065,294,-70,28,113,15440,6,1,334,80,35431,-126,34,127,0,0,4040,-27,0,993,20,139,2842,-4,0,88,15,296152,0
296184,-138,-2064,287,-75,24,107,15442,-2,6,289,80,35429,-110,34,127,0,0,4037,-5,0,993,20,139,2852,-4,0,88,15,296152,0
296194,-152,-2084,285,-80,33,107,15445,9,-5,281,72,35437,-86,34,127,0,0,4040,-60,0,993,20,139,2862,-4,0,88,15,296199,0
296204,-154,-2074,293,-76,26,101,15446,-1,6,241,72,35444,-100,34,127,0,0,4037,-10,0,993,20,139,2872,-4,0,88,15,296199,0
296214,-105,-2068,292,-78,36,98,15447,0,-5,220,64,35453,-125,34,127,0,0,4037,-21,0,993,20,139,2882,-4,0,88,15,296199,0
296224,-108,-2070,294,-74,32,100,15447,-3,-2,193,48,35457,-133,34,127,0,0,4038,0,0,993,20,139,2892,-4,0,88,15,296199,0
296234,-114,-2076,294,-79,38,101,15448,-2,4,214,48,35437,-109,34,127,0,0,4038,-5,0,993,20,139,2902,-4,0,88,15,296214,0
296244,-110,-2080,299,-71,33,102,15447,2,1,211,40,35425,-106,34,127,0,0,4038,0,0,993,20,139,2912,-4,0,88,15,296230,0
296254,-117,-2083,298,-76,32,104,15446,-5,-5,209,24,35438,-115,34,127,0,0,4039,-5,0,993,20,139,2922,-4,0,88,15,296230,0
296264,-130,-2084,301,-77,29,105,15447,2,-1,219,48,35446,-115,34,127,0,0,4038,0,0,993,20,139,2932,-4,0,88,15,296246,0
296274,-107,-2079,286,-80,34,106,15447,-6,1,215,48,35443,-94,34,127,0,0,4038,0,0,993,20,139,2942,-4,0,88,15,296261,0
296284,-115,-2069,286,-80,38,104,15447,3,3,200,40,35433,-85,34,127,0,0,4038,0,0,993,20,139,2952,-4,0,88,15,296277,0
296294,-116,-2060,293,-78,38,104,15447,0,0,179,48,35423,-90,34,127,0,0,4038,5,0,993,20,139,2962,-4,0,88,15,296277,0
296304,-134,-2065,290,-79,37,106,15447,2,-2,172,48,35429,-102,34,127,0,0,4038,16,0,993,20,139,2972,-4,0,88,15,296293,0
296314,-113,-2052,304,-76,33,106,15446,-4,-3,145,24,35424,-119,34,127,0,0,4036,-16,0,993,20,139,2982,-4,0,88,15,296293,0
296324,-122,-2053,299,-80,38,98,15444,9,-8,169,8,35424,-115,34,127,0,0,4037,-38,0,993,20,139,2992,-4,0,88,15,296293,0
296334,-137,-2069,302,-87,34,99,15445,5,2,145,48,35431,-127,34,127,0,0,4035,-21,0,993,20,139,3002,-4,0,88,15,296308,0
296344,-115,-2060,299,-86,32,105,15443,-19,1,107,32,35437,-135,34,127,0,0,4036,0,0,993,20,139,3012,-4,0,88,15,296355,0
296354,-117,-2070,290,-81,42,101,15444,0,4,112,0,35431,-124,34,127,0,0,4037,0,0,993,20,139,3022,-4,0,88,15,296355,0
296364,-128,-2069,288,-81,36,106,15438,-17,-1,50,16,35429,-105,34,127,0,0,4030,21,0,993,20,139,3032,-4,0,88,15,296355,0
296374,-111,-2065,292,-92,34,97,15437,10,-2,58,-8,35423,-102,34,127,0,0,4031,-43,0,993,20,139,3042,-4,0,88,15,296355,0
296384,-115,-2064,292,-83,31,104,15434,-6,2,22,0,35421,-121,34,127,0,0,4031,0,0,993,20,139,3052,-4,0,88,15,296355,0
296394,-109,-2064,292,-80,35,114,15433,-2,-4,14,8,35428,-126,34,127,0,0,4035,49,0,993,20,139,3062,-4,0,88,15,296386,0
296404,-119,-2065,288,-82,35,116,15433,-2,15,52,0,35426,-115,34,127,0,0,4031,10,0,993,20,139,3072,-4,0,88,15,296386,0
296414,-110,-2065,288,-82,39,118,15435,7,1,46,8,35422,-92,34,127,0,0,4031,0,0,993,20,139,3082,-4,0,88,15,296386,0
296425,-117,-2072,299,-86,39,125,15434,4,-1,76,-8,35434,-105,34,127,0,0,4034,10,0,993,20,139,3093,-4,0,88,15,296402,0
296435,-133,-2070,293,-86,34,126,15434,-4,-1,61,8,35439,-106,34,127,0,0,4034,21,0,993,20,139,3103,-4,0,88,15,296417,0
296445,-97,-2062,293,-86,35,124,15435,8,1,61,-32,35442,-89,34,127,0,0,4031,0,0,993,20,139,3113,-4,0,88,15,296417,0
296455,-124,-2061,288,-84,37,125,15433,10,-1,49,-24,35427,-96,34,127,0,0,4031,10,0,993,20,139,3123,-4,0,88,15,296433,0
296465,-84,-2064,285,-85,40,114,15432,-3,4,77,32,35416,-118,34,127,0,0,4031,21,0,993,20,139,3133,-4,0,88,15,296464,0
296475,-92,-2075,285,-82,41,115,15434,-14,3,42,16,35418,-122,34,127,0,0,4034,10,0,993,20,139,3143,-4,0,88,15,296464,0
296485,-85,-2068,290,-84,37,122,15434,12,0,61,8,35418,-105,34,127,0,0,4031,-10,0,993,20,139,3153,-4,0,88,15,296464,0
296495,-122,-2074,298,-76,38,114,15431,7,6,35,8,35425,-100,34,127,0,0,4031,0,0,993,20,139,3163,-4,0,88,15,296464,0
296505,-119,-2062,294,-80,30,120,15431,-8,2,24,16,35417,-98,34,127,0,0,4034,32,0,993,20,139,3173,-4,0,88,15,296496,0
296515,-132,-2058,290,-75,36,120,15434,10,12,86,0,35422,-102,34,127,0,0,4034,0,0,993,20,139,3183,-4,0,88,15,296496,0
296525,-123,-2069,279,-77,36,117,15433,11,-3,75,8,35419,-94,34,127,0,0,4031,-10,0,993,20,139,3193,-4,0,88,15,296496,0
296535,-134,-2072,290,-73,35,105,15431,0,-12,25,8,35410,-92,34,127,0,0,4031,21,0,993,20,139,3203,-4,0,88,15,296527,0
296545,-141,-2068,297,-72,30,93,15432,-1,10,49,8,35411,-105,34,127,0,0,4031,10,0,993,20,139,3213,-4,0,88,15,296527,0
296555,-120,-2063,303,-75,31,89,15433,-1,1,80,-32,35413,-113,34,127,0,0,4031,-10,0,993,20,139,3223,-4,0,88,15,296527,0
296565,-143,-2063,294,-71,35,69,15430,6,-1,34,16,35425,-103,34,127,0,0,4029,-21,0,993,20,139,3233,-4,0,88,15,296542,0
296575,-133,-2059,286,-72,44,62,15429,5,1,-18,-8,35424,-83,34,127,0,0,4029,0,0,993,20,139,3243,-4,0,88,15,296558,0
296585,-105,-2058,290,-62,42,52,15424,-27,-3,-123,-48,35433,-92,34,127,0,0,4025,0,0,993,20,139,3253,-4,0,88,15,296574,0
296595,-142,-2055,296,-66,41,37,15417,8,-10,-96,-32,35428,-108,34,127,0,0,4023,-21,0,993,20,139,3263,-4,0,88,15,296574,0
296605,-106,-2071,302,-73,42,30,15415,-18,10,-192,-80,35429,-99,34,127,0,0,4020,-21,0,993,20,139,3273,-4,0,88,15,296589,0
296615,-124,-2065,299,-72,42,42,15412,-10,1,-283,-48,35428,-87,34,127,0,0,4018,0,0,993,20,139,3283,-4,0,88,15,296605,0
296625,-105,-2064,294,-70,41,26,15405,-23,-10,-327,-72,35430,-76,34,127,0,0,4016,-10,0,993,20,139,3293,-4,0,88,15,296605,0
296635,-103,-2063,295,-77,39,28,15405,-5,4,-373,-88,35427,-85,34,127,0,0,4012,-43,0,993,20,139,3303,-4,0,88,15,296683,0
296645,-91,-2071,304,-81,38,27,15396,-29,-8,-437,-152,35417,-91,34,127,0,0,4010,-21,0,993,20,139,3313,-4,0,88,15,296683,0
296655,-103,-2069,302,-79,40,38,15386,-26,-22,-422,-88,35424,-81,34,127,0,0,4007,-32,0,993,20,139,3323,-4,0,88,15,296699,0
296665,-99,-2077,298,-81,38,40,15363,-75,-19,-430,-96,35421,-76,34,127,0,0,4005,10,0,993,20,139,3333,-4,0,88,15,296699,0
296675,-124,-2071,292,-77,47,26,15339,-30,-36,-233,-72,35422,-85,34,127,0,0,4005,-10,0,993,20,139,3343,-4,0,88,15,296699,0
296685,-60,-2070,291,-82,38,36,15338,-12,50,-370,-120,35412,-89,34,127,0,0,3999,-21,0,993,20,139,3353,-4,0,88,15,296699,0
296695,-100,-2063,295,-79,38,37,15335,-6,39,-398,-144,35409,-80,34,127,0,0,3999,-32,0,993,20,139,3363,-4,0,88,15,296699,0
296705,-107,-2070,295,-83,38,37,15334,-5,-10,-435,-160,35415,-65,34,127,0,0,3996,-32,0,993,20,139,3373,-4,0,88,15,296699,0
296715,-106,-2072,295,-81,41,40,15327,-22,-10,-485,-160,35420,-77,34,127,0,0,3994,10,0,993,20,139,3383,-4,0,88,15,296699,0
296726,-88,-2061,288,-80,37,40,15317,-30,-15,-488,-160,35430,-97,34,127,0,0,3992,10,0,993,20,139,3394,-4,0,88,15,296699,0
296736,-100,-2065,303,-82,32,48,15296,-62,-31,-392,-144,35435,-118,34,127,0,0,3990,-32,0,993,20,139,3404,-4,0,88,15,296714,0
296746,-105,-2061,296,-82,44,41,15266,-58,-48,-301,-104,35438,-96,34,127,0,0,3984,-21,0,993,20,139,3414,-4,0,88,15,296746,0
296756,-97,-2068,296,-80,43,50,15261,0,37,-372,-120,35439,-109,34,127,0,0,3982,-32,0,993,20,139,3424,-4,0,88,15,296746,0
296766,-74,-2064,300,-87,30,58,15257,-27,49,-450,-128,35428,-106,34,127,0,0,3983,0,0,993,20,139,3434,-4,0,88,15,296746,0
296776,-106,-2072,293,-87,38,61,15247,-31,-20,-353,-112,35420,-109,34,127,0,0,3980,-32,0,993,20,139,3444,-4,0,88,15,296746,0
296786,-80,-2075,296,-78,38,56,15221,-73,-44,-274,-80,35415,-83,34,127,0,0,3981,0,0,993,20,139,3454,-4,0,88,15,296808,0
296796,-117,-2067,285,-79,44,51,15202,-9,-13,-220,-64,35418,-78,34,127,0,0,3979,5,0,993,20,139,3464,-4,0,88,15,296808,0
296806,-59,-2067,302,-79,31,76,15204,0,68,-315,-120,35429,-96,34,127,0,0,3978,0,0,993,20,139,3474,-4,0,88,15,296808,0
296816,-97,-2066,295,-82,34,70,15201,12,23,-309,-88,35433,-106,34,127,0,0,3973,-38,0,993,20,139,3484,-4,0,88,15,296808,0
296826,-89,-2064,298,-72,26,72,15197,-9,0,-376,-104,35427,-101,34,127,0,0,3978,38,0,993,20,139,3494,-4,0,88,15,296808,0
296836,-90,-2078,297,-74,33,82,15196,-5,1,-365,-128,35425,-98,34,127,0,0,3972,-10,0,993,20,139,3504,-4,0,88,15,296808,0
296846,-69,-2063,301,-78,32,93,15192,-12,-8,-417,-120,35424,-102,34,127,0,0,3969,-27,0,993,20,139,3514,-4,0,88,15,296824,0
296856,-72,-2070,303,-80,35,97,15185,-13,-8,-390,-128,35424,-100,34,127,0,0,3973,0,0,993,20,139,3524,-4,0,88,15,296839,0
296866,-87,-2069,287,-80,30,108,15179,-10,-1,-314,-88,35421,-87,34,127,0,0,3969,-32,0,993,20,139,3534,-4,0,88,15,296839,0
296876,-67,-2065,292,-77,30,116,15171,-30,0,-373,-96,35423,-77,34,127,0,0,3970,27,0,993,20,139,3544,-4,0,88,15,296855,0
296886,-70,-2068,298,-78,38,118,15147,-47,-33,-244,-72,35422,-66,34,127,0,0,3968,-5,0,993,20,139,3554,-4,0,88,15,296886,0
296896,-83,-2077,298,-82,39,126,15145,7,13,-270,-48,35429,-71,34,127,0,0,3963,-10,0,993,20,139,3564,-4,0,88,15,296886,0
296906,-69,-2076,302,-81,40,128,15145,-2,48,-242,-96,35424,-66,34,127,0,0,3972,-5,0,993,20,139,3574,-4,0,88,15,296886,0
296917,-83,-2060,299,-82,38,151,15145,3,-4,-234,-104,35432,-65,34,127,0,0,3970,0,0,993,20,139,3585,-4,0,88,15,296886,0
296927,-110,-2052,293,-82,39,152,15145,8,4,-261,-96,35428,-56,34,127,0,0,3970,32,0,993,20,139,3595,-4,0,88,15,296917,0
296937,-46,-2078,289,-80,44,139,15145,10,1,-195,-128,35432,-65,34,127,0,0,3972,54,0,993,20,139,3605,-4,0,88,15,296917,0
296947,-119,-2068,298,-77,50,150,15147,6,4,-143,-88,35428,-66,34,127,0,0,3970,0,0,993,20,139,3615,-4,0,88,15,296933,0
296957,-92,-2064,301,-82,43,152,15146,12,1,-206,-40,35426,-62,34,127,0,0,3970,21,0,993,20,139,3625,-4,0,88,15,296933,0
296967,-84,-2058,296,-80,47,144,15146,3,7,-160,0,35418,-48,34,127,0,0,3972,10,0,993,20,139,3635,-4,0,88,15,296933,0
296977,-73,-2063,298,-81,36,137,15146,-1,0,-179,-48,35431,-68,34,127,0,0,3972,43,0,993,20,139,3645,-4,0,88,15,296964,0
296987,-103,-2073,294,-85,39,135,15148,12,6,-136,-56,35433,-66,34,127,0,0,3972,10,0,993,20,139,3655,-4,0,88,15,296964,0
296997,-68,-2055,295,-85,38,128,15145,-2,-3,-156,-48,35437,-69,34,127,0,0,3970,32,0,993,20,139,3665,-4,0,88,15,296964,0
297007,-70,-2057,299,-84,36,121,15148,3,-2,-150,-56,35439,-60,34,127,0,0,3972,10,0,993,20,139,3675,-4,0,88,15,297058,0
297017,-58,-2064,300,-89,30,118,15146,0,5,-165,0,35438,-74,34,127,0,0,3970,10,0,993,20,139,3685,-4,0,88,15,297058,0
297027,-64,-2063,296,-85,35,115,15147,7,-1,-152,-64,35444,-80,34,127,0,0,3970,0,0,993,20,139,3695,-4,0,88,15,297058,0
297037,-108,-2072,297,-85,36,106,15146,-10,-4,-141,-24,35437,-75,34,127,0,0,3970,21,0,993,20,139,3705,-4,0,88,15,297058,0
297047,-79,-2079,300,-86,31,99,15146,-15,-3,-188,-48,35427,-71,34,127,0,0,3970,0,0,993,20,139,3715,-4,0,88,15,297058,0
297057,-93,-2061,307,-89,35,106,15146,-4,-3,-190,-80,35422,-79,34,127,0,0,3970,0,0,993,20,139,3725,-4,0,88,15,297074,0
297067,-112,-2062,301,-98,21,109,15147,19,-1,-175,-48,35425,-75,34,127,0,0,3970,-10,0,993,20,139,3735,-4,0,88,15,297074,0
297077,-116,-2064,299,-93,27,99,15144,1,-8,-179,-56,35427,-61,34,127,0,0,3970,10,0,993,20,139,3745,-4,0,88,15,297074,0
297087,-100,-2070,298,-95,31,95,15145,-7,5,-166,-48,35432,-49,34,127,0,0,3966,-54,0,993,20,139,3755,-4,0,88,15,297074,0
297097,-104,-2066,307,-94,31,99,15143,-10,-2,-303,-56,35431,-40,34,127,0,0,3968,10,0,993,20,139,3765,-4,0,88,15,297074,0
297107,-77,-2079,303,-99,38,103,15145,13,5,-237,-32,35436,-47,34,127,0,0,3970,-10,0,993,20,139,3775,-4,0,88,15,297089,0
297117,-97,-2067,298,-104,33,118,15144,11,7,-223,-104,35431,-48,34,127,0,0,3968,-10,0,993,20,139,3785,-4,0,88,15,297089,0
297127,-103,-2063,286,-103,34,116,15144,6,2,-192,-80,35433,-58,34,127,0,0,3968,-21,0,993,20,139,3795,-4,0,88,15,297105,0
297137,-110,-2068,281,-96,32,106,15144,11,-1,-234,-112,35427,-58,34,127,0,0,3968,0,0,993,20,139,3805,-4,0,88,15,297120,0
297147,-87,-2073,286,-87,42,114,15141,-11,5,-245,-96,35433,-70,34,127,0,0,3968,21,0,993,20,139,3815,-4,0,88,15,297120,0
297158,-59,-2070,300,-94,41,106,15142,-9,-1,-294,-88,35432,-80,34,127,0,0,3966,-5,0,993,20,139,3826,-4,0,88,15,297152,0
297168,-87,-2063,298,-90,35,116,15140,0,-2,-304,-80,35437,-72,34,127,0,0,3966,-16,0,993,20,139,3836,-4,0,88,15,297152,0
297178,-96,-2064,297,-90,42,118,15137,-23,-10,-343,-56,35426,-66,34,127,0,0,3968,54,0,993,20,139,3846,-4,0,88,15,297152,0
297188,-101,-2068,295,-88,35,124,15140,-2,11,-329,-104,35428,-68,34,127,0,0,3967,38,0,993,20,139,3856,-4,0,88,15,297183,0
297198,-97,-2077,307,-94,44,120,15139,9,0,-287,-104,35436,-77,34,127,0,0,3963,-38,0,993,20,139,3866,-4,0,88,15,297183,0
297208,-92,-2078,301,-86,28,113,15137,0,-7,-332,-96,35433,-69,34,127,0,0,3963,-27,0,993,20,139,3876,-4,0,88,15,297183,0
297218,-97,-2061,293,-95,39,116,15136,-6,0,-388,-96,35432,-60,34,127,0,0,3963,0,0,993,20,139,3886,-4,0,88,15,297183,0
297228,-96,-2063,288,-90,38,111,15137,-3,12,-346,-104,35419,-55,34,127,0,0,3963,-27,0,993,20,139,3896,-4,0,88,15,297214,0
297238,-110,-2058,285,-89,39,111,15134,3,-3,-364,-96,35425,-62,34,127,0,0,3963,16,0,993,20,139,3906,-4,0,88,15,297214,0
297248,-96,-2054,288,-85,41,106,15135,0,-1,-348,-96,35425,-55,34,127,0,0,3963,0,0,993,20,139,3916,-4,0,88,15,297214,0
297258,-85,-2067,296,-82,46,105,15136,4,0,-349,-120,35439,-47,34,127,0,0,3961,-38,0,993,20,139,3926,-4,0,88,15,297245,0
297268,-93,-2068,304,-85,36,105,15132,3,-3,-386,-96,35436,-47,34,127,0,0,3963,32,0,993,20,139,3936,-4,0,88,15,297245,0
297278,-79,-2075,302,-88,42,110,15134,-3,8,-372,-96,35433,-67,34,127,0,0,3963,32,0,993,20,139,3946,-4,0,88,15,297245,0
297288,-81,-2073,294,-91,38,122,15131,-11,5,-416,-112,35430,-73,34,127,0,0,3961,38,0,993,20,139,3956,-4,0,88,15,297261,0
297298,-85,-2076,301,-83,32,107,15131,-2,-2,-407,-88,35429,-72,34,127,0,0,3960,16,0,993,20,139,3966,-4,0,88,15,297292,0
297308,-80,-2071,300,-92,42,110,15132,-4,4,-408,-136,35428,-64,34,127,0,0,3959,-32,0,993,20,139,3976,-4,0,88,15,297292,0
297318,-108,-2076,297,-92,41,105,15128,0,-4,-398,-128,35430,-68,34,127,0,0,3959,-49,0,993,20,139,3986,-4,0,88,15,297292,0
297328,-88,-2069,294,-88,36,99,15124,-16,-2,-440,-144,35421,-62,34,127,0,0,3960,-5,0,993,20,139,3996,-4,0,88,15,297308,0
297338,-101,-2074,301,-87,44,100,15117,-26,-10,-451,-112,35429,-68,34,127,0,0,3959,49,0,993,20,139,4006,-4,0,88,15,297339,0
297348,-113,-2065,308,-90,38,92,15102,-50,-23,-345,-104,35428,-37,34,127,0,0,3957,-5,0,993,20,139,4016,-4,0,88,15,297339,0
297358,-101,-2061,302,-92,40,64,15071,-62,-44,-171,-40,35429,-31,34,127,0,0,3957,0,0,993,20,139,4026,-4,0,88,15,297339,0
297368,-116,-2065,293,-96,46,61,15069,19,24,-190,-56,35420,-24,34,127,0,0,3951,-43,0,993,20,139,4036,-4,0,88,15,297339,0
297378,-111,-2071,299,-96,38,53,15065,-8,58,-279,-120,35423,-42,34,127,0,0,3948,-71,0,993,20,139,4046,-4,0,88,15,297437,0
297388,-101,-2066,294,-92,40,43,15058,-9,-12,-315,-80,35420,-42,34,127,0,0,3947,-38,0,993,20,139,4056,-4,0,88,15,297453,0
297398,-106,-2072,300,-92,42,25,15047,-27,-8,-331,-112,35420,-42,34,127,0,0,3942,-71,0,993,20,139,4066,-4,0,88,15,297453,0
297408,-102,-2063,307,-98,41,19,15020,-88,-41,-284,-88,35420,-42,34,127,0,0,3944,-5,0,993,20,139,4076,-4,0,88,15,297453,0
297418,-121,-2057,297,-100,44,5,15001,-13,-34,-248,-88,35420,-42,34,127,0,0,3936,-16,0,993,20,139,4086,-4,0,88,15,297453,0
297428,-71,-2069,295,-102,29,4,15002,-7,64,-373,-136,35415,-39,34,127,0,0,3935,-38,0,993,20,139,4096,-4,0,88,15,297468,0
297438,-110,-2056,292,-103,33,-4,14996,-21,20,-481,-176,35414,-22,34,127,0,0,3927,-54,0,993,20,139,4106,-4,0,88,15,297468,0
297448,-99,-2066,294,-104,41,-24,14985,-29,-26,-567,-200,35409,-7,34,127,0,0,3926,-21,0,993,20,139,4116,-4,0,88,15,297468,0
297458,-88,-2060,300,-103,42,-35,14961,-69,-34,-522,-224,35405,5,34,127,0,0,3923,-27,0,993,20,139,4126,-4,0,88,15,297468,0
297468,-85,-2073,300,-104,45,-47,14914,-94,-58,-362,-176,35404,-4,34,127,0,0,3918,-27,0,993,20,139,4136,-4,0,88,15,297468,0
297478,-41,-2080,299,-104,37,-43,14866,-122,-49,-298,-128,35414,-7,34,127,0,0,3907,-43,0,993,20,139,4146,-4,0,88,15,297468,0
297489,-74,-2081,295,-102,41,-45,14823,-63,7,-238,-80,35421,10,34,127,0,0,3904,-43,0,993,20,139,4157,-4,0,88,15,297468,0
297499,-108,-2072,297,-107,42,-72,14805,-8,63,-218,-136,35427,-5,34,127,0,0,3900,-76,0,993,20,139,4167,-4,0,88,15,297468,0
297509,-69,-2064,298,-110,35,-83,14799,-15,63,-411,-160,35434,-12,34,127,0,0,3893,-65,0,993,20,139,4177,-4,0,88,15,297500,0
297519,-96,-2078,303,-116,34,-81,14786,-39,11,-501,-216,35433,-10,34,127,0,0,3884,-76,0,993,20,139,4187,-4,0,88,15,297500,0
297529,-84,-2067,297,-116,38,-96,14753,-116,-53,-521,-208,35427,1,34,127,0,0,3880,-21,0,993,20,139,4197,-4,0,88,15,297500,0
297539,-133,-2072,295,-119,50,-130,14690,-138,-100,-310,-168,35424,-7,34,127,0,0,3871,-87,0,993,20,139,4207,-4,0,88,15,297515,0
297549,-121,-2089,302,-116,58,-158,14636,-91,-33,-285,-144,35424,-25,34,127,0,0,3864,-98,0,993,20,139,4217,-4,0,88,15,297531,0
297559,-2,-2085,295,-130,48,-165,14591,-102,42,-288,-112,35433,-34,34,127,0,0,3856,-76,0,993,20,139,4227,-4,0,88,15,297531,0
297569,-23,-2069,303,-141,27,-150,14564,-56,53,-456,-176,35418,-32,34,127,0,0,3845,-87,0,993,20,139,4237,-4,0,88,15,297578,0
297579,-72,-2075,304,-145,32,-173,14523,-81,8,-365,-192,35422,-25,34,127,0,0,3838,-109,0,993,20,139,4247,-4,0,88,15,297578,0
297589,-36,-2065,295,-149,34,-175,14501,-50,8,-505,-192,35413,-21,34,127,0,0,3829,-87,0,993,20,139,4257,-4,0,88,15,297578,0
297599,-47,-2040,292,-148,30,-188,14448,-138,-22,-403,-224,35419,-28,34,127,0,0,3821,-87,0,993,20,139,4267,-4,0,88,15,297578,0
297609,-28,-2066,282,-148,40,-211,14377,-167,-103,-334,-192,35406,-27,34,127,0,0,3812,-65,0,993,20,139,4277,-4,0,88,15,297578,0
297619,-41,-2043,272,-141,45,-194,14317,-131,-24,-350,-192,35424,-16,34,127,0,0,3801,-54,0,993,20,139,4287,-4,0,88,15,297609,0
297629,-7,-2052,279,-136,31,-188,14261,-135,25,-315,-136,35428,-18,34,127,0,0,3792,-76,0,993,20,139,4297,-4,0,88,15,297609,0
297639,-77,-2048,286,-142,35,-186,14201,-128,-7,-284,-136,35435,-7,34,127,0,0,3781,-76,0,993,20,139,4307,-4,0,88,15,297609,0
297649,-71,-2056,274,-135,41,-190,14172,-39,54,-425,-200,35434,-5,34,127,0,0,3770,-98,0,993,20,139,4317,-4,0,88,15,297640,0
297659,11,-2075,273,-131,36,-191,14137,-108,56,-481,-232,35436,7,34,127,0,0,3763,-65,0,993,20,139,4327,-4,0,88,15,297640,0
297670,-14,-2064,288,-122,38,-174,14067,-163,-84,-360,-200,35427,1,34,127,0,0,3751,-93,0,993,20,139,4338,-4,0,88,15,297640,0
297680,-46,-2053,287,-126,53,-176,13996,-156,-67,-253,-152,35426,0,34,127,0,0,3746,-87,0,993,20,139,4348,-4,0,88,15,297672,0
297690,-12,-2069,285,-124,42,-157,13943,-107,15,-209,-112,35425,-5,34,127,0,0,3739,-43,0,993,20,139,4358,-4,0,88,15,297672,0
297700,-23,-2080,276,-121,40,-164,13910,-49,73,-310,-136,35423,-14,34,127,0,0,3721,-98,0,993,20,139,4368,-4,0,88,15,297672,0
297710,22,-2092,258,-114,31,-148,13869,-116,29,-415,-152,35414,-17,34,127,0,0,3718,-49,0,993,20,139,4378,-4,0,88,15,297687,0
297720,-51,-2096,245,-100,44,-137,13828,-113,-41,-347,-176,35406,-32,34,127,0,0,3714,-54,0,993,20,139,4388,-4,0,88,15,297718,0
297730,-53,-2093,256,-79,60,-147,13775,-85,-17,-282,-144,35415,-39,34,127,0,0,3704,-60,0,993,20,139,4398,-4,0,88,15,297718,0
297740,112,-2106,271,-78,57,-130,13742,-71,39,-341,-168,35420,-30,34,127,0,0,3695,-54,0,993,20,139,4408,-4,0,88,15,297734,0
297750,64,-2104,287,-77,28,-85,13724,-27,65,-452,-184,35419,-5,34,127,0,0,3691,-27,0,993,20,139,4418,-4,0,88,15,297750,0
297760,38,-2088,275,-71,35,-67,13710,-50,36,-558,-200,35420,-2,34,127,0,0,3683,-10,0,993,20,139,4428,-4,0,88,15,297765,0
297770,44,-2084,273,-69,42,-47,13661,-120,-76,-326,-152,35421,-21,34,127,0,0,3679,-49,0,993,20,139,4438,-4,0,88,15,297765,0
297780,46,-2070,264,-60,36,-13,13605,-139,-79,-272,-104,35419,-39,34,127,0,0,3676,27,0,993,20,139,4448,-4,0,88,15,297765,0
297790,48,-2044,258,-53,48,27,13582,-21,62,-292,-112,35412,-28,34,127,0,0,3671,-21,0,993,20,139,4458,-4,0,88,15,297781,0
297800,85,-2042,280,-49,27,43,13571,-35,90,-359,-160,35404,-31,34,127,0,0,3671,-32,0,993,20,139,4468,-4,0,88,15,297781,0
297810,20,-2047,288,-46,32,71,13548,-58,-21,-252,-64,35413,-19,34,127,0,0,3666,-10,0,993,20,139,4478,-4,0,88,15,297781,0
297820,8,-2051,276,-51,45,70,13539,0,8,-300,-120,35428,-13,34,127,0,0,3669,0,0,993,20,139,4488,-4,0,88,15,297812,0
297830,39,-2070,303,-51,43,92,13535,-5,51,-333,-112,35440,-9,34,127,0,0,3662,16,0,993,20,139,4498,-4,0,88,15,297812,0
297840,42,-2064,317,-56,44,102,13529,-19,-3,-368,-96,35430,-8,34,127,0,0,3662,0,0,993,20,139,4508,-4,0,88,15,297828,0
297850,49,-2069,326,-76,37,118,13519,-25,-12,-307,-80,35423,-7,34,127,0,0,3662,27,0,993,20,139,4518,-4,0,88,15,297828,0
297860,35,-2069,322,-78,42,120,13505,-38,-22,-222,-48,35432,-10,34,127,0,0,3662,5,0,993,20,139,4528,-4,0,88,15,297843,0
297870,5,-2053,303,-100,40,116,13486,-33,-17,-83,-32,35439,-10,34,127,0,0,3663,38,0,993,20,139,4538,-4,0,88,15,297843,0
297880,6,-2050,302,-103,52,110,13487,5,34,-112,-40,35439,12,34,127,0,0,3663,16,0,993,20,139,4548,-4,0,88,15,297859,0
297890,-24,-2042,306,-107,41,118,13488,12,35,-92,-40,35435,9,34,127,0,0,3663,16,0,993,20,139,4558,-4,0,88,15,297875,0
297900,-38,-2056,292,-110,45,105,13488,16,0,-60,-40,35435,-10,34,127,0,0,3660,-32,0,993,20,139,4568,-4,0,88,15,297875,0
297911,-22,-2065,288,-111,54,79,13484,0,-4,-136,16,35438,-17,34,127,0,0,3658,-10,0,993,20,139,4579,-4,0,88,15,297890,0
297921,-2,-2084,285,-108,54,47,13483,-14,-2,-190,-88,35435,-1,34,127,0,0,3656,-21,0,993,20,139,4589,-4,0,88,15,297922,0
297931,-16,-2072,287,-109,60,36,13480,-7,-5,-240,-72,35427,10,34,127,0,0,3656,0,0,993,20,139,4599,-4,0,88,15,297922,0
297941,0,-2070,299,-107,60,9,13476,-14,1,-324,-144,35437,8,34,127,0,0,3649,-32,0,993,20,139,4609,-4,0,88,15,297922,0
297951,-32,-2083,311,-117,56,-10,13462,-27,-23,-363,-128,35440,12,34,127,0,0,3645,-43,0,993,20,139,4619,-4,0,88,15,297922,0
297961,-1,-2085,294,-122,60,-23,13443,-56,-30,-399,-168,35436,27,34,127,0,0,3638,-54,0,993,20,139,4629,-4,0,88,15,297937,0
297971,-13,-2099,269,-121,68,-48,13407,-63,-46,-327,-136,35432,22,34,127,0,0,3632,-76,0,993,20,139,4639,-4,0,88,15,297953,0
297981,42,-2096,266,-110,63,-58,13402,-9,32,-511,-184,35437,-4,34,127,0,0,3629,-43,0,993,20,139,4649,-4,0,88,15,297953,0
297991,16,-2101,274,-111,63,-67,13388,-51,39,-580,-264,35436,-25,34,127,0,0,3621,-87,0,993,20,139,4659,-4,0,88,15,297968,0
298001,24,-2094,279,-106,62,-82,13340,-134,-83,-410,-200,35438,-45,34,127,0,0,3616,-65,0,993,20,139,4669,-4,0,88,15,297984,0
298011,33,-2081,273,-111,63,-68,13285,-127,-91,-302,-128,35427,-21,34,127,0,0,3610,-76,0,993,20,139,4679,-4,0,88,15,297984,0
298021,64,-2064,273,-101,54,-50,13241,-92,10,-316,-144,35424,-29,34,127,0,0,3601,-76,0,993,20,139,4689,-4,0,88,15,298000,0
298031,51,-2050,264,-99,61,-53,13203,-58,31,-266,-136,35426,-16,34,127,0,0,3599,-54,0,993,20,139,4699,-4,0,88,15,298031,0
298041,111,-2043,266,-93,42,-12,13175,-69,32,-288,-128,35432,-21,34,127,0,0,3594,0,0,993,20,139,4709,-4,0,88,15,298031,0
298051,50,-2057,275,-88,44,21,13154,-33,25,-286,-136,35436,-5,34,127,0,0,3590,-10,0,993,20,139,4719,-4,0,88,15,298031,0
298061,96,-2068,294,-84,39,55,13152,2,53,-369,-120,35427,-13,34,127,0,0,3588,-32,0,993,20,139,4729,-4,0,88,15,298031,0
298071,92,-2065,308,-89,29,71,13147,-23,30,-451,-136,35429,-40,34,127,0,0,3588,0,0,993,20,139,4739,-4,0,88,15,298140,0
298081,50,-2063,290,-100,28,91,13143,-6,-8,-434,-112,35443,-38,34,127,0,0,3583,-43,0,993,20,139,4749,-4,0,88,15,298156,0
298091,48,-2058,274,-99,25,95,13129,-42,-2,-447,-112,35442,-24,34,127,0,0,3585,32,0,993,20,139,4759,-4,0,88,15,298156,0
298101,34,-2056,272,-101,31,93,13101,-74,-49,-276,-88,35430,-15,34,127,0,0,3583,21,0,993,20,139,4769,-4,0,88,15,298156,0
298111,5,-2063,271,-97,34,81,13087,-1,-10,-169,-72,35419,-26,34,127,0,0,3583,-32,0,993,20,139,4779,-4,0,88,15,298156,0
298121,36,-2067,286,-98,20,69,13087,-17,59,-257,-56,35422,-49,34,127,0,0,3581,-10,0,993,20,139,4789,-4,0,88,15,298171,0
298131,19,-2078,295,-96,31,60,13086,2,18,-304,-88,35424,-39,34,127,0,0,3583,21,0,993,20,139,4799,-4,0,88,15,298171,0
298141,9,-2084,294,-110,28,42,13087,-5,1,-267,-112,35415,-51,34,127,0,0,3579,-54,0,993,20,139,4809,-4,0,88,15,298171,0
298151,3,-2086,294,-109,31,18,13076,-27,-24,-341,-112,35421,-55,34,127,0,0,3574,-32,0,993,20,139,4819,-4,0,88,15,298171,0
298161,8,-2084,286,-116,31,-4,13054,-61,-36,-262,-80,35424,-53,34,127,0,0,3572,-65,0,993,20,139,4829,-4,0,88,15,298171,0
298171,4,-2084,297,-124,35,-23,13034,-16,-30,-201,-96,35428,-48,34,127,0,0,3570,-54,0,993,20,139,4839,-4,0,88,15,298171,0
298182,66,-2086,293,-125,36,-26,13033,-2,53,-350,-88,35420,-27,34,127,0,0,3567,-32,0,993,20,139,4850,-4,0,88,15,298171,0
298192,55,-2097,294,-130,32,-22,13032,-1,30,-416,-152,35417,-30,34,127,0,0,3560,-104,0,993,20,139,4860,-4,0,88,15,298171,0
298202,78,-2091,303,-134,33,-10,13020,-28,-19,-550,-168,35438,-32,34,127,0,0,3559,-10,0,993,20,139,4870,-4,0,88,15,298171,0
298212,61,-2076,304,-142,41,-2,13004,-32,-26,-516,-168,35459,-26,34,127,0,0,3557,-5,0,993,20,139,4880,-4,0,88,15,298203,0
298222,63,-2067,305,-153,31,15,12985,-57,-16,-454,-168,35462,-7,34,127,0,0,3552,-10,0,993,20,139,4890,-4,0,88,15,298203,0
298232,47,-2052,302,-155,33,17,12965,-29,-12,-415,-152,35444,7,34,127,0,0,3550,-21,0,993,20,139,4900,-4,0,88,15,298218,0
298242,92,-2024,291,-176,29,28,12964,-5,42,-498,-144,35422,-7,34,127,0,0,3547,-5,0,993,20,139,4910,-4,0,88,15,298218,0
298252,64,-2021,288,-185,19,44,12961,-14,30,-573,-168,35432,-13,34,127,0,0,3548,21,0,993,20,139,4920,-4,0,88,15,298234,0
298262,35,-2040,277,-193,18,40,12954,-6,-14,-486,-192,35446,-12,34,127,0,0,3544,-43,0,993,20,139,4930,-4,0,88,15,298234,0
298272,28,-2040,275,-191,27,22,12934,-55,-26,-437,-160,35438,-9,34,127,0,0,3540,-82,0,993,20,139,4940,-4,0,88,15,298265,0
298282,7,-2042,256,-184,37,-16,12893,-88,-67,-264,-104,35434,-29,34,127,0,0,3535,-93,0,993,20,139,4950,-4,0,88,15,298265,0
298292,24,-2047,253,-181,41,-24,12869,-58,-7,-275,-48,35422,-52,34,127,0,0,3538,10,0,993,20,139,4960,-4,0,88,15,298265,0
298302,13,-2054,243,-177,35,-50,12851,-22,43,-196,-80,35435,-49,34,127,0,0,3532,-54,0,993,20,139,4970,-4,0,88,15,298281,0
298312,46,-2064,247,-172,34,-58,12850,-5,51,-323,-120,35427,-61,34,127,0,0,3531,-38,0,993,20,139,4980,-4,0,88,15,298296,0
298322,67,-2083,236,-155,36,-76,12843,-22,20,-417,-176,35423,-55,34,127,0,0,3524,-54,0,993,20,139,4990,-4,0,88,15,298296,0
298332,55,-2088,257,-147,36,-88,12830,-30,-32,-496,-208,35430,-49,34,127,0,0,3517,-60,0,993,20,139,5000,-4,0,88,15,298328,0
298342,104,-2086,255,-138,36,-84,12799,-90,-44,-506,-184,35431,-42,34,127,0,0,3512,-21,0,993,20,139,5010,-4,0,88,15,298343,0
298352,55,-2090,252,-132,40,-91,12745,-112,-88,-342,-160,35432,-8,34,127,0,0,3503,-49,0,993,20,139,5020,-4,0,88,15,298343,0
298362,67,-2104,225,-112,47,-86,12694,-87,-36,-265,-104,35418,-1,34,127,0,0,3499,-49,0,993,20,139,5030,-4,0,88,15,298343,0
298372,136,-2110,226,-99,43,-55,12665,-63,58,-288,-112,35415,-9,34,127,0,0,3499,10,0,993,20,139,5040,-4,0,88,15,298343,0
298382,109,-2105,240,-79,37,-24,12654,-2,68,-323,-120,35427,-16,34,127,0,0,3488,-43,0,993,20,139,5050,-4,0,88,15,298359,0
298392,176,-2097,239,-70,38,-1,12649,-12,54,-489,-168,35440,-15,34,127,0,0,3483,-65,0,993,20,139,5060,-4,0,88,15,298359,0
298402,172,-2101,243,-67,37,48,12640,-26,-2,-501,-168,35444,-16,34,127,0,0,3484,-32,0,993,20,139,5070,-4,0,88,15,298406,0
298413,184,-2091,258,-52,22,105,12625,-46,-17,-531,-168,35443,-36,34,127,0,0,3480,-10,0,993,20,139,5081,-4,0,88,15,298406,0
298423,176,-2076,265,-57,43,135,12594,-64,-45,-331,-136,35436,-30,34,127,0,0,3482,10,0,993,20,139,5091,-4,0,88,15,298421,0
298433,193,-2047,255,-48,40,187,12593,14,23,-307,-88,35425,-16,34,127,0,0,3484,21,0,993,20,139,5101,-4,0,88,15,298421,0
298443,132,-2047,259,-47,42,210,12593,9,64,-249,-88,35411,-13,34,127,0,0,3487,10,0,993,20,139,5111,-4,0,88,15,298421,0
298453,82,-2057,276,-49,37,247,12594,0,1,-235,-48,35415,-17,34,127,0,0,3487,21,0,993,20,139,5121,-4,0,88,15,298421,0
298463,109,-2065,287,-49,36,259,12596,10,3,-134,-48,35432,-28,34,127,0,0,3491,21,0,993,20,139,5131,-4,0,88,15,298515,0
298473,83,-2072,295,-60,34,268,12601,9,11,-27,0,35441,-21,34,127,0,0,3495,54,0,993,20,139,5141,-4,0,88,15,298515,0
298483,62,-2077,298,-73,35,272,12609,24,7,97,80,35427,-9,34,127,0,0,3500,32,0,993,20,139,5151,-4,0,88,15,298515,0
298493,51,-2066,278,-85,30,268,12617,19,10,173,72,35415,-12,34,127,0,0,3504,54,0,993,20,139,5161,-4,0,88,15,298531,0
298503,44,-2074,279,-89,35,257,12632,43,13,241,56,35405,-10,34,127,0,0,3506,32,0,993,20,139,5171,-4,0,88,15,298531,0
298513,50,-2064,279,-96,30,252,12665,80,48,134,40,35407,-22,34,127,0,0,3511,32,0,993,20,139,5181,-4,0,88,15,298531,0
298523,73,-2056,281,-98,33,241,12671,-8,-15,199,64,35406,-7,34,127,0,0,3517,76,0,993,20,139,5191,-4,0,88,15,298531,0
298533,49,-2057,283,-107,39,225,12676,5,-63,337,96,35404,-16,34,127,0,0,3520,65,0,993,20,139,5201,-4,0,88,15,298531,0
298543,33,-2068,279,-107,39,210,12688,25,6,336,112,35408,-33,34,127,0,0,3520,43,0,993,20,139,5211,-4,0,88,15,298531,0
298553,45,-2073,285,-124,34,194,12708,59,32,286,80,35411,-27,34,127,0,0,3524,43,0,993,20,139,5221,-4,0,88,15,298531,0
298563,47,-2069,288,-132,33,197,12730,17,26,160,32,35421,-11,34,127,0,0,3524,10,0,993,20,139,5231,-4,0,88,15,298546,0
298573,-20,-2071,265,-134,34,154,12727,5,-53,277,88,35436,10,34,127,0,0,3528,32,0,993,20,139,5241,-4,0,88,15,298562,0
298583,22,-2077,256,-130,48,134,12731,4,-29,342,32,35444,-1,34,127,0,0,3528,-21,0,993,20,139,5251,-4,0,88,15,298562,0
298593,71,-2073,270,-131,37,130,12730,10,0,301,112,35442,13,34,127,0,0,3528,43,0,993,20,139,5261,-4,0,88,15,298578,0
298603,69,-2066,275,-132,29,123,12732,1,0,334,64,35424,32,34,127,0,0,3524,-32,0,993,20,139,5271,-4,0,88,15,298578,0
298613,33,-2076,270,-135,32,117,12730,0,-3,264,80,35416,20,34,127,0,0,3526,10,0,993,20,139,5281,-4,0,88,15,298593,0
298623,34,-2073,262,-136,40,112,12730,-3,1,307,112,35425,0,34,127,0,0,3526,-10,0,993,20,139,5291,-4,0,88,15,298593,0
298633,36,-2066,260,-131,38,118,12732,12,1,294,104,35435,-13,34,127,0,0,3526,-10,0,993,20,139,5301,-4,0,88,15,298609,0
298643,64,-2067,266,-133,26,120,12730,-14,-1,298,112,35435,-1,34,127,0,0,3526,10,0,993,20,139,5311,-4,0,88,15,298640,0
298653,55,-2076,258,-137,38,111,12732,0,1,318,24,35435,-1,34,127,0,0,3524,-32,0,993,20,139,5321,-4,0,88,15,298640,0
298663,27,-2083,254,-136,38,103,12731,5,1,289,64,35428,-2,34,127,0,0,3528,32,0,993,20,139,5331,-4,0,88,15,298640,0
298674,67,-2080,260,-130,26,102,12729,-10,-7,296,80,35427,-7,34,127,0,0,3529,82,0,993,20,139,5342,-4,0,88,15,298640,0
298684,77,-2083,263,-137,24,93,12731,-11,2,272,96,35421,2,34,127,0,0,3532,98,0,993,20,139,5352,-4,0,88,15,298671,0
298694,82,-2092,256,-128,27,88,12733,1,5,347,64,35425,11,34,127,0,0,3526,-21,0,993,20,139,5362,-4,0,88,15,298671,0
298704,34,-2088,247,-132,29,81,12731,0,-8,260,80,35416,5,34,127,0,0,3529,65,0,993,20,139,5372,-4,0,88,15,298734,0
298714,76,-2079,239,-117,35,72,12733,0,0,306,72,35421,7,34,127,0,0,3526,0,0,993,20,139,5382,-4,0,88,15,298734,0
298724,63,-2073,231,-116,35,63,12732,9,4,222,24,35421,9,34,127,0,0,3525,10,0,993,20,139,5392,-4,0,88,15,298734,0
298734,69,-2071,254,-106,33,78,12730,-1,-4,188,56,35421,23,34,127,0,0,3517,-43,0,993,20,139,5402,-4,0,88,15,298734,0
298744,79,-2065,247,-100,35,81,12729,1,1,127,8,35405,30,34,127,0,0,3516,-71,0,993,20,139,5412,-4,0,88,15,298749,0
298754,73,-2058,251,-97,40,71,12726,-8,-4,42,-8,35403,20,34,127,0,0,3517,-43,0,993,20,139,5422,-4,0,88,15,298749,0
298764,70,-2056,248,-97,46,79,12727,7,6,24,-32,35407,2,34,127,0,0,3515,-76,0,993,20,139,5432,-4,0,88,15,298749,0
298774,32,-2074,236,-90,42,73,12723,2,6,-14,-24,35411,11,34,127,0,0,3515,-16,0,993,20,139,5442,-4,0,88,15,298749,0
298784,48,-2087,260,-80,37,80,12720,-21,-2,-122,-40,35422,7,34,127,0,0,3513,10,0,993,20,139,5452,-4,0,88,15,298765,0
298794,30,-2079,262,-87,35,59,12719,3,0,-129,-32,35443,-4,34,127,0,0,3513,-10,0,993,20,139,5462,-4,0,88,15,298765,0
298804,37,-2077,251,-83,36,39,12717,0,6,-201,-72,35453,3,34,127,0,0,3512,0,0,993,20,139,5472,-4,0,88,15,298781,0
298814,44,-2075,257,-86,48,31,12714,-2,-8,-245,-72,35442,2,34,127,0,0,3509,10,0,993,20,139,5482,-4,0,88,15,298796,0
298824,61,-2072,256,-83,33,27,12711,-17,1,-327,-104,35420,22,34,127,0,0,3507,27,0,993,20,139,5492,-4,0,88,15,298796,0
298834,46,-2069,269,-85,33,11,12702,-20,-11,-351,-136,35415,0,34,127,0,0,3500,-16,0,993,20,139,5502,-4,0,88,15,298812,0
298844,51,-2080,272,-84,27,2,12683,-51,-25,-370,-120,35421,-10,34,127,0,0,3498,16,0,993,20,139,5512,-4,0,88,15,298890,0
298854,31,-2072,258,-86,52,-20,12648,-55,-55,-224,-96,35436,-18,34,127,0,0,3493,-32,0,993,20,139,5522,-4,0,88,15,298890,0
298864,74,-2079,251,-91,51,-14,12647,10,45,-366,-136,35436,-2,34,127,0,0,3492,5,0,993,20,139,5532,-4,0,88,15,298890,0
298874,116,-2077,256,-83,40,4,12646,-3,65,-412,-136,35423,-3,34,127,0,0,3485,-21,0,993,20,139,5542,-4,0,88,15,298890,0
298884,110,-2073,264,-83,37,20,12638,-26,-8,-538,-184,35414,-17,34,127,0,0,3479,-54,0,993,20,139,5552,-4,0,88,15,298890,0
298894,95,-2072,269,-85,35,38,12613,-63,-41,-425,-160,35419,-16,34,127,0,0,3480,-54,0,993,20,139,5562,-4,0,88,15,298906,0
298904,82,-2063,253,-95,48,37,12583,-38,-49,-326,-144,35423,-5,34,127,0,0,3479,-10,0,993,20,139,5572,-4,0,88,15,298906,0
298914,108,-2070,246,-89,35,62,12581,4,55,-445,-160,35414,-2,34,127,0,0,3477,5,0,993,20,139,5582,-4,0,88,15,298906,0
298925,90,-2073,254,-85,26,74,12578,-6,50,-478,-152,35417,-8,34,127,0,0,3473,10,0,993,20,139,5593,-4,0,88,15,298906,0
298935,70,-2079,251,-79,31,72,12577,-11,-1,-502,-152,35441,-11,34,127,0,0,3473,21,0,993,20,139,5603,-4,0,88,15,298906,0
298945,93,-2084,264,-76,38,83,12569,-20,-7,-490,-192,35460,4,34,127,0,0,3473,10,0,993,20,139,5613,-4,0,88,15,298937,0
298955,99,-2077,268,-79,36,96,12554,-42,-23,-372,-136,35452,-7,34,127,0,0,3473,21,0,993,20,139,5623,-4,0,88,15,298937,0
298965,103,-2082,261,-85,35,107,12538,-25,-21,-256,-104,35430,-3,34,127,0,0,3473,-10,0,993,20,139,5633,-4,0,88,15,298937,0
298975,82,-2088,260,-86,38,115,12538,5,31,-308,-96,35422,-3,34,127,0,0,3471,-10,0,993,20,139,5643,-4,0,88,15,298953,0
298985,106,-2085,258,-86,47,116,12537,3,32,-285,-72,35426,-3,34,127,0,0,3473,0,0,993,20,139,5653,-4,0,88,15,298968,0
298995,99,-2084,266,-87,43,119,12535,-12,2,-289,-104,35430,12,34,127,0,0,3473,21,0,993,20,139,5663,-4,0,88,15,298968,0
299005,91,-2067,282,-95,31,126,12537,0,3,-279,-104,35423,7,34,127,0,0,3473,0,0,993,20,139,5673,-4,0,88,15,298984,0
299015,74,-2066,279,-98,30,126,12537,6,-1,-273,-72,35421,-4,34,127,0,0,3473,0,0,993,20,139,5683,-4,0,88,15,299015,0
299025,58,-2061,256,-101,27,124,12537,0,0,-273,-72,35439,-7,34,127,0,0,3473,0,0,993,20,139,5693,-4,0,88,15,299015,0
299035,39,-2059,246,-101,32,109,12537,0,-2,-276,-72,35443,6,34,127,0,0,3473,-10,0,993,20,139,5703,-4,0,88,15,299015,0
299045,33,-2059,236,-92,37,93,12538,11,1,-286,-72,35433,9,34,127,0,0,3473,0,0,993,20,139,5713,-4,0,88,15,299015,0
299055,45,-2060,242,-85,34,73,12537,1,4,-242,-80,35425,2,34,127,0,0,3476,10,0,993,20,139,5723,-4,0,88,15,299046,0
299065,113,-2062,247,-85,48,73,12537,-7,-4,-256,-72,35442,3,34,127,0,0,3473,0,0,993,20,139,5733,-4,0,88,15,299046,0
299075,131,-2068,256,-87,36,84,12538,5,-3,-262,-72,35445,19,34,127,0,0,3473,-21,0,993,20,139,5743,-4,0,88,15,299046,0
299085,124,-2075,274,-98,21,98,12537,3,5,-278,-72,35434,20,34,127,0,0,3473,0,0,993,20,139,5753,-4,0,88,15,299077,0
299095,89,-2087,259,-96,25,97,12539,7,-2,-231,-88,35433,23,34,127,0,0,3471,-54,0,993,20,139,5763,-4,0,88,15,299077,0
299105,57,-2076,251,-92,35,110,12536,10,-3,-261,-104,35443,-2,34,127,0,0,3473,-21,0,993,20,139,5773,-4,0,88,15,299077,0
299115,62,-2073,249,-96,34,111,12537,-2,1,-267,-72,35447,8,34,127,0,0,3473,0,0,993,20,139,5783,-4,0,88,15,299109,0
299125,89,-2083,244,-85,28,96,12537,2,7,-257,-48,35442,-17,34,127,0,0,3473,10,0,993,20,139,5793,-4,0,88,15,299109,0
299135,73,-2082,250,-82,31,86,12535,-9,-1,-270,-64,35429,-16,34,127,0,0,3471,-21,0,993,20,139,5803,-4,0,88,15,299109,0
299145,71,-2080,255,-82,29,100,12539,11,-5,-279,-72,35432,-15,34,127,0,0,3473,-32,0,993,20,139,5813,-4,0,88,15,299124,0
299155,74,-2080,261,-91,29,102,12536,-1,-5,-307,-56,35429,7,34,127,0,0,3471,-10,0,993,20,139,5823,-4,0,88,15,299124,0
299166,94,-2085,242,-94,24,104,12536,0,0,-308,-72,35450,11,34,127,0,0,3473,5,0,993,20,139,5834,-4,0,88,15,299156,0
299176,107,-2075,238,-88,35,107,12536,-3,3,-278,-72,35443,10,34,127,0,0,3470,-32,0,993,20,139,5844,-4,0,88,15,299156,0
299186,126,-2064,246,-77,45,118,12535,-1,-7,-324,-64,35430,-8,34,127,0,0,3473,32,0,993,20,139,5854,-4,0,88,15,299171,0
299196,149,-2066,257,-76,42,136,12536,-1,-4,-275,-72,35434,8,34,127,0,0,3473,0,0,993,20,139,5864,-4,0,88,15,299171,0
299206,114,-2077,266,-75,46,165,12536,-3,4,-277,-72,35434,6,34,127,0,0,3473,0,0,993,20,139,5874,-4,0,88,15,299265,0
299216,109,-2076,257,-75,50,172,12535,0,3,-289,-88,35439,17,34,127,0,0,3474,21,0,993,20,139,5884,-4,0,88,15,299265,0
299226,97,-2071,252,-73,48,195,12536,4,5,-273,-72,35434,5,34,127,0,0,3477,32,0,993,20,139,5894,-4,0,88,15,299265,0
299236,123,-2070,264,-72,46,221,12537,1,4,-225,-72,35427,15,34,127,0,0,3480,43,0,993,20,139,5904,-4,0,88,15,299265,0
299246,74,-2067,267,-90,24,244,12540,15,6,-114,-8,35413,19,34,127,0,0,3483,71,0,993,20,139,5914,-4,0,88,15,299265,0
299256,69,-2061,250,-85,34,240,12543,6,11,37,24,35415,14,34,127,0,0,3481,27,0,993,20,139,5924,-4,0,88,15,299265,0
299266,74,-2065,249,-92,42,225,12548,5,0,59,64,35419,1,34,127,0,0,3485,32,0,993,20,139,5934,-4,0,88,15,299265,0
299276,55,-2065,253,-82,39,218,12559,44,8,197,48,35419,-2,34,127,0,0,3495,10,0,993,20,139,5944,-4,0,88,15,299265,0
299286,52,-2065,255,-82,38,206,12582,57,36,118,40,35416,1,34,127,0,0,3493,49,0,993,20,139,5954,-4,0,88,15,299265,0
299296,52,-2078,261,-83,29,199,12601,26,15,37,24,35430,12,34,127,0,0,3495,10,0,993,20,139,5964,-4,0,88,15,299281,0
299306,18,-2072,260,-87,34,175,12601,4,-49,167,24,35460,-5,34,127,0,0,3499,10,0,993,20,139,5974,-4,0,88,15,299281,0
299316,61,-2081,251,-82,39,150,12602,2,-26,226,40,35472,-17,34,127,0,0,3498,-16,0,993,20,139,5984,-4,0,88,15,299312,0
299326,63,-2080,261,-84,42,142,12603,0,-2,221,40,35455,-39,34,127,0,0,3498,-21,0,993,20,139,5994,-4,0,88,15,299312,0
299336,86,-2085,261,-83,39,140,12604,-1,-2,226,40,35429,-21,34,127,0,0,3498,-43,0,993,20,139,6004,-4,0,88,15,299312,0
299346,68,-2072,278,-90,37,150,12605,11,3,218,32,35420,-21,34,127,0,0,3501,-10,0,993,20,139,6014,-4,0,88,15,299312,0
299356,78,-2077,273,-97,37,151,12606,8,0,253,56,35441,-22,34,127,0,0,3500,-5,0,993,20,139,6024,-4,0,88,15,299374,0
299366,81,-2071,270,-104,28,153,12609,3,6,247,56,35442,-21,34,127,0,0,3500,-16,0,993,20,139,6034,-4,0,88,15,299374,0
299376,60,-2064,264,-107,29,151,12609,9,0,228,72,35425,-15,34,127,0,0,3502,38,0,993,20,139,6044,-4,0,88,15,299374,0
299386,54,-2079,257,-112,33,126,12610,3,-2,249,48,35412,-1,34,127,0,0,3503,27,0,993,20,139,6054,-4,0,88,15,299374,0
299396,24,-2081,242,-102,33,116,12611,0,0,274,72,35418,-14,34,127,0,0,3505,60,0,993,20,139,6064,-4,0,88,15,299390,0
299406,72,-2070,238,-97,35,116,12613,3,4,269,48,35423,-29,34,127,0,0,3500,-10,0,993,20,139,6074,-4,0,88,15,299390,0
299417,42,-2068,235,-91,22,105,12613,7,-1,257,72,35418,-13,34,127,0,0,3500,-10,0,993,20,139,6085,-4,0,88,15,299390,0
299427,53,-2067,244,-87,24,98,12613,-4,1,239,80,35422,-18,34,127,0,0,3502,10,0,993,20,139,6095,-4,0,88,15,299421,0
299437,35,-2073,236,-79,29,93,12616,8,7,262,104,35428,-28,34,127,0,0,3500,-32,0,993,20,139,6105,-4,0,88,15,299421,0
299447,76,-2064,231,-73,26,80,12613,-9,-2,177,40,35428,-38,34,127,0,0,3502,32,0,993,20,139,6115,-4,0,88,15,299421,0
299457,114,-2060,239,-66,39,80,12615,-1,-2,206,40,35417,-28,34,127,0,0,3500,0,0,993,20,139,6125,-4,0,88,15,299437,0
299467,99,-2067,251,-72,31,92,12614,3,2,179,40,35411,-40,34,127,0,0,3500,0,0,993,20,139,6135,-4,0,88,15,299452,0
299477,82,-2068,277,-75,26,93,12615,0,-3,164,40,35409,-50,34,127,0,0,3498,-21,0,993,20,139,6145,-4,0,88,15,299452,0
299487,93,-2079,289,-86,30,91,12613,0,-3,127,24,35414,-47,34,127,0,0,3498,-21,0,993,20,139,6155,-4,0,88,15,299452,0
299497,71,-2065,259,-93,22,96,12614,2,4,118,24,35425,-23,34,127,0,0,3502,54,0,993,20,139,6165,-4,0,88,15,299484,0
299507,57,-2071,224,-80,16,95,12614,0,8,186,40,35417,-18,34,127,0,0,3498,-10,0,993,20,139,6175,-4,0,88,15,299484,0
299517,46,-2079,197,-65,20,87,12615,11,-3,173,40,35413,-35,34,127,0,0,3500,-21,0,993,20,139,6185,-4,0,88,15,299484,0
299527,45,-2077,229,-57,25,72,12613,-7,-4,130,-8,35423,-46,34,127,0,0,3500,32,0,993,20,139,6195,-4,0,88,15,299515,0
299537,36,-2085,285,-66,34,56,12615,11,5,166,16,35424,-34,34,127,0,0,3498,-21,0,993,20,139,6205,-4,0,88,15,299515,0
299547,39,-2082,291,-79,39,28,12609,-7,1,100,-8,35420,-12,34,127,0,0,3493,-43,0,993,20,139,6215,-4,0,88,15,299530,0
299557,52,-2075,278,-93,32,17,12607,-9,-7,-49,-40,35416,-18,34,127,0,0,3493,-10,0,993,20,139,6225,-4,0,88,15,299530,0
299567,46,-2086,260,-96,38,9,12606,8,7,-44,-32,35423,-18,34,127,0,0,3491,-32,0,993,20,139,6235,-4,0,88,15,299546,0
299577,83,-2075,261,-90,52,12,12599,-11,3,-150,-80,35431,-14,34,127,0,0,3489,-10,0,993,20,139,6245,-4,0,88,15,299640,0
299587,126,-2073,273,-91,52,29,12596,-12,-4,-196,-72,35419,-15,34,127,0,0,3482,-43,0,993,20,139,6255,-4,0,88,15,299640,0
299597,174,-2071,293,-108,36,73,12591,-23,-1,-337,-96,35412,-25,34,127,0,0,3482,-10,0,993,20,139,6265,-4,0,88,15,299640,0
299607,136,-2074,280,-113,29,94,12587,1,-1,-333,-120,35409,-27,34,127,0,0,3480,-10,0,993,20,139,6275,-4,0,88,15,299640,0
299617,98,-2067,228,-115,27,119,12587,1,14,-377,-104,35407,-27,34,127,0,0,3480,0,0,993,20,139,6285,-4,0,88,15,299655,0
299627,86,-2084,221,-107,36,125,12587,0,6,-380,-104,35409,-7,34,127,0,0,3480,0,0,993,20,139,6295,-4,0,88,15,299655,0
299637,88,-2080,235,-96,47,122,12587,-1,3,-381,-104,35407,-16,34,127,0,0,3480,10,0,993,20,139,6305,-4,0,88,15,299655,0
299647,107,-2068,259,-92,45,131,12587,0,-6,-367,-104,35411,-25,34,127,0,0,3480,0,0,993,20,139,6315,-4,0,88,15,299655,0
299657,75,-2075,275,-95,35,134,12585,-7,0,-387,-96,35419,-30,34,127,0,0,3478,-10,0,993,20,139,6325,-4,0,88,15,299655,0
299667,76,-2076,266,-101,41,129,12586,0,-2,-361,-104,35424,-16,34,127,0,0,3480,-21,0,993,20,139,6335,-4,0,88,15,299655,0
299678,73,-2078,246,-104,43,126,12586,1,-4,-379,-128,35419,21,34,127,0,0,3478,-38,0,993,20,139,6346,-4,0,88,15,299655,0
299688,83,-2075,239,-101,42,126,12586,-1,-1,-376,-104,35420,-3,34,127,0,0,3480,0,0,993,20,139,6356,-4,0,88,15,299671,0
299698,71,-2077,248,-100,36,124,12584,-4,2,-374,-80,35440,-22,34,127,0,0,3482,38,0,993,20,139,6366,-4,0,88,15,299671,0
299708,93,-2076,244,-92,50,133,12585,-12,-3,-357,-104,35441,-18,34,127,0,0,3483,43,0,993,20,139,6376,-4,0,88,15,299702,0
299718,121,-2060,241,-90,49,136,12585,2,1,-360,-104,35438,0,34,127,0,0,3480,10,0,993,20,139,6386,-4,0,88,15,299702,0
299728,115,-2064,245,-86,49,151,12584,0,-4,-373,-96,35415,-3,34,127,0,0,3480,-10,0,993,20,139,6396,-4,0,88,15,299702,0
299738,97,-2068,244,-81,44,165,12585,3,0,-376,-104,35413,-9,34,127,0,0,3480,0,0,993,20,139,6406,-4,0,88,15,299718,0
299748,92,-2067,248,-78,45,164,12585,-1,0,-332,-80,35426,-8,34,127,0,0,3485,21,0,993,20,139,6416,-4,0,88,15,299734,0
299758,76,-2073,270,-83,46,179,12586,0,-4,-265,-56,35433,-9,34,127,0,0,3484,43,0,993,20,139,6426,-4,0,88,15,299734,0
299768,75,-2070,276,-90,36,177,12587,3,-2,-214,-40,35430,-15,34,127,0,0,3483,10,0,993,20,139,6436,-4,0,88,15,299734,0
299778,78,-2078,262,-99,26,167,12589,-1,-2,-173,-16,35431,-21,34,127,0,0,3485,16,0,993,20,139,6446,-4,0,88,15,299780,0
299788,60,-2078,253,-102,26,164,12591,-11,-2,-163,-48,35421,-25,34,127,0,0,3487,-16,0,993,20,139,6456,-4,0,88,15,299780,0
299798,21,-2091,242,-96,39,135,12593,8,0,-118,-24,35417,-9,34,127,0,0,3492,32,0,993,20,139,6466,-4,0,88,15,299780,0
299808,43,-2076,238,-93,40,115,12593,-3,-1,-79,-24,35409,-11,34,127,0,0,3492,21,0,993,20,139,6476,-4,0,88,15,299796,0
299818,95,-2075,261,-86,44,117,12594,4,-2,-56,-32,35412,-23,34,127,0,0,3492,10,0,993,20,139,6486,-4,0,88,15,299796,0
299828,70,-2066,259,-89,40,116,12594,1,6,-39,-32,35424,-37,34,127,0,0,3489,-21,0,993,20,139,6496,-4,0,88,15,299827,0
299838,79,-2074,259,-97,40,117,12594,0,-2,-73,-32,35427,-32,34,127,0,0,3492,0,0,993,20,139,6506,-4,0,88,15,299827,0
299848,77,-2074,262,-100,43,123,12595,0,0,-38,-8,35419,-21,34,127,0,0,3491,5,0,993,20,139,6516,-4,0,88,15,299827,0
299858,98,-2078,257,-106,36,125,12595,0,2,-37,-8,35416,-30,34,127,0,0,3491,5,0,993,20,139,6526,-4,0,88,15,299827,0
299868,56,-2088,262,-104,38,137,12595,5,-3,-67,-8,35431,-31,34,127,0,0,3491,43,0,993,20,139,6536,-4,0,88,15,299859,0
299878,85,-2068,258,-103,42,117,12595,-5,-2,-20,-32,35438,-30,34,127,0,0,3489,-38,0,993,20,139,6546,-4,0,88,15,299859,0
299888,84,-2081,241,-111,47,119,12596,18,-3,-39,-8,35435,-11,34,127,0,0,3491,-10,0,993,20,139,6556,-4,0,88,15,299859,0
299898,77,-2068,254,-103,39,137,12594,-5,-4,-22,-8,35429,-14,34,127,0,0,3491,0,0,993,20,139,6566,-4,0,88,15,299874,0
299909,104,-2078,240,-106,36,139,12594,-12,-4,-55,-8,35439,-17,34,127,0,0,3491,21,0,993,20,139,6577,-4,0,88,15,299890,0
299919,104,-2081,249,-113,40,153,12594,-11,3,-57,-8,35449,-22,34,127,0,0,3491,21,0,993,20,139,6587,-4,0,88,15,299905,0
299929,111,-2067,251,-107,38,167,12597,0,-2,6,8,35442,-16,34,127,0,0,3493,21,0,993,20,139,6597,-4,0,88,15,299905,0
299939,94,-2076,246,-108,41,173,12595,-13,-2,21,56,35430,-17,34,127,0,0,3495,32,0,993,20,139,6607,-4,0,88,15,299905,0
299949,88,-2073,260,-108,40,180,12603,27,4,151,8,35428,-18,34,127,0,0,3495,-32,0,993,20,139,6617,-4,0,88,15,299937,0
299959,85,-2060,263,-109,33,174,12604,2,-1,166,32,35419,-29,34,127,0,0,3498,-10,0,993,20,139,6627,-4,0,88,15,299937,0
299969,85,-2072,253,-112,36,182,12606,-5,-6,196,24,35419,-7,34,127,0,0,3500,10,0,993,20,139,6637,-4,0,88,15,299968,0
299979,65,-2075,238,-118,32,184,12608,13,2,264,40,35410,-7,34,127,0,0,3502,-10,0,993,20,139,6647,-4,0,88,15,299999,0
299989,57,-2073,234,-114,40,174,12612,5,10,299,56,35419,-17,34,127,0,0,3502,-10,0,993,20,139,6657,-4,0,88,15,299999,0
299999,66,-2083,244,-104,39,169,12617,11,3,312,112,35433,-26,34,127,0,0,3506,21,0,993,20,139,6667,-4,0,88,15,299999,0
300009,88,-2066,251,-101,49,164,12626,17,14,320,72,35442,-9,34,127,0,0,3509,21,0,993,20,139,6677,-4,0,88,15,299999,0
300019,86,-2088,252,-106,45,166,12653,71,42,203,16,35427,9,34,127,0,0,3509,10,0,993,20,139,6687,-4,0,88,15,299999,0
300029,114,-2080,258,-113,35,188,12667,9,11,191,48,35419,-11,34,127,0,0,3511,0,0,993,20,139,6697,-4,0,88,15,300015,0
300039,69,-2077,266,-111,29,199,12666,12,-55,235,48,35427,-30,34,127,0,0,3511,0,0,993,20,139,6707,-4,0,88,15,300015,0
300049,53,-2073,250,-114,36,198,12667,10,-18,323,56,35447,-22,34,127,0,0,3515,-10,0,993,20,139,6717,-4,0,88,15,300046,0
300059,79,-2069,247,-115,36,197,12670,5,8,365,104,35449,-19,34,127,0,0,3517,21,0,993,20,139,6727,-4,0,88,15,300046,0
300069,81,-2065,236,-111,40,201,12678,19,10,396,80,35435,-17,34,127,0,0,3522,54,0,993,20,139,6737,-4,0,88,15,300046,0
300079,56,-2073,230,-108,32,202,12688,38,21,415,128,35423,-26,34,127,0,0,3522,10,0,993,20,139,6747,-4,0,88,15,300046,0
300089,29,-2075,242,-110,42,165,12710,55,29,282,96,35423,-26,34,127,0,0,3524,32,0,993,20,139,6757,-4,0,88,15,300062,0
300099,32,-2069,268,-116,46,155,12729,18,22,203,56,35435,-2,34,127,0,0,3522,-10,0,993,20,139,6767,-4,0,88,15,300077,0
300109,15,-2073,248,-130,44,122,12725,-4,-62,237,32,35433,-1,34,127,0,0,3524,10,0,993,20,139,6777,-4,0,88,15,300093,0
300119,16,-2077,224,-122,28,108,12725,-10,-32,218,72,35430,15,34,127,0,0,3524,0,0,993,20,139,6787,-4,0,88,15,300093,0
300129,-3,-2066,225,-113,32,86,12727,4,7,223,24,35422,0,34,127,0,0,3522,-10,0,993,20,139,6797,-4,0,88,15,300140,0
300139,-10,-2071,248,-111,33,68,12727,16,-2,228,24,35432,5,34,127,0,0,3522,-32,0,993,20,139,6807,-4,0,88,15,300140,0
300149,36,-2069,272,-112,29,57,12725,-6,-5,197,40,35429,12,34,127,0,0,3520,-10,0,993,20,139,6817,-4,0,88,15,300140,0
300159,94,-2062,254,-123,26,51,12724,-10,-1,149,40,35429,1,34,127,0,0,3520,0,0,993,20,139,6827,-4,0,88,15,300140,0
300169,100,-2078,232,-122,40,53,12724,-1,6,134,88,35431,7,34,127,0,0,3520,-21,0,993,20,139,6837,-4,0,88,15,300140,0
300180,114,-2081,236,-116,45,65,12724,1,3,127,24,35427,12,34,127,0,0,3520,-27,0,993,20,139,6848,-4,0,88,15,300155,0
300190,131,-2080,253,-119,44,91,12724,1,-7,100,24,35423,23,34,127,0,0,3520,5,0,993,20,139,6858,-4,0,88,15,300187,0
300200,126,-2083,270,-115,35,124,12723,0,1,46,24,35420,23,34,127,0,0,3520,49,0,993,20,139,6868,-4,0,88,15,300187,0
300210,143,-2086,259,-139,31,142,12724,2,-1,110,0,35425,14,34,127,0,0,3517,-38,0,993,20,139,6878,-4,0,88,15,300187,0
300220,101,-2078,243,-138,37,154,12722,7,-6,72,32,35419,27,34,127,0,0,3520,16,0,993,20,139,6888,-4,0,88,15,300187,0
300230,90,-2073,220,-123,43,150,12722,-13,0,115,24,35432,-3,34,127,0,0,3520,10,0,993,20,139,6898,-4,0,88,15,300218,0
300240,78,-2068,228,-123,47,150,12723,0,3,116,48,35432,-12,34,127,0,0,3518,5,0,993,20,139,6908,-4,0,88,15,300218,0
300250,70,-2100,245,-128,32,133,12724,2,-4,115,48,35439,-24,34,127,0,0,3518,5,0,993,20,139,6918,-4,0,88,15,300218,0
300260,690,-2261,157,-160,53,-98,12723,-1,5,123,40,35429,-6,34,127,0,0,3522,32,0,993,20,139,6928,-4,0,88,15,300249,0
300270,763,-2036,123,-217,133,-674,12721,-17,1,113,-64,35431,-4,34,127,0,0,3501,-236,0,993,20,139,6938,-4,0,88,15,300249,0
300280,81,-1974,203,-130,27,-264,12688,-115,-72,-439,-248,35429,-2,34,127,0,0,3480,-148,0,993,20,139,6948,-4,0,88,15,300249,0
300290,-179,-2065,353,-174,-98,78,12610,-173,-156,-316,-184,35438,-8,34,127,0,0,3474,-82,0,993,20,139,6958,-4,0,88,15,300280,0
300300,17,-2120,329,-169,12,-82,12557,-71,-26,-239,-72,35442,-23,34,127,0,0,3471,-60,0,993,20,139,6968,-4,0,88,15,300280,0
300310,536,-1952,97,-144,228,-705,12540,-35,125,-329,-192,35443,-12,34,127,0,0,3456,-230,0,993,20,139,6978,-4,0,88,15,300327,0
300320,565,-1934,133,-144,173,-625,12502,-106,29,-588,-368,35425,4,34,127,0,0,3428,-285,0,993,20,139,6988,-4,0,88,15,300327,0
300330,412,-2110,342,-149,-66,-202,12409,-221,-147,-445,-344,35427,-5,34,127,0,0,3420,-109,0,993,20,139,6998,-4,0,88,15,300343,0
300340,340,-2129,337,-181,-99,-123,12319,-202,-97,-430,-280,35427,-5,34,127,0,0,3412,0,0,993,20,139,7008,-4,0,88,15,300343,0
300350,306,-2074,155,-194,88,-478,12248,-111,41,-372,-216,35427,1,34,127,0,0,3396,-153,0,993,20,139,7018,-4,0,88,15,300343,0
300360,512,-1965,82,-171,145,-549,12202,-113,96,-595,-304,35413,15,34,127,0,0,3376,-203,0,993,20,139,7028,-4,0,88,15,300343,0
300370,533,-2059,209,-146,-1,-291,12130,-177,-13,-513,-368,35409,-3,34,127,0,0,3362,-159,0,993,20,139,7038,-4,0,88,15,300343,0
300380,413,-2073,279,-135,-72,-149,12042,-181,-90,-423,-232,35438,-21,34,127,0,0,3361,16,0,993,20,139,7048,-4,0,88,15,300374,0
300390,320,-2069,163,-135,-40,-163,11968,-151,8,-306,-136,35444,-27,34,127,0,0,3357,21,0,993,20,139,7058,-4,0,88,15,300374,0
300400,371,-2068,64,-110,34,-252,11936,-36,107,-286,-112,35442,-27,34,127,0,0,3349,-43,0,993,20,139,7068,-4,0,88,15,300374,0
300411,437,-2071,132,-56,8,-215,11918,-52,110,-366,-120,35427,-18,34,127,0,0,3344,-43,0,993,20,139,7079,-4,0,88,15,300390,0
300421,285,-2106,292,-58,-74,-154,11895,-39,-8,-356,-152,35427,-17,34,127,0,0,3342,-43,0,993,20,139,7089,-4,0,88,15,300405,0
300431,151,-2125,330,-90,-68,-182,11890,-3,25,-488,-152,35432,-16,34,127,0,0,3339,0,0,993,20,139,7099,-4,0,88,15,300405,0
300441,217,-2147,266,-95,-2,-276,11890,-3,49,-524,-184,35424,-12,34,127,0,0,3337,0,0,993,20,139,7109,-4,0,88,15,300405,0
300451,303,-2106,256,-69,22,-296,11885,-12,-6,-554,-224,35425,-24,34,127,0,0,3333,-43,0,993,20,139,7119,-4,0,88,15,300437,0
300461,313,-2094,264,-94,-58,-256,11862,-64,-34,-537,-184,35429,-32,34,127,0,0,3328,-43,0,993,20,139,7129,-4,0,88,15,300437,0
300471,280,-2079,235,-88,-47,-286,11827,-63,-59,-406,-176,35431,-38,34,127,0,0,3322,-76,0,993,20,139,7139,-4,0,88,15,300437,0
300481,267,-2113,157,-77,-25,-286,11816,-16,25,-530,-200,35429,-20,34,127,0,0,3320,-43,0,993,20,139,7149,-4,0,88,15,300483,0
300491,292,-2131,205,-35,-21,-247,11797,-60,32,-528,-144,35422,-3,34,127,0,0,3322,10,0,993,20,139,7159,-4,0,88,15,300483,0
300501,315,-2252,329,11,-41,-197,11760,-66,-60,-313,-136,35428,-3,34,127,0,0,3322,10,0,993,20,139,7169,-4,0,88,15,300483,0
300511,260,-2188,316,30,-58,-160,11749,-6,21,-261,-80,35441,2,34,127,0,0,3322,21,0,993,20,139,7179,-4,0,88,15,300483,0
300521,245,-2103,281,-43,-85,-63,11748,2,79,-227,-16,35437,14,34,127,0,0,3326,54,0,993,20,139,7189,-4,0,88,15,300515,0
300531,301,-2076,270,-61,-138,-48,11760,34,40,-2,56,35432,11,34,127,0,0,3337,120,0,993,20,139,7199,-4,0,88,15,300515,0
300541,263,-2077,163,-124,-207,46,11795,81,65,173,136,35422,9,34,127,0,0,3350,142,0,993,20,139,7209,-4,0,88,15,300515,0
300551,200,-2084,167,-123,-153,61,11845,141,67,299,192,35430,-10,34,127,0,0,3368,175,0,993,20,139,7219,-4,0,88,15,300546,0
300561,177,-2093,118,-138,-44,52,11931,195,100,269,192,35429,-9,34,127,0,0,3383,164,0,993,20,139,7229,-4,0,88,15,300546,0
300571,158,-2113,122,-132,-5,45,12013,167,59,271,216,35423,-18,34,127,0,0,3403,197,0,993,20,139,7239,-4,0,88,15,300546,0
300581,208,-2117,196,-127,5,50,12087,159,-23,327,264,35410,-17,34,127,0,0,3421,208,0,993,20,139,7249,-4,0,88,15,300562,0
300591,191,-2158,229,-138,-23,87,12176,207,11,330,256,35430,-31,34,127,0,0,3440,208,0,993,20,139,7259,-4,0,88,15,300577,0
300601,140,-2188,281,-153,-8,140,12272,217,40,320,272,35439,-16,34,127,0,0,3462,230,0,993,20,139,7269,-4,0,88,15,300593,0
300611,206,-2223,270,-169,4,197,12368,202,14,376,368,35438,-17,34,127,0,0,3487,274,0,993,20,139,7279,-4,0,88,15,300593,0
300621,200,-2223,299,-178,4,273,12470,236,9,420,400,35416,-14,34,127,0,0,3515,263,0,993,20,139,7289,-4,0,88,15,300593,0
300631,194,-2237,362,-186,-19,283,12581,260,34,462,520,35426,-29,34,127,0,0,3548,329,0,993,20,139,7299,-4,0,88,15,300640,0
300641,193,-2199,369,-162,-117,318,12722,312,76,425,608,35440,-35,34,127,0,0,3583,351,0,993,20,139,7309,-4,0,88,15,300655,0
300651,162,-2185,354,-168,-175,307,12871,329,69,433,720,35444,-19,34,127,0,0,3621,384,0,993,20,139,7319,-4,0,88,15,300655,0
300661,114,-2244,314,-176,-193,263,13032,370,34,453,752,35421,-10,34,127,0,0,3658,351,0,993,20,139,7329,-4,0,88,15,300671,0
300671,174,-2236,277,-163,-180,238,13198,370,34,498,824,35408,-25,34,127,0,0,3693,373,0,993,20,139,7339,-4,0,88,15,300686,0
300681,222,-2190,163,-174,-149,264,13372,395,20,511,856,35411,-30,34,127,0,0,3728,329,0,993,20,139,7349,-4,0,88,15,300702,0
300692,234,-2135,112,-173,-124,334,13582,414,53,438,896,35419,-19,34,127,0,0,3771,395,0,993,20,139,7360,-4,0,88,15,300718,0
300702,232,-2025,17,-154,-98,411,13769,413,13,510,944,35411,-4,34,127,0,0,3814,422,0,993,20,139,7370,-4,0,88,15,300718,0
300712,222,-2031,-20,-127,-67,477,13969,453,12,558,1040,35410,-13,34,127,0,0,3860,428,0,993,20,139,7380,-4,0,88,15,300718,0
300722,248,-2063,71,-107,7,515,14163,479,57,532,1096,35412,7,34,127,0,0,3906,461,0,993,20,139,7390,-4,0,88,15,300718,0
300732,250,-2043,166,-111,48,505,14395,507,65,496,1152,35423,8,34,127,0,0,3955,461,0,993,20,139,7400,-4,0,88,15,300718,0
300742,284,-2015,178,-133,68,492,14638,540,43,450,1104,35425,43,34,127,0,0,4003,483,0,993,20,139,7410,-4,0,88,15,300718,0
300752,256,-2028,173,-133,33,490,14879,537,17,455,1072,35427,30,34,127,0,0,4047,455,0,993,20,139,7420,-4,0,88,15,300733,0
300762,102,-2036,247,-114,7,499,15125,533,9,414,1072,35431,14,34,127,0,0,4092,521,0,993,20,139,7430,-4,0,88,15,300780,0
300772,113,-1998,260,-121,38,436,15360,517,-16,447,1024,35431,-24,34,127,0,0,4130,461,0,993,20,139,7440,-4,0,88,15,300780,0
300782,151,-1970,253,-135,87,355,15587,495,-32,463,968,35422,-17,34,127,0,0,4167,346,0,993,20,139,7450,-4,0,88,15,300780,0
300792,153,-1920,203,-155,100,347,15805,477,-33,411,936,35415,-8,34,127,0,0,4203,357,0,993,20,139,7460,-4,0,88,15,300796,0
300802,228,-1878,182,-141,79,300,16014,436,-37,413,864,35408,-9,34,127,0,0,4242,395,0,993,20,139,7470,-4,0,88,15,300796,0
300812,227,-1904,200,-136,57,261,16207,418,-51,464,848,35413,-4,34,127,0,0,4271,285,0,993,20,139,7480,-4,0,88,15,300796,0
300822,231,-1988,265,-144,28,197,16389,390,-48,474,776,35415,5,34,127,0,0,4303,274,0,993,20,139,7490,-4,0,88,15,300811,0
300832,212,-1949,292,-152,6,164,16560,367,-56,450,688,35421,21,34,127,0,0,4330,263,0,993,20,139,7500,-4,0,88,15,300811,0
300842,230,-1984,242,-165,10,109,16731,374,2,427,600,35417,22,34,127,0,0,4348,203,0,993,20,139,7510,-4,0,88,15,300843,0
300852,213,-1997,236,-166,19,98,16879,307,-45,437,488,35427,9,34,127,0,0,4365,197,0,993,20,139,7520,-4,0,88,15,300843,0
300862,267,-1984,212,-162,34,106,17003,267,-90,421,464,35425,11,34,127,0,0,4381,197,0,993,20,139,7530,-4,0,88,15,300843,0
300872,311,-1980,189,-156,33,146,17116,223,-64,479,400,35419,-10,34,127,0,0,4400,175,0,993,20,139,7540,-4,0,88,15,300858,0
300882,292,-1908,185,-141,-4,179,17225,242,-32,425,368,35411,-25,34,127,0,0,4420,131,0,993,20,139,7550,-4,0,88,15,300858,0
300892,326,-1933,169,-147,-22,177,17320,205,-31,471,384,35427,-42,34,127,0,0,4437,170,0,993,20,139,7560,-4,0,88,15,300874,0
300902,278,-1999,138,-136,-33,196,17425,228,-6,424,312,35440,-47,34,127,0,0,4450,93,0,993,20,139,7570,-4,0,88,15,300874,0
300913,228,-2099,156,-112,-22,213,17516,158,-27,421,296,35442,-24,34,127,0,0,4467,131,0,993,20,139,7581,-4,0,88,15,300890,0
300923,279,-2103,173,-99,-8,224,17580,143,-87,508,256,35433,-30,34,127,0,0,4478,98,0,993,20,139,7591,-4,0,88,15,300905,0
300933,244,-2075,196,-97,-20,258,17648,150,-24,456,248,35437,-34,34,127,0,0,4489,109,0,993,20,139,7601,-4,0,88,15,300905,0
300943,220,-2073,189,-90,-32,274,17707,119,-8,494,304,35444,-48,34,127,0,0,4502,131,0,993,20,139,7611,-4,0,88,15,300921,0
300953,149,-2055,131,-83,-19,290,17779,174,2,448,248,35444,-26,34,127,0,0,4513,98,0,993,20,139,7621,-4,0,88,15,300936,0
300963,157,-2078,128,-85,-5,299,17844,125,20,467,280,35429,-27,34,127,0,0,4526,142,0,993,20,139,7631,-4,0,88,15,300936,0
300973,101,-2099,153,-76,18,294,17900,125,-36,511,288,35422,-43,34,127,0,0,4537,131,0,993,20,139,7641,-4,0,88,15,300952,0
300983,131,-2112,200,-76,43,295,17974,174,19,454,256,35422,-39,34,127,0,0,4554,131,0,993,20,139,7651,-4,0,88,15,300968,0
300993,178,-2107,218,-100,56,280,18042,150,17,494,288,35427,-28,34,127,0,0,4565,109,0,993,20,139,7661,-4,0,88,15,300983,0
301003,176,-2072,200,-93,47,262,18118,182,1,450,280,35423,0,34,127,0,0,4579,109,0,993,20,139,7671,-4,0,88,15,300983,0
301013,102,-2032,191,-84,8,264,18194,166,19,414,280,35415,-10,34,127,0,0,4592,153,0,993,20,139,7681,-4,0,88,15,301015,0
301023,85,-2072,185,-89,14,237,18257,131,-18,497,280,35423,-7,34,127,0,0,4605,131,0,993,20,139,7691,-4,0,88,15,301015,0
301033,75,-2085,213,-84,52,211,18311,135,-41,599,280,35425,1,34,127,0,0,4616,87,0,993,20,139,7701,-4,0,88,15,301015,0
301043,160,-2065,243,-98,71,206,18373,148,-8,515,288,35422,5,34,127,0,0,4627,109,0,993,20,139,7711,-4,0,88,15,301015,0
301053,242,-2095,224,-116,58,228,18437,137,25,516,264,35422,2,34,127,0,0,4638,120,0,993,20,139,7721,-4,0,88,15,301061,0
301063,189,-2075,253,-123,46,228,18499,143,-7,539,272,35436,-19,34,127,0,0,4649,87,0,993,20,139,7731,-4,0,88,15,301061,0
301073,176,-2065,263,-117,30,220,18575,178,28,361,248,35438,-29,34,127,0,0,4662,131,0,993,20,139,7741,-4,0,88,15,301061,0
301083,218,-2082,225,-124,9,216,18624,92,-16,503,272,35428,-21,34,127,0,0,4669,109,0,993,20,139,7751,-4,0,88,15,301077,0
301093,220,-2018,169,-119,-2,231,18672,97,-61,565,280,35418,-17,34,127,0,0,4682,98,0,993,20,139,7761,-4,0,88,15,301077,0
301103,188,-1990,176,-110,4,201,18738,147,36,444,208,35415,-35,34,127,0,0,4688,43,0,993,20,139,7771,-4,0,88,15,301077,0
301113,158,-2067,180,-125,24,205,18790,98,13,422,160,35427,-43,34,127,0,0,4699,98,0,993,20,139,7781,-4,0,88,15,301108,0
301123,169,-2064,174,-122,41,207,18830,107,-54,506,192,35436,-19,34,127,0,0,4702,43,0,993,20,139,7791,-4,0,88,15,301108,0
301133,246,-2016,207,-125,37,197,18869,68,-21,429,160,35434,5,34,127,0,0,4708,76,0,993,20,139,7801,-4,0,88,15,301108,0
301143,229,-1953,204,-112,35,171,18901,91,-10,454,200,35427,-13,34,127,0,0,4713,21,0,993,20,139,7811,-4,0,88,15,301124,0
301153,275,-1936,158,-130,37,141,18931,37,-8,393,144,35430,-32,34,127,0,0,4715,43,0,993,20,139,7821,-4,0,88,15,301124,0
301164,231,-1900,172,-120,25,131,18956,59,-34,343,80,35442,-31,34,127,0,0,4713,5,0,993,20,139,7832,-4,0,88,15,301155,0
301174,244,-1951,204,-130,-2,135,18976,15,2,196,40,35442,-20,34,127,0,0,4713,-27,0,993,20,139,7842,-4,0,88,15,301155,0
301184,214,-1982,205,-144,-1,129,18972,3,-67,189,24,35434,-12,34,127,0,0,4710,-5,0,993,20,139,7852,-4,0,88,15,301155,0
301194,268,-1960,186,-131,-4,114,18970,0,-30,82,-24,35428,-25,34,127,0,0,4709,-32,0,993,20,139,7862,-4,0,88,15,301171,0
301204,290,-1893,201,-108,-29,132,18964,-20,-5,-87,-80,35428,-17,34,127,0,0,4699,-49,0,993,20,139,7872,-4,0,88,15,301186,0
301214,361,-1893,194,-100,-97,108,18949,-32,-14,-312,-152,35433,-19,34,127,0,0,4691,-60,0,993,20,139,7882,-4,0,88,15,301186,0
301224,321,-1865,151,-89,-138,119,18913,-113,-53,-360,-200,35429,-12,34,127,0,0,4680,-109,0,993,20,139,7892,-4,0,88,15,301218,0
301234,300,-1934,82,-102,-156,60,18840,-173,-116,-268,-176,35435,-12,34,127,0,0,4662,-148,0,993,20,139,7902,-4,0,88,15,301233,0
301244,247,-1910,150,-134,-136,-1,18755,-201,-95,-260,-224,35427,-6,34,127,0,0,4646,-175,0,993,20,139,7912,-4,0,88,15,301233,0
301254,181,-2038,106,-145,-66,-59,18666,-189,-33,-238,-256,35431,17,34,127,0,0,4619,-302,0,993,20,139,7922,-4,0,88,15,301233,0
301264,177,-2089,117,-150,-45,-6,18562,-254,-30,-321,-296,35421,11,34,127,0,0,4597,-247,0,993,20,139,7932,-4,0,88,15,301233,0
301274,56,-2010,144,-135,-12,-27,18458,-219,-38,-349,-344,35437,-21,34,127,0,0,4576,-285,0,993,20,139,7942,-4,0,88,15,301264,0
301284,110,-2094,173,-148,19,-74,18343,-260,-12,-305,-344,35445,-47,34,127,0,0,4554,-236,0,993,20,139,7952,-4,0,88,15,301264,0
301294,62,-2082,280,-140,55,-136,18221,-282,-40,-320,-336,35443,-33,34,127,0,0,4529,-219,0,993,20,139,7962,-4,0,88,15,301280,0
301304,63,-2067,296,-180,69,-197,18097,-262,-19,-330,-368,35419,-5,34,127,0,0,4506,-208,0,993,20,139,7972,-4,0,88,15,301280,0
301314,120,-2115,290,-203,45,-255,17980,-259,14,-350,-408,35418,-5,34,127,0,0,4480,-258,0,993,20,139,7982,-4,0,88,15,301311,0
301324,183,-2133,286,-202,17,-340,17850,-283,-11,-359,-472,35433,-7,34,127,0,0,4446,-313,0,993,20,139,7992,-4,0,88,15,301311,0
301334,237,-2154,242,-211,-18,-444,17703,-320,-54,-385,-576,35438,-16,34,127,0,0,4412,-357,0,993,20,139,8002,-4,0,88,15,301311,0
301344,230,-2124,245,-219,-51,-475,17550,-352,-50,-397,-680,35421,-3,34,127,0,0,4372,-379,0,993,20,139,8012,-4,0,88,15,301327,0
301354,217,-2087,179,-247,-89,-501,17374,-397,-60,-404,-720,35412,1,34,127,0,0,4331,-422,0,993,20,139,8022,-4,0,88,15,301343,0
301364,184,-2078,124,-239,-111,-489,17192,-401,-50,-371,-776,35418,6,34,127,0,0,4289,-411,0,993,20,139,8032,-4,0,88,15,301343,0
301374,223,-2014,-25,-221,-133,-498,17000,-434,-23,-380,-768,35426,16,34,127,0,0,4253,-368,0,993,20,139,8042,-4,0,88,15,301358,0
301384,154,-1978,-87,-192,-143,-508,16809,-418,-25,-322,-760,35430,-5,34,127,0,0,4223,-329,0,993,20,139,8052,-4,0,88,15,301374,0
301394,78,-2039,-31,-174,-83,-528,16621,-411,9,-351,-736,35419,-15,34,127,0,0,4183,-351,0,993,20,139,8062,-4,0,88,15,301374,0
301404,-24,-2126,27,-178,2,-525,16437,-403,16,-376,-752,35423,-20,34,127,0,0,4152,-335,0,993,20,139,8072,-4,0,88,15,301374,0
301415,-12,-2260,151,-201,180,-499,16226,-432,-12,-310,-616,35420,-11,34,127,0,0,4119,-329,0,993,20,139,8083,-4,0,88,15,301452,0
301425,179,-2286,221,-221,277,-602,16045,-387,-1,-321,-592,35436,11,34,127,0,0,4089,-307,0,993,20,139,8093,-4,0,88,15,301452,0
301435,276,-2301,280,-221,255,-639,15870,-371,38,-316,-568,35426,-8,34,127,0,0,4056,-340,0,993,20,139,8103,-4,0,88,15,301452,0
301445,320,-2271,397,-199,140,-642,15707,-337,33,-348,-536,35415,-20,34,127,0,0,4025,-307,0,993,20,139,8113,-4,0,88,15,301452,0
301455,346,-2255,432,-204,29,-645,15543,-355,21,-313,-456,35409,-24,34,127,0,0,3999,-263,0,993,20,139,8123,-4,0,88,15,301468,0
301465,217,-2260,446,-194,-116,-691,15383,-352,12,-320,-440,35415,-7,34,127,0,0,3972,-241,0,993,20,139,8133,-4,0,88,15,301468,0
301475,85,-2227,396,-194,-184,-775,15244,-291,41,-337,-464,35416,4,34,127,0,0,3946,-263,0,993,20,139,8143,-4,0,88,15,301468,0
301485,26,-2167,276,-201,-220,-967,15107,-300,43,-399,-488,35411,-5,34,127,0,0,3915,-274,0,993,20,139,8153,-4,0,88,15,301468,0
301495,-60,-2143,214,-204,-260,-1079,14959,-320,-11,-388,-560,35429,-21,34,127,0,0,3882,-318,0,993,20,139,8163,-4,0,88,15,301468,0
301505,-146,-2192,165,-192,-285,-1290,14806,-353,-28,-416,-568,35441,-1,34,127,0,0,3845,-384,0,993,20,139,8173,-4,0,88,15,301499,0
301515,-151,-2285,150,-166,-316,-1383,14636,-386,-44,-390,-672,35443,21,34,127,0,0,3814,-351,0,993,20,139,8183,-4,0,88,15,301499,0
301525,-148,-2463,199,-185,-332,-1516,14465,-369,-43,-379,-640,35423,17,34,127,0,0,3785,-285,0,993,20,139,8193,-4,0,88,15,301499,0
301535,-81,-2479,188,-196,-292,-1632,14296,-367,2,-341,-536,35416,-8,34,127,0,0,3759,-241,0,993,20,139,8203,-4,0,88,15,301514,0
301545,-84,-2437,55,-218,-262,-1709,14135,-340,25,-306,-480,35421,-26,34,127,0,0,3739,-197,0,993,20,139,8213,-4,0,88,15,301514,0
301555,-63,-2440,28,-235,-186,-1716,13987,-326,40,-266,-360,35420,-9,34,127,0,0,3726,-142,0,993,20,139,8223,-4,0,8,0,301530,0
301565,38,-2376,-61,-241,23,-1775,13860,-252,63,-155,-176,35414,7,34,127,0,0,3719,-54,0,993,20,139,8233,-4,0,8,0,301561,0
301575,204,-2298,-96,-248,104,-1836,13780,-139,136,-136,-128,35419,-4,34,127,0,0,3708,-54,0,993,20,139,8243,-4,0,10,0,301561,0
301585,305,-2207,-4,-214,100,-1890,13748,-52,177,-226,-88,35421,-31,34,127,0,0,3702,-65,0,993,20,139,8253,-4,0,11,0,301561,0
301595,344,-2204,79,-201,18,-1905,13741,0,137,-307,-104,35424,-36,34,127,0,0,3702,-21,0,993,20,139,8263,-4,0,12,0,301561,0
301605,254,-2283,218,-146,-154,-1972,13740,-5,61,-383,-120,35411,-12,34,127,0,0,3702,10,0,993,20,139,8273,-4,0,13,0,301593,0
301615,176,-2323,319,-100,-286,-1972,13742,8,11,-284,-8,35413,-14,34,127,0,0,3711,87,0,993,20,139,8283,-4,0,15,0,301593,0
301625,208,-2512,385,-62,-442,-2013,13755,34,25,43,80,35417,-20,34,127,0,0,3726,164,0,993,20,139,8293,-4,0,16,0,301593,0
301635,168,-2505,378,-49,-506,-2035,13794,124,70,360,272,35415,-20,34,127,0,0,3748,208,0,993,20,139,8303,-4,0,18,0,301624,0
301645,189,-2480,284,-47,-617,-2064,13873,188,134,478,424,35425,-15,34,127,0,0,3788,373,0,993,20,139,8313,-4,0,19,0,301624,0
301655,129,-2528,221,-57,-689,-2141,13994,289,149,512,584,35421,-17,34,127,0,0,3825,406,0,993,20,139,8323,-4,0,20,0,301624,0
301666,68,-2544,193,14,-693,-2279,14165,355,146,494,776,35417,-16,34,127,0,0,3873,417,0,993,20,139,8334,-4,0,22,0,301639,0
301676,139,-2508,129,44,-635,-2343,14354,418,126,455,872,35423,-5,34,127,0,0,3914,433,0,993,20,139,8344,-4,0,23,0,301655,0
301686,373,-2416,123,61,-501,-2468,14560,465,90,469,1000,35420,6,34,127,0,0,3964,439,0,993,20,139,8354,-4,0,26,0,301671,0
301696,507,-2411,163,89,-651,-2526,14781,471,66,420,1016,35421,8,34,127,0,0,4015,527,0,993,20,139,8364,-4,0,27,0,301686,0
301706,534,-2611,371,72,-843,-2468,15016,532,42,460,1096,35412,2,34,127,0,0,4071,549,0,993,20,139,8374,-4,0,29,0,301686,0
301716,396,-2692,522,44,-960,-2384,15261,548,48,478,1248,35412,-4,34,127,0,0,4131,653,0,993,20,139,8384,-4,0,31,0,301686,0
301726,363,-2632,552,-30,-992,-2383,15503,606,67,529,1432,35418,14,34,127,0,0,4205,692,0,993,20,139,8394,-4,0,33,0,301717,0
301736,396,-2578,519,-82,-982,-2465,15798,663,101,568,1616,35419,3,34,127,0,0,4280,736,0,993,20,139,8404,-4,0,34,0,301717,0
301746,469,-2554,427,-111,-1019,-2478,16124,727,110,548,1744,35417,1,34,127,0,0,4354,752,0,993,20,139,8414,-4,0,37,0,301717,0
301756,567,-2468,450,-163,-1102,-2465,16466,757,85,565,1840,35416,3,34,127,0,0,4439,834,0,993,20,139,8424,-4,0,39,0,301733,0
301766,605,-2299,518,-244,-1227,-2478,16830,817,71,596,1944,35422,17,34,127,0,0,4512,741,0,993,20,139,8434,-4,0,41,0,301796,0
301776,613,-2155,479,-252,-1268,-2469,17206,829,66,509,1928,35430,19,34,127,0,0,4579,719,0,993,20,139,8444,-4,0,43,0,301796,0
301786,610,-1720,357,-233,-1290,-2381,17579,813,7,462,1864,35434,18,34,127,0,0,4646,659,0,993,20,139,8454,-4,0,46,0,301811,0
301796,514,-1406,386,-254,-1260,-2175,17944,798,-25,472,1816,35423,12,34,127,0,0,4703,620,0,993,20,139,8464,-4,0,48,0,301811,0
301806,593,-1201,-50,-238,-347,-1802,18298,768,-39,431,1536,35410,21,34,127,0,0,4729,247,0,993,20,139,8474,-4,0,50,0,301811,0
301816,-43,-1119,120,-197,192,-1600,18601,624,-128,222,696,35407,31,34,127,0,0,4691,-406,0,993,20,139,8484,-4,0,52,0,301811,0
301826,-642,-1072,143,304,581,-733,18787,306,-356,-290,-320,35414,5,34,127,0,0,4628,-637,0,993,20,139,8494,-4,0,56,0,301811,0
301836,-635,-937,301,408,619,-79,18688,-345,-767,-531,-712,35422,-8,34,127,0,0,4570,-582,0,993,20,139,8504,-4,0,58,0,301811,0
301846,-691,-922,412,556,713,792,18486,-473,-706,-342,-864,35433,-17,34,127,0,0,4517,-571,0,993,20,139,8514,-4,0,62,0,301827,0
301856,-568,-1074,282,641,745,1370,18257,-518,-228,-300,-1048,35442,-32,34,127,0,0,4459,-675,0,993,20,139,8524,-4,0,64,0,301858,0
301866,-539,-1261,199,832,640,2421,18008,-558,-84,-379,-1264,35446,-32,34,127,0,0,4384,-741,0,993,20,139,8534,-4,0,69,60,301858,0
301876,-551,-1287,206,952,493,3094,17725,-643,-98,-399,-1432,35439,-27,34,127,0,0,4317,-692,0,993,20,139,8544,-4,0,72,57,301858,0
301886,-590,-1306,294,1022,236,3972,17420,-678,-104,-371,-1512,35420,-21,34,127,0,0,4255,-670,0,993,20,139,8554,-4,0,77,51,301858,0
301896,-517,-1402,243,1036,57,4552,17102,-705,-62,-352,-1544,35413,-7,34,127,0,0,4187,-615,0,993,20,139,8564,-4,0,80,48,301874,0
301906,-426,-1570,111,1047,-157,5357,16772,-728,-50,-315,-1512,35413,11,34,127,0,0,4126,-631,0,993,20,139,8574,-4,0,85,42,301936,0
301917,-460,-1694,69,1040,-244,6036,16417,-705,-4,-307,-1440,35424,17,34,127,0,0,4069,-549,0,993,20,139,8585,-4,0,89,39,301936,0
301927,-511,-1811,99,983,-222,6405,16099,-695,16,-295,-1360,35418,4,34,127,0,0,4014,-516,0,993,20,139,8595,-4,0,95,34,301936,0
301937,-478,-2015,121,875,-38,6880,15795,-659,29,-273,-1208,35418,7,34,127,0,0,3970,-439,0,993,20,139,8605,-4,0,99,32,301936,0
301947,-470,-2099,67,806,168,7171,15511,-608,63,-263,-1072,35412,-1,34,127,0,0,3926,-428,0,993,20,139,8615,-4,0,105,28,301936,0
301957,-448,-2131,-38,700,619,7544,15247,-560,77,-284,-960,35418,-15,34,127,0,0,3895,-340,0,993,20,139,8625,-4,0,109,25,301952,0
301967,-337,-2120,-113,620,966,7690,15011,-505,90,-274,-832,35419,0,34,127,0,0,3862,-340,0,993,20,139,8635,-4,0,116,22,301952,0
301977,-249,-2165,-116,536,1521,7805,14798,-461,98,-314,-744,35426,-4,34,127,0,0,3827,-329,0,993,20,139,8645,-4,0,120,20,301952,0
301987,-199,-2225,-76,474,1905,7856,14598,-425,72,-342,-768,35439,-6,34,127,0,0,3788,-384,0,993,20,139,8655,-4,0,127,18,301983,0
301997,-137,-2321,8,382,2454,7945,14404,-417,28,-363,-768,35448,-19,34,127,0,0,3752,-351,0,993,20,139,8665,-4,0,131,16,301983,0
302007,-86,-2400,81,305,2771,7981,14208,-433,8,-376,-784,35438,11,34,127,0,0,3715,-329,0,993,20,139,8675,-4,0,138,14,301983,0
302017,30,-2487,134,207,3198,7894,14013,-423,-5,-333,-736,35418,8,34,127,0,0,3687,-307,0,993,20,139,8685,-4,0,142,13,301983,0
302027,123,-2508,171,162,3437,7731,13820,-416,8,-314,-632,35424,-9,34,127,0,0,3656,-340,0,993,20,139,8695,-4,0,149,12,302014,0
302037,344,-2527,204,118,3634,7475,13646,-364,40,-345,-592,35430,-37,34,127,0,0,3629,-274,0,993,20,139,8705,-4,0,153,11,302014,0
302047,494,-2514,229,128,3576,7227,13481,-354,52,-348,-544,35432,-42,34,127,0,0,3605,-219,0,993,20,139,8715,-4,0,159,10,302030,0
302057,670,-2450,274,233,3223,6608,13333,-305,44,-356,-504,35430,-21,34,127,0,0,3588,-153,0,993,20,139,8725,-4,0,163,10,302046,0
302067,857,-2453,342,328,2835,6072,13198,-289,64,-321,-408,35432,-12,34,127,0,0,3570,-186,0,993,20,139,8735,-4,0,169,9,302046,0
302077,1099,-2479,437,449,2058,5131,13086,-232,63,-339,-336,35434,-21,34,127,0,0,3552,-153,0,993,20,139,8745,-4,0,172,9,302046,0
302087,1144,-2355,433,476,1543,4407,12985,-196,65,-365,-304,35441,-31,34,127,0,0,3533,-186,0,993,20,139,8755,-4,0,176,8,302077,0
302097,1134,-2259,414,406,867,3362,12909,-190,82,-518,-392,35445,-34,34,127,0,0,3513,-186,0,993,20,139,8765,-4,0,179,8,302092,0
302107,1128,-2300,468,224,479,2550,12815,-205,6,-420,-384,35436,-31,34,127,0,0,3495,-186,0,993,20,139,8775,-4,0,182,8,302092,0
302117,1070,-2339,495,97,-25,1067,12720,-216,-32,-401,-384,35426,-23,34,127,0,0,3473,-252,0,993,20,139,8785,-4,0,183,7,302092,0
302127,1094,-2189,424,44,-360,-50,12623,-209,-2,-501,-480,35442,-29,34,127,0,0,3436,-362,0,993,20,139,8795,-4,0,185,7,302124,0
302137,1132,-1690,326,-16,-847,-1519,12512,-268,-30,-667,-808,35447,1,34,127,0,0,3383,-538,0,993,20,139,8805,-4,0,186,7,302124,0
302147,1154,-1458,209,-23,-1084,-2209,12352,-373,-127,-642,-1048,35438,4,34,127,0,0,3328,-560,0,993,20,139,8815,-4,0,187,6,302124,0
302157,1055,-1239,-147,-97,-1077,-2916,12153,-452,-165,-630,-1152,35415,17,34,127,0,0,3280,-483,0,993,20,139,8825,-4,0,187,6,302139,0
302168,2722,-5620,-461,-2236,-793,-2102,11917,-422,-115,267,1016,35422,5,34,127,0,0,3524,2883,0,1314,84,140,0,1,1,187,5,302170,0
302178,-846,-3728,-90,109,-1993,-4202,12157,808,820,1534,2880,35421,28,34,127,0,0,3740,2235,0,1314,84,140,10,1,1,187,5,302170,0
302188,-1317,-2764,-201,-898,-558,-5053,12703,1318,1499,944,3728,35413,49,34,127,0,0,3846,889,0,1314,84,140,20,1,1,187,5,302170,0
302198,-1117,-3571,27,-510,-365,-5711,13402,1631,848,902,4136,35395,89,34,127,0,0,3883,197,0,1314,84,140,30,1,1,187,5,302170,0
302208,11,-1994,-216,263,-252,-5911,14185,1738,457,543,4288,35404,69,34,127,0,0,3907,203,0,1314,84,140,40,1,1,187,5,302186,0
302218,1288,-2515,347,-66,94,-5615,15003,1796,220,468,4088,35418,70,34,127,0,0,3926,208,0,1314,84,140,50,1,1,187,5,302217,0
302228,2064,-3604,946,183,42,-5343,15803,1748,36,488,3992,35426,63,34,127,0,0,3941,49,0,1314,84,140,60,1,1,187,5,302217,0
302238,1718,-2157,609,135,-676,-5955,16561,1618,-116,267,3328,35416,47,34,127,0,0,3875,-719,0,1314,84,140,70,1,1,187,5,302217,0
302248,1470,-1791,237,-331,-852,-5838,17204,1320,-296,43,2208,35407,28,34,127,0,0,3766,-1082,0,1314,84,140,80,1,1,187,5,302217,0
302258,2304,-2010,-491,55,-297,-5338,17686,932,-533,-101,1800,35422,-13,34,127,0,0,3649,-1142,600,1314,84,140,90,1,1,187,5,302249,0
302268,800,-1252,-435,450,-78,-4830,18041,720,-563,347,1264,35434,-5,34,127,0,0,3527,-1148,800,1314,84,140,100,1,1,187,5,302249,0
302278,2164,-1648,1012,291,-1670,-2776,18075,-275,-812,572,-192,35431,-6,34,127,0,0,3538,32,1000,1314,84,140,110,1,1,187,5,302249,0
302288,1844,-2698,917,-51,-1299,-2960,17593,-1385,-1639,458,-2456,35421,-12,34,127,0,0,3473,-834,1200,1314,84,140,120,1,1,187,5,302264,0
302298,-1926,-2995,-456,-204,357,-4271,16772,-1906,-1676,468,-3072,35432,-34,34,127,0,0,3327,-1505,1400,1314,84,140,130,1,1,187,5,302264,0
302308,-902,-2745,-954,520,1527,-4628,15928,-1791,-691,677,-2344,35444,-46,34,127,0,0,3166,-1625,1500,1314,84,140,140,1,1,187,5,302295,0
302318,157,-1994,-2,928,1220,-3748,15208,-1481,210,815,-1344,35438,-63,34,127,0,0,3008,-1571,1500,1314,84,140,150,1,1,187,5,302295,0
302328,1401,-2397,1224,826,255,-2983,14679,-1010,595,877,-192,35430,-82,34,127,0,0,2919,-829,1500,1314,84,140,160,1,1,187,5,302295,0
302338,1246,-1998,1305,219,-936,-2046,14436,-294,905,1443,240,35424,-79,34,127,0,0,2870,-406,1500,1314,84,140,170,1,1,187,5,302327,0
302348,1138,-1548,664,139,-1228,-1650,14395,-95,983,993,136,35421,-62,34,127,0,0,2875,16,1500,1314,84,140,180,1,1,187,5,302327,0
302358,-381,-1966,67,99,-1112,-1489,14288,-318,241,912,-48,35418,-35,34,127,0,0,2869,-148,1500,1314,84,140,190,1,1,187,5,302327,0
302368,-1204,-1915,289,193,-516,-1979,14037,-637,-412,736,-304,35410,-19,34,127,0,0,2828,-422,1500,1314,84,140,200,1,1,187,5,302358,0
302378,375,-1993,551,154,618,-2723,13662,-884,-519,703,-472,35420,-38,34,127,0,0,2755,-774,1500,1314,84,140,210,1,1,187,5,302358,0
302388,1103,-2163,277,102,545,-2672,13270,-833,-276,872,-208,35427,-65,34,127,0,0,2679,-752,1560,1314,84,140,220,1,1,187,5,302358,0
302398,1006,-2380,564,-19,-165,-2054,12992,-484,175,1241,136,35431,-78,34,127,0,0,2616,-554,1740,1314,84,140,230,1,1,187,5,302389,0
302408,1107,-2807,980,41,-955,-1580,12931,-25,653,1181,328,35433,-68,34,127,0,0,2607,-54,1900,1314,84,140,240,1,1,187,5,302405,0
302418,295,-3136,1584,151,-1852,-1478,12955,77,588,1150,464,35425,-48,34,127,0,0,2620,192,2070,1314,84,140,250,1,1,187,5,302405,0
302428,-383,-2557,887,-188,-1664,-1674,13033,201,248,1175,872,35422,-14,34,127,0,0,2640,197,2280,1314,84,140,260,1,1,187,5,302405,0
302439,-347,-2710,-83,-183,-1126,-1970,13152,265,158,1422,1096,35415,17,34,127,0,0,2667,263,2460,1314,84,140,271,1,1,187,5,302405,0
302449,62,-2297,-337,-74,-933,-2117,13310,381,139,1436,1448,35410,38,34,127,0,0,2691,285,2590,1314,84,140,281,1,1,187,5,302436,0
302459,521,-2354,197,-173,-827,-2047,13536,542,233,1600,1856,35401,45,34,127,0,0,2733,395,2750,1314,84,140,291,1,1,187,5,302452,0
302469,768,-2027,620,-379,-769,-1844,13809,629,222,1732,2120,35399,50,34,127,0,0,2779,505,2960,1314,84,140,301,1,1,187,5,302452,0
302479,1096,-1768,302,-469,-795,-1688,14120,713,158,1838,2240,35388,70,34,127,0,0,2836,560,3200,1314,84,140,311,1,1,187,5,302452,0
302489,1406,-1633,5,-356,-946,-1345,14482,840,175,1989,2656,35387,105,34,127,0,0,2902,670,3490,1314,84,140,321,1,1,187,5,302483,0
302499,1518,-1612,194,-322,-1034,-1072,14897,947,204,2161,2896,35376,135,34,127,0,0,2975,747,3800,1314,84,140,331,1,1,187,5,302483,0
302509,1157,-1879,412,-388,-1114,-757,15346,1006,160,2343,3080,35374,167,34,127,0,0,3054,802,4150,1314,84,140,341,1,1,187,5,302483,0
302519,935,-2074,401,-437,-1083,-672,15824,1068,116,2579,3368,35363,173,34,127,0,0,3142,911,4530,1314,84,140,351,1,1,187,5,302545,0
302529,865,-2152,270,-511,-942,-506,16331,1136,111,2767,3632,35356,201,34,127,0,0,3232,944,4950,1314,84,140,361,1,1,187,5,302561,0
302539,876,-2136,317,-524,-922,-368,16869,1214,120,2978,3960,35340,225,34,127,0,0,3335,999,5410,1314,84,140,371,1,1,187,5,302561,0
302549,873,-2143,496,-578,-930,-98,17465,1360,165,3283,4408,35323,276,34,127,0,0,3440,1087,5920,1314,84,140,381,1,1,187,5,302561,0
302559,912,-2293,520,-650,-928,110,18150,1577,284,3594,5128,35303,324,34,127,0,0,3566,1263,6490,1314,84,140,391,1,1,187,5,302577,0
302569,935,-2249,504,-770,-1015,405,18939,1803,375,3951,5704,35278,434,34,127,0,0,3702,1395,7130,1314,84,140,401,1,1,187,5,302577,0
302579,764,-2197,357,-838,-1047,645,19781,1766,338,2993,-728,35251,506,34,127,0,0,3858,1527,0,1314,84,140,411,1,1,187,5,302577,0
302589,-1097,-908,-114,-584,240,-2173,19584,-1120,-1847,-2170,-2712,35278,407,34,127,0,0,3836,-527,0,1314,84,140,421,1,1,187,5,302577,0
302599,-1097,-1516,-125,-200,1808,-2055,18927,-1645,-3004,-1398,-5112,35324,248,34,127,0,0,3770,-593,0,1314,84,140,431,1,1,187,5,302577,0
302609,3034,-3556,1150,-744,596,-387,17908,-2410,-1455,-1200,-5872,35378,123,34,127,0,0,3854,999,0,1314,84,140,441,1,1,187,5,302608,0
302619,1297,-2519,1676,-1001,-800,584,16797,-2433,-906,-233,-4000,35390,108,34,127,0,0,3974,1274,0,1314,84,140,451,1,1,187,5,302624,0
302629,-155,-2390,703,-1321,-1837,387,15953,-1467,307,1731,-520,35403,42,34,127,0,0,4137,1625,0,1314,84,140,461,1,1,187,5,302624,0
302639,-572,-2527,-123,-1047,-1105,-545,15839,353,1963,2632,1312,35417,-60,34,127,0,0,4264,1219,0,1314,84,140,471,1,1,187,5,302624,0
302649,134,-2435,-109,-789,-939,-804,16126,726,2296,808,1992,35422,-53,34,127,0,0,4390,1263,0,1314,84,140,481,1,1,187,5,302624,0
302660,111,-2194,593,-887,-1239,-1034,16576,969,820,798,2496,35414,-6,34,127,0,0,4520,1170,0,1314,84,140,492,1,1,187,5,302624,0
302670,-525,-2190,846,-1211,-1621,-1407,17061,1089,356,609,2720,35409,29,34,127,0,0,4632,1175,0,1314,84,140,502,1,1,187,5,302673,0
302680,-646,-2392,83,-1242,-1542,-2038,17591,1196,215,597,2848,35410,23,34,127,0,0,4736,983,0,1314,84,140,512,1,1,187,5,302673,0
302690,-1004,-2241,-659,-970,-1413,-2950,18137,1192,122,454,2720,35407,23,34,127,0,0,4819,807,0,1314,84,140,522,1,1,187,5,302688,0
302700,-1159,-1981,-452,-807,-1345,-3475,18661,1112,-13,353,2440,35398,32,34,127,0,0,4885,631,0,1314,84,140,532,1,1,187,5,302688,0
302710,-1154,-1967,31,-906,-1306,-4359,19137,1011,-133,299,2128,35398,25,34,127,0,0,4947,593,0,1314,84,140,542,1,1,187,5,302688,0
302720,-1071,-2231,14,-1016,-1288,-4952,19512,891,-208,317,1824,35409,-5,34,127,0,0,4997,505,0,1314,84,140,552,1,1,187,5,302688,0
302730,-1264,-2557,-337,-1056,-1244,-5866,19875,760,-226,328,1536,35429,-24,34,127,0,0,5029,324,0,1314,84,140,562,1,1,187,5,302704,0
302740,-1412,-2561,-273,-1002,-1276,-6373,20176,637,-229,329,1256,35435,-5,34,127,0,0,5060,329,0,1314,84,140,572,1,1,187,5,302720,0
302750,-1825,-2378,118,-842,-1445,-6893,20426,529,-203,350,1008,35418,-1,34,127,0,0,5087,280,0,1314,84,140,582,1,1,187,5,302735,0
302760,-2062,-2972,616,-909,-1535,-6893,20636,428,-167,446,960,35401,-3,34,127,0,0,5139,582,0,1314,84,140,592,1,1,187,5,302735,0
302770,-1002,-3622,935,-1225,-1971,-7101,20837,483,-90,837,1672,35404,-9,34,127,0,0,5248,1131,0,1314,84,140,602,1,1,187,5,302751,0
302780,-580,-3940,1027,-1373,-1894,-7232,21143,736,220,864,2024,35411,18,34,127,0,0,5333,812,0,1314,84,140,612,1,1,187,5,302766,0
302790,-894,-4516,1512,-1629,-2075,-6310,21509,823,319,701,2288,35405,45,34,127,0,0,5444,1153,0,1314,84,140,622,1,1,187,5,302766,0
302800,-1556,-4021,1707,-1907,-2322,-5587,21943,1036,241,1113,3336,35401,46,34,127,0,0,5661,2301,0,1314,84,140,632,1,1,187,5,302782,0
302810,1427,-3775,133,-1762,-144,-7264,22600,1669,603,1543,4400,35398,62,34,127,0,0,5812,1263,0,1314,84,140,642,1,1,187,5,302782,0
302820,1638,-3362,-458,-1415,1514,-7904,23408,1724,733,120,2664,35404,60,34,127,0,0,5752,-807,0,1314,84,140,652,1,1,187,5,302798,0
302830,1183,-3060,304,-886,3497,-8209,24016,1117,-247,-894,-432,35409,33,34,127,0,0,5552,-2131,0,1314,84,140,662,0,1,187,5,302813,0
302840,1232,-2930,915,-700,3762,-8014,23913,-695,-1657,-2055,-2592,35412,-3,34,127,0,0,5322,-2323,0,1314,84,140,672,0,1,187,5,302813,0
302850,1252,-2467,952,-576,3424,-7549,23376,-1381,-2103,-1375,-3872,35412,-1,34,127,0,0,5118,-1999,0,1314,84,140,682,0,1,187,5,302829,0
302860,1734,-2325,721,-546,3098,-6663,22632,-1709,-1190,-734,-4168,35404,26,34,127,0,0,4962,-1499,0,1314,84,140,692,0,1,187,5,302845,0
302870,1955,-1791,484,-483,2681,-5146,21852,-1707,-465,-376,-3976,35400,65,34,127,0,0,4846,-1115,0,1314,84,140,702,0,1,187,5,302845,0
302880,2032,-1296,508,-406,2440,-4326,21121,-1566,30,-196,-3520,35405,31,34,127,0,0,4748,-1021,0,1314,84,140,712,0,1,187,5,302845,0
302890,2408,-739,430,-222,2186,-3212,20459,-1428,231,-225,-3304,35402,17,34,127,0,0,4645,-1087,0,1314,84,140,722,0,1,187,5,302938,0
302900,2491,-414,328,-231,2058,-2278,19823,-1406,187,-345,-3376,35404,14,34,127,0,0,4513,-1307,0,1314,84,140,732,0,1,187,5,302938,0
302910,2308,40,327,-206,1633,-565,19169,-1453,17,-380,-3424,35408,37,34,127,0,0,4376,-1395,0,1314,84,140,742,0,1,187,5,302938,0
302920,2114,345,281,-220,1210,574,18491,-1499,-84,-412,-3408,35401,46,34,127,0,0,4255,-1224,0,1314,84,140,752,0,1,187,5,302938,0
302930,1779,608,228,-284,609,2150,17820,-1444,-42,-244,-3176,35403,34,34,127,0,0,4135,-1148,0,1314,84,140,762,0,1,187,5,302954,0
302940,1573,641,154,-302,403,3143,17190,-1347,98,-224,-2952,35409,18,34,127,0,0,4033,-1060,0,1314,84,140,772,0,1,187,5,302954,0
302950,1229,730,174,-313,273,4641,16603,-1266,171,-224,-2720,35417,32,34,127,0,0,3929,-966,0,1314,84,140,782,0,1,187,5,302954,0
302960,984,792,121,-259,294,5553,16054,-1190,149,-215,-2496,35413,19,34,127,0,0,3837,-906,0,1314,84,140,792,0,1,187,5,302954,0
302970,748,877,14,-150,304,6865,15537,-1114,134,-264,-2336,35407,12,34,127,0,0,3748,-862,0,1314,84,140,802,0,1,187,5,302954,0
302981,657,995,-104,-43,306,8107,15004,-1028,129,-223,-2024,35422,-12,34,127,0,0,3673,-703,0,1314,84,140,813,0,1,187,5,302954,0
302991,672,1001,-152,53,350,8833,14573,-920,152,-189,-1736,35443,-14,34,127,0,0,3612,-615,0,1314,84,140,823,0,1,187,5,302970,0
303001,708,725,-199,253,617,10018,14193,-804,199,-196,-1432,35450,-16,34,127,0,0,3559,-516,0,1314,84,140,833,0,1,187,5,303001,0
303011,746,638,-203,413,906,10890,13860,-713,188,-173,-1104,35434,10,34,127,0,0,3522,-340,0,1314,84,140,843,0,1,187,5,303001,0
303021,455,738,-87,628,810,11706,13583,-570,187,-150,-848,35428,5,34,127,0,0,3493,-285,0,1314,84,140,853,0,1,187,5,303001,0
303031,220,669,-190,898,598,11635,13366,-439,224,-230,-624,35424,8,34,127,0,0,3451,-428,0,1314,84,140,863,0,1,187,5,303001,0
303041,382,183,-438,1390,573,11626,13186,-397,188,-339,-736,35427,-4,34,127,0,0,3394,-571,0,1314,84,140,873,0,1,187,5,303032,0
303051,580,-77,-508,1674,736,11965,13005,-405,69,-409,-776,35428,-5,34,127,0,0,3350,-406,0,1314,84,140,883,0,1,187,5,303048,0
303061,569,-154,-417,1929,1215,12408,12829,-386,6,-349,-568,35434,-10,34,127,0,0,3331,-197,0,1314,84,140,893,0,1,187,5,303048,0
303071,515,-371,-295,1972,1635,12459,12671,-330,37,-238,-248,35442,-13,34,127,0,0,3324,-65,0,1314,84,140,903,0,1,187,5,303048,0
303081,633,-973,-66,1930,2083,12463,12580,-122,148,35,88,35451,-15,34,127,0,0,3335,98,0,1314,84,140,913,0,1,187,5,303063,0
303091,860,-1721,132,1690,1892,12710,12634,185,414,405,584,35449,4,34,127,0,0,3418,911,0,1314,84,140,923,0,1,187,5,303063,0
303101,1125,-2434,577,1384,1898,12544,12806,486,495,929,1920,35437,1,34,127,0,0,3588,1757,0,1314,84,140,933,0,1,187,5,303079,0
303111,962,-2937,694,1174,1830,11961,13200,1053,646,1355,3512,35424,23,34,127,0,0,3816,2351,0,1314,84,140,943,0,1,187,5,303095,0
303121,1336,-3641,876,1106,1862,10771,13888,1706,998,1412,4928,35407,57,34,127,0,0,4097,2834,0,1314,84,140,953,0,1,187,5,303095,0
303131,1836,-3755,820,1159,2086,9431,14876,2380,1134,1351,6216,35387,114,34,127,0,0,4390,2878,0,1314,84,140,963,0,1,187,5,303110,0
303141,2745,-2109,207,910,3122,6457,16091,2748,1038,826,6408,35382,139,34,127,0,0,4585,1757,0,1314,84,140,973,0,1,187,5,303126,0
303151,2470,-2028,420,821,3319,4639,17303,2589,438,77,5104,35392,117,34,127,0,0,4642,439,0,1314,84,140,983,0,1,187,5,303126,0
303162,1358,-1911,205,987,2703,3068,18453,2126,-377,-380,2960,35413,66,34,127,0,0,4649,65,0,1314,84,140,994,0,1,187,5,303141,0
303172,1013,-1462,233,1055,2005,2348,19216,1496,-844,-430,1984,35426,19,34,127,0,0,4704,664,0,1314,84,140,1004,0,1,187,5,303157,0
303182,1413,-1124,-295,869,1717,688,19750,1059,-972,-71,1760,35433,-11,34,127,0,0,4771,675,0,1314,84,140,1014,0,1,187,5,303157,0
303192,1652,-1288,-419,663,1797,-353,20145,805,-703,163,1520,35433,-16,34,127,0,0,4799,175,0,1314,84,140,1024,0,1,187,5,303157,0
303202,1558,-1373,-390,666,1489,-1233,20456,630,-421,172,976,35435,-15,34,127,0,0,4791,-54,0,1314,84,140,1034,0,1,187,5,303188,0
303212,4655,-5698,-758,513,-738,-3284,20695,505,-303,148,632,35430,-2,34,127,0,0,4782,10,0,1314,84,140,1044,0,1,187,5,303188,0
303222,8404,-8846,4982,2164,-1573,-11166,20847,97,-242,-2058,-4816,35421,-9,34,127,0,0,4418,-4295,0,7959,1534,141,6,1,0,229,14,303188,0
303232,4334,-1938,2717,3583,626,-11130,19877,-2883,-2271,-4151,-8832,35363,198,34,127,0,0,3913,-4757,0,7959,1534,141,16,1,0,229,14,303235,0
303242,1631,4000,-2218,-1087,1727,-9984,18169,-3994,-3711,-1095,-9368,35322,347,34,127,0,0,3589,-3065,0,7959,1534,141,26,1,0,229,14,303266,0
303252,-959,1068,-72,64,-2075,-8527,16244,-4451,-1759,155,-9640,35309,391,34,127,0,0,3199,-4015,0,7959,1534,141,36,1,0,229,14,303266,0
303262,-90,-5266,-3106,944,-1001,-6270,14100,-4631,-866,1074,-8920,35352,187,34,127,0,0,2841,-3449,0,7959,1534,141,46,1,0,229,14,303266,0
303272,-2900,-6783,-678,2550,777,-7838,12271,-3786,195,283,-8288,35416,-66,34,127,0,0,2530,-3087,0,7959,1534,141,56,1,0,229,14,303282,0
303282,1177,2020,-362,2544,4164,-9612,10660,-3461,1074,24,-7544,35442,-113,34,127,0,0,2256,-2938,0,7959,1534,141,66,1,0,229,14,303282,0
303292,2324,-2647,927,1284,442,-8221,9165,-3241,620,-266,-7816,35439,-54,34,127,0,0,1910,-3026,0,7959,1534,141,76,1,0,229,14,303282,0
303302,3477,-3875,-244,1334,-264,-3618,7707,-3187,288,-134,-6552,35406,29,34,127,0,0,1784,-1120,0,7959,1534,141,86,1,0,229,14,303282,0
303312,2565,-3642,779,1479,-909,-3670,6392,-2701,320,235,-4760,35394,33,34,127,0,0,1699,-818,0,7959,1534,141,96,1,0,229,14,303282,0
303322,689,-2143,443,1324,-45,-4492,5380,-2031,879,231,-3536,35409,16,34,127,0,0,1609,-878,0,7959,1534,141,106,1,0,229,14,303313,0
303332,1220,-2434,547,663,1138,-4371,4623,-1533,1085,54,-3104,35427,-18,34,127,0,0,1491,-1241,0,7959,1534,141,116,1,0,229,14,303313,0
303342,2786,-2826,1006,512,732,-2529,4014,-1272,765,-189,-2888,35431,-2,34,127,0,0,1415,-758,0,7959,1534,141,126,1,0,229,14,303313,0
303352,3527,-3033,2041,266,-1,-1290,3479,-1127,418,-184,-2104,35416,0,34,127,0,0,1406,-49,0,7959,1534,141,136,1,0,229,14,303329,0
303362,2440,-3202,3809,-611,-774,-92,3050,-860,342,-25,-968,35413,15,34,127,0,0,1446,461,0,7959,1534,141,146,1,0,229,14,303360,0
303372,1730,-3548,4307,-1294,-1054,886,2786,-413,501,717,520,35421,-13,34,127,0,0,1555,1137,0,7959,1534,141,156,1,0,229,14,303360,0
303382,2029,-3062,2766,-2298,-1734,2153,2947,535,1127,1053,1856,35425,-18,34,127,0,0,1720,1702,0,7959,1534,141,166,1,0,229,14,303360,0
303392,1712,-3415,1874,-2531,-2021,2618,3341,1018,1257,1189,3040,35413,-14,34,127,0,0,1927,2125,0,7959,1534,141,176,1,0,229,14,303376,0
303402,1269,-3748,1094,-2283,-2111,2799,3934,1413,810,1105,4040,35412,15,34,127,0,0,2170,2510,0,7959,1534,141,186,1,0,229,14,303376,0
303413,745,-3737,700,-1753,-2164,2799,4779,1816,688,1039,4944,35403,64,34,127,0,0,2465,2713,0,7959,1534,141,197,1,0,229,14,303407,0
303423,-119,-3706,677,-1386,-2358,2931,5711,2166,615,932,5648,35398,101,34,127,0,0,2733,2735,0,7959,1534,141,207,1,0,229,14,303407,0
303433,-582,-3069,234,-1182,-2730,2984,6798,2503,598,910,6408,35375,129,34,127,0,0,3052,3208,0,7959,1534,141,217,1,0,229,14,303407,0
303443,-1183,-3025,50,-1094,-3307,2627,8050,2831,614,1004,7376,35364,136,34,127,0,0,3405,3537,0,7959,1534,141,227,1,0,229,14,303423,0
303453,-1875,-2817,-426,-791,-3632,1999,9450,3206,590,1211,8296,35360,157,34,127,0,0,3770,3603,0,7959,1534,141,237,1,0,229,14,303438,0
303463,-2570,-2399,-700,-635,-3413,821,11039,3595,659,991,8912,35358,205,34,127,0,0,4104,3306,0,7959,1534,141,247,1,0,229,14,303438,0
303473,-2413,-2514,-733,-299,-2773,-1278,12660,3520,440,469,8752,35354,217,34,127,0,0,4398,2867,0,7959,1534,141,257,1,0,229,14,303438,0
303483,-1139,-2437,-69,47,-2975,-2422,14276,3597,27,363,8336,35356,189,34,127,0,0,4640,2362,0,7959,1534,141,267,1,0,229,14,303469,0
303493,-1101,-3018,349,-118,-3065,-4013,15886,3459,1,96,7152,35373,111,34,127,0,0,4818,1724,0,7959,1534,141,277,1,0,229,14,303469,0
303503,-1278,-2900,834,-327,-3381,-4848,17303,2968,-387,-118,5864,35395,49,34,127,0,0,4957,1373,0,7959,1534,141,287,1,2,229,14,303485,0
303513,-1671,-2692,797,-727,-3621,-5700,18517,2542,-778,-191,4696,35403,19,34,127,0,0,5082,1230,0,7959,1534,141,297,1,2,229,14,303485,0
303523,-1622,-2718,420,-930,-3633,-6037,19521,2059,-790,-85,4048,35416,-20,34,127,0,0,5225,1428,0,7959,1534,141,307,1,2,229,14,303501,0
303533,-680,-2765,378,-898,-2788,-6807,20337,1706,-774,204,4216,35415,-41,34,127,0,0,5403,1801,0,7959,1534,141,317,1,2,229,14,303516,0
303543,-286,-3046,-54,-719,-915,-8080,21105,1707,-457,596,3920,35414,-20,34,127,0,0,5468,428,0,7959,1534,141,327,1,2,229,14,303516,0
303553,-324,-3011,-7,-485,1648,-9002,21814,1473,-175,-40,2128,35411,15,34,127,0,0,5398,-834,0,7959,1534,141,337,0,2,229,14,303532,0
303563,-813,-2485,332,-422,2499,-9276,22302,830,-524,-996,-480,35409,9,34,127,0,0,5240,-1625,0,7959,1534,141,347,0,2,229,14,303532,0
303573,-549,-2101,454,-451,2877,-9341,22153,-582,-1651,-1345,-1904,35408,-25,34,127,0,0,5088,-1505,0,7959,1534,141,357,0,2,229,14,303563,0
303583,-541,-1793,254,-409,2805,-9168,21762,-975,-1690,-973,-2784,35411,-11,34,127,0,0,4939,-1472,0,7959,1534,141,367,0,2,229,14,303563,0
303593,-292,-1280,141,-294,1874,-8737,21244,-1185,-671,-728,-3184,35404,29,34,127,0,0,4816,-1219,0,7959,1534,141,377,0,2,229,14,303563,0
303603,143,-1127,142,-288,1131,-8103,20671,-1271,-352,-464,-2968,35391,57,34,127,0,0,4739,-714,0,7959,1534,141,387,0,2,229,14,303657,0
303613,368,-756,-40,-249,154,-7457,20115,-1184,-63,-189,-2568,35392,51,34,127,0,0,4682,-571,0,7959,1534,141,397,0,2,229,14,303657,0
303623,414,-587,-191,-202,-552,-7187,19612,-1067,141,-124,-2096,35397,25,34,127,0,0,4620,-593,0,7959,1534,141,407,0,2,229,14,303673,0
303633,651,-640,-223,-102,-1355,-6773,19164,-949,207,-168,-1984,35410,8,34,127,0,0,4543,-823,0,7959,1534,141,417,0,2,229,14,303673,0
303643,706,-833,53,-255,-1570,-6214,18748,-908,169,-324,-2024,35405,-10,34,127,0,0,4458,-856,0,7959,1534,141,427,0,2,229,14,303673,0
303653,710,-1071,763,-649,-1265,-4891,18324,-942,43,-384,-2088,35409,0,34,127,0,0,4368,-856,0,7959,1534,141,437,0,2,229,14,303673,0
303663,774,-1031,942,-1009,-680,-3825,17888,-962,-42,-316,-2032,35409,9,34,127,0,0,4302,-659,0,7959,1534,141,447,0,2,229,14,303673,0
303673,818,-804,504,-1428,214,-2310,17469,-897,12,-214,-1832,35407,2,34,127,0,0,4242,-604,0,7959,1534,141,457,0,2,229,14,303673,0
303683,807,-751,95,-1287,689,-1529,17086,-821,104,-215,-1680,35406,-2,34,127,0,0,4179,-637,0,7959,1534,141,467,0,2,229,14,303673,0
303694,1037,-325,-474,-861,1163,-449,16690,-783,109,-298,-1688,35403,-18,34,127,0,0,4093,-796,0,7959,1534,141,478,0,2,229,14,303673,0
303704,1291,26,-308,-698,1383,455,16332,-804,40,-374,-1776,35400,-11,34,127,0,0,4017,-796,0,7959,1534,141,488,0,2,229,14,303673,0
303714,1529,613,98,-587,1523,1958,15957,-823,-36,-324,-1720,35413,-12,34,127,0,0,3949,-670,0,7959,1534,141,498,0,2,229,14,303719,0
303724,1636,920,245,-629,1447,2938,15623,-810,-21,-300,-1632,35426,8,34,127,0,0,3894,-571,0,7959,1534,141,508,0,2,229,14,303719,0
303734,1773,1102,265,-695,1196,4392,15263,-777,32,-264,-1496,35424,12,34,127,0,0,3836,-549,0,7959,1534,141,518,0,2,229,14,303719,0
303744,1739,1003,214,-724,1024,5492,14926,-726,72,-293,-1384,35413,12,34,127,0,0,3790,-461,0,7959,1534,141,528,0,2,229,14,303719,0
303754,1623,703,262,-652,722,7125,14606,-695,80,-214,-1096,35409,-1,34,127,0,0,3760,-247,0,7959,1534,141,538,0,2,229,14,303719,0
303764,1477,522,174,-533,433,8043,14330,-576,122,-169,-760,35419,-1,34,127,0,0,3750,-54,0,7959,1534,141,548,0,2,229,14,303751,0
303774,1359,320,-55,-285,-7,9224,14105,-456,185,-130,-400,35418,-4,34,127,0,0,3741,-76,0,7959,1534,141,558,0,2,229,14,303766,0
303784,1418,232,-94,-112,-277,9943,13937,-316,208,26,-64,35412,-17,34,127,0,0,3741,-16,0,7959,1534,141,568,0,2,229,14,303766,0
303794,1276,106,50,113,-812,11039,13882,-25,344,293,88,35414,-34,34,127,0,0,3749,60,0,7959,1534,141,578,0,2,229,14,303766,0
303804,1425,-65,95,126,-1215,11856,13917,94,394,304,184,35417,-39,34,127,0,0,3768,214,0,7959,1534,141,588,0,2,229,14,303797,0
303814,1191,-369,227,45,-1729,12956,13980,140,188,427,392,35427,-38,34,127,0,0,3802,395,0,7959,1534,141,598,0,2,229,14,303797,0
303824,1015,-620,226,19,-1896,13471,14085,265,96,552,624,35424,-40,34,127,0,0,3844,439,0,7959,1534,141,608,0,2,229,14,303797,0
303834,767,-1046,70,43,-1796,13938,14241,390,159,485,752,35422,-24,34,127,0,0,3885,362,0,7959,1534,141,618,0,2,229,14,303844,0
303844,689,-1341,-63,98,-1531,14039,14424,420,175,418,808,35430,-24,34,127,0,0,3928,384,0,7959,1534,141,628,0,2,229,14,303844,0
303854,655,-1786,-106,159,-913,13912,14621,437,72,406,864,35425,-4,34,127,0,0,3967,362,0,7959,1534,141,638,0,2,229,14,303844,0
303864,685,-2089,-60,198,-335,13688,14825,449,47,410,936,35421,-18,34,127,0,0,4019,527,0,7959,1534,141,648,0,2,229,14,303860,0
303874,801,-2608,-62,279,666,13134,15050,520,48,460,1128,35408,-17,34,127,0,0,4093,747,0,7959,1534,141,658,0,2,229,14,303860,0
303884,858,-2853,-38,336,1282,12731,15309,613,108,617,1632,35416,-18,34,127,0,0,4214,1219,0,7959,1534,141,668,0,2,229,14,303860,0
303894,1041,-2905,-126,328,2288,11817,15661,861,242,934,2512,35422,0,34,127,0,0,4369,1686,0,7959,1534,141,678,0,2,229,14,303860,0
303904,1139,-2955,-125,346,2893,10930,16168,1216,475,977,3384,35421,27,34,127,0,0,4542,1768,0,7959,1534,141,688,0,2,229,14,303891,0
303915,1414,-3049,4,513,3553,9065,16885,1506,569,729,3736,35414,45,34,127,0,0,4704,1362,0,7959,1534,141,699,0,2,229,14,303891,0
303925,1592,-3269,749,822,3617,6747,17592,1560,358,388,3472,35408,62,34,127,0,0,4792,791,0,7959,1534,141,709,0,2,229,14,303907,0
303935,1736,-3004,991,1077,3372,5320,18261,1417,26,106,2520,35403,61,34,127,0,0,4812,142,0,7959,1534,141,719,0,2,229,14,303907,0
303945,1561,-1669,929,591,2633,3904,18813,1113,-297,-48,1424,35408,26,34,127,0,0,4814,-10,0,7959,1534,141,729,0,2,229,14,303938,0
303955,1398,-1269,778,-7,2121,2927,19213,777,-519,-64,800,35417,23,34,127,0,0,4836,175,0,7959,1534,141,739,0,2,229,14,303938,0
303965,1411,-705,54,-651,1526,1123,19480,522,-550,57,544,35427,2,34,127,0,0,4860,252,0,7959,1534,141,749,0,2,229,14,303938,0
303975,1684,-1094,-97,-539,932,109,19661,354,-416,215,472,35428,-16,34,127,0,0,4888,296,0,7959,1534,141,759,0,2,229,14,304047,0
303985,1748,-1016,-502,-17,-294,-1623,19804,307,-238,340,384,35428,-21,34,127,0,0,4899,76,0,7959,1534,141,769,0,2,229,14,304047,0
303995,1537,-461,-527,162,-1066,-2524,19907,200,-131,273,168,35429,-10,34,127,0,0,4899,0,0,7959,1534,141,779,0,2,229,14,304047,0
304005,9254,-11760,-1729,-442,-1673,-6782,19970,104,-157,152,144,35423,-3,34,127,0,0,4899,65,0,7959,1534,141,789,0,2,229,14,304047,0
304015,5057,-7662,4866,1419,670,-12087,19976,-165,-159,-1269,-2992,35420,-24,34,127,0,0,4425,-5526,0,3005,636,142,7,1,2,306,14,304047,0
304025,941,1077,1068,1720,2327,-12629,19266,-2169,-1445,-3631,-7168,35405,25,34,127,0,0,3939,-4735,0,3005,636,142,17,1,2,306,14,304063,0
304035,-5591,1797,206,-1175,2421,-10475,17835,-3567,-2842,-1693,-9608,35354,196,34,127,0,0,3487,-4394,0,3005,636,142,27,1,2,306,14,304063,0
304045,-968,-2872,2712,2503,-2642,-6932,15875,-4570,-2399,460,-9232,35322,283,34,127,0,0,3133,-3504,0,3005,636,142,37,1,2,306,14,304063,0
304055,-3903,-1415,-4060,1840,-3221,-5810,13903,-4153,-1097,370,-7960,35340,227,34,127,0,0,2915,-1900,0,3005,636,142,47,1,2,306,14,304063,0
304065,-592,-1558,149,824,1885,-9468,12301,-3259,727,434,-6264,35395,57,34,127,0,0,2720,-2109,0,3005,636,142,57,1,2,306,14,304063,0
304075,1331,-2223,-2614,1427,6101,-9561,10976,-2824,1275,64,-6560,35432,-70,34,127,0,0,2390,-3449,0,3005,636,142,67,1,2,306,14,304063,0
304085,4059,-3278,-417,1987,-497,-6365,9708,-2775,619,-381,-6344,35427,-42,34,127,0,0,2177,-2087,0,3005,636,142,77,1,2,306,14,304063,0
304095,3198,-4239,-924,2370,-1331,-3881,8500,-2594,204,-96,-5480,35431,-24,34,127,0,0,2041,-1252,0,3005,636,142,87,1,2,306,14,304079,0
304105,1037,-2431,2459,1753,-861,-4200,7411,-2283,348,134,-4120,35443,23,34,127,0,0,1946,-977,0,3005,636,142,97,1,2,306,14,304079,0
304115,178,-3083,2289,887,580,-4454,6524,-1805,612,68,-3384,35445,-2,34,127,0,0,1823,-1241,0,3005,636,142,107,1,2,306,14,304110,0
304125,2292,-2356,1044,7,1138,-3439,5831,-1434,766,-159,-3232,35442,-25,34,127,0,0,1709,-1120,0,3005,636,142,117,1,2,306,14,304110,0
304135,3582,-2548,1294,-196,387,-1707,5231,-1287,547,-351,-2848,35435,-41,34,127,0,0,1654,-439,0,3005,636,142,127,1,2,306,14,304110,0
304145,3154,-1961,2474,-770,-519,121,4713,-1059,321,-117,-1848,35429,-27,34,127,0,0,1665,120,0,3005,636,142,137,1,2,306,14,304110,0
304155,2547,-3091,3645,-1706,-1039,1241,4326,-748,408,41,-464,35427,-1,34,127,0,0,1746,878,0,3005,636,142,147,1,2,306,14,304126,0
304166,1064,-4432,4329,-2087,-1257,2212,4225,243,812,1747,1088,35440,-14,34,127,0,0,1898,1389,0,3005,636,142,158,1,2,306,14,304157,0
304176,1561,-4286,3098,-2536,-1734,2855,4476,673,1272,976,2296,35441,-20,34,127,0,0,2093,2032,0,3005,636,142,168,1,2,306,14,304157,0
304186,1137,-4005,1428,-2603,-2301,3142,4925,1133,974,1179,3432,35426,-23,34,127,0,0,2334,2378,0,3005,636,142,178,1,2,306,14,304157,0
304196,529,-4338,675,-2329,-2500,3149,5581,1556,775,1008,4344,35403,25,34,127,0,0,2585,2559,0,3005,636,142,188,1,2,306,14,304172,0
304206,-745,-4121,138,-1279,-3055,2899,6429,2008,766,1065,5472,35390,55,34,127,0,0,2871,2839,0,3005,636,142,198,1,2,306,14,304188,0
304216,-1787,-3481,-130,-762,-4031,2795,7500,2476,802,982,6448,35382,85,34,127,0,0,3210,3471,0,3005,636,142,208,1,2,306,14,304204,0
304226,-2072,-2693,-445,-915,-3541,1848,8745,2862,757,1295,7560,35366,118,34,127,0,0,3547,3295,0,3005,636,142,218,1,2,306,14,304204,0
304236,-3091,-2655,-518,-618,-3866,769,10161,3199,669,820,7992,35360,189,34,127,0,0,3854,3114,0,3005,636,142,228,1,2,306,14,304204,0
304246,-2588,-2561,-958,-20,-4144,-1038,11661,3308,497,633,8160,35368,223,34,127,0,0,4145,2889,0,3005,636,142,238,1,2,306,14,304235,0
304256,-2082,-2045,-889,306,-4494,-2206,13133,3220,96,425,7920,35381,200,34,127,0,0,4398,2499,0,3005,636,142,248,1,2,306,14,304235,0
304266,-1570,-2631,74,128,-4592,-4008,14622,3292,-30,272,7192,35389,144,34,127,0,0,4588,1801,0,3005,636,142,258,1,2,306,14,304235,0
304276,-1764,-3311,929,-172,-4576,-5245,16048,3020,-64,-36,5856,35400,98,34,127,0,0,4720,1186,0,3005,636,142,268,1,2,306,14,304266,0
304286,-1651,-3337,833,-838,-4109,-6801,17261,2522,-543,-209,4496,35413,47,34,127,0,0,4810,856,0,3005,636,142,278,1,2,306,14,304266,0
304296,-1493,-3424,404,-1221,-3740,-7544,18254,2040,-841,-281,3256,35423,3,34,127,0,0,4882,747,0,3005,636,142,288,1,2,306,14,304282,0
304306,-1375,-3253,82,-1344,-3035,-8190,19026,1565,-843,-157,2648,35416,-28,34,127,0,0,4991,1148,0,3005,636,142,298,1,2,306,14,304282,0
304316,-298,-3037,-77,-1378,-1658,-9186,19620,1221,-770,88,2480,35413,-44,34,127,0,0,5066,675,0,3005,636,142,308,1,2,306,14,304282,0
304326,-514,-2913,-202,-1506,1390,-10354,20092,945,-565,115,1368,35413,-18,34,127,0,0,5024,-510,0,3005,636,142,318,1,2,306,14,304313,0
304336,-842,-2780,112,-1447,2821,-10719,20407,570,-519,-326,-280,35429,-22,34,127,0,0,4908,-1148,0,3005,636,142,328,0,2,306,14,304313,0
304346,-715,-2339,446,-1506,3686,-10684,20313,-423,-1082,-1076,-1384,35429,-24,34,127,0,0,4807,-1082,0,3005,636,142,338,0,2,306,14,304329,0
304356,-859,-1898,512,-1524,3846,-10471,20030,-692,-1173,-699,-1872,35430,-25,34,127,0,0,4714,-895,0,3005,636,142,348,0,2,306,14,304329,0
304366,-373,-1662,324,-1464,3734,-10134,19661,-841,-495,-459,-1904,35412,6,34,127,0,0,4647,-664,0,3005,636,142,358,0,2,306,14,304360,0
304376,-222,-1587,177,-1373,3419,-9945,19278,-842,-188,-329,-1800,35412,23,34,127,0,0,4585,-631,0,3005,636,142,368,0,2,306,14,304360,0
304386,204,-1459,253,-1198,2628,-9572,18901,-816,-19,-288,-1648,35416,20,34,127,0,0,4528,-609,0,3005,636,142,378,0,2,306,14,304375,0
304396,449,-1446,290,-1148,2196,-9208,18539,-784,46,-269,-1568,35424,6,34,127,0,0,4467,-631,0,3005,636,142,388,0,2,306,14,304375,0
304406,586,-1549,835,-1305,1726,-8446,18193,-757,59,-280,-1592,35422,5,34,127,0,0,4398,-719,0,3005,636,142,398,0,2,306,14,304391,0
304417,742,-1611,1214,-1609,1756,-7257,17817,-754,36,-316,-1600,35416,-10,34,127,0,0,4326,-637,0,3005,636,142,409,0,2,306,14,304391,0
304427,876,-1563,1242,-1855,1828,-6288,17473,-753,-2,-292,-1552,35420,-11,34,127,0,0,4271,-538,0,3005,636,142,419,0,2,306,14,304391,0
304437,928,-1220,810,-1913,1769,-4969,17142,-724,17,-242,-1376,35422,-7,34,127,0,0,4220,-549,0,3005,636,142,429,0,2,306,14,304438,0
304447,1026,-930,393,-1621,1681,-4229,16831,-674,64,-258,-1328,35415,-6,34,127,0,0,4159,-593,0,3005,636,142,439,0,2,306,14,304438,0
304457,1157,-381,179,-1365,1466,-2889,16527,-674,54,-343,-1464,35404,-3,34,127,0,0,4084,-736,0,3005,636,142,449,0,2,306,14,304438,0
304467,1239,15,309,-1201,1406,-1795,16205,-733,-14,-373,-1560,35401,-11,34,127,0,0,4014,-681,0,3005,636,142,459,0,2,306,14,304438,0
304477,1229,613,360,-1118,1269,-133,15863,-758,-80,-327,-1528,35416,-34,34,127,0,0,3950,-626,0,3005,636,142,469,0,2,306,14,304469,0
304487,1219,906,336,-1096,1198,949,15517,-768,-42,-323,-1560,35419,-19,34,127,0,0,3886,-626,0,3005,636,142,479,0,2,306,14,304469,0
304497,1248,1176,171,-1046,1074,2630,15170,-751,-2,-302,-1584,35418,-22,34,127,0,0,3823,-604,0,3005,636,142,489,0,2,306,14,304469,0
304507,1215,1303,106,-1005,1049,3797,14829,-743,15,-309,-1488,35405,23,34,127,0,0,3761,-626,0,3005,636,142,499,0,2,306,14,304500,0
304517,982,1399,115,-937,1129,5373,14496,-727,19,-304,-1536,35409,11,34,127,0,0,3706,-560,0,3005,636,142,509,0,2,306,14,304500,0
304527,907,1376,123,-937,1195,6381,14173,-700,25,-294,-1376,35410,27,34,127,0,0,3656,-461,0,3005,636,142,519,0,2,306,14,304516,0
304537,1026,1292,-11,-861,1242,8007,13862,-671,48,-226,-1224,35404,19,34,127,0,0,3618,-373,0,3005,636,142,529,0,2,306,14,304516,0
304547,1143,1266,-137,-780,1134,9060,13582,-587,82,-188,-952,35409,5,34,127,0,0,3599,-197,0,3005,636,142,539,0,2,306,14,304532,0
304557,1132,1102,-87,-554,710,10338,13348,-478,141,-162,-528,35412,10,34,127,0,0,3588,-98,0,3005,636,142,549,0,2,306,14,304532,0
304567,1062,1134,-81,-315,193,10963,13167,-366,191,-129,-320,35416,7,34,127,0,0,3574,-142,0,3005,636,142,559,0,2,306,14,304532,0
304577,1005,846,-88,-182,-1029,11740,13037,-262,206,-165,-224,35415,-7,34,127,0,0,3557,-153,0,3005,636,142,569,0,2,306,14,304563,0
304587,1073,434,32,34,-1807,12382,12956,-146,179,-243,-120,35415,-16,34,127,0,0,3550,-32,0,3005,636,142,579,0,2,306,14,304563,0
304597,865,65,59,376,-2637,13259,12921,-71,180,-179,-40,35429,-39,34,127,0,0,3555,54,0,3005,636,142,589,0,2,306,14,304579,0
304607,797,-119,92,569,-2906,13660,12926,68,153,199,112,35423,-45,34,127,0,0,3574,153,0,3005,636,142,599,0,2,306,14,304579,0
304617,574,-429,14,757,-2764,13950,12987,174,187,284,168,35422,-49,34,127,0,0,3592,175,0,3005,636,142,609,0,2,306,14,304594,0
304627,558,-716,0,831,-2369,14008,13076,188,168,237,200,35415,-50,34,127,0,0,3614,230,0,3005,636,142,619,0,2,306,14,304594,0
304637,680,-1154,9,886,-1461,13856,13151,166,25,388,264,35422,-45,34,127,0,0,3634,219,0,3005,636,142,629,0,2,306,14,304625,0
304647,850,-1541,22,855,-640,13670,13247,231,11,431,464,35420,-39,34,127,0,0,3671,373,0,3005,636,142,639,0,2,306,14,304625,0
304657,1032,-2180,-93,783,805,13248,13373,309,92,505,728,35415,-11,34,127,0,0,3730,615,0,3005,636,142,649,0,2,306,14,304625,0
304668,1101,-2573,-192,778,1731,12776,13583,462,184,589,1320,35415,9,34,127,0,0,3834,1071,0,3005,636,142,660,0,2,306,14,304657,0
304678,1234,-3076,-113,869,2896,11594,13872,729,292,853,2080,35413,16,34,127,0,0,3967,1329,0,3005,636,142,670,0,2,306,14,304657,0
304688,1434,-3410,132,996,3473,10507,14305,1059,458,914,2768,35412,38,34,127,0,0,4117,1527,0,3005,636,142,680,0,2,306,14,304657,0
304698,1848,-3660,513,1359,3983,8411,14867,1306,532,703,3120,35405,56,34,127,0,0,4253,1312,0,3005,636,142,690,0,2,306,14,304688,0
304708,2015,-3568,822,1645,3855,6757,15493,1385,376,398,2976,35404,49,34,127,0,0,4339,796,0,3005,636,142,700,0,2,306,14,304688,0
304718,1942,-2849,1085,1876,3185,4516,16027,1244,49,130,2208,35404,30,34,127,0,0,4371,252,0,3005,636,142,710,0,2,306,14,304688,0
304728,1735,-2280,1013,1592,2531,3442,16521,996,-279,-5,1384,35418,6,34,127,0,0,4380,159,0,3005,636,142,720,0,2,306,14,304704,0
304738,1566,-1851,814,814,1316,1911,16891,732,-455,1,896,35418,-12,34,127,0,0,4411,307,0,3005,636,142,730,0,2,306,14,304704,0
304748,1727,-1511,273,467,583,705,17152,518,-435,135,656,35419,-37,34,127,0,0,4430,175,0,3005,636,142,740,0,2,306,14,304735,0
304758,1738,-1220,-4,-65,-437,-776,17347,382,-320,153,264,35405,-36,34,127,0,0,4427,10,0,3005,636,142,750,0,2,306,14,304750,0
304768,1419,-1290,-111,-49,-1154,-1573,17469,201,-273,-16,-8,35402,-27,34,127,0,0,4425,-38,0,3005,636,142,760,0,2,306,14,304750,0
304778,9339,-10698,-1598,-35,-2873,-6395,17473,-18,-373,-33,32,35403,-17,34,127,0,0,4400,-197,0,3005,636,142,770,0,2,306,14,304750,0
304788,4388,-7491,4332,2282,-454,-11574,17393,-439,-386,-2013,-3936,35405,24,34,127,0,0,3864,-5965,0,3061,497,143,4,1,2,341,3,304782,0
304798,-766,-2928,2568,2665,-363,-12285,16587,-2294,-1710,-3115,-7216,35366,179,34,127,0,0,3429,-4295,0,3061,497,143,14,1,2,341,3,304782,0
304808,-2374,1891,1903,1060,253,-10848,15177,-3396,-2620,-1686,-8664,35338,283,34,127,0,0,3031,-3801,0,3061,497,143,24,1,2,341,3,304782,0
304818,-405,-3423,-596,605,-1364,-8315,13435,-3930,-1669,-141,-8640,35327,287,34,127,0,0,2709,-3015,0,3061,497,143,34,1,2,341,3,304797,0
304828,-2649,-1937,-3665,-360,-1817,-7180,11761,-3567,-26,69,-7752,35368,154,34,127,0,0,2475,-2103,0,3061,497,143,44,1,2,341,3,304813,0
304838,770,-204,-2791,772,1566,-10346,10248,-3194,291,75,-6664,35405,38,34,127,0,0,2231,-2565,0,3061,497,143,54,1,2,341,3,304813,0
304848,1471,-1794,-3640,1554,5486,-10640,8915,-2841,275,-247,-7360,35413,1,34,127,0,0,1845,-4163,0,3061,497,143,64,1,2,341,3,304813,0
304858,3940,-1984,-60,3104,162,-7125,7538,-3118,273,-624,-7360,35391,59,34,127,0,0,1607,-2334,0,3061,497,143,74,1,2,341,3,304844,0
304868,3259,-3077,-326,2849,-494,-5202,6147,-2973,-156,-233,-6480,35381,70,34,127,0,0,1444,-1560,0,3061,497,143,84,1,2,341,3,304844,0
304878,2000,-1987,3078,1954,4,-5328,4942,-2506,342,-83,-5584,35378,76,34,127,0,0,1306,-1417,0,3061,497,143,94,1,2,341,3,304844,0
304888,1232,-2339,1641,1362,534,-5059,3913,-2192,711,-215,-5216,35396,19,34,127,0,0,1164,-1400,0,3061,497,143,104,1,2,341,3,304891,0
304898,2485,-2180,299,771,670,-3528,2949,-2106,449,-345,-4880,35404,9,34,127,0,0,1052,-1109,0,3061,497,143,114,1,2,341,3,304891,0
304908,3138,-2392,679,924,438,-2272,2032,-1953,201,-198,-3976,35406,24,34,127,0,0,989,-505,0,3061,497,143,124,1,2,341,3,304891,0
304918,3019,-2138,2668,725,317,-1297,1247,-1613,343,55,-2488,35407,13,34,127,0,0,967,-219,0,3061,497,143,134,1,2,341,3,304891,0
304929,2328,-2453,3280,-913,-355,-96,612,-1109,654,179,-1224,35416,-10,34,127,0,0,984,186,0,3061,497,143,145,1,2,341,3,304922,0
304939,2671,-3564,3178,-1615,-736,1031,234,-717,749,157,-168,35427,-22,34,127,0,0,1054,736,0,3061,497,143,155,1,2,341,3,304922,0
