state_time,accelx,accely,accelz,gyrox,gyroy,gyroz,mot_ang,mot_vel,mot_acc,mot_cur,mot_volt,batt_volt,batt_curr,temperature,status_mn,status_ex,status_re,ank_ang,ank_vel,ank_torque,peak_ank_torque,step_energy,step_count,step_time,gait_state,movement,speed,incline,sys_time,eventFlags
533116,-30,-2084,222,-75,39,96,14794,-12,-3,-399,-120,35351,-68,35,127,0,0,3897,0,0,12794,3518,228,31660,-4,0,-1,0,533147,0
533126,-30,-2081,218,-76,41,94,14795,-8,0,-385,-120,35358,-67,35,127,0,0,3897,0,0,12794,3518,228,31670,-4,0,-1,0,533147,0
533136,-38,-2080,214,-78,38,91,14795,4,3,-368,-144,35366,-75,35,127,0,0,3895,-38,0,12794,3518,228,31680,-4,0,-1,0,533147,0
533146,-38,-2083,220,-85,40,86,14794,8,-1,-385,-120,35359,-69,35,127,0,0,3897,-10,0,12794,3518,228,31690,-4,0,-1,0,533147,0
533156,-32,-2085,219,-77,33,86,14794,2,-2,-364,-136,35369,-77,35,127,0,0,3899,-5,0,12794,3518,228,31700,-4,0,-1,0,533147,0
533166,-27,-2078,224,-76,36,93,14791,-5,5,-417,-160,35373,-68,35,127,0,0,3896,16,0,12794,3518,228,31710,-4,0,-1,0,533147,0
533176,-31,-2079,214,-76,35,81,14791,4,0,-415,-160,35379,-80,35,127,0,0,3893,-32,0,12794,3518,228,31720,-4,0,-1,0,533147,0
533186,-12,-2079,215,-73,37,87,14788,-6,-8,-416,-144,35377,-75,35,127,0,0,3893,-21,0,12794,3518,228,31730,-4,0,-1,0,533147,0
533197,-23,-2079,233,-73,38,99,14783,-20,-10,-440,-144,35371,-80,35,127,0,0,3893,-10,0,12794,3518,228,31741,-4,0,-1,0,533162,0
533207,-22,-2082,232,-75,36,103,14770,-36,-11,-429,-112,35383,-85,35,127,0,0,3891,21,0,12794,3518,228,31751,-4,0,-1,0,533178,0
533217,-24,-2081,224,-80,37,99,14743,-58,-44,-221,-56,35382,-84,35,127,0,0,3891,-43,0,12794,3518,228,31761,-4,0,-1,0,533178,0
533227,-34,-2076,212,-76,43,96,14728,-2,-3,-177,-56,35383,-89,35,127,0,0,3891,-21,0,12794,3518,228,31771,-4,0,-1,0,533209,0
533237,-24,-2084,216,-72,34,105,14729,-10,60,-201,-56,35374,-90,35,127,0,0,3889,-21,0,12794,3518,228,31781,-4,0,-1,0,533209,0
533247,-17,-2078,220,-73,35,109,14730,-4,14,-270,-40,35367,-87,35,127,0,0,3891,32,0,12794,3518,228,31791,-4,0,-1,0,533209,0
533257,-10,-2077,222,-78,36,112,14730,-4,4,-235,-48,35383,-75,35,127,0,0,3886,-54,0,12794,3518,228,31801,-4,0,-1,0,533225,0
533267,-7,-2082,219,-77,42,108,14725,-5,-3,-300,-80,35382,-80,35,127,0,0,3891,21,0,12794,3518,228,31811,-4,0,-1,0,533225,0
533277,6,-2082,224,-76,35,119,14726,-16,-4,-304,-96,35376,-75,35,127,0,0,3891,76,0,12794,3518,228,31821,-4,0,-1,0,533256,0
533287,-24,-2081,218,-73,33,126,14725,7,16,-256,-64,35367,-88,35,127,0,0,3889,0,0,12794,3518,228,31831,-4,0,-1,0,533256,0
533297,-14,-2078,217,-72,40,123,14723,-1,-1,-301,-128,35360,-96,35,127,0,0,3886,-10,0,12794,3518,228,31841,-4,0,-1,0,533256,0
533307,-30,-2084,217,-67,32,122,14724,2,1,-309,-88,35374,-93,35,127,0,0,3889,32,0,12794,3518,228,31851,-4,0,-1,0,533303,0
533317,-7,-2082,222,-69,44,126,14723,-4,8,-268,-24,35372,-93,35,127,0,0,3889,10,0,12794,3518,228,31861,-4,0,-1,0,533319,0
533327,11,-2079,222,-71,33,117,14723,0,5,-260,-72,35364,-93,35,127,0,0,3886,-21,0,12794,3518,228,31871,-4,0,-1,0,533319,0
533337,-41,-2080,225,-69,41,125,14722,-9,-5,-300,-24,35357,-106,35,127,0,0,3886,10,0,12794,3518,228,31881,-4,0,-1,0,533319,0
533347,5,-2084,222,-71,47,108,14722,-7,-6,-237,-40,35347,-111,35,127,0,0,3889,0,0,12794,3518,228,31891,-4,0,-1,0,533319,0
533357,-45,-2079,229,-73,38,121,14725,-6,-1,-203,-80,35351,-107,35,127,0,0,3889,-32,0,12794,3518,228,31901,-4,0,-1,0,533334,0
533367,-44,-2073,224,-68,38,122,14725,4,1,-235,-40,35352,-95,35,127,0,0,3889,-21,0,12794,3518,228,31911,-4,0,-1,0,533334,0
533377,-51,-2081,221,-77,37,115,14725,5,0,-210,-80,35364,-96,35,127,0,0,3889,-21,0,12794,3518,228,31921,-4,0,-1,0,533350,0
533387,-42,-2075,229,-71,33,114,14725,11,5,-185,-48,35371,-94,35,127,0,0,3891,-21,0,12794,3518,228,31931,-4,0,-1,0,533365,0
533397,-17,-2070,230,-77,36,108,14723,0,-3,-249,-32,35372,-98,35,127,0,0,3889,21,0,12794,3518,228,31941,-4,0,-1,0,533365,0
533407,-8,-2076,226,-75,34,102,14722,-12,-1,-256,-72,35366,-99,35,127,0,0,3886,-21,0,12794,3518,228,31951,-4,0,-1,0,533381,0
533417,-40,-2077,227,-76,33,102,14723,3,4,-251,-80,35371,-107,35,127,0,0,3891,43,0,12794,3518,228,31961,-4,0,-1,0,533381,0
533427,-40,-2074,232,-70,29,110,14722,-14,-1,-203,-80,35376,-112,35,127,0,0,3889,0,0,12794,3518,228,31971,-4,0,-1,0,533397,0
533437,-19,-2079,229,-81,36,101,14724,3,-8,-212,-80,35380,-107,35,127,0,0,3889,-10,0,12794,3518,228,31981,-4,0,-1,0,533428,0
533448,-42,-2085,224,-83,35,104,14722,-5,4,-285,-48,35369,-99,35,127,0,0,3888,49,0,12794,3518,228,31992,-4,0,-1,0,533428,0
533458,-9,-2082,224,-82,35,100,14724,-4,8,-206,-48,35370,-99,35,127,0,0,3884,-71,0,12794,3518,228,32002,-4,0,-1,0,533428,0
533468,-25,-2076,230,-83,28,99,14723,1,-2,-265,-48,35371,-103,35,127,0,0,3891,27,0,12794,3518,228,32012,-4,0,-1,0,533444,0
533478,0,-2072,218,-78,35,102,14724,-8,4,-202,-96,35381,-111,35,127,0,0,3886,-60,0,12794,3518,228,32022,-4,0,-1,0,533444,0
533488,-2,-2078,222,-80,37,97,14726,15,7,-193,-72,35380,-106,35,127,0,0,3889,-60,0,12794,3518,228,32032,-4,0,-1,0,533459,0
533498,-47,-2076,227,-82,29,109,14722,-2,-5,-224,-48,35380,-109,35,127,0,0,3888,0,0,12794,3518,228,32042,-4,0,-1,0,533475,0
533508,-4,-2076,229,-84,23,99,14725,-8,6,-233,-96,35383,-106,35,127,0,0,3890,-16,0,12794,3518,228,32052,-4,0,-1,0,533475,0
533518,-36,-2079,237,-87,32,101,14723,1,4,-232,-72,35373,-118,35,127,0,0,3889,-5,0,12794,3518,228,32062,-4,0,-1,0,533490,0
533528,-12,-2078,230,-87,32,93,14724,1,-1,-232,-48,35364,-111,35,127,0,0,3888,0,0,12794,3518,228,32072,-4,0,-1,0,533506,0
533538,-19,-2080,220,-88,36,88,14723,-7,-4,-251,-64,35354,-90,35,127,0,0,3882,-54,0,12794,3518,228,32082,-4,0,-1,0,533506,0
533548,-5,-2080,219,-87,40,84,14721,-10,-1,-352,-88,35356,-96,35,127,0,0,3886,10,0,12794,3518,228,32092,-4,0,-1,0,533506,0
533558,-17,-2078,230,-87,41,94,14717,-10,1,-341,-112,35370,-95,35,127,0,0,3881,-38,0,12794,3518,228,32102,-4,0,-1,0,533537,0
533568,5,-2076,230,-88,38,95,14714,-13,-7,-369,-96,35369,-91,35,127,0,0,3884,-5,0,12794,3518,228,32112,-4,0,-1,0,533537,0
533578,-15,-2083,231,-90,36,106,14707,-18,-15,-298,-80,35355,-83,35,127,0,0,3881,-32,0,12794,3518,228,32122,-4,0,-1,0,533537,0
533588,-7,-2083,229,-85,38,106,14692,-37,-10,-264,-56,35359,-101,35,127,0,0,3884,5,0,12794,3518,228,32132,-4,0,-1,0,533553,0
533598,-20,-2080,222,-89,39,110,14683,-11,-10,-148,-32,35353,-106,35,127,0,0,3884,5,0,12794,3518,228,32142,-4,0,-1,0,533584,0
533608,-24,-2084,233,-90,34,119,14679,-7,30,-171,-56,35362,-115,35,127,0,0,3882,-16,0,12794,3518,228,32152,-4,0,-1,0,533584,0
533618,-44,-2079,225,-96,36,113,14679,3,22,-183,-32,35351,-96,35,127,0,0,3881,-21,0,12794,3518,228,32162,-4,0,-1,0,533584,0
533628,-26,-2075,226,-94,31,110,14678,-8,-3,-217,-24,35330,-97,35,127,0,0,3881,5,0,12794,3518,228,32172,-4,0,-1,0,533600,0
533638,-16,-2081,224,-93,37,98,14677,-7,1,-200,-24,35327,-89,35,127,0,0,3878,-27,0,12794,3518,228,32182,-4,0,-1,0,533600,0
533648,-5,-2074,230,-94,35,99,14678,1,1,-218,-48,35332,-87,35,127,0,0,3882,-10,0,12794,3518,228,32192,-4,0,-1,0,533631,0
533658,-23,-2083,232,-91,40,96,14677,1,1,-225,-48,35329,-83,35,127,0,0,3879,10,0,12794,3518,228,32202,-4,0,-1,0,533631,0
533668,-20,-2078,227,-98,45,89,14676,3,3,-226,-48,35317,-77,35,127,0,0,3879,-21,0,12794,3518,228,32212,-4,0,-1,0,533631,0
533678,8,-2073,215,-94,38,89,14675,3,3,-233,-64,35308,-69,35,127,0,0,3880,10,0,12794,3518,228,32222,-4,0,-1,0,533662,0
533688,-3,-2077,222,-88,30,92,14676,0,8,-233,-64,35315,-71,35,127,0,0,3880,0,0,12794,3518,228,32232,-4,0,-1,0,533678,0
533698,-25,-2078,228,-85,37,93,14673,-10,-2,-251,-64,35315,-76,35,127,0,0,3877,-16,0,12794,3518,228,32242,-4,0,-1,0,533693,0
533708,-20,-2073,230,-94,35,89,14673,8,-5,-266,-64,35312,-84,35,127,0,0,3880,16,0,12794,3518,228,32252,-4,0,-1,0,533693,0
533719,-9,-2075,228,-96,42,79,14670,-10,0,-286,-40,35310,-83,35,127,0,0,3878,10,0,12794,3518,228,32263,-4,0,-1,0,533693,0
533729,-16,-2079,219,-94,32,84,14670,-7,3,-265,-112,35315,-65,35,127,0,0,3878,-21,0,12794,3518,228,32273,-4,0,-1,0,533693,0
533739,-31,-2075,221,-88,39,81,14668,3,1,-281,-64,35321,-78,35,127,0,0,3875,-10,0,12794,3518,228,32283,-4,0,-1,0,533709,0
533749,-4,-2082,222,-89,33,83,14666,-10,-5,-345,-96,35336,-71,35,127,0,0,3873,-32,0,12794,3518,228,32293,-4,0,-1,0,533725,0
533759,-20,-2074,225,-94,41,73,14664,0,-4,-373,-152,35334,-68,35,127,0,0,3871,-65,0,12794,3518,228,32303,-4,0,-1,0,533725,0
533769,-23,-2076,224,-90,33,84,14656,-16,-19,-442,-144,35334,-60,35,127,0,0,3873,21,0,12794,3518,228,32313,-4,0,-1,0,533740,0
533779,-25,-2079,217,-91,39,85,14652,6,2,-395,-104,35320,-60,35,127,0,0,3869,-21,0,12794,3518,228,32323,-4,0,-1,0,533756,0
533789,-6,-2081,220,-86,35,91,14645,-16,13,-438,-120,35322,-57,35,127,0,0,3867,-32,0,12794,3518,228,32333,-4,0,-1,0,533756,0
533799,0,-2079,225,-83,34,94,14623,-67,-26,-353,-80,35316,-66,35,127,0,0,3867,-10,0,12794,3518,228,32343,-4,0,-1,0,533756,0
533809,-16,-2085,226,-85,40,91,14598,-41,-54,-174,-64,35320,-56,35,127,0,0,3869,21,0,12794,3518,228,32353,-4,0,-1,0,533772,0
533819,19,-2084,225,-90,36,113,14602,7,69,-180,-24,35319,-67,35,127,0,0,3869,0,0,12794,3518,228,32363,-4,0,-1,0,533787,0
533829,-15,-2076,222,-88,37,123,14603,13,48,-152,-40,35324,-69,35,127,0,0,3867,-21,0,12794,3518,228,32373,-4,0,-1,0,533803,0
533839,-18,-2077,223,-90,31,114,14600,0,-18,-178,-64,35325,-57,35,127,0,0,3864,-32,0,12794,3518,228,32383,-4,0,-1,0,533803,0
533849,-29,-2075,217,-85,41,112,14599,-16,-7,-249,-56,35320,-61,35,127,0,0,3867,0,0,12794,3518,228,32393,-4,0,-1,0,533834,0
533859,-3,-2075,225,-82,36,116,14597,-11,8,-252,-48,35325,-54,35,127,0,0,3867,21,0,12794,3518,228,32403,-4,0,-1,0,533834,0
533869,-13,-2075,221,-85,37,122,14600,6,1,-237,-56,35321,-56,35,127,0,0,3867,0,0,12794,3518,228,32413,-4,0,-1,0,533834,0
533879,-12,-2076,216,-86,37,123,14599,0,-1,-237,-88,35322,-47,35,127,0,0,3867,0,0,12794,3518,228,32423,-4,0,-1,0,533850,0
533889,16,-2073,219,-82,42,126,14599,-5,-2,-242,-56,35327,-35,35,127,0,0,3864,-10,0,12794,3518,228,32433,-4,0,-1,0,533850,0
533899,18,-2083,218,-84,51,129,14600,0,-2,-218,-64,35322,-39,35,127,0,0,3867,0,0,12794,3518,228,32443,-4,0,-1,0,533881,0
533909,-1,-2073,222,-82,44,141,14599,-5,-1,-203,-56,35329,-45,35,127,0,0,3864,-21,0,12794,3518,228,32453,-4,0,-1,0,533881,0
533919,24,-2075,223,-87,40,147,14600,3,-5,-275,-80,35320,-45,35,127,0,0,3867,10,0,12794,3518,228,32463,-4,0,-1,0,533881,0
533929,12,-2077,218,-80,37,154,14598,-9,4,-265,-8,35317,-49,35,127,0,0,3864,10,0,12794,3518,228,32473,-4,0,-1,0,533912,0
533939,40,-2079,213,-83,50,146,14599,-9,-7,-237,-64,35329,-37,35,127,0,0,3867,10,0,12794,3518,228,32483,-4,0,-1,0,533912,0
533950,-44,-2073,232,-78,36,162,14600,0,-4,-228,-56,35331,-40,35,127,0,0,3863,-32,0,12794,3518,228,32494,-4,0,-1,0,533912,0
533960,-6,-2082,229,-78,44,159,14601,14,5,-190,-32,35344,-39,35,127,0,0,3869,-16,0,12794,3518,228,32504,-4,0,-1,0,533943,0
533970,-21,-2074,232,-88,39,170,14601,3,0,-139,-32,35338,-47,35,127,0,0,3869,0,0,12794,3518,228,32514,-4,0,-1,0,533943,0
533980,-34,-2084,228,-88,37,168,14602,0,-3,-149,-40,35334,-33,35,127,0,0,3869,0,0,12794,3518,228,32524,-4,0,-1,0,533943,0
533990,-51,-2083,212,-84,31,168,14605,28,10,-33,-16,35331,-45,35,127,0,0,3868,-87,0,12794,3518,228,32534,-4,0,-1,0,533959,0
534000,-22,-2075,218,-78,40,157,14604,11,1,-47,8,35339,-32,35,127,0,0,3870,-10,0,12794,3518,228,32544,-4,0,-1,0,533959,0
534010,-25,-2088,219,-77,37,137,14603,-18,-3,-14,32,35332,-40,35,127,0,0,3872,21,0,12794,3518,228,32554,-4,0,-1,0,533990,0
534020,-12,-2075,223,-80,43,135,14608,9,4,55,24,35343,-31,35,127,0,0,3872,-38,0,12794,3518,228,32564,-4,0,-1,0,533990,0
534030,-44,-2087,230,-85,39,125,14607,-2,-11,47,24,35332,-26,35,127,0,0,3875,5,0,12794,3518,228,32574,-4,0,-1,0,533990,0
534040,-26,-2079,230,-85,37,121,14608,2,2,116,24,35327,-34,35,127,0,0,3875,-16,0,12794,3518,228,32584,-4,0,-1,0,534068,0
534050,-43,-2073,235,-85,39,121,14607,0,-4,94,24,35333,-40,35,127,0,0,3875,0,0,12794,3518,228,32594,-4,0,-1,0,534068,0
534060,-39,-2082,234,-90,33,118,14607,-10,-4,66,24,35328,-52,35,127,0,0,3875,16,0,12794,3518,228,32604,-4,0,-1,0,534084,0
534070,-21,-2083,229,-94,35,101,14607,-4,-10,73,0,35333,-46,35,127,0,0,3877,21,0,12794,3518,228,32614,-4,0,-1,0,534084,0
534080,-38,-2086,218,-95,33,96,14608,1,3,112,24,35327,-45,35,127,0,0,3872,-38,0,12794,3518,228,32624,-4,0,-1,0,534084,0
534090,-38,-2084,222,-93,41,93,14607,-4,-2,54,0,35319,-35,35,127,0,0,3873,-21,0,12794,3518,228,32634,-4,0,-1,0,534084,0
534100,-31,-2077,224,-92,34,87,14609,10,6,72,16,35317,-35,35,127,0,0,3875,-10,0,12794,3518,228,32644,-4,0,-1,0,534084,0
534110,-30,-2075,225,-91,30,98,14607,-1,-7,76,24,35324,-25,35,127,0,0,3875,5,0,12794,3518,228,32654,-4,0,-1,0,534084,0
534120,-27,-2078,216,-97,33,101,14608,1,1,70,0,35324,-30,35,127,0,0,3873,-21,0,12794,3518,228,32664,-4,0,-1,0,534084,0
534130,-12,-2079,217,-95,38,94,14609,10,0,31,0,35330,-45,35,127,0,0,3867,-82,0,12794,3518,228,32674,-4,0,-1,0,534100,0
534140,10,-2086,217,-90,37,93,14605,3,-8,-56,-16,35338,-52,35,127,0,0,3871,-43,0,12794,3518,228,32684,-4,0,-1,0,534100,0
534150,-5,-2086,230,-90,46,101,14608,12,5,25,-24,35358,-56,35,127,0,0,3868,-71,0,12794,3518,228,32694,-4,0,-1,0,534131,0
534160,30,-2087,230,-96,46,105,14603,-11,-12,-133,-32,35367,-49,35,127,0,0,3869,-27,0,12794,3518,228,32704,-4,0,-1,0,534146,0
534170,2,-2082,230,-102,50,141,14606,15,1,-108,-40,35355,-46,35,127,0,0,3869,-38,0,12794,3518,228,32714,-4,0,-1,0,534146,0
534180,16,-2082,229,-101,42,138,14603,7,10,-124,-16,35342,-34,35,127,0,0,3868,-21,0,12794,3518,228,32724,-4,0,-1,0,534146,0
534191,27,-2073,216,-104,50,150,14602,-1,1,-174,-40,35331,-31,35,127,0,0,3869,0,0,12794,3518,228,32735,-4,0,-1,0,534178,0
534201,-13,-2076,208,-96,47,169,14603,-1,4,-135,-48,35341,-36,35,127,0,0,3869,-10,0,12794,3518,228,32745,-4,0,-1,0,534178,0
534211,-39,-2079,209,-92,41,171,14603,3,5,-91,-32,35345,-41,35,127,0,0,3871,10,0,12794,3518,228,32755,-4,0,-1,0,534178,0
534221,-51,-2076,216,-91,42,171,14605,-4,3,-24,-16,35339,-48,35,127,0,0,3871,0,0,12794,3518,228,32765,-4,0,-1,0,534193,0
534231,-41,-2078,219,-86,50,168,14605,-9,1,-14,8,35336,-48,35,127,0,0,3873,10,0,12794,3518,228,32775,-4,0,-1,0,534193,0
534241,-75,-2085,219,-81,43,164,14606,3,0,-11,16,35341,-58,35,127,0,0,3873,-21,0,12794,3518,228,32785,-4,0,-1,0,534225,0
534251,-70,-2083,225,-86,43,150,14607,3,0,-4,0,35354,-50,35,127,0,0,3873,0,0,12794,3518,228,32795,-4,0,-1,0,534225,0
534261,-53,-2076,229,-89,38,138,14607,3,6,42,32,35351,-44,35,127,0,0,3873,-21,0,12794,3518,228,32805,-4,0,-1,0,534225,0
534271,-41,-2078,212,-86,33,124,14608,3,0,35,40,35337,-44,35,127,0,0,3873,-21,0,12794,3518,228,32815,-4,0,-1,0,534256,0
534281,-56,-2081,208,-81,43,115,14609,14,-2,56,24,35342,-46,35,127,0,0,3873,-32,0,12794,3518,228,32825,-4,0,-1,0,534271,0
534291,-37,-2082,212,-80,37,109,14606,-1,3,60,-8,35339,-52,35,127,0,0,3875,0,0,12794,3518,228,32835,-4,0,-1,0,534271,0
534301,6,-2082,223,-73,35,121,14607,-3,0,95,24,35332,-45,35,127,0,0,3875,0,0,12794,3518,228,32845,-4,0,-1,0,534271,0
534311,-12,-2074,224,-80,33,114,14607,-6,5,65,-40,35322,-45,35,127,0,0,3873,-32,0,12794,3518,228,32855,-4,0,-1,0,534287,0
534321,-10,-2075,221,-80,43,117,14608,8,3,38,-8,35326,-47,35,127,0,0,3873,0,0,12794,3518,228,32865,-4,0,-1,0,534287,0
534331,-32,-2070,225,-81,29,119,14607,-2,11,55,0,35334,-47,35,127,0,0,3875,10,0,12794,3518,228,32875,-4,0,-1,0,534303,0
534341,5,-2076,234,-81,36,106,14607,-6,1,79,24,35336,-44,35,127,0,0,3875,21,0,12794,3518,228,32885,-4,0,-1,0,534318,0
534351,-3,-2081,227,-83,34,108,14606,-9,-1,45,40,35343,-51,35,127,0,0,3875,21,0,12794,3518,228,32895,-4,0,-1,0,534318,0
534361,-43,-2084,224,-85,34,114,14607,-7,-1,48,-40,35340,-57,35,127,0,0,3875,10,0,12794,3518,228,32905,-4,0,-1,0,534318,0
534371,-42,-2078,221,-78,28,119,14607,4,6,67,-8,35349,-51,35,127,0,0,3873,-32,0,12794,3518,228,32915,-4,0,-1,0,534350,0
534381,-37,-2085,222,-74,42,116,14608,26,-11,21,0,35354,-51,35,127,0,0,3875,0,0,12794,3518,228,32925,-4,0,-1,0,534350,0
534391,-53,-2079,230,-77,25,119,14607,-2,4,72,24,35343,-38,35,127,0,0,3875,10,0,12794,3518,228,32935,-4,0,-1,0,534365,0
534401,-27,-2083,230,-85,28,122,14609,3,10,68,0,35340,-41,35,127,0,0,3875,-10,0,12794,3518,228,32945,-4,0,-1,0,534365,0
534411,-11,-2078,222,-83,33,119,14608,2,0,94,24,35339,-48,35,127,0,0,3875,0,0,12794,3518,228,32955,-4,0,-1,0,534448,0
534421,-10,-2085,222,-80,38,112,14606,2,4,43,32,35349,-50,35,127,0,0,3873,0,0,12794,3518,228,32965,-4,0,-1,0,534463,0
534431,-15,-2088,220,-87,35,110,14607,7,-4,5,0,35343,-45,35,127,0,0,3873,0,0,12794,3518,228,32975,-4,0,-1,0,534463,0
534441,-19,-2076,231,-82,33,117,14606,-5,2,-20,0,35330,-54,35,127,0,0,3875,43,0,12794,3518,228,32985,-4,0,-1,0,534463,0
534451,-30,-2074,230,-85,29,115,14607,0,8,11,40,35327,-61,35,127,0,0,3873,-10,0,12794,3518,228,32995,-4,0,-1,0,534479,0
534461,-8,-2079,227,-92,34,106,14606,-3,-4,-7,0,35331,-55,35,127,0,0,3873,10,0,12794,3518,228,33005,-4,0,-1,0,534479,0
534471,-13,-2082,226,-90,29,106,14605,-11,1,26,0,35332,-41,35,127,0,0,3873,0,0,12794,3518,228,33015,-4,0,-1,0,534479,0
534481,-16,-2079,222,-85,28,101,14605,-10,0,-35,8,35323,-31,35,127,0,0,3871,10,0,12794,3518,228,33025,-4,0,-1,0,534479,0
534491,8,-2086,222,-86,31,97,14606,-4,-4,-24,40,35322,-30,35,127,0,0,3875,43,0,12794,3518,228,33035,-4,0,-1,0,534479,0
534502,-37,-2078,221,-83,33,112,14608,-1,7,69,0,35344,-50,35,127,0,0,3873,-21,0,12794,3518,228,33046,-4,0,-1,0,534479,0
534512,-19,-2081,216,-82,28,106,14608,2,2,30,0,35348,-58,35,127,0,0,3873,-16,0,12794,3518,228,33056,-4,0,-1,0,534479,0
534522,-45,-2076,223,-81,35,106,14607,2,-3,30,24,35356,-56,35,127,0,0,3869,-54,0,12794,3518,228,33066,-4,0,-1,0,534479,0
534532,-22,-2076,222,-83,35,96,14606,-1,-6,-36,8,35365,-56,35,127,0,0,3870,0,0,12794,3518,228,33076,-4,0,-1,0,534541,0
534542,-49,-2081,231,-88,31,79,14604,-10,4,-72,-72,35362,-60,35,127,0,0,3873,-32,0,12794,3518,228,33086,-4,0,-1,0,534541,0
534552,-64,-2082,218,-86,33,72,14605,16,5,-45,-48,35340,-57,35,127,0,0,3872,-21,0,12794,3518,228,33096,-4,0,-1,0,534541,0
534562,-73,-2077,213,-83,27,65,14604,-3,3,-66,-64,35331,-41,35,127,0,0,3870,-27,0,12794,3518,228,33106,-4,0,-1,0,534541,0
534572,-40,-2085,217,-78,30,36,14603,6,-4,-163,-64,35331,-35,35,127,0,0,3867,-38,0,12794,3518,228,33116,-4,0,-1,0,534541,0
534582,-36,-2079,214,-77,44,16,14601,-3,0,-227,-80,35346,-39,35,127,0,0,3864,-38,0,12794,3518,228,33126,-4,0,-1,0,534541,0
534592,-12,-2087,214,-72,44,12,14598,-8,-3,-305,-120,35362,-44,35,127,0,0,3860,-87,0,12794,3518,228,33136,-4,0,-1,0,534573,0
534602,-5,-2085,229,-69,37,13,14592,-10,-12,-392,-128,35353,-40,35,127,0,0,3855,-71,0,12794,3518,228,33146,-4,0,-1,0,534573,0
534612,12,-2080,227,-74,36,19,14585,-2,-3,-416,-144,35348,-40,35,127,0,0,3859,-38,0,12794,3518,228,33156,-4,0,-1,0,534588,0
534622,3,-2090,226,-73,37,26,14580,-17,5,-485,-160,35343,-32,35,127,0,0,3854,-21,0,12794,3518,228,33166,-4,0,-1,0,534588,0
534632,-16,-2084,225,-75,31,31,14557,-66,-23,-452,-168,35351,-60,35,127,0,0,3849,-54,0,12794,3518,228,33176,-4,0,-1,0,534619,0
534642,-17,-2075,215,-77,42,13,14529,-60,-52,-282,-104,35341,-60,35,127,0,0,3849,-21,0,12794,3518,228,33186,-4,0,-1,0,534619,0
534652,-2,-2075,213,-69,39,30,14529,10,51,-380,-128,35332,-50,35,127,0,0,3847,-32,0,12794,3518,228,33196,-4,0,-1,0,534619,0
534662,1,-2074,215,-64,34,29,14526,3,55,-449,-144,35340,-64,35,127,0,0,3841,-32,0,12794,3518,228,33206,-4,0,-1,0,534651,0
534672,9,-2088,221,-63,38,32,14524,1,-2,-503,-160,35342,-74,35,127,0,0,3839,-27,0,12794,3518,228,33216,-4,0,-1,0,534651,0
534682,8,-2085,225,-61,40,42,14517,-15,-5,-521,-168,35334,-71,35,127,0,0,3840,-32,0,12794,3518,228,33226,-4,0,-1,0,534651,0
534693,26,-2078,229,-63,30,58,14507,-36,-21,-556,-128,35330,-50,35,127,0,0,3838,0,0,12794,3518,228,33237,-4,0,-1,0,534666,0
534703,17,-2078,228,-64,39,72,14477,-84,-54,-383,-136,35336,-70,35,127,0,0,3836,0,0,12794,3518,228,33247,-4,0,-1,0,534666,0
534713,-17,-2079,241,-61,40,72,14450,-26,-26,-257,-80,35357,-82,35,127,0,0,3834,-32,0,12794,3518,228,33257,-4,0,-1,0,534697,0
534723,4,-2084,243,-70,35,77,14442,-15,59,-321,-128,35348,-66,35,127,0,0,3832,-10,0,12794,3518,228,33267,-4,0,-1,0,534697,0
534733,-13,-2084,234,-71,29,71,14439,-6,36,-281,-88,35341,-65,35,127,0,0,3832,-32,0,12794,3518,228,33277,-4,0,-1,0,534697,0
534743,-20,-2077,231,-75,27,58,14423,-41,-23,-261,-144,35344,-76,35,127,0,0,3829,-65,0,12794,3518,228,33287,-4,0,-1,0,534713,0
534753,-73,-2084,230,-77,38,23,14398,-35,-41,-196,-40,35362,-85,35,127,0,0,3829,0,0,12794,3518,228,33297,-4,0,-1,0,534729,0
534763,-57,-2084,251,-78,30,14,14399,0,32,-322,-136,35368,-65,35,127,0,0,3825,0,0,12794,3518,228,33307,-4,0,-1,0,534729,0
534773,-121,-2073,267,-92,22,-53,14395,-4,37,-380,-104,35354,-53,35,127,0,0,3818,-43,0,12794,3518,228,33317,-4,0,-1,0,534744,0
534783,-99,-2075,248,-95,24,-116,14390,-11,-8,-494,-208,35350,-45,35,127,0,0,3812,-76,0,12794,3518,228,33327,-4,0,-1,0,534807,0
534793,-118,-2067,218,-106,34,-206,14366,-60,-40,-561,-288,35345,-63,35,127,0,0,3803,-109,0,12794,3518,228,33337,-4,0,-1,0,534822,0
534803,-133,-2080,236,-109,27,-300,14311,-123,-97,-432,-272,35344,-50,35,127,0,0,3792,-109,0,12794,3518,228,33347,-4,0,-1,0,534822,0
534813,-198,-2084,309,-125,17,-459,14238,-174,-86,-363,-272,35333,-22,35,127,0,0,3774,-164,0,12794,3518,228,33357,-4,0,-1,0,534822,0
534823,-342,-2086,325,-161,1,-596,14165,-144,-40,-426,-272,35322,-35,35,127,0,0,3755,-208,0,12794,3518,228,33367,-4,0,-1,0,534822,0
534833,-481,-2065,320,-201,-35,-910,14086,-191,-4,-548,-408,35334,-34,35,127,0,0,3728,-252,0,12794,3518,228,33377,-4,0,-1,0,534838,0
534843,-618,-2106,243,-215,-42,-1165,13970,-269,-80,-466,-512,35346,-49,35,127,0,0,3693,-351,0,12794,3518,228,33387,-4,0,-1,0,534838,0
534853,-659,-2070,93,-159,7,-1620,13831,-320,-112,-527,-736,35339,-35,35,127,0,0,3645,-483,0,12794,3518,228,33397,-4,0,-1,0,534838,0
534863,-599,-2085,89,-103,71,-1897,13665,-367,-92,-566,-944,35334,-35,35,127,0,0,3592,-549,0,12794,3518,228,33407,-4,0,-1,0,534869,0
534873,-179,-2029,163,-40,144,-2192,13465,-465,-106,-587,-1136,35336,-41,35,127,0,0,3533,-604,0,12794,3518,228,33417,-4,0,-1,0,534869,0
534883,27,-2058,126,-22,135,-2244,13234,-531,-133,-569,-1376,35357,-31,35,127,0,0,3467,-670,0,12794,3518,228,33427,-4,0,-1,0,534869,0
534893,330,-2095,107,81,6,-2125,12971,-596,-120,-536,-1480,35355,-23,35,127,0,0,3401,-670,0,12794,3518,228,33437,-4,0,-1,0,534869,0
534903,407,-2101,170,126,-66,-1999,12688,-630,-97,-510,-1504,35340,-13,35,127,0,0,3344,-593,0,12794,3518,228,33447,-4,0,-1,0,534869,0
534913,762,-1938,417,268,-397,-1882,12402,-628,-49,-479,-1520,35347,-23,35,127,0,0,3295,-505,0,12794,3518,228,33457,-4,0,-1,0,534885,0
534923,818,-1956,651,420,-763,-1748,12119,-608,1,-474,-1488,35355,-32,35,127,0,0,3247,-472,0,12794,3518,228,33467,-4,0,-1,0,534916,0
534933,461,-2227,770,245,-1076,-1324,11839,-622,14,-455,-1368,35358,-41,35,127,0,0,3205,-373,0,12794,3518,228,33477,-4,0,-1,0,534916,0
534943,346,-2091,716,204,-1162,-1283,11578,-547,32,-393,-1160,35337,-29,35,127,0,0,3179,-274,0,12794,3518,228,33487,-4,0,-1,0,534916,0
534953,616,-1997,224,425,-1200,-1299,11350,-476,103,-415,-976,35330,-37,35,127,0,0,3146,-329,0,12794,3518,228,33497,-4,0,-1,0,534916,0
534964,894,-1693,-13,521,-1185,-1204,11120,-446,104,-403,-888,35345,-51,35,127,0,0,3108,-362,0,12794,3518,228,33508,-4,0,-1,0,534932,0
534974,1089,-1468,148,373,-1144,-937,10934,-411,79,-502,-880,35362,-59,35,127,0,0,3067,-390,0,12794,3518,228,33518,-4,0,-1,0,534947,0
534984,1030,-1540,82,261,-1049,-702,10748,-409,43,-573,-936,35365,-19,35,127,0,0,3026,-379,0,12794,3518,228,33528,-4,0,-1,0,534963,0
534994,926,-1576,-156,178,-687,-478,10560,-423,-10,-567,-944,35352,-19,35,127,0,0,2983,-362,0,12794,3518,228,33538,-4,0,-1,0,534963,0
535004,859,-1520,-309,209,-338,-397,10358,-448,-29,-496,-984,35349,-37,35,127,0,0,2934,-549,0,12794,3518,228,33548,-4,0,-1,0,534979,0
535014,1224,-3931,-1010,-171,213,-313,10159,-453,-19,-650,-1136,35348,-54,35,127,0,0,2870,-637,0,12794,3518,228,33558,-4,0,-2,0,534979,0
535024,-498,-2144,833,86,59,613,9933,-508,-47,-573,-1024,35348,-46,35,127,0,0,2852,-93,0,12794,3518,228,33568,-4,0,-2,0,534994,0
535034,-91,-2094,563,237,47,399,9722,-433,-27,-365,-624,35353,-44,35,127,0,0,2853,54,0,12794,3518,228,33578,-4,0,-2,0,535010,0
535044,-174,-2121,238,196,164,224,9560,-320,129,-285,-296,35354,-56,35,127,0,0,2856,32,0,12794,3518,228,33588,-4,0,-3,0,535026,0
535054,247,-2001,-131,342,225,100,9475,-131,228,-296,-128,35363,-53,35,127,0,0,2853,-27,0,12794,3518,228,33598,-4,0,-2,0,535026,0
535064,450,-2050,112,428,210,119,9449,-47,271,-344,-120,35365,-27,35,127,0,0,2852,-10,0,12794,3518,228,33608,-4,0,-2,0,535041,0
535074,615,-2003,401,388,207,220,9434,-17,128,-292,-88,35354,-8,35,127,0,0,2855,16,0,12794,3518,228,33618,-4,0,-2,0,535041,0
535084,600,-2039,517,339,147,327,9434,-1,44,-286,-64,35359,-11,35,127,0,0,2854,5,0,12794,3518,228,33628,-4,0,-2,0,535041,0
535094,433,-2019,332,287,80,471,9434,3,30,-229,-24,35367,-51,35,127,0,0,2861,87,0,12794,3518,228,33638,-4,0,-2,0,535072,0
535104,339,-2043,237,286,93,484,9440,17,14,47,48,35364,-47,35,127,0,0,2870,87,0,12794,3518,228,33648,-4,0,-2,0,535088,0
535114,264,-2029,160,377,109,444,9453,27,20,242,104,35352,-35,35,127,0,0,2876,71,0,12794,3518,228,33658,-4,0,-2,0,535088,0
535124,206,-2043,158,423,123,393,9474,56,27,297,104,35350,-39,35,127,0,0,2887,104,0,12794,3518,228,33668,-4,0,-2,0,535088,0
535134,105,-2059,271,436,119,310,9521,107,65,223,88,35355,-55,35,127,0,0,2887,38,0,12794,3518,228,33678,-4,0,-2,0,535104,0
535144,58,-2069,433,421,120,200,9566,92,48,9,-8,35363,-76,35,127,0,0,2887,-27,0,12794,3518,228,33688,-4,0,-2,0,535166,0
535154,26,-2083,560,311,120,76,9562,-9,-103,9,0,35359,-67,35,127,0,0,2887,0,0,12794,3518,228,33698,-4,0,-2,0,535166,0
535164,185,-2049,559,242,102,12,9563,8,-81,-14,-8,35348,-62,35,127,0,0,2887,5,0,12794,3518,228,33708,-4,0,-2,0,535166,0
535174,270,-2048,457,154,37,-56,9562,-2,8,-70,-48,35347,-69,35,127,0,0,2882,-38,0,12794,3518,228,33718,-4,0,-2,0,535166,0
535184,116,-2079,406,139,15,-110,9559,-4,1,-203,-88,35358,-68,35,127,0,0,2875,-82,0,12794,3518,228,33728,-4,0,-2,0,535166,0
535194,43,-2083,311,166,34,-253,9553,-7,-10,-382,-136,35357,-63,35,127,0,0,2868,-54,0,12794,3518,228,33738,-4,0,-2,0,535166,0
535205,101,-2047,230,190,38,-392,9545,-20,-3,-592,-264,35353,-42,35,127,0,0,2856,-109,0,12794,3518,228,33749,-4,0,-2,0,535166,0
535215,111,-2032,273,217,72,-501,9506,-107,-61,-574,-272,35356,-50,35,127,0,0,2841,-164,0,12794,3518,228,33759,-4,0,-2,0,535213,0
535225,176,-2037,428,201,109,-630,9440,-157,-108,-515,-360,35372,-63,35,127,0,0,2823,-219,0,12794,3518,228,33769,-4,0,-2,0,535213,0
535235,274,-2036,522,153,107,-664,9359,-182,-78,-494,-376,35372,-61,35,127,0,0,2801,-208,0,12794,3518,228,33779,-4,0,-2,0,535213,0
535245,453,-2033,581,31,39,-658,9275,-201,-31,-521,-400,35362,-50,35,127,0,0,2781,-208,0,12794,3518,228,33789,-4,0,-2,0,535213,0
535255,428,-2036,578,-47,16,-620,9179,-218,-32,-543,-392,35339,-70,35,127,0,0,2761,-208,0,12794,3518,228,33799,-4,0,-2,0,535229,0
535265,594,-2025,454,-132,63,-539,9081,-220,-35,-510,-376,35358,-88,35,127,0,0,2744,-131,0,12794,3518,228,33809,-4,0,-2,0,535260,0
535275,712,-2012,397,-167,38,-404,8987,-214,6,-437,-368,35373,-86,35,127,0,0,2729,-131,0,12794,3518,228,33819,-4,0,-2,0,535260,0
535285,731,-2029,260,-168,-28,-161,8895,-183,4,-394,-248,35371,-64,35,127,0,0,2718,-76,0,12794,3518,228,33829,-4,0,-2,0,535260,0
535295,694,-2001,181,-139,-33,-28,8821,-157,41,-348,-192,35357,-43,35,127,0,0,2711,-54,0,12794,3518,228,33839,-4,0,-2,0,535260,0
535305,482,-1995,226,-83,29,76,8774,-66,72,-287,-136,35350,-61,35,127,0,0,2711,10,0,12794,3518,228,33849,-4,0,-2,0,535275,0
535315,497,-2014,280,-62,40,124,8780,10,158,-387,-96,35359,-64,35,127,0,0,2711,10,0,12794,3518,228,33859,-4,0,-2,0,535291,0
535325,447,-2013,348,-52,42,156,8779,4,86,-378,-104,35356,-77,35,127,0,0,2709,0,0,12794,3518,228,33869,-4,0,-2,0,535291,0
535335,373,-2011,351,-53,41,162,8780,8,-14,-360,-144,35358,-70,35,127,0,0,2711,-10,0,12794,3518,228,33879,-4,0,-2,0,535322,0
535345,344,-2032,308,-47,35,137,8778,-2,-1,-363,-104,35359,-79,35,127,0,0,2715,43,0,12794,3518,228,33889,-4,0,-2,0,535322,0
535355,288,-2029,311,-41,33,120,8779,-7,2,-308,-120,35360,-73,35,127,0,0,2711,10,0,12794,3518,228,33899,-4,0,-2,0,535322,0
535365,254,-2004,376,-53,10,57,8778,1,2,-344,-104,35360,-54,35,127,0,0,2711,0,0,12794,3518,228,33909,-4,0,-2,0,535338,0
535375,222,-2011,406,-65,-4,8,8778,2,-1,-369,-104,35349,-56,35,127,0,0,2711,0,0,12794,3518,228,33919,-4,0,-2,0,535338,0
535385,74,-2042,407,-98,14,-174,8777,-3,0,-413,-144,35351,-74,35,127,0,0,2704,-76,0,12794,3518,228,33929,-4,0,-2,0,535369,0
535395,108,-1995,402,-112,25,-300,8774,-10,-13,-598,-224,35357,-91,35,127,0,0,2691,-131,0,12794,3518,228,33939,-4,0,-2,0,535369,0
535405,77,-2021,412,-143,0,-531,8754,-64,-27,-806,-352,35348,-80,35,127,0,0,2674,-197,0,12794,3518,228,33949,-4,0,-2,0,535369,0
535415,11,-2001,419,-161,-37,-717,8687,-183,-126,-686,-424,35353,-82,35,127,0,0,2652,-219,0,12794,3518,228,33959,-4,0,-2,0,535385,0
535425,-262,-1997,411,-203,-69,-1109,8583,-227,-159,-515,-472,35354,-66,35,127,0,0,2616,-351,0,12794,3518,228,33969,-4,0,-2,0,535400,0
535435,-386,-1970,391,-236,-87,-1489,8460,-287,-95,-581,-640,35358,-81,35,127,0,0,2572,-472,0,12794,3518,228,33979,-4,0,-2,0,535400,0
535446,-621,-1974,365,-256,-111,-2132,8294,-349,-97,-588,-872,35357,-81,35,127,0,0,2509,-582,0,12794,3518,228,33990,-4,0,-2,0,535416,0
535456,-741,-2065,342,-217,-120,-2559,8104,-442,-132,-597,-1168,35348,-80,35,127,0,0,2433,-752,0,12794,3518,228,34000,-4,0,-2,0,535447,0
535466,-674,-1973,262,-144,26,-3308,7864,-553,-163,-703,-1496,35355,-77,35,127,0,0,2344,-900,0,12794,3518,228,34010,-4,0,-2,0,535447,0
535476,-358,-1973,162,-97,94,-3680,7571,-686,-191,-707,-1768,35357,-60,35,127,0,0,2233,-1093,0,12794,3518,228,34020,-4,0,-2,0,535447,0
535486,213,-2026,23,72,41,-3934,7223,-797,-209,-741,-2088,35352,-47,35,127,0,0,2131,-1148,0,12794,3518,228,34030,-4,0,-2,0,535447,0
535496,380,-2221,177,173,-84,-3926,6831,-896,-191,-886,-2272,35344,-26,35,127,0,0,2025,-977,0,12794,3518,228,34040,-4,0,-2,0,535572,0
535506,340,-2328,444,110,-278,-3906,6403,-949,-159,-720,-2320,35347,-12,35,127,0,0,1935,-873,0,12794,3518,228,34050,-4,0,-2,0,535572,0
535516,570,-3031,835,98,-482,-4100,5981,-928,-54,-656,-2240,35350,-15,35,127,0,0,1854,-818,0,12794,3518,228,34060,-4,0,-2,0,535572,0
535526,-221,-3084,972,-127,-990,-4032,5569,-890,19,-550,-2048,35351,-44,35,127,0,0,1802,-466,0,12794,3518,228,34070,-4,0,-2,0,535572,0
535536,-784,-2638,1056,-386,-1068,-4347,5203,-765,106,-433,-1680,35340,-55,35,127,0,0,1762,-357,0,12794,3518,228,34080,-4,0,-2,0,535588,0
535546,518,-1991,-221,-107,-39,-4939,4899,-642,208,-488,-1576,35330,-64,35,127,0,0,1708,-516,0,12794,3518,228,34090,-4,0,-2,0,535588,0
535556,1556,-1319,-988,178,2,-4849,4614,-628,159,-631,-1616,35326,-61,35,127,0,0,1652,-560,0,12794,3518,228,34100,-4,0,-2,0,535588,0
535566,2291,-1254,-781,346,-263,-4064,4321,-631,17,-546,-1480,35335,-64,35,127,0,0,1608,-417,0,12794,3518,228,34110,-4,0,-2,0,535588,0
535576,1494,-1515,166,305,-470,-3579,4053,-576,24,-491,-1296,35334,-61,35,127,0,0,1576,-274,0,12794,3518,228,34120,-4,0,-2,0,535588,0
535586,476,-1208,1057,59,-676,-3768,3813,-504,106,-465,-1096,35330,-50,35,127,0,0,1553,-252,0,12794,3518,228,34130,-4,0,-2,0,535588,0
535596,403,-1894,672,246,-390,-4194,3601,-452,112,-522,-1128,35329,-57,35,127,0,0,1499,-516,0,12794,3518,228,34140,-4,0,-2,0,535588,0
535606,930,-2229,142,468,-302,-4368,3381,-498,39,-679,-1296,35333,-70,35,127,0,0,1445,-554,0,12794,3518,228,34150,-4,0,-2,0,535588,0
535616,1012,-2183,446,479,-592,-4294,3139,-547,-56,-597,-1264,35341,-72,35,127,0,0,1407,-368,0,12794,3518,228,34160,-4,0,16,0,535588,0
535626,684,-1842,788,283,-741,-4315,2897,-509,-41,-489,-1112,35351,-54,35,127,0,0,1373,-340,0,12794,3518,228,34170,-4,0,17,0,535588,0
535636,949,-1544,520,235,-402,-4555,2684,-457,51,-547,-1080,35367,-47,35,127,0,0,1334,-483,0,12794,3518,228,34180,-4,0,18,0,535604,0
535646,1607,-968,-61,384,-285,-4475,2494,-460,63,-705,-1176,35375,-61,35,127,0,0,1294,-411,0,12794,3518,228,34190,-4,0,20,0,535604,0
535656,1922,-481,-18,376,-294,-4300,2262,-528,-41,-567,-1224,35376,-57,35,127,0,0,1253,-461,0,12794,3518,228,34200,-4,0,21,0,535650,0
535666,1915,-58,283,196,-326,-3948,2025,-506,-56,-555,-1256,35357,-52,35,127,0,0,1199,-549,0,12794,3518,228,34210,-4,0,22,0,535666,0
535676,1855,140,400,55,-257,-3809,1774,-574,-29,-662,-1488,35337,-40,35,127,0,0,1143,-631,0,12794,3518,228,34220,-4,0,22,0,535666,0
535686,1831,-178,388,16,-199,-3745,1488,-674,-103,-782,-1904,35332,-51,35,127,0,0,1053,-884,0,12794,3518,228,34230,-4,0,22,0,535666,0
535696,1725,-513,530,64,-257,-3694,1122,-855,-233,-872,-2240,35330,-41,35,127,0,0,964,-950,0,12794,3518,228,34240,-4,0,22,0,535666,0
535707,1674,-793,851,6,-369,-3661,692,-809,-170,-237,-1384,35333,-30,35,127,0,0,845,-1054,0,12794,3518,228,34251,-4,0,21,0,535682,0
535717,1680,-931,869,-183,-589,-3563,398,-575,196,-190,-792,35343,-42,35,127,0,0,725,-1208,0,12794,3518,228,34261,-4,0,21,0,535682,0
535727,1709,-896,686,-298,-686,-3500,198,-390,369,-284,-472,35359,-49,35,127,0,0,621,-1032,0,12794,3518,228,34271,-4,0,21,0,535713,0
535737,1673,-1353,461,-364,-802,-3473,65,-280,297,-453,-648,35372,-75,35,127,0,0,509,-1120,0,12794,3518,228,34281,-4,0,21,0,535713,0
535747,1575,-1640,507,-424,-888,-3469,-84,-339,111,-576,-864,35359,-76,35,127,0,0,406,-1043,0,12794,3518,228,34291,-4,0,21,0,535729,0
535757,1539,-2206,735,-528,-1093,-3521,-265,-413,-82,-628,-1056,35348,-71,35,127,0,0,305,-966,0,12794,3518,228,34301,-4,0,21,0,535729,0
535767,1509,-2663,774,-588,-1313,-3567,-469,-463,-134,-549,-968,35337,-75,35,127,0,0,217,-845,0,12794,3518,228,34311,-4,0,21,0,535760,0
535777,1408,-3246,790,-587,-1664,-3724,-678,-437,-58,-446,-752,35346,-87,35,127,0,0,149,-648,0,12794,3518,228,34321,-4,0,21,0,535760,0
535787,1333,-3546,786,-545,-1860,-3856,-863,-380,41,-368,-528,35352,-79,35,127,0,0,107,-384,0,12794,3518,228,34331,-4,0,21,0,535760,0
535797,1347,-3742,581,-440,-2074,-4194,-1005,-263,129,-198,-48,35344,-73,35,127,0,0,92,-120,0,12794,3518,228,34341,-4,0,21,0,535760,0
535807,1431,-3888,501,-292,-2222,-4510,-999,151,366,546,464,35348,-69,35,127,0,0,98,87,0,12794,3518,228,34351,-4,0,21,0,535791,0
535817,1484,-4581,519,-98,-2505,-4589,-847,378,587,555,1040,35345,-80,35,127,0,0,147,516,0,12794,3518,228,34361,-4,0,21,0,535791,0
535827,1433,-4197,623,4,-2691,-4625,-598,631,454,704,1336,35345,-65,35,127,0,0,235,911,0,12794,3518,228,34371,-4,0,21,0,535807,0
535837,1646,-3632,585,70,-3211,-4489,-307,621,280,335,1280,35345,-55,35,127,0,0,373,1395,0,12794,3518,228,34381,-4,0,21,0,535807,0
535847,1930,-3341,461,212,-3253,-4478,-27,618,49,463,1432,35350,-67,35,127,0,0,542,1735,0,12794,3518,228,34391,-4,0,21,0,535822,0
535857,2512,-3085,498,211,-3121,-4515,272,678,13,466,1472,35366,-76,35,127,0,0,716,1768,0,12794,3518,228,34401,-4,0,21,0,535838,0
535867,2926,-3104,648,354,-2939,-4502,579,656,56,354,1288,35367,-81,35,127,0,0,909,1878,0,12794,3518,228,34411,-4,0,21,0,535838,0
535877,2632,-2301,539,-202,-2658,-3892,854,578,-52,264,944,35366,-67,35,127,0,0,1096,1889,0,12794,3518,228,34421,-4,0,21,0,535916,0
535887,2550,-2077,1062,-546,-2946,-3169,1085,483,-155,258,912,35359,-74,35,127,0,0,1311,2131,0,12794,3518,228,34431,-4,0,21,0,535916,0
535897,2164,-1932,1412,-840,-3114,-1961,1358,787,-20,1537,2992,35352,-69,35,127,0,0,1546,2406,0,12794,3518,228,34441,-4,0,21,0,535916,0
535907,1739,-647,1415,-1006,-3065,-1427,1952,1516,716,1487,4328,35342,-36,35,127,0,0,1792,2416,0,12794,3518,228,34451,-4,0,21,0,535916,0
535917,1510,1559,155,-1237,-2685,-1393,2787,1937,1105,952,4784,35322,22,35,127,0,0,1988,1889,0,12794,3518,228,34461,-4,0,21,0,535932,0
535927,1409,1794,-781,-1073,-2146,-1276,3676,1918,574,371,4376,35316,66,35,127,0,0,2111,1153,0,12794,3518,228,34471,-4,0,21,0,535932,0
535937,2122,2104,-1783,-657,-1636,-438,4470,1673,-92,113,3216,35321,38,35,127,0,0,2113,-131,0,12794,3518,228,34481,-4,0,21,0,535932,0
535947,-406,1004,-1042,-280,-2153,492,5115,1282,-459,-341,920,35337,-26,35,127,0,0,1981,-1384,0,12794,3518,228,34491,-4,0,21,0,535932,0
535958,-1122,37,91,688,-2918,2836,5392,20,-1034,-1966,-520,35350,-79,35,127,0,0,1929,-291,0,12794,3518,228,34502,-4,0,21,0,535932,0
535968,-1532,247,543,894,-2773,3454,5255,-313,-1557,-263,-184,35368,-104,35,127,0,0,1939,170,0,12794,3518,228,34512,-4,0,21,0,535947,0
535978,-684,673,-316,1087,-1649,4202,5183,-49,-553,264,88,35374,-89,35,127,0,0,1948,16,0,12794,3518,228,34522,-4,0,21,0,535947,0
535988,-336,585,-667,1252,-947,5156,5208,22,344,2,-24,35381,-77,35,127,0,0,1942,-38,0,12794,3518,228,34532,-4,0,84,64,536010,0
535998,-825,422,-834,1753,92,6386,5197,0,97,16,16,35377,-78,35,127,0,0,1947,71,0,12794,3518,228,34542,-4,0,87,58,536010,0
536008,-917,165,-436,1969,802,6920,5207,19,-20,183,120,35372,-71,35,127,0,0,1957,131,0,12794,3518,228,34552,-4,0,90,53,536010,0
536018,-793,-260,47,2135,1861,7475,5230,71,61,393,200,35373,-69,35,127,0,0,1977,164,0,12794,3518,228,34562,-4,0,93,46,536010,0
536028,-587,-390,59,2130,2395,7876,5299,161,120,334,264,35368,-74,35,127,0,0,2009,335,0,12794,3518,228,34572,-4,0,96,41,536010,0
536038,-428,-386,-149,2139,3065,8449,5384,199,110,536,480,35372,-80,35,127,0,0,2051,466,0,12794,3518,228,34582,-4,0,99,33,536025,0
536048,-403,-432,-281,2222,3447,8809,5511,309,109,579,768,35365,-85,35,127,0,0,2120,703,0,12794,3518,228,34592,-4,0,102,28,536025,0
536058,-267,-552,-260,2325,3908,9375,5688,439,178,652,1280,35373,-90,35,127,0,0,2218,1071,0,12794,3518,228,34602,-4,0,106,20,536025,0
536068,8,-619,-146,2353,4095,9792,5943,614,251,756,1768,35379,-66,35,127,0,0,2336,1257,0,12794,3518,228,34612,-4,0,109,15,536057,0
536078,448,-729,138,2250,4050,10460,6301,870,345,830,2408,35385,-75,35,127,0,0,2502,1593,0,12794,3518,228,34622,-4,0,114,8,536057,0
536088,606,-806,277,2092,3894,10840,6790,1177,445,921,3176,35368,-53,35,127,0,0,2696,1988,0,12794,3518,228,34632,-4,0,117,4,536057,0
536098,788,-908,341,1869,3684,11126,7422,1481,533,887,3896,35344,-19,35,127,0,0,2913,2191,0,12794,3518,228,34642,-4,0,122,-1,536057,0
536108,927,-974,334,1776,3645,11107,8179,1737,513,972,4672,35336,16,35,127,0,0,3157,2444,0,12794,3518,228,34652,-4,0,126,-4,536088,0
536118,1304,-1059,278,1656,3701,10899,9059,2025,465,1068,5392,35333,30,35,127,0,0,3401,2340,0,12794,3518,228,34662,-4,0,131,-9,536088,0
536128,1642,-1006,296,1531,3738,10643,10072,2312,499,865,5936,35327,37,35,127,0,0,3622,2197,0,12794,3518,228,34672,-4,0,134,-12,536103,0
536138,1887,-979,273,1348,3757,10153,11177,2451,440,630,5912,35322,67,35,127,0,0,3823,1983,0,12794,3518,228,34682,-4,0,139,-16,536103,0
536148,2077,-966,145,1222,3717,9740,12259,2341,133,371,5656,35326,57,35,127,0,0,3993,1735,0,12794,3518,228,34692,-4,0,142,-18,536166,0
536158,2169,-1087,79,928,3582,9145,13278,2213,-173,279,5224,35344,26,35,127,0,0,4141,1488,0,12794,3518,228,34702,-4,0,145,-21,536166,0
536168,2219,-1332,170,755,3410,8767,14256,2119,-201,223,4736,35360,-27,35,127,0,0,4284,1384,0,12794,3518,228,34712,-4,0,148,-23,536166,0
536178,2113,-1833,299,468,3150,8215,15182,1992,-169,214,4304,35354,-36,35,127,0,0,4426,1384,0,12794,3518,228,34722,-4,0,151,-26,536166,0
536188,2148,-2283,450,303,2945,7862,16029,1818,-251,302,4048,35338,-41,35,127,0,0,4568,1384,0,12794,3518,228,34732,-4,0,152,-28,536166,0
536198,2024,-2919,579,89,2654,7257,16807,1696,-289,474,4008,35333,-53,35,127,0,0,4707,1411,0,12794,3518,228,34742,-4,0,154,-30,536182,0
536209,1958,-3501,793,-61,2290,6711,17643,1676,-144,600,4160,35337,-52,35,127,0,0,4877,1549,0,12794,3518,228,34753,-4,0,155,-32,536182,0
536219,1948,-3728,878,-171,2024,6281,18430,1741,26,605,4240,35353,-41,35,127,0,0,5036,1560,0,12794,3518,228,34763,-4,0,156,-34,536182,0
536229,2026,-3130,1097,-898,1913,5724,19234,1784,81,671,4216,35360,-6,35,127,0,0,5185,1417,0,12794,3518,228,34773,-4,0,157,-35,536213,0
536239,1976,-3597,1010,-982,1381,5509,20028,1723,16,589,4296,35368,2,35,127,0,0,5356,1691,0,12794,3518,228,34783,-4,0,157,-36,536213,0
536249,1511,-3811,478,-909,530,4565,20817,1740,-42,662,4512,35359,6,35,127,0,0,5506,1461,0,12794,3518,228,34793,-4,0,157,-36,536260,0
536259,1421,-3960,444,-628,-26,3992,21582,1588,-41,-114,1936,35344,-4,35,127,0,0,5620,1131,0,12794,3518,228,34803,-4,0,157,-36,536260,0
536269,1168,-3924,549,-322,-525,3330,22047,646,-582,-2102,-904,35345,-34,35,127,0,0,5704,780,0,12794,3518,228,34813,-4,0,157,-36,536260,0
536279,870,-3559,549,-262,-705,2662,21830,-691,-1932,-1298,-2464,35338,-47,35,127,0,0,5756,494,0,12794,3518,228,34823,-4,0,157,-36,536275,0
536289,814,-3111,394,-67,-1135,1999,21334,-1249,-1820,-1339,-3832,35334,-44,35,127,0,0,5789,351,0,12794,3518,228,34833,-4,0,157,-36,536275,0
536299,686,-2951,238,-75,-1445,1637,20621,-1699,-930,-1179,-4784,35328,-2,35,127,0,0,5820,307,0,12794,3518,228,34843,-4,0,157,-36,536275,0
536309,397,-2668,309,-39,-1902,1133,19737,-2039,-748,-834,-5264,35308,45,35,127,0,0,5868,483,0,12794,3518,228,34853,-4,0,157,-36,536275,0
536319,287,-2595,181,14,-2143,593,18751,-2201,-525,-564,-5296,35310,57,35,127,0,0,5926,593,0,12794,3518,228,34863,-4,0,157,-36,536306,0
536329,343,-2381,-66,146,-2440,-302,17747,-2198,-224,-469,-5232,35322,42,35,127,0,0,5983,549,0,12794,3518,228,34873,-4,0,157,-36,536322,0
536339,317,-2122,-13,158,-2548,-886,16755,-2192,-4,-554,-5424,35335,18,35,127,0,0,6027,450,0,12794,3518,228,34883,-4,0,157,-36,536322,0
536349,38,-1814,85,74,-2443,-1786,15720,-2323,-56,-600,-5656,35325,15,35,127,0,0,6053,252,0,12794,3518,228,34893,-4,0,157,-36,536322,0
536359,-105,-1599,-75,-8,-2231,-2297,14623,-2438,-207,-606,-5848,35310,24,35,127,0,0,6073,175,0,12794,3518,228,34903,-4,0,157,-36,536322,0
536369,-310,-1158,-562,-98,-1871,-2793,13519,-2427,-145,-640,-5976,35321,41,35,127,0,0,6097,296,0,12794,3518,228,34913,-4,0,157,-36,536353,0
536379,-454,-988,-728,-156,-1590,-3079,12440,-2354,35,-489,-5896,35329,39,35,127,0,0,6132,351,0,12794,3518,228,34923,-4,0,157,-36,536353,0
536389,-478,-3573,-649,-173,-534,-3254,11369,-2366,72,-517,-5744,35321,43,35,127,0,0,6154,219,0,2539,672,229,9,1,4,157,-36,536353,0
536399,-1821,-6397,-1124,831,7552,-4544,10261,-2528,-39,-1342,-7728,35299,54,35,127,0,0,5789,-4240,0,2539,672,229,19,1,4,157,-36,536369,0
536409,471,-2553,3211,791,6869,-9806,8668,-4028,-956,-3719,-8896,35249,218,35,127,0,0,5207,-5998,0,2539,672,229,29,1,4,157,-36,536385,0
536419,222,-222,1375,767,4990,-8828,7284,-1797,-813,7016,2776,35220,277,35,127,0,0,4629,-5526,0,2539,672,229,39,1,4,157,-36,536400,0
536429,1212,-975,-52,-1184,763,-7614,8046,2520,4771,4644,7512,35222,322,35,127,0,0,4141,-4943,0,2539,672,229,49,1,4,157,-36,536400,0
536439,416,-1785,-69,-594,-1718,-6269,9552,3678,5589,2590,10056,35200,393,35,127,0,0,3728,-4010,0,2539,672,229,59,1,4,157,-36,536400,0
536450,-1252,-4163,917,592,-3269,-6050,11323,2894,1368,-2918,2336,35221,309,35,127,0,0,3347,-3328,0,2539,672,229,70,1,4,157,-36,536431,0
536460,-2902,-4272,1143,877,-500,-6855,11737,-39,-2258,-4696,-2720,35240,216,35,127,0,0,2948,-4108,0,2539,672,229,80,1,4,157,-36,536431,0
536470,-1098,-3424,-38,270,1836,-7031,11134,-1666,-4338,-2155,-5128,35300,36,35,127,0,0,2587,-3658,0,2539,672,229,90,1,4,157,-36,536431,0
536480,268,-2434,-1573,76,1958,-7017,10125,-2407,-2699,-1418,-6352,35331,-57,35,127,0,0,2244,-3510,0,2539,672,229,100,1,4,157,-36,536478,0
536490,1286,-3546,-1026,382,1322,-6368,8910,-2762,-1162,-963,-6928,35272,146,35,127,0,0,1937,-2999,0,2539,672,229,110,1,4,157,-36,536478,0
536500,1234,-4445,44,699,963,-6300,7609,-2893,-549,-572,-6960,35245,171,35,127,0,0,1669,-2592,0,2539,672,229,120,1,4,157,-36,536478,0
536510,-271,-3153,2253,912,196,-5862,6297,-2861,-183,-508,-6600,35255,121,35,127,0,0,1476,-1840,0,2539,672,229,130,1,4,157,-36,536478,0
536520,380,-1648,2019,350,394,-6097,5102,-2525,194,-286,-6080,35273,88,35,127,0,0,1304,-1796,0,2539,672,229,140,1,4,157,-36,536478,0
536530,1900,-2421,536,-274,106,-5343,4020,-2337,464,-423,-5800,35299,55,35,127,0,0,1148,-1505,0,2539,672,229,150,1,4,157,-36,536510,0
536540,2295,-2378,269,-210,-258,-4849,2973,-2287,280,-348,-5248,35307,49,35,127,0,0,1033,-1170,0,2539,672,229,160,1,4,157,-36,536510,0
536550,1673,-2050,948,79,-642,-4226,1990,-2097,175,-207,-4160,35308,20,35,127,0,0,954,-796,0,2539,672,229,170,1,4,157,-36,536510,0
536560,1235,-1866,1068,58,-785,-3997,1166,-1670,424,138,-2472,35306,-11,35,127,0,0,882,-670,0,2539,672,229,180,1,4,157,-36,536541,0
536570,1428,-1114,407,-177,-558,-3813,568,-1162,743,267,-1232,35328,-29,35,127,0,0,811,-692,0,2539,672,229,190,1,4,157,-36,536541,0
536580,1597,-642,-185,-180,-407,-3667,191,-695,858,167,-432,35334,-37,35,127,0,0,742,-752,0,2539,672,229,200,1,4,157,-36,536541,0
536590,1709,-944,-382,155,-275,-3414,-5,-325,769,128,-8,35334,-39,35,127,0,0,661,-692,0,2539,672,229,210,1,4,157,-36,536572,0
536600,1487,-1407,75,315,-202,-3236,-39,-2,661,-47,-168,35331,-51,35,127,0,0,585,-774,0,2539,672,229,220,1,4,157,-36,536572,0
536610,1544,-1712,696,243,-81,-3003,-68,-112,322,-665,-336,35325,-52,35,127,0,0,514,-697,0,2539,672,229,230,1,4,157,-36,536572,0
536620,1559,-2108,760,173,-220,-2837,-164,-227,-138,-483,-328,35324,-41,35,127,0,0,457,-598,0,2539,672,229,240,1,4,157,-36,536603,0
536630,1450,-2709,668,222,-593,-2532,-249,-170,-108,-368,-136,35328,-55,35,127,0,0,417,-406,0,2539,672,229,250,1,4,157,-36,536635,0
536640,1153,-3105,587,249,-825,-2402,-265,48,154,122,208,35324,-58,35,127,0,0,404,-148,0,2539,672,229,260,1,4,157,-36,536635,0
536650,455,-3607,624,328,-1105,-2436,-182,240,356,431,368,35329,-52,35,127,0,0,420,93,0,2539,672,229,270,1,4,157,-36,536635,0
536660,731,-4010,422,362,-1284,-2527,-58,252,267,213,152,35320,-28,35,127,0,0,466,516,0,2539,672,229,280,1,4,157,-36,536635,0
536670,434,-4288,477,634,-1763,-2825,20,147,-50,192,192,35310,-15,35,127,0,0,542,791,0,2539,672,229,290,1,4,157,-36,536635,0
536680,453,-4950,651,1030,-1793,-3188,95,188,-85,541,584,35323,-23,35,127,0,0,644,1016,0,2539,672,229,300,1,4,157,-36,536681,0
536690,-42,-4695,1064,1454,-2241,-3341,244,395,164,574,976,35334,-30,35,127,0,0,804,1598,0,2539,672,229,310,1,4,157,-36,536681,0
536700,-445,-3972,1125,1545,-2448,-3296,463,518,289,594,1272,35334,-21,35,127,0,0,996,2005,0,2539,672,229,320,1,4,157,-36,536681,0
536710,97,-2778,591,1702,-1792,-3339,723,588,201,479,1216,35326,-13,35,127,0,0,1203,2048,0,2539,672,229,330,1,4,157,-36,536681,0
536721,671,-1930,263,1627,-2040,-3059,1030,667,99,870,2608,35304,-27,35,127,0,0,1454,2318,0,2539,672,229,341,1,4,157,-36,536697,0
536731,668,-1585,470,1563,-2676,-2513,1554,1362,542,1509,4080,35309,-28,35,127,0,0,1700,2548,0,2539,672,229,351,1,4,157,-36,536697,0
536741,518,-1224,1015,1436,-3647,-1846,2357,1927,1055,1310,5216,35306,32,35,127,0,0,1981,2845,0,2539,672,229,361,1,4,157,-36,536728,0
536751,572,-1208,1014,1388,-4263,-1480,3350,2288,633,1101,6152,35305,90,35,127,0,0,2293,3120,0,2539,672,229,371,1,4,157,-36,536728,0
536761,664,296,528,1104,-4818,-1108,4466,2514,659,898,6624,35277,139,35,127,0,0,2590,2944,0,2539,672,229,381,1,4,157,-36,536728,0
536771,967,1185,305,827,-5267,-1005,5674,2730,612,725,6848,35274,141,35,127,0,0,2869,2713,0,2539,672,229,391,1,4,157,-36,536760,0
536781,649,1790,-739,119,-6016,94,6968,2873,348,451,6496,35269,121,35,127,0,0,3093,2208,0,2539,672,229,401,1,4,157,-36,536760,0
536791,-420,1696,-1132,-533,-6047,1602,8214,2649,82,239,5800,35276,118,35,127,0,0,3254,1527,0,2539,672,229,411,1,4,157,-36,536760,0
536801,-695,-642,-62,-430,-5509,1931,9319,2353,-374,89,4528,35282,73,35,127,0,0,3287,131,0,2539,672,229,421,0,4,157,-36,536791,0
536811,-1670,-1137,875,306,-5054,2468,10262,1906,-565,-545,1888,35299,18,35,127,0,0,3192,-988,0,2539,672,229,431,0,4,157,-36,536791,0
536821,-2285,-856,976,263,-4121,3333,10814,906,-1044,-1442,-320,35310,-43,35,127,0,0,3076,-1197,0,2539,672,229,441,0,4,157,-36,536791,0
536831,-1734,-671,902,98,-3581,4035,10739,-434,-1974,-1014,-1048,35326,-73,35,127,0,0,3003,-736,0,2539,672,229,451,0,4,157,-36,536791,0
536841,-1280,-447,-328,409,-2239,5049,10501,-550,-1537,-351,-952,35338,-72,35,127,0,0,2981,-186,0,2539,672,229,461,0,4,157,-36,536838,0
536851,-856,-157,-667,658,-1176,5569,10261,-499,-275,-163,-544,35345,-50,35,127,0,0,2977,-32,0,2539,672,229,471,0,4,157,-36,536853,0
536861,133,246,-250,1013,324,6619,10073,-367,95,-21,-24,35336,-25,35,127,0,0,3003,296,0,2539,672,229,481,0,4,157,-36,536853,0
536871,505,219,21,992,1483,7411,10039,104,386,862,528,35329,-34,35,127,0,0,3056,571,0,2539,672,229,491,0,4,157,-36,536853,0
536881,752,-157,420,936,2942,8612,10176,359,662,568,920,35319,-30,35,127,0,0,3137,834,0,2539,672,229,501,0,4,157,-36,536853,0
536891,677,-358,390,894,3525,9131,10389,525,462,595,1392,35315,-39,35,127,0,0,3232,1021,0,2539,672,229,511,0,4,157,-36,536869,0
536901,873,-569,357,1013,3954,9368,10682,702,296,747,2032,35322,-35,35,127,0,0,3353,1230,0,2539,672,229,521,0,4,157,-36,536869,0
536911,1154,-691,-15,1153,4226,9318,11078,931,354,830,2592,35318,-18,35,127,0,0,3491,1406,0,2539,672,229,531,0,4,157,-36,536900,0
536921,1527,-807,-322,1343,4802,9108,11573,1139,385,740,3088,35325,0,35,127,0,0,3632,1417,0,2539,672,229,541,0,4,157,-36,536900,0
536931,1759,-890,-323,1388,5251,8916,12146,1303,335,733,3456,35321,29,35,127,0,0,3774,1428,0,2539,672,229,551,0,4,157,-36,536916,0
536941,2149,-1137,-56,1199,5560,8629,12777,1422,258,677,3752,35311,30,35,127,0,0,3924,1461,0,2539,672,229,561,0,4,157,-36,536916,0
536952,2397,-1368,139,1043,5419,8433,13537,1564,216,666,3952,35305,29,35,127,0,0,4100,1631,0,2539,672,229,572,0,4,157,-36,536916,0
536962,2743,-1878,321,763,4885,8200,14290,1704,219,688,4224,35325,31,35,127,0,0,4270,1757,0,2539,672,229,582,0,4,157,-36,536931,0
536972,2860,-2034,438,593,4443,8044,15111,1859,243,728,4528,35325,41,35,127,0,0,4467,1928,0,2539,672,229,592,0,4,157,-36,536947,0
536982,2814,-2366,393,329,3865,7650,15997,1978,260,729,4768,35321,41,35,127,0,0,4661,1889,0,2539,672,229,602,0,4,157,-36,536947,0
536992,2668,-2681,322,273,3449,7273,16909,2021,178,644,4880,35304,44,35,127,0,0,4828,1702,0,2539,672,229,612,0,4,157,-36,536978,0
537002,2503,-3168,361,238,2699,6753,17824,2016,56,516,4824,35301,59,35,127,0,0,4995,1625,0,2539,672,229,622,0,4,157,-36,536994,0
537012,2392,-3452,440,224,2163,6470,18735,1989,2,454,4672,35297,54,35,127,0,0,5147,1565,0,2539,672,229,632,0,4,157,-36,536994,0
537022,2326,-3227,487,-88,1529,6057,19611,1891,-78,457,4440,35293,39,35,127,0,0,5295,1505,0,2539,672,229,642,0,4,157,-36,537009,0
537032,2062,-3252,590,-467,1007,5852,20430,1765,-178,463,4400,35288,31,35,127,0,0,5443,1582,0,2539,672,229,652,0,4,157,-36,537009,0
537042,1568,-3590,154,-540,-98,5119,21216,1705,-170,314,2992,35309,24,35,127,0,0,5574,1290,0,2539,672,229,662,0,4,157,-36,537009,0
537052,1401,-3749,-2,-501,-695,4573,21854,1208,-314,-783,336,35343,3,35,127,0,0,5686,1038,0,2539,672,229,672,0,4,157,-36,537056,0
537062,1263,-3836,-19,-386,-1397,3774,21953,-309,-1314,-2545,-1496,35354,-36,35,127,0,0,5777,900,0,2539,672,229,682,0,4,157,-36,537056,0
537072,636,-3439,155,-397,-1500,3030,21628,-869,-1953,-1161,-2816,35347,-34,35,127,0,0,5831,532,0,2539,672,229,692,0,4,157,-36,537056,0
537082,612,-2898,98,-654,-1311,2194,21089,-1323,-1189,-1229,-4000,35318,-20,35,127,0,0,5868,335,0,2539,672,229,702,0,4,157,-36,537056,0
537092,278,-2625,63,-768,-1118,1786,20355,-1724,-779,-1061,-4800,35301,28,35,127,0,0,5906,384,0,2539,672,229,712,0,4,157,-36,537056,0
537102,-74,-2134,-179,-968,-644,1012,19465,-2032,-680,-757,-5088,35303,70,35,127,0,0,5962,598,0,2539,672,229,722,0,4,157,-36,537072,0
537112,-166,-1738,-357,-941,-219,396,18496,-2148,-452,-508,-5128,35306,82,35,127,0,0,6028,637,0,2539,672,229,732,0,4,157,-36,537088,0
537122,-166,-1018,-767,-851,670,-633,17530,-2100,-142,-396,-4960,35317,79,35,127,0,0,6105,769,0,2539,672,229,742,0,4,157,-36,537103,0
537132,-150,-649,-881,-766,1392,-1413,16589,-2086,62,-605,-5232,35323,67,35,127,0,0,6167,686,0,2539,672,229,752,0,4,157,-36,537103,0
537142,-149,-398,-778,-648,2485,-2574,15589,-2242,-59,-628,-5400,35328,60,35,127,0,0,6202,401,0,2539,672,229,762,0,4,157,-36,537103,0
537152,-74,-2970,-447,-467,3302,-3070,14545,-2307,-210,-588,-5704,35325,71,35,127,0,0,6168,-510,0,1812,1158,230,0,1,4,245,-37,537134,0
537162,-731,-8986,1646,232,7844,-10359,13390,-2813,-255,-2984,-10040,35267,74,35,127,0,0,5568,-6729,0,1812,1158,230,10,1,4,245,-37,537134,0
537172,-1506,2791,6129,2189,9207,-11916,11529,-4474,-1623,-1256,-3896,35236,254,35,127,0,0,4761,-7926,0,1812,1158,230,20,1,4,245,-37,537150,0
537182,2515,2995,-1381,-1469,3400,-9408,10803,42,518,8878,7296,35215,317,35,127,0,0,4129,-6317,0,1812,1158,230,30,1,4,245,-37,537150,0
537193,2577,-4265,62,-1605,-1495,-5576,12149,3043,6509,1160,3216,35222,409,35,127,0,0,3555,-5053,0,1812,1158,230,41,1,4,245,-37,537150,0
537203,-1124,-6541,917,190,-2937,-5506,12715,189,2028,-5598,-2880,35312,168,35,127,0,0,3100,-4592,0,1812,1158,230,51,1,4,245,-37,537197,0
537213,-4115,-28306,2213,1054,-632,-9557,12085,-1807,-3928,-3007,-6432,35257,333,35,127,0,0,2586,-5240,0,1812,1158,230,61,1,4,245,-37,537213,0
537223,-4893,347,3732,1224,-1339,-4791,10808,-3065,-3511,-1441,-6432,35295,167,35,127,0,0,2456,-340,0,1812,1158,230,71,1,4,245,-37,537213,0
537233,-4821,-7221,-1403,-2587,-640,-7896,9521,-2755,-1279,-55,-6544,35258,210,35,127,0,0,2148,-2933,0,1812,1158,230,81,1,4,245,-37,537213,0
537243,1926,1420,-3545,-514,1048,-9629,8329,-2549,209,-275,-6056,35278,127,35,127,0,0,1898,-2691,0,1812,1158,230,91,1,4,245,-37,537213,0
537253,416,391,-2618,589,3129,-9366,7148,-2646,218,-751,-6968,35308,41,35,127,0,0,1562,-3438,0,1812,1158,230,101,1,4,245,-37,537213,0
537263,4173,-245,-182,1721,2211,-8737,5835,-2964,-243,-1072,-7504,35301,107,35,127,0,0,1276,-2889,0,1812,1158,230,111,1,4,245,-37,537259,0
537273,4074,-1659,2965,1236,-93,-6039,4467,-3036,-374,-918,-7888,35289,148,35,127,0,0,1041,-2252,0,1812,1158,230,121,1,4,245,-37,537259,0
537283,2864,-949,3957,-37,-1030,-4932,3054,-3128,-194,-356,-6384,35289,148,35,127,0,0,876,-1647,0,1812,1158,230,131,1,4,245,-37,537275,0
537293,1318,-1820,825,-1243,-1297,-4262,1771,-2616,133,589,-3760,35289,148,35,127,0,0,733,-1406,0,1812,1158,230,141,1,4,245,-37,537275,0
537303,1061,-2074,-910,-1017,-734,-4335,891,-1658,1039,786,-1920,35289,148,35,127,0,0,604,-1285,0,1812,1158,230,151,1,4,245,-37,537275,0
537313,1090,-1757,-1374,-27,375,-4318,351,-1006,1447,392,-784,35289,148,35,127,0,0,476,-1318,0,1812,1158,230,161,1,4,245,-37,537275,0
537323,1474,-1420,254,252,556,-4210,46,-539,1093,197,-224,35306,122,35,127,0,0,351,-1241,0,1812,1158,230,171,1,4,245,-37,537306,0
537333,1816,-1424,1796,-293,90,-3646,-106,-281,750,-150,-456,35329,4,35,127,0,0,241,-1109,0,1812,1158,230,181,1,4,245,-37,537306,0
537343,2375,-1606,1917,-716,-332,-3223,-244,-325,323,-636,-864,35346,-77,35,127,0,0,151,-867,0,1812,1158,230,191,1,4,245,-37,537306,0
537353,2219,-2024,168,-1067,-1162,-2300,-432,-440,-71,-546,-944,35343,-107,35,127,0,0,85,-637,0,1812,1158,230,201,1,4,245,-37,537384,0
537363,1945,-1788,-65,-1094,-1201,-1942,-634,-425,-129,-351,-624,35333,-86,35,127,0,0,39,-417,0,1812,1158,230,211,1,4,245,-37,537384,0
537373,696,-2358,267,-899,-1255,-1815,-797,-326,51,-225,-216,35325,-71,35,127,0,0,10,-285,0,1812,1158,230,221,1,4,245,-37,537384,0
537383,621,-1783,787,-851,-1005,-2195,-842,35,287,277,224,35329,-73,35,127,0,0,-8,-208,0,1812,1158,230,231,1,4,245,-37,537384,0
537393,1501,-2990,503,-499,-614,-2709,-743,267,520,443,520,35323,-100,35,127,0,0,-37,-307,0,1812,1158,230,241,1,4,245,-37,537400,0
537403,2378,-3345,364,-473,-1391,-2342,-622,276,318,773,784,35314,-95,35,127,0,0,-32,109,0,1812,1158,230,251,1,4,245,-37,537400,0
537413,665,-3134,246,-617,-2064,-2214,-466,365,104,811,968,35307,-83,35,127,0,0,-6,307,0,1812,1158,230,261,1,4,245,-37,537400,0
537423,240,-3527,-138,-366,-1751,-2655,-273,426,143,390,592,35310,-70,35,127,0,0,32,384,0,1812,1158,230,271,1,4,245,-37,537400,0
537433,807,-3561,-325,408,-1483,-3149,-96,368,44,216,400,35315,-80,35,127,0,0,90,593,0,1812,1158,230,281,1,4,245,-37,537416,0
537443,1082,-3896,207,671,-1650,-3558,44,302,-104,319,432,35323,-89,35,127,0,0,156,659,0,1812,1158,230,291,1,4,245,-37,537431,0
537453,711,-4822,1094,683,-2617,-3393,180,325,-88,485,728,35325,-89,35,127,0,0,261,1109,0,1812,1158,230,301,1,4,245,-37,537431,0
537463,576,-4640,1255,543,-3179,-3484,378,507,111,716,1472,35323,-81,35,127,0,0,417,1582,0,1812,1158,230,311,1,4,245,-37,537431,0
537474,-77,-4775,607,701,-3398,-3557,707,723,329,692,1832,35323,-58,35,127,0,0,626,1994,0,1812,1158,230,322,1,4,245,-37,537431,0
537484,-487,-4375,421,908,-3351,-3637,1073,844,305,565,2016,35320,-44,35,127,0,0,880,2493,0,1812,1158,230,332,1,4,245,-37,537462,0
537494,-760,-3338,288,1057,-2880,-3331,1468,868,188,415,1864,35317,-67,35,127,0,0,1161,2878,0,1812,1158,230,342,1,4,245,-37,537462,0
537504,-788,-2213,282,1039,-2622,-3003,1845,813,23,309,1560,35314,-68,35,127,0,0,1468,3076,0,1812,1158,230,352,1,4,245,-37,537478,0
537514,-720,-619,151,1164,-2844,-2320,2234,994,-45,1346,3688,35313,-50,35,127,0,0,1805,3367,0,1812,1158,230,362,1,4,245,-37,537478,0
537524,-434,435,-84,1375,-3507,-1517,3004,1954,745,1953,5688,35292,36,35,127,0,0,2178,3757,0,1812,1158,230,372,1,4,245,-37,537509,0
537534,53,2359,-286,1306,-4585,-95,4092,2535,1388,1507,6840,35260,118,35,127,0,0,2531,3466,0,1812,1158,230,382,1,4,245,-37,537509,0
537544,450,3142,-704,701,-4765,1104,5349,2865,924,1001,7424,35238,162,35,127,0,0,2841,3125,0,1812,1158,230,392,1,4,245,-37,537509,0
537554,674,1298,-783,474,-3132,828,6729,3060,562,350,6464,35256,99,35,127,0,0,2958,1032,0,1812,1158,230,402,1,4,245,-37,537525,0
537564,-51,87,-149,1156,-2005,1219,8006,2621,63,-445,3752,35290,-3,35,127,0,0,2911,-587,0,1812,1158,230,412,0,4,245,-37,537541,0
537574,-1158,274,870,1608,-1025,2397,8846,1486,-1041,-1293,1040,35313,-103,35,127,0,0,2804,-1016,0,1812,1158,230,422,0,4,245,-37,537541,0
537584,-1604,326,1517,1394,-1074,3303,9162,282,-1848,-1860,-504,35327,-150,35,127,0,0,2741,-554,0,1812,1158,230,432,0,4,245,-37,537572,0
537594,-1051,91,1059,1272,-609,4346,9036,-329,-1892,-425,-368,35326,-162,35,127,0,0,2748,54,0,1812,1158,230,442,0,4,245,-37,537572,0
537604,-226,70,456,1272,32,5212,8903,-220,-848,291,208,35317,-132,35,127,0,0,2789,472,0,1812,1158,230,452,0,4,245,-37,537572,0
537614,264,416,252,1081,1398,6723,8973,236,397,642,648,35309,-106,35,127,0,0,2853,703,0,1812,1158,230,462,0,4,245,-37,537572,0
537624,298,512,321,1001,2249,7562,9133,406,564,681,1104,35311,-96,35,127,0,0,2942,895,0,1812,1158,230,472,0,4,245,-37,537603,0
537634,244,245,434,1086,2749,8381,9374,582,323,783,1648,35319,-81,35,127,0,0,3057,1192,0,1812,1158,230,482,0,4,245,-37,537619,0
537644,423,42,375,1321,2743,8734,9678,810,343,893,2352,35315,-86,35,127,0,0,3198,1510,0,1812,1158,230,492,0,4,245,-37,537619,0
537654,817,-27,177,1566,2542,9337,10136,1106,444,1006,3168,35298,-49,35,127,0,0,3381,1790,0,1812,1158,230,502,0,4,245,-37,537619,0
537664,1033,-163,-81,1700,2512,9723,10754,1471,564,1056,4032,35289,-11,35,127,0,0,3592,2098,0,1812,1158,230,512,0,4,245,-37,537650,0
537674,1435,-283,-439,1752,2851,10032,11520,1769,589,1033,4936,35287,23,35,127,0,0,3823,2356,0,1812,1158,230,522,0,4,245,-37,537650,0
537684,1553,-496,-465,1708,3302,9986,12421,2059,529,959,5520,35277,35,35,127,0,0,4053,2263,0,1812,1158,230,532,0,4,245,-37,537650,0
537695,1722,-1075,-316,1604,4028,9496,13529,2288,435,733,5688,35271,40,35,127,0,0,4278,2032,0,1812,1158,230,543,0,4,245,-37,537666,0
537705,1912,-1655,88,1491,4880,8829,14613,2409,320,473,5496,35260,34,35,127,0,0,4456,1746,0,1812,1158,230,553,0,4,245,-37,537666,0
537715,2043,-2089,357,1330,5339,8461,15683,2304,88,252,4928,35279,9,35,127,0,0,4594,1351,0,1812,1158,230,563,0,4,245,-37,537744,0
537725,2295,-2663,583,1172,5827,7953,16639,2018,-280,182,4296,35284,-32,35,127,0,0,4713,1164,0,1812,1158,230,573,0,4,245,-37,537744,0
537735,2322,-2728,632,1071,5871,7778,17473,1762,-458,199,3904,35292,-52,35,127,0,0,4827,1153,0,1812,1158,230,583,0,4,245,-37,537759,0
537745,2590,-2930,581,775,5663,7513,18225,1612,-543,306,3704,35281,-55,35,127,0,0,4952,1274,0,1812,1158,230,593,0,4,245,-37,537759,0
537755,2593,-3105,597,566,5221,7309,18930,1542,-302,519,3680,35279,-64,35,127,0,0,5093,1428,0,1812,1158,230,603,0,4,245,-37,537759,0
537765,2529,-3589,549,310,4177,6858,19637,1554,86,607,3864,35279,-46,35,127,0,0,5244,1538,0,1812,1158,230,613,0,4,245,-37,537759,0
537775,2772,-3481,524,1,3549,6395,20353,1584,21,684,4104,35278,-30,35,127,0,0,5411,1658,0,1812,1158,230,623,0,4,245,-37,537759,0
537785,2342,-3987,1144,-552,2037,5888,21100,1678,75,708,3600,35270,-4,35,127,0,0,5574,1625,0,1812,1158,230,633,0,4,245,-37,537759,0
537795,2190,-4482,914,-671,867,5364,21794,1412,-20,-298,1256,35275,-32,35,127,0,0,5732,1571,0,1812,1158,230,643,0,4,245,-37,537759,0
537805,1561,-4521,613,-474,-963,4297,22190,548,-645,-1844,-776,35299,-60,35,127,0,0,5851,1142,0,1812,1158,230,653,0,4,245,-37,537775,0
537815,1591,-4295,321,-181,-1785,3331,22003,-582,-1711,-1014,-2144,35313,-79,35,127,0,0,5917,560,0,1812,1158,230,663,0,4,245,-37,537791,0
537825,1479,-3325,393,-84,-2663,2636,21577,-1112,-1557,-1354,-3536,35301,-42,35,127,0,0,5947,318,0,1812,1158,230,673,0,4,245,-37,537791,0
537835,1064,-2644,226,-161,-3049,2198,20918,-1573,-901,-1225,-4624,35288,6,35,127,0,0,5974,274,0,1812,1158,230,683,0,4,245,-37,537837,0
537845,523,-1860,75,-493,-3519,1406,20072,-1963,-799,-978,-5208,35278,52,35,127,0,0,6011,384,0,1812,1158,230,693,0,4,245,-37,537837,0
537855,358,-1682,-109,-573,-3748,746,19099,-2202,-602,-657,-5344,35281,60,35,127,0,0,6064,538,0,1812,1158,230,703,0,4,245,-37,537837,0
537865,263,-1348,-550,-535,-3675,-321,18083,-2230,-331,-475,-5320,35274,43,35,127,0,0,6123,571,0,1812,1158,230,713,0,4,245,-37,537837,0
537875,128,-1043,-734,-465,-3290,-1135,17081,-2192,-48,-509,-5408,35268,34,35,127,0,0,6169,428,0,1812,1158,230,723,0,4,245,-37,537837,0
537885,-48,-687,-822,-400,-2352,-2417,16057,-2292,3,-650,-5736,35270,22,35,127,0,0,6187,131,0,1812,1158,230,733,0,4,245,-37,537888,0
537895,-219,-750,-724,-383,-1619,-3046,14952,-2486,-210,-713,-5992,35273,28,35,127,0,0,6194,21,0,1812,1158,230,743,0,4,245,-37,537888,0
537905,997,-6467,1075,414,2740,-3613,13799,-2548,-257,-729,-6384,35269,27,35,127,0,0,6104,-1076,0,1512,1031,231,1,1,4,227,-54,537888,0
537915,-2627,-9173,97,453,4989,-8528,12548,-2986,-234,-2837,-10280,35226,179,35,127,0,0,5543,-6031,0,1512,1031,231,11,1,4,227,-54,537888,0
537925,-4061,871,3376,2118,6141,-11560,10709,-4227,-1393,476,-2648,35212,236,35,127,0,0,4776,-7789,0,1512,1031,231,21,1,4,227,-54,537888,0
537935,-1675,2669,-1892,-929,4589,-9811,10338,1080,1420,9442,7064,35188,371,35,127,0,0,4146,-6163,0,1512,1031,231,31,1,4,227,-54,537919,0
537945,2368,-2459,-26,-2120,-921,-7202,11630,3174,6489,1677,4808,35178,372,35,127,0,0,3621,-5174,0,1512,1031,231,41,1,4,227,-54,537935,0
537955,1115,-4349,-809,-702,-2997,-6095,12519,1116,2412,-4826,-1560,35249,84,35,127,0,0,3201,-4152,0,1512,1031,231,51,1,4,227,-54,537935,0
537965,-6506,-3310,-193,613,-591,-7879,12145,-1331,-3388,-2928,-5216,35228,142,35,127,0,0,2742,-4702,0,1512,1031,231,61,1,4,227,-54,537935,0
537976,-3875,-3567,-351,214,2575,-8931,10990,-2742,-3468,-2061,-7816,35268,56,35,127,0,0,2239,-4537,0,1512,1031,231,72,1,4,227,-54,537935,0
537986,-2083,6490,2471,1286,1786,-6503,9342,-3750,-2296,277,-7616,35253,151,35,127,0,0,1922,-3262,0,1512,1031,231,82,1,4,227,-54,537966,0
537996,-1920,-5692,-82,-97,517,-8657,7808,-3286,-868,41,-7312,35272,81,35,127,0,0,1651,-2982,0,1512,1031,231,92,1,4,227,-54,537966,0
538006,614,-64,-200,307,1755,-8287,6393,-2990,483,-106,-6464,35292,-33,35,127,0,0,1463,-2059,0,1512,1031,231,102,1,4,227,-54,537966,0
538016,819,-797,-2047,695,2453,-8976,5163,-2632,589,-557,-6976,35301,-26,35,127,0,0,1188,-2801,0,1512,1031,231,112,1,4,227,-54,537997,0
538026,4414,-598,467,1550,1279,-7468,3912,-2843,337,-1084,-7544,35285,27,35,127,0,0,955,-2323,0,1512,1031,231,122,1,4,227,-54,537997,0
538036,3894,-1372,1631,1124,222,-5883,2565,-2928,-270,12,-5128,35282,35,35,127,0,0,769,-1763,0,1512,1031,231,132,1,4,227,-54,537997,0
538046,2071,-1982,3434,-65,-1033,-4251,1443,-2203,231,829,-2880,35289,-8,35,127,0,0,652,-977,0,1512,1031,231,142,1,4,227,-54,538028,0
538056,1475,-2179,1626,-912,-1388,-3939,711,-1383,1215,585,-1416,35317,-94,35,127,0,0,569,-796,0,1512,1031,231,152,1,4,227,-54,538028,0
538066,1708,-2318,168,-440,-970,-3882,265,-815,1311,279,-528,35336,-138,35,127,0,0,494,-747,0,1512,1031,231,162,1,4,227,-54,538044,0
538076,1383,-2234,-368,-7,-650,-3789,26,-405,942,174,-48,35325,-106,35,127,0,0,424,-697,0,1512,1031,231,172,1,4,227,-54,538060,0
538086,1558,-2816,996,-137,-784,-3251,-27,-12,747,237,24,35316,-85,35,127,0,0,376,-411,0,1512,1031,231,182,1,4,227,-54,538091,0
538096,1399,-3000,1507,-566,-1085,-2822,-8,32,499,65,16,35312,-66,35,127,0,0,369,-32,0,1512,1031,231,192,1,4,227,-54,538091,0
538106,987,-3041,898,-1026,-1629,-2630,-4,-4,82,24,8,35315,-61,35,127,0,0,395,307,0,1512,1031,231,202,1,4,227,-54,538106,0
538116,1065,-3513,245,-673,-1659,-2620,-1,6,-33,54,8,35313,-66,35,127,0,0,441,477,0,1512,1031,231,212,1,4,227,-54,538106,0
538126,812,-3815,104,-78,-2083,-2820,20,89,27,281,176,35306,-65,35,127,0,0,507,664,0,1512,1031,231,222,1,4,227,-54,538122,0
538136,642,-4462,778,264,-2445,-3040,85,161,125,494,472,35305,-74,35,127,0,0,603,917,0,1512,1031,231,232,1,4,227,-54,538122,0
538146,-421,-4338,1121,444,-2848,-3023,220,361,209,581,872,35315,-60,35,127,0,0,734,1334,0,1512,1031,231,242,1,4,227,-54,538122,0
538156,80,-3904,693,484,-2696,-3366,427,492,285,542,1144,35319,-49,35,127,0,0,912,1741,0,1512,1031,231,252,1,4,227,-54,538122,0
538166,-101,-4032,-41,830,-2932,-3255,667,540,202,471,1144,35324,-50,35,127,0,0,1108,1999,0,1512,1031,231,262,1,4,227,-54,538153,0
538176,-320,-3540,-41,1121,-3001,-3005,914,550,76,423,1656,35313,-45,35,127,0,0,1346,2422,0,1512,1031,231,272,1,4,227,-54,538153,0
538186,-502,-2587,196,1322,-2668,-2987,1315,1136,284,1751,3760,35307,-15,35,127,0,0,1610,2592,0,1512,1031,231,282,1,4,227,-54,538153,0
538196,-363,-2153,206,1295,-2624,-2793,2071,1854,1008,1441,5120,35289,38,35,127,0,0,1896,2894,0,1512,1031,231,292,1,4,227,-54,538169,0
538207,-76,-1330,394,1210,-3100,-1960,3166,2327,1102,1226,6224,35285,76,35,127,0,0,2256,3416,0,1512,1031,231,303,1,4,227,-54,538169,0
538217,154,-24,534,1103,-4025,-1004,4325,2626,717,1145,7032,35278,125,35,127,0,0,2594,3383,0,1512,1031,231,313,1,4,227,-54,538200,0
538227,205,663,490,1035,-4805,-330,5617,2962,527,1043,7784,35280,146,35,127,0,0,2953,3515,0,1512,1031,231,323,1,4,227,-54,538216,0
538237,391,1435,-113,637,-6022,571,7101,3381,631,933,8456,35267,170,35,127,0,0,3322,3702,0,1512,1031,231,333,1,4,227,-54,538216,0
538247,-534,2441,-709,287,-6340,1846,8695,3531,597,936,8648,35252,183,35,127,0,0,3632,3043,0,1512,1031,231,343,1,4,227,-54,538216,0
538257,1246,991,-853,-232,-4812,1731,10307,3563,237,478,8232,35252,161,35,127,0,0,3834,1790,0,1512,1031,231,353,1,4,227,-54,538247,0
538267,-434,-178,46,718,-3740,1211,11837,3195,-95,-308,5200,35281,72,35,127,0,0,3777,-769,0,1512,1031,231,363,0,4,227,-54,538247,0
538277,-1714,-270,1097,1437,-2160,2138,12882,1829,-1066,-2087,1280,35326,-79,35,127,0,0,3610,-1669,0,1512,1031,231,373,0,4,227,-54,538247,0
538287,-2113,-32,1787,1219,-1586,3044,13196,91,-2347,-2709,-1088,35346,-149,35,127,0,0,3471,-1329,0,1512,1031,231,383,0,4,227,-54,538247,0
538297,-1477,-239,954,915,-1145,4270,12949,-641,-2549,-635,-1536,35335,-150,35,127,0,0,3401,-648,0,1512,1031,231,393,0,4,227,-54,538278,0
538307,-809,-333,117,1007,-631,4980,12637,-689,-1173,-251,-1184,35322,-90,35,127,0,0,3390,-98,0,1512,1031,231,403,0,4,227,-54,538278,0
538317,-530,-32,-150,1645,427,5625,12361,-570,-39,-68,-592,35311,-53,35,127,0,0,3394,43,0,1512,1031,231,413,0,4,227,-54,538278,0
538327,142,203,-28,1859,1139,6053,12160,-377,207,84,8,35327,-57,35,127,0,0,3416,208,0,1512,1031,231,423,0,4,227,-54,538310,0
538337,885,380,506,1843,2125,7203,12143,116,497,640,360,35328,-62,35,127,0,0,3454,406,0,1512,1031,231,433,0,4,227,-54,538310,0
538347,1428,199,583,1669,2683,8091,12261,298,630,539,752,35322,-74,35,127,0,0,3520,714,0,1512,1031,231,443,0,4,227,-54,538310,0
538357,1161,-118,467,1690,2988,8812,12440,435,359,639,1176,35318,-76,35,127,0,0,3601,812,0,1512,1031,231,453,0,4,227,-54,538325,0
538367,1123,-243,208,1789,2907,8771,12692,616,259,669,1664,35318,-56,35,127,0,0,3693,922,0,1512,1031,231,463,0,4,227,-54,538341,0
538377,1511,-608,-216,2085,2766,8591,13019,758,279,673,2104,35322,-35,35,127,0,0,3794,999,0,1512,1031,231,473,0,4,227,-54,538341,0
538387,1700,-837,-460,2153,2857,8563,13418,931,283,740,2472,35311,-17,35,127,0,0,3911,1186,0,1512,1031,231,483,0,4,227,-54,538356,0
538397,1781,-1059,-530,2219,3382,8419,13895,1101,292,770,2840,35301,-13,35,127,0,0,4038,1285,0,1512,1031,231,493,0,4,227,-54,538372,0
538407,1875,-1282,-411,2114,3843,8190,14457,1287,317,714,3120,35298,-18,35,127,0,0,4177,1362,0,1512,1031,231,503,0,4,227,-54,538388,0
538417,2132,-1871,-101,1784,4406,7862,15081,1404,281,601,3360,35298,-23,35,127,0,0,4324,1461,0,1512,1031,231,513,0,4,227,-54,538388,0
538427,2413,-2107,41,1510,4694,7659,15742,1471,187,659,3680,35303,-27,35,127,0,0,4478,1614,0,1512,1031,231,523,0,4,227,-54,538403,0
538437,2581,-2434,154,961,4830,7215,16445,1567,154,695,3848,35301,-13,35,127,0,0,4627,1505,0,1512,1031,231,533,0,4,227,-54,538403,0
538447,2662,-2872,118,662,4795,6811,17177,1630,135,688,4032,35304,5,35,127,0,0,4783,1527,0,1512,1031,231,543,0,4,227,-54,538466,0
538458,2598,-3323,166,379,4505,6063,18024,1709,128,594,4088,35313,17,35,127,0,0,4949,1488,0,1512,1031,231,554,0,4,227,-54,538466,0
538468,2884,-3248,134,77,4365,5601,18806,1722,94,572,4056,35305,36,35,127,0,0,5087,1389,0,1512,1031,231,564,0,4,227,-54,538466,0
538478,2715,-3454,713,-687,3670,5223,19576,1675,0,505,4000,35302,28,35,127,0,0,5234,1483,0,1512,1031,231,574,0,4,227,-54,538466,0
538488,2497,-3762,600,-1049,3010,4928,20321,1633,-77,607,4192,35293,28,35,127,0,0,5401,1752,0,1512,1031,231,584,0,4,227,-54,538466,0
538498,2158,-4052,398,-1318,2026,4152,21085,1714,-5,671,3704,35284,15,35,127,0,0,5568,1686,0,1512,1031,231,594,0,4,227,-54,538466,0
538508,2130,-4236,417,-1225,1358,3698,21779,1395,-71,-324,1216,35292,-2,34,127,0,0,5711,1444,0,1512,1031,231,604,0,4,227,-54,538481,0
538518,1684,-3650,331,-1163,659,2986,22113,316,-798,-2060,-848,35316,-34,35,127,0,0,5829,1115,0,1512,1031,231,614,0,4,227,-54,538513,0
538528,1360,-3158,385,-1211,354,2161,21890,-636,-1803,-1111,-2176,35330,-62,35,127,0,0,5904,719,0,1512,1031,231,624,0,4,227,-54,538513,0
538538,1144,-2554,-167,-1062,24,1096,21449,-1111,-1461,-1225,-3384,35331,-51,35,127,0,0,5944,351,0,1512,1031,231,634,0,4,227,-54,538513,0
538548,899,-2194,-336,-1017,-47,595,20814,-1511,-789,-1141,-4248,35298,1,35,127,0,0,5967,236,0,1512,1031,231,644,0,4,227,-54,538559,0
538558,387,-1393,-449,-739,-205,-165,20024,-1820,-664,-933,-4920,35275,32,35,127,0,0,5999,274,0,1512,1031,231,654,0,4,227,-54,538559,0
538568,59,-785,-579,-680,-162,-794,19083,-2173,-580,-914,-5656,35265,58,35,127,0,0,6030,379,0,1512,1031,231,664,0,4,227,-54,538559,0
538578,-58,-471,-738,-731,249,-1597,18001,-2433,-569,-765,-5784,35270,87,35,127,0,0,6080,510,0,1512,1031,231,674,0,4,227,-54,538559,0
538588,2193,-9894,-887,-665,793,-2779,16920,-2346,-274,-466,-5944,35280,73,35,127,0,0,6039,-648,0,1512,1031,231,684,0,4,227,-54,538559,0
538598,-5063,-6104,3950,1702,5170,-9660,15652,-3272,-272,-3580,-11288,35256,143,35,127,0,0,5362,-7399,0,3157,1104,232,6,1,4,232,-34,538575,0
538608,151,1993,2760,1629,8518,-11926,13897,-3177,-1527,3333,-336,35223,267,35,127,0,0,4627,-7580,0,3157,1104,232,16,1,4,232,-34,538575,0
538618,1988,1395,-985,-1961,1759,-8680,14158,1988,2997,7934,4216,35222,334,35,127,0,0,4016,-5883,0,3157,1104,232,26,1,4,232,-34,538606,0
538628,3686,-5161,-358,-1950,-2131,-6401,14801,560,5115,-4335,-2352,35228,287,35,127,0,0,3562,-4471,0,3157,1104,232,36,1,4,232,-34,538606,0
538638,-3666,-4240,1669,793,-7643,-5134,14208,-1722,-1959,-2474,-4952,35272,94,35,127,0,0,3254,-2949,0,3157,1104,232,46,1,4,232,-34,538606,0
538648,-5185,-3952,660,961,-3239,-7431,13340,-2237,-3122,-1577,-6544,35215,201,35,127,0,0,2870,-3922,0,3157,1104,232,56,1,4,232,-34,538606,0
538658,-1243,-4932,-933,382,2952,-7849,12129,-2869,-1184,-1554,-7952,35232,167,35,127,0,0,2479,-3713,0,3157,1104,232,66,1,4,232,-34,538638,0
538668,796,-2720,-2060,-67,1752,-7059,10632,-3449,-1059,-535,-8152,35236,179,35,127,0,0,2143,-3164,0,3157,1104,232,76,1,4,232,-34,538638,0
538678,1040,-1970,-1514,-359,806,-7109,9031,-3506,-701,-120,-7944,35248,126,35,127,0,0,1814,-3224,0,3157,1104,232,86,1,4,232,-34,538638,0
538688,1,-3537,-566,-113,763,-6928,7467,-3406,-55,-129,-7848,35258,66,35,127,0,0,1529,-2905,0,3157,1104,232,96,1,4,232,-34,538653,0
538699,-238,-3714,1863,1129,896,-6780,5848,-3134,276,-433,-7440,35282,12,35,127,0,0,1283,-2241,0,3157,1104,232,107,1,4,232,-34,538684,0
538709,1294,-2521,2051,686,521,-6213,4510,-2869,439,-426,-7048,35298,2,35,127,0,0,1096,-1834,0,3157,1104,232,117,1,4,232,-34,538700,0
538719,2399,-3282,2157,229,-256,-5475,3230,-2826,330,-399,-6456,35286,24,35,127,0,0,958,-1384,0,3157,1104,232,127,1,4,232,-34,538700,0
538729,1962,-3030,1389,-27,-1674,-4226,2010,-2564,205,207,-4016,35272,12,35,127,0,0,885,-659,0,3157,1104,232,137,1,4,232,-34,538716,0
538739,1022,-3085,1146,-38,-2051,-3824,1068,-1828,725,696,-2136,35277,-42,35,127,0,0,859,-219,0,3157,1104,232,147,1,4,232,-34,538716,0
538749,591,-2480,209,-133,-1675,-3770,468,-1129,1346,455,-936,35296,-84,35,127,0,0,865,43,0,3157,1104,232,157,1,4,232,-34,538716,0
538759,882,-2355,-111,-121,-1277,-3791,122,-625,989,187,-240,35324,-101,35,127,0,0,874,98,0,3157,1104,232,167,1,4,232,-34,538763,0
538769,1255,-2454,101,-70,-1069,-3629,-30,-195,690,328,64,35331,-74,35,127,0,0,898,241,0,3157,1104,232,177,1,4,232,-34,538763,0
538779,1539,-2888,522,-25,-1358,-3386,-12,76,707,141,24,35323,-54,35,127,0,0,940,461,0,3157,1104,232,187,1,4,232,-34,538763,0
538789,855,-3392,1141,219,-2295,-3058,15,56,335,93,48,35311,-56,35,127,0,0,1012,736,0,3157,1104,232,197,1,4,232,-34,538763,0
538799,511,-4357,1072,301,-2978,-3166,59,134,35,672,928,35298,-67,35,127,0,0,1116,1098,0,3157,1104,232,207,1,4,232,-34,538778,0
538809,-534,-4923,967,590,-3722,-3068,277,631,349,1129,2176,35292,-42,35,127,0,0,1267,1571,0,3157,1104,232,217,1,4,232,-34,538778,0
538819,-999,-4724,649,614,-4346,-2997,728,1149,793,1296,3600,35283,-14,35,127,0,0,1483,2219,0,3157,1104,232,227,1,4,232,-34,538856,0
538829,-1388,-4126,316,961,-4902,-2985,1429,1705,929,1268,4824,35272,14,35,127,0,0,1755,2757,0,3157,1104,232,237,1,4,232,-34,538856,0
538839,-1622,-3380,-10,1055,-4779,-2733,2374,2234,950,1294,5968,35264,51,35,127,0,0,2078,3240,0,3157,1104,232,247,1,4,232,-34,538856,0
538849,-1766,-1860,230,1346,-4777,-2066,3515,2605,842,1182,6872,35245,94,35,127,0,0,2427,3460,0,3157,1104,232,257,1,4,232,-34,538856,0
538859,-1087,-245,60,1690,-4571,-1677,4768,2827,583,1060,7616,35233,142,35,127,0,0,2781,3526,0,3157,1104,232,267,1,4,232,-34,538872,0
538869,619,2453,-543,1299,-5568,-1420,6173,3206,496,917,8088,35222,162,35,127,0,0,3128,3438,0,3157,1104,232,277,1,4,232,-34,538872,0
538879,1532,2619,-1036,553,-6031,-755,7721,3426,584,600,8072,35229,163,35,127,0,0,3383,2416,0,3157,1104,232,287,1,4,232,-34,538872,0
538889,1777,652,-1697,-397,-3399,367,9204,3184,152,193,6808,35240,124,35,127,0,0,3500,955,0,3157,1104,232,297,1,4,232,-34,538872,0
538899,-1514,-107,-504,459,-3538,522,10538,2788,-406,-504,3816,35257,54,35,127,0,0,3434,-812,0,3157,1104,232,307,0,4,232,-34,538872,0
538909,-2429,-52,728,1293,-2278,888,11431,1571,-1110,-1537,1000,35290,-75,35,127,0,0,3324,-1131,0,3157,1104,232,317,0,4,232,-34,538872,0
538919,-2629,-321,1272,826,-1638,1445,11739,169,-1978,-2334,-864,35322,-144,35,127,0,0,3223,-955,0,3157,1104,232,327,0,4,232,-34,538903,0
538929,-1844,-964,707,763,-1240,2686,11540,-501,-2139,-489,-1056,35343,-144,35,127,0,0,3186,-296,0,3157,1104,232,337,0,4,232,-34,538903,0
538939,-794,-556,14,658,39,3814,11294,-529,-1029,-148,-408,35322,-87,35,127,0,0,3216,329,0,3157,1104,232,347,0,4,232,-34,538919,0
538949,-421,456,61,636,2330,4978,11145,-141,82,961,448,35307,-55,35,127,0,0,3276,604,0,3157,1104,232,357,0,4,232,-34,538919,0
538960,129,740,108,647,2920,5415,11285,369,765,588,848,35299,-64,35,127,0,0,3336,571,0,3157,1104,232,368,0,4,232,-34,538950,0
538970,763,252,242,666,3379,6144,11476,443,602,494,1000,35318,-68,35,127,0,0,3387,510,0,3157,1104,232,378,0,4,232,-34,538950,0
538980,1040,-132,491,786,3557,6929,11693,486,146,540,1240,35315,-64,35,127,0,0,3462,796,0,3157,1104,232,388,0,4,232,-34,538950,0
538990,1356,-77,989,898,3460,7961,11946,603,100,687,1712,35307,-54,35,127,0,0,3566,1054,0,3157,1104,232,398,0,4,232,-34,538950,0
539000,1701,26,881,935,3216,8445,12278,795,226,848,2384,35291,-48,35,127,0,0,3696,1301,0,3157,1104,232,408,0,4,232,-34,538981,0
539010,2108,-35,256,1090,3021,8759,12722,1054,363,907,2952,35299,-40,35,127,0,0,3839,1367,0,3157,1104,232,418,0,4,232,-34,538981,0
539020,2255,-195,-21,1256,2964,8797,13269,1253,408,782,3288,35295,-28,35,127,0,0,3970,1340,0,3157,1104,232,428,0,4,232,-34,538981,0
539030,2367,-401,34,1268,2789,8551,13884,1373,333,576,3376,35289,-9,35,127,0,0,4097,1263,0,3157,1104,232,438,0,4,232,-34,538997,0
539040,2358,-672,245,1244,2742,8272,14532,1442,192,512,3328,35287,-14,35,127,0,0,4220,1246,0,3157,1104,232,448,0,4,232,-34,539028,0
539050,2558,-1078,445,1147,2809,7878,15192,1451,83,460,3312,35305,-25,35,127,0,0,4339,1181,0,3157,1104,232,458,0,4,232,-34,539028,0
539060,2683,-1423,382,1003,2957,7692,15842,1426,4,516,3344,35316,-31,35,127,0,0,4476,1312,0,3157,1104,232,468,0,4,232,-34,539028,0
539070,2561,-1818,320,750,3303,7359,16487,1422,-28,582,3408,35311,-20,35,127,0,0,4606,1323,0,3157,1104,232,478,0,4,232,-34,539028,0
539080,2504,-2067,334,627,3529,7049,17140,1445,4,622,3640,35304,-5,35,127,0,0,4739,1351,0,3157,1104,232,488,0,4,232,-34,539059,0
539090,2476,-2486,352,545,3836,6507,17825,1534,77,621,3816,35307,-11,35,127,0,0,4897,1472,0,3157,1104,232,498,0,4,232,-34,539059,0
539100,2394,-2823,308,497,3969,6266,18550,1622,135,684,3976,35307,-11,35,127,0,0,5055,1625,0,3157,1104,232,508,0,4,232,-34,539075,0
539110,2494,-3065,326,265,4111,5811,19310,1701,150,722,4288,35307,9,35,127,0,0,5222,1735,0,3157,1104,232,518,0,4,232,-34,539075,0
539120,2398,-3142,631,-162,4069,5436,20104,1749,134,680,4496,35308,19,35,127,0,0,5397,1768,0,3157,1104,232,528,0,4,232,-34,539091,0
539130,2092,-3880,668,-478,3513,4737,20923,1836,104,678,3752,35316,22,35,127,0,0,5582,1746,0,3157,1104,232,538,0,4,232,-34,539106,0
539140,1896,-4322,433,-524,3030,3990,21666,1511,-70,-334,1448,35325,-10,35,127,0,0,5739,1510,0,3157,1104,232,548,0,4,232,-34,539106,0
539150,1606,-4501,355,-226,2266,2810,22079,554,-751,-1994,-776,35342,-55,35,127,0,0,5843,1032,0,3157,1104,232,558,0,4,232,-34,539122,0
539160,1600,-4229,248,-128,1906,1825,21875,-630,-1850,-1183,-2248,35347,-75,35,127,0,0,5910,571,0,3157,1104,232,568,0,4,232,-34,539137,0
539170,1278,-3038,301,-203,1327,473,21432,-1110,-1624,-1158,-3248,35352,-79,35,127,0,0,5934,236,0,3157,1104,232,578,0,4,232,-34,539153,0
539180,1142,-2380,30,-173,969,-294,20838,-1388,-742,-915,-3776,35347,-39,35,127,0,0,5941,82,0,3157,1104,232,588,0,4,232,-34,539200,0
539190,942,-1452,-383,-246,351,-1133,20137,-1619,-482,-912,-4392,35340,-6,35,127,0,0,5968,318,0,3157,1104,232,598,0,4,232,-34,539200,0
539201,606,-939,-466,-246,-53,-1950,19194,-2030,-491,-1156,-5592,35319,29,35,127,0,0,6018,472,0,3157,1104,232,609,0,4,232,-34,539216,0
539211,629,-2392,-514,-320,-199,-2474,18094,-2583,-742,-1418,-6648,35310,61,35,127,0,0,6064,505,0,3157,1104,232,619,0,4,232,-34,539216,0
539221,933,-12071,1579,652,6327,-7216,16855,-2758,-731,-1240,-8688,35297,95,35,127,0,0,5660,-4833,0,2056,933,233,5,1,4,262,-38,539216,0
539231,-2027,-2357,4107,1951,3565,-11040,15069,-4540,-1264,-2948,-5360,35249,264,35,127,0,0,4939,-7053,0,2056,933,233,15,1,4,262,-38,539216,0
539241,-2093,4585,-1194,-348,2982,-9805,14142,-476,231,8676,5864,35248,187,35,127,0,0,4229,-6987,0,2056,933,233,25,1,4,262,-38,539216,0
539251,4576,-3027,-533,-2215,-578,-7750,14941,1712,5385,-901,-680,35226,286,35,127,0,0,3713,-5053,0,2056,933,233,35,1,4,262,-38,539216,0
539261,-1156,-4835,-11,-213,-4510,-4903,14661,-1442,1134,-4114,-5128,35277,160,35,127,0,0,3309,-3867,0,2056,933,233,45,1,4,262,-38,539231,0
539271,-1995,-3607,1272,751,-444,-6261,13657,-2400,-3691,-1659,-6720,35301,159,35,127,0,0,2939,-3922,0,2056,933,233,55,1,4,262,-38,539262,0
539281,-5657,-3893,-308,124,983,-7804,12391,-2969,-1776,-1569,-8296,35292,150,35,127,0,0,2529,-4229,0,2056,933,233,65,1,4,262,-38,539262,0
539291,1264,-5255,-1470,-574,1414,-7198,10742,-3891,-1212,44,-8120,35257,215,35,127,0,0,2210,-3251,0,2056,933,233,75,1,4,262,-38,539262,0
539301,1299,-7706,-2834,-866,372,-7865,8910,-3965,-1128,1027,-7768,35290,67,35,127,0,0,1834,-3768,0,2056,933,233,85,1,4,262,-38,539262,0
539311,-2963,-2739,1337,-88,150,-7162,7158,-3747,-163,710,-7688,35338,-90,35,127,0,0,1509,-3120,0,2056,933,233,95,1,4,262,-38,539278,0
539321,-1509,-2508,948,754,863,-7673,5632,-3195,594,-75,-7216,35383,-196,35,127,0,0,1287,-2197,0,2056,933,233,105,1,4,262,-38,539278,0
539331,1141,-968,520,305,3219,-8340,4318,-2791,862,-351,-7328,35381,-180,35,127,0,0,1045,-2570,0,2056,933,233,115,1,4,262,-38,539309,0
539341,3198,-844,-544,474,575,-7265,2987,-3012,375,-680,-6240,35352,-70,35,127,0,0,819,-2263,0,2056,933,233,125,1,4,262,-38,539309,0
539351,4240,-1548,317,419,-30,-5599,1742,-2548,67,557,-3704,35327,-26,35,127,0,0,654,-1560,0,2056,933,233,135,1,4,262,-38,539356,0
539361,2780,-1677,2038,530,-998,-3997,874,-1644,910,791,-1880,35329,-61,35,127,0,0,555,-955,0,2056,933,233,145,1,4,262,-38,539372,0
539371,1412,-2026,2252,112,-1378,-3687,340,-996,1385,413,-760,35334,-114,35,127,0,0,483,-670,0,2056,933,233,155,1,4,262,-38,539372,0
539381,1270,-2652,638,-211,-1168,-3559,42,-521,1093,187,-128,35345,-157,35,127,0,0,421,-582,0,2056,933,233,165,1,4,262,-38,539372,0
539391,1406,-2717,-428,-166,-908,-3381,-44,-29,848,422,96,35340,-121,35,127,0,0,380,-406,0,2056,933,233,175,1,4,262,-38,539372,0
539401,1303,-3523,-62,-204,-969,-2964,-9,55,661,64,24,35334,-115,35,127,0,0,366,-65,0,2056,933,233,185,1,4,262,-38,539372,0
539411,258,-4295,1013,-185,-1147,-2926,-4,1,146,31,16,35325,-105,35,127,0,0,395,318,0,2056,933,233,195,1,4,262,-38,539372,0
539421,282,-5148,1933,-215,-1817,-3238,6,50,-58,210,96,35325,-100,35,127,0,0,461,681,0,2056,933,233,205,1,4,262,-38,539387,0
539431,606,-5623,1477,36,-2528,-3629,69,172,120,490,464,35337,-95,35,127,0,0,562,1010,0,2056,933,233,215,1,4,262,-38,539419,0
539441,-304,-6402,924,493,-3772,-3464,211,380,241,642,1040,35353,-93,35,127,0,0,718,1647,0,2056,933,233,225,1,4,262,-38,539419,0
539451,-978,-6197,681,765,-4331,-3307,451,601,345,789,1696,35342,-80,35,127,0,0,977,2680,0,2056,933,233,235,1,4,262,-38,539419,0
539462,-1552,-5222,543,1111,-4995,-3047,838,842,399,725,2136,35328,-83,35,127,0,0,1350,3493,0,2056,933,233,246,1,4,262,-38,539419,0
539472,-2123,-3986,-65,1122,-4623,-2667,1325,1291,422,1716,4680,35324,-71,35,127,0,0,1738,3988,0,2056,933,233,256,1,4,262,-38,539450,0
539482,-1773,-557,-90,1519,-3939,-2091,2296,2479,1180,2206,7032,35320,4,35,127,0,0,2181,4400,0,2056,933,233,266,1,4,262,-38,539450,0
539492,-830,2208,-510,1770,-3556,-1821,3655,3128,1731,1421,7928,35288,112,35,127,0,0,2558,3696,0,2056,933,233,276,1,4,262,-38,539466,0
539502,853,3255,-1477,1096,-5285,-836,5110,3235,921,825,8144,35248,187,35,127,0,0,2856,2894,0,2056,933,233,286,1,4,262,-38,539497,0
539512,2073,1274,-1834,298,-4173,327,6606,3303,250,258,7200,35247,165,35,127,0,0,3023,1543,0,2056,933,233,296,1,4,262,-38,539497,0
539522,-1589,276,-354,717,-2769,1048,8010,2933,-74,-288,4776,35283,78,35,127,0,0,3031,5,0,2056,933,233,306,0,4,262,-38,539497,0
539532,-1748,135,633,1051,-1839,1358,9051,1983,-872,-1061,2328,35316,-31,35,127,0,0,2995,-368,0,2056,933,233,316,0,4,262,-38,539497,0
539542,-1872,-389,1006,672,-1252,1970,9669,1111,-1538,-818,632,35324,-120,35,127,0,0,2953,-335,0,2056,933,233,326,0,4,262,-38,539512,0
539552,-1138,-625,693,563,-45,2653,9955,416,-1448,-802,-128,35327,-148,35,127,0,0,2959,16,0,2056,933,233,336,0,4,262,-38,539575,0
539562,-265,-256,-5,509,215,3858,9933,-107,-1245,-79,112,35346,-160,35,127,0,0,2983,313,0,2056,933,233,346,0,4,262,-38,539590,0
539572,-176,259,-122,422,1097,4634,9975,146,-464,499,392,35346,-111,35,127,0,0,3022,384,0,2056,933,233,356,0,4,262,-38,539590,0
539582,27,658,81,296,1925,5382,10072,238,251,644,584,35330,-104,35,127,0,0,3071,527,0,2056,933,233,366,0,4,262,-38,539590,0
539592,395,528,176,246,2012,5956,10219,359,195,611,920,35316,-96,35,127,0,0,3138,736,0,2056,933,233,376,0,4,262,-38,539606,0
539602,906,320,357,244,1923,7068,10425,502,214,693,1456,35315,-99,35,127,0,0,3243,1137,0,2056,933,233,386,0,4,262,-38,539606,0
539612,1202,382,451,231,1852,7733,10732,754,306,887,2192,35318,-91,35,127,0,0,3375,1395,0,2056,933,233,396,0,4,262,-38,539606,0
539622,1503,504,300,224,1755,8485,11167,1038,438,963,2856,35310,-71,35,127,0,0,3528,1549,0,2056,933,233,406,0,4,262,-38,539606,0
539632,1641,476,20,252,1779,8832,11714,1255,461,796,3368,35301,-43,35,127,0,0,3685,1614,0,2056,933,233,416,0,4,262,-38,539606,0
539642,1730,206,-253,357,1935,8971,12277,1415,367,786,3792,35298,-28,35,127,0,0,3838,1532,0,2056,933,233,426,0,4,262,-38,539606,0
539652,1812,35,-289,358,2046,8894,12968,1554,283,669,3960,35313,-13,35,127,0,0,3986,1444,0,2056,933,233,436,0,4,262,-38,539637,0
539662,1893,-351,-153,429,2266,8665,13702,1642,209,556,3984,35327,-39,35,127,0,0,4122,1395,0,2056,933,233,446,0,4,262,-38,539637,0
539672,2059,-687,-82,390,2497,8504,14456,1679,120,483,3912,35318,-42,35,127,0,0,4262,1373,0,2056,933,233,456,0,4,262,-38,539653,0
539682,2235,-1195,-3,280,2924,8251,15220,1676,53,491,3872,35310,-58,35,127,0,0,4412,1499,0,2056,933,233,466,0,4,262,-38,539653,0
539692,2307,-1541,-48,202,3153,8006,15978,1659,-5,554,3920,35302,-44,35,127,0,0,4558,1428,0,2056,933,233,476,0,4,262,-38,539653,0
539703,2473,-1973,-51,178,3363,7664,16800,1640,-32,583,4016,35314,-49,35,127,0,0,4721,1472,0,2056,933,233,487,0,4,262,-38,539684,0
539713,2507,-2419,20,53,3467,7286,17556,1686,5,622,4144,35318,-26,35,127,0,0,4880,1593,0,2056,933,233,497,0,4,262,-38,539684,0
539723,2401,-2708,125,-54,3509,6969,18344,1758,92,654,4288,35317,-28,35,127,0,0,5040,1604,0,2056,933,233,507,0,4,262,-38,539684,0
539733,2231,-3333,310,-249,3482,6452,19158,1796,110,635,4472,35310,-23,35,127,0,0,5209,1691,0,2056,933,233,517,0,4,262,-38,539715,0
539743,2157,-3839,446,-359,3425,6035,19981,1814,64,661,4544,35310,-30,35,127,0,0,5387,1757,0,2056,933,233,527,0,4,262,-38,539715,0
539753,2144,-3816,777,-799,3560,5278,20814,1851,-58,693,4208,35291,-15,35,127,0,0,5552,1614,0,2056,933,233,537,0,4,262,-38,539715,0
539763,1945,-4173,1027,-1033,3243,4942,21589,1592,18,-296,1664,35290,-14,35,127,0,0,5704,1505,0,2056,933,233,547,0,4,262,-38,539747,0
539773,1518,-4435,580,-1141,2534,3750,22072,789,-665,-1399,-464,35303,-49,35,127,0,0,5829,1208,0,2056,933,233,557,0,4,262,-38,539747,0
539783,1404,-4414,386,-955,1970,2532,21959,-501,-1726,-1243,-1880,35332,-82,35,127,0,0,5906,681,0,2056,933,233,567,0,4,262,-38,539747,0
539793,1348,-3512,227,-672,1150,1037,21575,-1007,-1670,-1317,-3136,35335,-92,35,127,0,0,5932,263,0,2056,933,233,577,0,4,262,-38,539762,0
539803,1176,-2803,391,-526,798,315,20991,-1389,-875,-1090,-3952,35317,-58,35,127,0,0,5937,32,0,2056,933,233,587,0,4,262,-38,539762,0
539813,855,-1375,109,-596,303,-762,20278,-1624,-630,-761,-4376,35295,-19,35,127,0,0,5954,186,0,2056,933,233,597,0,4,262,-38,539794,0
539823,752,-889,-72,-588,-38,-1550,19459,-1899,-438,-941,-5184,35309,6,35,127,0,0,5994,395,0,2056,933,233,607,0,4,262,-38,539794,0
539833,585,-718,-346,-297,-166,-2477,18449,-2379,-573,-1335,-6576,35287,26,35,127,0,0,6044,549,0,2056,933,233,617,0,4,262,-38,539794,0
539843,1437,-6865,-606,-19,-727,-3344,17248,-2658,-752,-586,-6224,35266,70,35,127,0,0,6051,54,0,2056,933,233,627,0,4,262,-38,539825,0
539853,-3712,-6042,3269,853,3082,-10275,16010,-2945,-387,-2679,-11088,35260,69,35,127,0,0,5372,-7723,0,2431,872,234,5,1,4,268,-40,539825,0
539863,-991,3036,4769,2181,5179,-10785,14226,-3576,-1237,3374,-152,35213,303,35,127,0,0,4664,-6965,0,2431,872,234,15,1,4,268,-40,539840,0
539873,1085,-482,-1226,-1456,809,-8139,14366,1887,2559,7610,4152,35258,133,35,127,0,0,4069,-5833,0,2431,872,234,25,1,4,268,-40,539840,0
539883,1232,-4620,-473,-1618,-2179,-6401,15091,796,5380,-4715,-2472,35203,311,35,127,0,0,3601,-4614,0,2431,872,234,35,1,4,268,-40,539856,0
539893,-728,-5865,683,241,-1949,-5923,14518,-1736,-1669,-2555,-5232,35239,152,35,127,0,0,3236,-3559,0,2431,872,234,45,1,4,268,-40,539872,0
539903,-3921,-3422,1035,693,1366,-8117,13475,-2525,-3417,-2015,-7304,35230,229,35,127,0,0,2799,-4405,0,2431,872,234,55,1,4,268,-40,539872,0
539913,1710,-5552,-1011,478,1672,-7962,12065,-3383,-1562,-808,-8296,35261,106,35,127,0,0,2443,-3284,0,2431,872,234,65,1,4,268,-40,539997,0
539923,1489,-1103,462,562,802,-7679,10291,-4061,-1446,683,-7760,35236,164,35,127,0,0,2096,-3570,0,2431,872,234,75,1,4,268,-40,539997,0
539933,-1916,-4940,-249,-45,58,-7393,8507,-3828,-737,1004,-7504,35274,31,35,127,0,0,1749,-3460,0,2431,872,234,85,1,4,268,-40,539997,0
539943,-1386,-4093,212,555,258,-7229,6896,-3415,337,198,-7008,35330,-124,35,127,0,0,1520,-2120,0,2431,872,234,95,1,4,268,-40,539997,0
539953,1119,-1127,-766,894,2579,-8008,5525,-2849,780,-27,-6384,35356,-198,35,127,0,0,1307,-2153,0,2431,872,234,105,1,4,268,-40,540012,0
539963,2575,-614,-59,1056,1271,-7893,4334,-2597,827,-743,-6952,35336,-160,35,127,0,0,1063,-2340,0,2431,872,234,115,1,4,268,-40,540012,0
539973,3923,-1914,1023,990,454,-6060,3060,-2897,186,-721,-6120,35284,-40,35,127,0,0,861,-1966,0,2431,872,234,125,1,4,268,-40,540012,0
539983,2807,-2817,2624,785,-622,-4788,1841,-2520,-114,415,-3680,35265,-2,35,127,0,0,725,-1307,0,2431,872,234,135,1,4,268,-40,540012,0
539993,1559,-2218,2194,101,-1530,-3865,963,-1672,769,731,-1920,35281,-32,35,127,0,0,659,-615,0,2431,872,234,145,1,4,268,-40,540012,0
540003,1465,-2042,621,-106,-1343,-3735,414,-1028,1310,385,-824,35304,-87,35,127,0,0,615,-461,0,2431,872,234,155,1,4,268,-40,540012,0
540013,1475,-2016,-851,132,-744,-3484,98,-564,1076,159,-192,35318,-123,35,127,0,0,580,-318,0,2431,872,234,165,1,4,268,-40,540028,0
540023,1425,-2289,-503,172,-440,-3283,-25,-131,806,309,56,35320,-116,35,127,0,0,551,-230,0,2431,872,234,175,1,4,268,-40,540028,0
540033,1254,-2968,1074,-194,-612,-3027,-4,64,656,62,8,35317,-102,35,127,0,0,547,-21,0,2431,872,234,185,1,4,268,-40,540028,0
540044,677,-3487,1544,-352,-953,-2937,7,5,210,-43,-8,35319,-88,35,127,0,0,571,274,0,2431,872,234,196,1,4,268,-40,540028,0
540054,993,-4399,950,-443,-1559,-2920,12,25,-45,96,96,35319,-71,35,127,0,0,628,670,0,2431,872,234,206,1,4,268,-40,540028,0
540064,971,-4826,687,-109,-2237,-2972,57,127,68,421,384,35332,-83,35,127,0,0,727,988,0,2431,872,234,216,1,4,268,-40,540028,0
540074,-445,-5604,769,388,-3068,-2926,169,330,202,715,1008,35345,-86,35,127,0,0,889,1746,0,2431,872,234,226,1,4,268,-40,540075,0
540084,-865,-5305,742,770,-3126,-3153,394,545,353,572,1320,35345,-86,35,127,0,0,1108,2202,0,2431,872,234,236,1,4,268,-40,540075,0
540094,-751,-4488,-125,1124,-2955,-3130,667,626,311,603,2272,35312,-66,35,127,0,0,1375,2708,0,2431,872,234,246,1,4,268,-40,540075,0
540104,-883,-3797,-586,1144,-2912,-2871,1171,1395,499,1939,4472,35282,-19,35,127,0,0,1674,3076,0,2431,872,234,256,1,4,268,-40,540075,0
540114,-893,-2632,-557,1447,-2827,-2053,2060,2194,1227,1671,6120,35269,47,35,127,0,0,2042,3658,0,2431,872,234,266,1,4,268,-40,540075,0
540124,-1036,-1532,-498,1492,-2814,-1433,3250,2783,1323,1517,7352,35254,146,34,127,0,0,2444,3949,0,2431,872,234,276,1,4,268,-40,540106,0
540134,-1016,730,8,1623,-3248,-682,4632,3162,942,1390,8520,35236,210,35,127,0,0,2834,3960,0,2431,872,234,286,1,4,268,-40,540106,0
540144,300,1429,-189,1530,-3986,-338,6222,3672,756,1207,9440,35228,226,35,127,0,0,3266,4202,0,2431,872,234,296,1,4,268,-40,540106,0
540154,1649,2647,-494,1070,-4843,352,8039,4067,862,908,9736,35243,192,35,127,0,0,3610,3317,0,2431,872,234,306,1,4,268,-40,540137,0
540164,1890,1335,-1685,72,-4074,1475,9829,3888,394,275,8504,35260,122,35,127,0,0,3768,1472,0,2431,872,234,316,1,4,268,-40,540137,0
540174,-989,59,-78,338,-3043,1194,11466,3377,-333,-795,4880,35289,-10,35,127,0,0,3676,-1131,0,2431,872,234,326,0,4,268,-40,540137,0
540184,-1945,-99,459,1295,-3379,2213,12475,1705,-1476,-2174,1184,35320,-142,35,127,0,0,3533,-1301,0,2431,872,234,336,0,4,268,-40,540153,0
540194,-2323,137,1165,1060,-3499,3580,12804,225,-2539,-2344,-816,35347,-199,35,127,0,0,3431,-955,0,2431,872,234,346,0,4,268,-40,540153,0
540205,-1524,-174,713,949,-3629,4649,12590,-495,-2235,-439,-936,35360,-177,35,127,0,0,3403,-142,0,2431,872,234,357,0,4,268,-40,540184,0
540215,-756,-150,-4,913,-2928,5413,12367,-480,-896,-138,-456,35336,-92,35,127,0,0,3407,32,0,2431,872,234,367,0,4,268,-40,540184,0
540225,-751,274,-178,1168,-1261,6459,12192,-314,51,101,8,35326,-58,35,127,0,0,3414,87,0,2431,872,234,377,0,4,268,-40,540184,0
540235,-857,652,-18,1259,-328,6898,12168,53,388,415,208,35332,-85,35,127,0,0,3432,175,0,2431,872,234,387,0,4,268,-40,540231,0
540245,-320,439,228,1176,986,7539,12239,188,487,378,296,35341,-99,35,127,0,0,3460,307,0,2431,872,234,397,0,4,268,-40,540231,0
540255,-4,12,311,1176,2096,8115,12342,234,235,430,520,35342,-94,35,127,0,0,3511,494,0,2431,872,234,407,0,4,268,-40,540231,0
540265,233,-238,638,992,4036,8886,12480,344,124,601,840,35323,-75,35,127,0,0,3570,615,0,2431,872,234,417,0,4,268,-40,540231,0
540275,401,-288,630,755,5275,9275,12667,452,165,609,1232,35306,-57,35,127,0,0,3647,769,0,2431,872,234,427,0,4,268,-40,540247,0
540285,555,-583,300,314,6863,9408,12918,591,221,707,1680,35306,-79,35,127,0,0,3737,922,0,2431,872,234,437,0,4,268,-40,540262,0
540295,731,-895,138,243,7666,9273,13241,749,266,708,1984,35308,-73,35,127,0,0,3827,922,0,2431,872,234,447,0,4,268,-40,540278,0
540305,1187,-1319,318,167,8295,9050,13626,883,257,635,2208,35310,-50,35,127,0,0,3922,988,0,2431,872,234,457,0,4,268,-40,540309,0
540315,1446,-1485,747,22,8392,8938,14057,980,207,692,2472,35308,-46,35,127,0,0,4031,1120,0,2431,872,234,467,0,4,268,-40,540309,0
540325,1884,-1812,1254,-301,7926,8797,14550,1134,199,679,2792,35302,-35,35,127,0,0,4166,1384,0,2431,872,234,477,0,4,268,-40,540309,0
540335,2169,-2142,1339,-477,7136,8772,15112,1289,254,749,3200,35291,-39,35,127,0,0,4324,1658,0,2431,872,234,487,0,4,268,-40,540309,0
540345,2515,-2458,1246,-617,5470,8937,15762,1501,302,951,3968,35291,-9,35,127,0,0,4524,2043,0,2431,872,234,497,0,4,268,-40,540309,0
540355,2561,-2671,1165,-703,4294,8964,16532,1769,398,1000,4640,35300,1,35,127,0,0,4739,2219,0,2431,872,234,507,0,4,268,-40,540325,0
540365,2406,-3193,1164,-677,2549,8769,17424,2052,461,1031,5248,35296,28,35,127,0,0,4963,2252,0,2431,872,234,517,0,4,268,-40,540325,0
540375,2163,-3706,1057,-578,1423,8423,18429,2272,457,822,5576,35306,25,35,127,0,0,5174,2120,0,2431,872,234,527,0,4,268,-40,540356,0
540385,1918,-4408,1174,-392,-159,7864,19481,2314,317,660,5592,35290,59,35,127,0,0,5374,1977,0,2431,872,234,537,0,4,268,-40,540372,0
540395,1929,-4132,1197,-416,-936,7423,20513,2239,50,561,5048,35281,49,35,127,0,0,5554,1746,0,2431,872,234,547,0,4,268,-40,540376,0
540405,1406,-4075,1319,-689,-2287,6913,21422,1848,-262,-429,2048,35284,1,35,127,0,0,5697,1428,0,2431,872,234,557,0,4,268,-40,540376,0
540415,1067,-4170,859,-706,-3057,6358,21957,865,-946,-1369,-384,35321,-80,35,127,0,0,5816,1142,0,2431,872,234,567,0,4,268,-40,540388,0
540425,577,-3980,181,-355,-3818,5353,21849,-518,-1974,-1442,-1864,35337,-109,35,127,0,0,5897,780,0,2431,872,234,577,0,4,268,-40,540388,0
540435,464,-3599,37,-73,-4162,4944,21452,-1016,-1786,-1209,-3144,35333,-87,35,127,0,0,5956,593,0,2431,872,234,587,0,4,268,-40,540403,0
540446,156,-3141,-2,200,-4196,4419,20790,-1456,-842,-1118,-4128,35315,-32,35,127,0,0,6020,598,0,2431,872,234,598,0,4,268,-40,540435,0
540456,-248,-2837,29,79,-4139,3922,20031,-1745,-663,-859,-4544,35312,-20,35,127,0,0,6097,812,0,2431,872,234,608,0,4,268,-40,540435,0
540466,-597,-3066,40,-27,-3919,2667,19181,-1904,-462,-549,-4560,35310,-3,35,127,0,0,6178,845,0,2431,872,234,618,0,4,268,-40,540435,0
540476,-593,-3115,-283,-47,-3524,1738,18304,-1934,-214,-519,-4624,35297,11,35,127,0,0,6256,736,0,2431,872,234,628,0,4,268,-40,540450,0
540486,-923,-2635,-308,-169,-2434,560,17425,-1936,-59,-555,-4760,35290,-1,35,127,0,0,6317,653,0,2431,872,234,638,0,4,268,-40,540450,0
540496,-484,-5674,-294,-284,-1972,-433,16522,-2006,-51,-681,-4904,35287,-19,35,127,0,0,6378,697,0,2431,872,234,648,0,4,268,-40,540466,0
540506,4104,-10175,2699,700,1808,-7231,15561,-2239,-131,-1571,-7200,35290,9,35,127,0,0,6062,-3828,0,2601,1047,235,6,1,4,284,-48,540482,0
540516,-1424,824,3441,2123,3940,-8144,13978,-4135,-1258,-4130,-12248,35206,292,35,127,0,0,5481,-5745,0,2601,1047,235,16,1,4,284,-48,540482,0
540526,-1309,967,-3561,-1687,5128,-6838,11852,-4420,-2447,1337,-2832,35180,368,35,127,0,0,5040,-4202,0,2601,1047,235,26,1,4,284,-48,540497,0
540536,2160,-5428,-1072,-2427,690,-7072,11425,790,2123,8975,5696,35181,333,35,127,0,0,4635,-4114,0,2601,1047,235,36,1,4,284,-48,540513,0
540546,1400,-6371,-832,1331,-1700,-2436,12502,2741,6519,2656,8408,35194,252,35,127,0,0,4441,-1565,0,2601,1047,235,46,1,4,284,-48,540513,0
540556,-2900,-177,-450,2033,-3612,-3343,14042,3523,3672,725,6040,35235,127,35,127,0,0,4274,-1625,0,2601,1047,235,56,1,4,284,-48,540528,0
540566,-5185,-4085,526,801,-631,-2989,15283,2189,367,-2443,1752,35225,200,35,127,0,0,4120,-1510,0,2601,1047,235,66,1,4,284,-48,540528,0
540576,-38,-3635,10,348,323,-4175,15804,826,-2070,-1389,-320,35297,-43,35,127,0,0,4017,-1197,0,2601,1047,235,76,1,4,284,-48,540560,0
540586,134,-3280,-392,472,1290,-4117,15682,-567,-2599,-1585,-1768,35341,-197,35,127,0,0,3872,-1274,0,2601,1047,235,86,1,4,284,-48,540560,0
540596,-91,-1003,-1015,730,978,-4084,15287,-991,-1753,-935,-2608,35311,-120,35,127,0,0,3726,-1384,0,2601,1047,235,96,1,4,284,-48,540560,0
540606,1861,-1519,-39,1222,213,-3138,14755,-1210,-751,-565,-2848,35297,-35,35,127,0,0,3615,-1170,0,2601,1047,235,106,1,4,284,-48,540591,0
540616,1910,-1791,851,1168,-83,-2339,14190,-1232,-322,-327,-2664,35297,-18,35,127,0,0,3535,-785,0,2601,1047,235,116,1,4,284,-48,540591,0
540626,840,-1970,2299,557,-166,-1543,13660,-1125,10,-159,-2240,35303,-34,35,127,0,0,3474,-565,0,2601,1047,235,126,1,4,284,-48,540591,0
540636,595,-2077,2108,18,-46,-1285,13206,-942,216,-125,-1808,35297,-72,35,127,0,0,3426,-455,0,2601,1047,235,136,1,4,284,-48,540700,0
540646,784,-2056,926,-478,146,-919,12859,-806,283,-147,-1496,35288,-88,35,127,0,0,3383,-411,0,2601,1047,235,146,1,4,284,-48,540700,0
540656,955,-2049,365,-534,74,-534,12532,-686,255,-180,-1184,35288,-89,35,127,0,0,3354,-236,0,2601,1047,235,156,1,4,284,-48,540716,0
540666,709,-2049,234,-540,-48,37,12261,-560,218,-202,-872,35284,-83,35,127,0,0,3345,-38,0,2601,1047,235,166,1,4,284,-48,540716,0
540676,467,-2031,433,-570,-36,232,12051,-419,227,-203,-472,35290,-85,35,127,0,0,3339,49,0,2601,1047,235,176,1,4,284,-48,540716,0
540686,224,-2040,437,-560,97,345,11894,-300,221,-117,-136,35288,-77,35,127,0,0,3338,-10,0,2601,1047,235,186,1,4,284,-48,540716,0
540696,214,-2041,231,-521,126,440,11829,-53,287,48,16,35289,-73,35,127,0,0,3344,21,0,2601,1047,235,196,1,4,284,-48,540716,0
540706,424,-2062,157,-428,40,635,11856,51,360,2,104,35290,-74,35,127,0,0,3357,148,0,2601,1047,235,206,1,4,284,-48,540716,0
540716,166,-2056,292,-374,-25,731,11893,99,160,285,168,35295,-78,35,127,0,0,3373,159,0,2601,1047,235,216,1,4,284,-48,540716,0
540726,58,-2016,552,-378,37,703,11961,155,79,314,216,35293,-78,35,127,0,0,3394,186,0,2601,1047,235,226,1,4,284,-48,540716,0
540736,84,-2046,558,-407,91,665,12040,179,73,308,208,35289,-63,35,127,0,0,3410,131,0,2601,1047,235,236,1,4,284,-48,540716,0
540746,118,-2047,484,-463,48,685,12119,188,7,280,208,35287,-51,35,127,0,0,3422,175,0,2601,1047,235,246,1,4,284,-48,540716,0
540757,64,-2044,403,-476,-11,690,12205,156,-7,291,208,35287,-69,35,127,0,0,3440,164,0,2601,1047,235,257,1,4,284,-48,540732,0
540767,-27,-2036,376,-461,26,659,12291,195,21,257,176,35308,-98,35,127,0,0,3456,142,0,2601,1047,235,267,1,4,284,-48,540732,0
540777,4,-2025,329,-430,72,596,12360,136,-23,322,168,35316,-99,35,127,0,0,3469,131,0,2601,1047,235,277,1,4,284,-48,540747,0
540787,2,-2023,348,-427,47,562,12421,154,-46,346,192,35321,-69,35,127,0,0,3480,131,0,2601,1047,235,287,1,4,284,-48,540778,0
540797,-98,-2050,475,-456,18,522,12487,150,0,306,184,35315,-90,34,127,0,0,3493,153,0,2601,1047,235,297,1,4,284,-48,540778,0
540807,-94,-2072,484,-449,57,417,12535,122,-21,361,192,35305,-103,34,127,0,0,3500,87,0,2601,1047,235,307,1,4,284,-48,540778,0
540817,-59,-2034,246,-439,11,336,12592,132,-12,286,208,35297,-95,35,127,0,0,3504,32,0,2601,1047,235,317,1,4,284,-48,540778,0
540827,-97,-2052,194,-394,-38,286,12643,91,0,202,104,35295,-65,35,127,0,0,3513,87,0,2601,1047,235,327,1,4,284,-48,540810,0
540837,-204,-2042,177,-289,35,115,12676,40,-51,221,72,35299,-68,35,127,0,0,3515,21,0,2601,1047,235,337,1,4,284,-48,540810,0
540847,-151,-2066,248,-247,80,20,12678,3,-103,355,56,35303,-86,35,127,0,0,3513,-65,0,2601,1047,235,347,1,4,284,-48,540810,0
540857,53,-2075,419,-237,109,-70,12674,-14,-77,223,64,35317,-96,35,127,0,0,3509,-54,0,2601,1047,235,357,1,4,284,-48,540841,0
540867,117,-2059,504,-274,80,-37,12666,-30,-15,25,-48,35315,-76,35,127,0,0,3502,-76,0,2601,1047,235,367,1,4,284,-48,540841,0
540877,115,-2045,458,-331,49,1,12655,-10,-20,-101,-40,35317,-65,35,127,0,0,3498,-32,0,2601,1047,235,377,1,4,284,-48,540841,0
540887,160,-2054,408,-356,49,36,12655,-4,21,-242,-120,35314,-61,35,127,0,0,3493,-54,0,2601,1047,235,387,1,4,284,-48,540872,0
540897,91,-2059,399,-367,57,66,12645,-15,2,-301,-120,35310,-60,35,127,0,0,3491,-32,0,2601,1047,235,397,1,4,284,-48,540872,0
540907,115,-2075,387,-352,71,92,12639,-15,-8,-328,-96,35304,-73,35,127,0,0,3491,0,0,2601,1047,235,407,1,4,284,-48,540872,0
540917,236,-2093,210,-326,56,168,12634,-20,7,-377,-128,35300,-68,35,127,0,0,3487,10,0,2601,1047,235,417,1,4,284,-48,540888,0
540927,201,-2129,214,-288,49,214,12616,-51,-23,-298,-64,35298,-67,35,127,0,0,3489,21,0,2601,1047,235,427,1,4,284,-48,540903,0
540937,49,-2056,327,-246,91,241,12595,-21,-43,-154,-56,35308,-83,35,127,0,0,3489,0,0,2601,1047,235,437,1,4,284,-48,540903,0
540947,105,-2090,399,-254,116,257,12599,13,46,-165,-40,35313,-73,35,127,0,0,3491,21,0,2601,1047,235,447,1,4,284,-48,540903,0
540958,183,-2079,483,-307,78,345,12600,12,37,-54,0,35322,-70,35,127,0,0,3493,38,0,2601,1047,235,458,1,4,284,-48,540935,0
540968,203,-2047,480,-350,44,411,12601,0,-2,-1,48,35325,-72,35,127,0,0,3498,87,0,2601,1047,235,468,1,4,284,-48,540935,0
540978,189,-2080,421,-414,23,519,12613,37,15,210,136,35327,-71,35,127,0,0,3509,142,0,2601,1047,235,478,1,4,284,-48,540950,0
540988,110,-2053,403,-436,19,552,12645,96,60,311,160,35322,-79,35,127,0,0,3521,131,0,2601,1047,235,488,1,4,284,-48,540966,0
540998,137,-2083,328,-451,1,619,12697,91,73,308,168,35313,-82,35,127,0,0,3535,175,0,2601,1047,235,498,1,4,284,-48,540981,0
541008,-13,-2083,286,-435,-1,651,12745,110,24,390,200,35311,-68,35,127,0,0,3545,137,0,2601,1047,235,508,1,4,284,-48,540981,0
541018,-88,-2057,142,-359,-6,634,12794,135,0,479,256,35304,-69,35,127,0,0,3567,175,0,2601,1047,235,518,1,4,284,-48,540981,0
541028,-35,-2078,101,-299,-4,594,12867,190,52,433,288,35308,-70,35,127,0,0,3574,115,0,2601,1047,235,528,1,4,284,-48,541060,0
541038,-103,-2046,145,-190,31,538,12947,163,67,384,288,35310,-75,35,127,0,0,3590,137,0,2601,1047,235,538,1,4,284,-48,541060,0
541048,-162,-2056,230,-159,46,476,13035,206,22,302,208,35308,-64,35,127,0,0,3602,104,0,2601,1047,235,548,1,4,284,-48,541060,0
541058,-65,-2058,386,-159,49,389,13098,110,-23,326,176,35304,-77,35,127,0,0,3611,115,0,2601,1047,235,558,1,4,284,-48,541060,0
541068,-88,-2062,423,-190,33,364,13135,67,-111,477,200,35303,-82,35,127,0,0,3619,71,0,2601,1047,235,568,1,4,284,-48,541060,0
541078,-106,-2066,448,-242,23,313,13185,107,-24,358,168,35299,-83,35,127,0,0,3629,131,0,2601,1047,235,578,1,4,284,-48,541075,0
541088,-113,-2066,425,-277,13,240,13230,108,16,396,152,35301,-74,35,127,0,0,3626,-16,0,2601,1047,235,588,1,4,284,-48,541075,0
541098,-54,-2050,369,-315,24,188,13252,18,-50,331,176,35301,-70,35,127,0,0,3636,98,0,2601,1047,235,598,1,4,284,-48,541075,0
541108,-146,-2053,325,-319,34,139,13260,29,-72,473,184,35312,-78,35,127,0,0,3638,54,0,2601,1047,235,608,1,4,284,-48,541075,0
541118,-83,-2060,266,-320,44,79,13294,84,24,301,88,35321,-72,35,127,0,0,3639,38,0,2601,1047,235,618,1,4,284,-48,541106,0
541128,-51,-2071,236,-294,36,60,13305,-2,10,270,88,35327,-63,35,127,0,0,3638,43,0,2601,1047,235,628,1,4,284,-48,541106,0
541138,-1,-2064,240,-260,33,37,13304,0,-80,275,72,35332,-54,35,127,0,0,3636,38,0,2601,1047,235,638,1,4,284,-48,541106,0
541148,7,-2078,267,-250,26,28,13303,-6,-17,277,72,35327,-51,35,127,0,0,3633,-38,0,2601,1047,235,648,1,4,284,-48,541122,0
541158,4,-2062,293,-241,25,14,13301,-5,-3,223,104,35333,-55,35,127,0,0,3632,5,0,2601,1047,235,658,1,4,284,-48,541138,0
541168,6,-2064,304,-239,22,20,13299,-29,-8,150,56,35334,-51,35,127,0,0,3630,5,0,2601,1047,235,668,1,4,284,-48,541138,0
541178,-31,-2073,298,-240,18,-9,13300,-1,-3,128,32,35328,-60,35,127,0,0,3628,-43,0,2601,1047,235,678,1,4,284,-48,541138,0
541188,-18,-2084,284,-227,42,-32,13297,-8,-7,57,16,35326,-66,35,127,0,0,3626,-32,0,2601,1047,235,688,1,4,284,-48,541153,0
541199,39,-2064,290,-216,35,-36,13294,-5,-2,-21,8,35317,-52,35,127,0,0,3621,-76,0,2601,1047,235,699,1,4,284,-48,541169,0
541209,26,-2059,314,-219,23,-23,13281,-30,-15,-148,-32,35326,-38,35,127,0,0,3621,-32,0,2601,1047,235,709,1,4,284,-48,541185,0
541219,7,-2068,318,-226,16,-7,13280,-10,1,-237,-40,35334,-33,35,127,0,0,3616,-21,0,2601,1047,235,719,1,4,284,-48,541185,0
541229,20,-2081,311,-242,25,-18,13272,-23,6,-301,-80,35327,-53,35,127,0,0,3614,-32,0,2601,1047,235,729,1,4,284,-48,541200,0
541239,31,-2072,306,-241,29,-8,13250,-63,-38,-230,-64,35317,-52,35,127,0,0,3612,-32,0,2601,1047,235,739,1,4,284,-48,541216,0
541249,49,-2067,299,-248,41,-14,13215,-59,-58,-90,-72,35314,-56,35,127,0,0,3610,10,0,2601,1047,235,749,1,4,284,-48,541231,0
541259,58,-2077,304,-257,36,32,13213,1,45,-165,-88,35315,-64,35,127,0,0,3603,-43,0,2601,1047,235,759,1,4,284,-48,541231,0
541269,75,-2065,279,-254,9,68,13203,-22,52,-279,-80,35314,-67,35,127,0,0,3603,0,0,2601,1047,235,769,1,4,284,-48,541278,0
541279,57,-2066,257,-251,14,94,13186,-43,-34,-205,-48,35316,-66,35,127,0,0,3603,10,0,2601,1047,235,779,1,4,284,-48,541278,0
541289,10,-2066,216,-227,28,98,13168,-15,-20,-20,-8,35315,-64,35,127,0,0,3603,0,0,2601,1047,235,789,1,4,284,-48,541294,0
541299,45,-2082,222,-214,31,104,13171,1,40,-56,-16,35317,-63,35,127,0,0,3603,10,0,2601,1047,235,799,1,4,284,-48,541294,0
541309,42,-2068,260,-188,34,108,13170,-12,30,-63,-48,35312,-68,35,127,0,0,3601,-10,0,2601,1047,235,809,1,4,284,-48,541294,0
541319,16,-2069,266,-181,34,112,13169,5,-8,-117,-72,35311,-73,35,127,0,0,3599,-21,0,2601,1047,235,819,1,4,284,-48,541294,0
541329,29,-2077,244,-171,43,121,13167,-10,-4,-154,-16,35309,-81,35,127,0,0,3601,10,0,2601,1047,235,829,1,4,284,-48,541294,0
541339,50,-2078,228,-162,43,128,13168,0,3,-99,-8,35311,-67,35,127,0,0,3601,10,0,2601,1047,235,839,1,4,284,-48,541310,0
541349,25,-2075,243,-141,39,136,13167,-2,-1,-80,-8,35319,-41,35,127,0,0,3601,-10,0,2601,1047,235,849,1,4,284,-48,541325,0
541359,36,-2068,265,-130,32,137,13166,-10,-6,-101,-40,35329,-38,35,127,0,0,3603,43,0,2601,1047,235,859,1,4,284,-48,541325,0
541369,26,-2059,308,-139,44,147,13169,-3,0,-40,-16,35319,-49,35,127,0,0,3603,0,0,2601,1047,235,869,1,4,284,-48,541341,0
541379,11,-2074,310,-154,32,156,13169,1,0,-59,-48,35324,-78,35,127,0,0,3599,-32,0,2601,1047,235,879,1,4,284,-48,541356,0
541389,-26,-2076,281,-156,37,149,13167,2,-3,-99,0,35320,-77,35,127,0,0,3603,10,0,2601,1047,235,889,1,4,284,-48,541356,0
541399,-12,-2072,264,-162,29,138,13168,-11,-2,-65,-40,35324,-93,35,127,0,0,3603,21,0,2601,1047,235,899,1,4,284,-48,541388,0
541409,-30,-2081,260,-157,36,116,13169,1,5,-34,-16,35337,-80,35,127,0,0,3601,-21,0,2601,1047,235,909,1,4,284,-48,541403,0
541419,-21,-2074,255,-148,41,91,13168,8,-1,-32,-24,35325,-72,35,127,0,0,3603,-21,0,2601,1047,235,919,1,4,284,-48,541403,0
541429,9,-2065,254,-141,32,91,13167,-1,-5,-54,-8,35318,-73,35,127,0,0,3603,10,0,2601,1047,235,929,1,4,284,-48,541403,0
541439,39,-2074,262,-142,27,100,13169,-1,3,-45,-48,35306,-74,35,127,0,0,3601,-32,0,2601,1047,235,939,1,4,284,-48,541419,0
541450,22,-2080,268,-133,31,113,13170,14,3,-46,-32,35309,-82,35,127,0,0,3604,-16,0,2601,1047,235,950,1,4,284,-48,541419,0
541460,24,-2071,256,-133,41,113,13169,7,3,-14,-8,35321,-82,35,127,0,0,3603,0,0,2601,1047,235,960,1,4,284,-48,541419,0
541470,51,-2070,272,-135,37,122,13166,-13,-3,-64,-8,35335,-81,35,127,0,0,3600,0,0,2601,1047,235,970,1,4,284,-48,541466,0
541480,52,-2066,271,-138,42,129,13168,-4,5,-66,-32,35338,-87,35,127,0,0,3601,-21,0,2601,1047,235,980,1,4,284,-48,541466,0
541490,-28,-2065,267,-134,33,136,13168,8,0,-80,-8,35336,-95,35,127,0,0,3603,5,0,2601,1047,235,990,1,4,284,-48,541466,0
541500,-2,-2062,262,-138,30,129,13169,-3,3,-44,8,35317,-89,35,127,0,0,3602,10,0,2601,1047,235,1000,1,4,284,-48,541466,0
541510,17,-2080,266,-139,39,105,13167,-7,6,-73,-32,35309,-71,35,127,0,0,3604,27,0,2601,1047,235,1010,1,4,284,-48,541481,0
541520,-1,-2085,266,-139,55,102,13168,5,-1,-66,-32,35313,-69,35,127,0,0,3604,38,0,2601,1047,235,1020,1,4,284,-48,541481,0
541530,31,-2074,274,-140,41,115,13169,1,0,-29,-8,35329,-73,35,127,0,0,3600,-32,0,2601,1047,235,1030,1,4,284,-48,541497,0
541540,27,-2067,267,-142,43,119,13169,6,-2,-45,-32,35336,-75,35,127,0,0,3601,-49,0,2601,1047,235,1040,1,4,284,-48,541513,0
541550,3,-2074,262,-144,44,123,13167,0,2,-90,-8,35324,-72,35,127,0,0,3600,-10,0,2601,1047,235,1050,1,4,284,-48,541544,0
541560,34,-2068,261,-144,40,120,13168,-4,5,-87,-8,35308,-61,35,127,0,0,3603,21,0,2601,1047,235,1060,1,4,284,-48,541544,0
541570,42,-2073,265,-153,39,129,13168,-11,4,-65,-8,35300,-59,35,127,0,0,3600,0,0,2601,1047,235,1070,1,4,284,-48,541559,0
541580,28,-2077,255,-147,40,126,13169,0,-5,-86,-32,35301,-72,35,127,0,0,3601,-5,0,2601,1047,235,1080,1,4,284,-48,541559,0
541590,-6,-2069,254,-139,39,123,13168,0,1,-76,-32,35301,-80,35,127,0,0,3601,-5,0,2601,1047,235,1090,1,4,284,-48,541559,0
541600,6,-2075,247,-139,40,118,13167,-2,0,-95,-32,35312,-80,35,127,0,0,3601,0,0,2601,1047,235,1100,1,4,284,-48,541559,0
541610,3,-2076,250,-127,43,113,13168,1,2,-72,-32,35308,-70,35,127,0,0,3601,-16,0,2601,1047,235,1110,1,4,284,-48,541591,0
541620,1,-2074,253,-133,41,115,13169,10,5,-70,-32,35317,-61,35,127,0,0,3604,16,0,2601,1047,235,1120,1,4,284,-48,541591,0
541630,16,-2079,253,-130,39,124,13169,0,0,-68,-32,35308,-56,35,127,0,0,3601,-16,0,2601,1047,235,1130,1,4,284,-48,541591,0
541640,12,-2080,255,-126,36,118,13168,6,1,-95,-56,35308,-62,35,127,0,0,3602,-5,0,2601,1047,235,1140,1,4,284,-48,541606,0
541650,14,-2067,249,-126,40,120,13167,3,-1,-91,-32,35306,-59,35,127,0,0,3601,0,0,2601,1047,235,1150,1,4,284,-48,541622,0
541660,26,-2064,243,-122,37,120,13167,-1,-1,-101,-32,35315,-81,35,127,0,0,3601,0,0,2601,1047,235,1160,1,4,284,-48,541638,0
541670,21,-2086,246,-120,38,124,13168,-1,1,-88,-32,35309,-77,35,127,0,0,3598,-32,0,2601,1047,235,1170,1,4,284,-48,541638,0
541680,40,-2080,244,-117,47,115,13167,2,0,-122,-32,35315,-75,35,127,0,0,3601,-10,0,2601,1047,235,1180,1,4,284,-48,541653,0
541690,26,-2075,247,-113,36,123,13166,-7,-3,-112,-32,35309,-81,35,127,0,0,3601,27,0,2601,1047,235,1190,1,4,284,-48,541653,0
541701,-16,-2076,241,-104,42,131,13168,-2,-1,-99,-32,35309,-90,35,127,0,0,3601,-21,0,2601,1047,235,1201,1,4,284,-48,541669,0
541711,0,-2067,235,-98,46,124,13168,-6,3,-89,-32,35313,-90,35,127,0,0,3599,-21,0,2601,1047,235,1211,1,4,284,-48,541700,0
541721,-9,-2082,240,-93,36,125,13167,1,0,-106,-32,35310,-70,35,127,0,0,3601,-21,0,2601,1047,235,1221,1,4,284,-48,541700,0
541731,0,-2078,260,-92,38,124,13167,-3,-1,-96,-32,35313,-69,35,127,0,0,3601,0,0,2601,1047,235,1231,1,4,284,-48,541700,0
541741,8,-2073,268,-91,34,120,13167,-4,-1,-97,-32,35305,-88,35,127,0,0,3601,0,0,2601,1047,235,1241,1,4,284,-48,541716,0
541751,22,-2073,273,-103,43,117,13167,-6,-3,-98,-32,35318,-93,35,127,0,0,3601,0,0,2601,1047,235,1251,1,4,284,-48,541716,0
541761,30,-2069,256,-100,37,119,13167,0,6,-101,-32,35313,-86,35,127,0,0,3601,0,0,2601,1047,235,1261,1,4,284,-48,541794,0
541771,37,-2081,248,-103,47,126,13168,4,-11,-99,-32,35323,-69,35,127,0,0,3601,-10,0,2601,1047,235,1271,1,4,284,-48,541794,0
541781,9,-2075,244,-99,39,140,13166,0,7,-114,-32,35316,-73,35,127,0,0,3601,0,0,2601,1047,235,1281,1,4,284,-48,541794,0
541791,29,-2070,246,-101,47,140,13169,6,0,-81,-32,35313,-81,35,127,0,0,3601,-10,0,2601,1047,235,1291,1,4,284,-48,541809,0
541801,76,-2079,247,-90,46,155,13167,3,0,-86,-32,35303,-86,35,127,0,0,3603,21,0,2601,1047,235,1301,1,4,284,-48,541809,0
541811,54,-2073,246,-91,50,175,13169,7,3,-58,0,35308,-82,35,127,0,0,3603,0,0,2601,1047,235,1311,1,4,284,-48,541809,0
541821,29,-2078,236,-89,47,203,13167,3,2,-73,-32,35309,-73,35,127,0,0,3601,-10,0,2601,1047,235,1321,1,4,284,-48,541809,0
541831,20,-2069,244,-86,44,210,13169,7,4,-42,-8,35311,-87,35,127,0,0,3603,10,0,2601,1047,235,1331,1,4,284,-48,541809,0
541841,28,-2064,253,-90,40,224,13169,7,6,21,48,35309,-81,35,127,0,0,3607,32,0,2601,1047,235,1341,1,4,284,-48,541809,0
541851,31,-2077,273,-91,43,243,13172,-12,0,112,32,35311,-82,35,127,0,0,3610,43,0,2601,1047,235,1351,1,4,284,-48,541809,0
541861,25,-2077,246,-93,35,255,13178,19,2,253,96,35316,-68,35,127,0,0,3614,21,0,2601,1047,235,1361,1,4,284,-48,541841,0
541871,23,-2065,230,-88,26,252,13185,10,7,299,72,35326,-82,35,127,0,0,3616,32,0,2601,1047,235,1371,1,4,284,-48,541841,0
541881,3,-2069,238,-76,38,249,13191,24,2,399,136,35323,-81,35,127,0,0,3623,76,0,2601,1047,235,1381,1,4,284,-48,541841,0
541891,-10,-2081,228,-72,45,256,13224,79,50,302,128,35326,-96,35,127,0,0,3627,76,0,2601,1047,235,1391,1,4,284,-48,541872,0
541901,27,-2076,248,-64,37,261,13245,20,31,318,128,35338,-95,35,127,0,0,3629,32,0,2601,1047,235,1401,1,4,284,-48,541872,0
541911,-5,-2075,249,-64,40,262,13244,-3,-74,402,152,35345,-79,35,127,0,0,3634,54,0,2601,1047,235,1411,1,4,284,-48,541934,0
541921,16,-2078,243,-64,41,261,13249,14,-24,471,192,35348,-75,35,127,0,0,3638,87,0,2601,1047,235,1421,1,4,284,-48,541934,0
541931,3,-2079,245,-61,46,266,13270,69,42,484,200,35341,-68,35,127,0,0,3640,32,0,2601,1047,235,1431,1,4,284,-48,541934,0
541941,53,-2078,264,-61,26,285,13316,82,82,315,144,35345,-58,35,127,0,0,3647,76,0,2601,1047,235,1441,1,4,284,-48,541934,0
541951,-37,-2074,264,-66,35,284,13351,80,13,336,120,35333,-77,35,127,0,0,3651,54,0,2601,1047,235,1451,1,4,284,-48,541950,0
541961,12,-2069,255,-69,44,275,13380,48,-26,352,168,35332,-83,35,127,0,0,3656,43,0,2601,1047,235,1461,1,4,284,-48,541950,0
541971,-26,-2072,256,-69,39,271,13411,96,-15,305,128,35329,-107,35,127,0,0,3660,32,0,2601,1047,235,1471,1,4,284,-48,541950,0
541982,13,-2071,265,-75,30,274,13446,33,16,261,96,35330,-115,35,127,0,0,3668,60,0,2601,1047,235,1482,1,4,284,-48,541950,0
541992,-65,-2076,261,-77,33,259,13456,43,-62,470,144,35331,-82,35,127,0,0,3671,0,0,2601,1047,235,1492,1,4,284,-48,541981,0
542002,-40,-2077,254,-81,42,250,13485,61,3,322,112,35348,-80,35,127,0,0,3673,10,0,2601,1047,235,1502,1,4,284,-48,541981,0
542012,-22,-2077,265,-80,27,234,13487,-6,-13,396,152,35350,-60,35,127,0,0,3678,71,0,2601,1047,235,1512,1,4,284,-48,541981,0
542022,-47,-2078,261,-81,38,223,13492,12,-51,506,192,35351,-56,35,127,0,0,3679,32,0,2601,1047,235,1522,1,4,284,-48,541981,0
542032,-37,-2071,256,-84,32,208,13500,8,11,520,200,35346,-62,35,127,0,0,3684,54,0,2601,1047,235,1532,1,4,284,-48,542012,0
542042,-48,-2075,263,-86,36,194,13510,17,2,564,176,35354,-77,35,127,0,0,3684,16,0,2601,1047,235,1542,1,4,284,-48,542012,0
542052,-39,-2078,257,-90,33,172,13522,38,11,521,176,35348,-91,35,127,0,0,3690,60,0,2601,1047,235,1552,1,4,284,-48,542012,0
542062,-26,-2072,254,-94,34,172,13554,67,42,327,136,35354,-94,35,127,0,0,3685,60,0,2601,1047,235,1562,1,4,284,-48,542044,0
542072,-20,-2074,261,-98,28,163,13561,2,-7,379,120,35351,-94,35,127,0,0,3692,49,0,2601,1047,235,1572,1,4,284,-48,542059,0
542082,-36,-2078,251,-97,39,151,13561,-4,-59,443,168,35352,-86,35,127,0,0,3690,49,0,2601,1047,235,1582,1,4,284,-48,542059,0
542092,-28,-2073,249,-92,38,147,13566,3,-3,424,136,35347,-111,35,127,0,0,3691,27,0,2601,1047,235,1592,1,4,284,-48,542059,0
542102,-32,-2076,258,-91,37,133,13570,13,2,436,128,35337,-112,35,127,0,0,3691,0,0,2601,1047,235,1602,1,4,284,-48,542075,0
542112,-28,-2080,260,-93,37,124,13574,20,2,446,120,35348,-121,35,127,0,0,3691,-43,0,2601,1047,235,1612,1,4,284,-48,542091,0
542122,-32,-2078,257,-97,43,126,13582,15,6,341,104,35351,-112,35,127,0,0,3688,-32,0,2601,1047,235,1622,1,4,284,-48,542091,0
542132,-1,-2074,252,-98,39,124,13595,32,15,273,104,35355,-117,35,127,0,0,3693,27,0,2601,1047,235,1632,1,4,284,-48,542169,0
542142,11,-2074,256,-97,36,134,13613,32,23,247,64,35344,-121,35,127,0,0,3693,0,0,2601,1047,235,1642,1,4,284,-48,542169,0
542152,-17,-2073,252,-103,35,139,13610,-5,-27,257,72,35344,-121,35,127,0,0,3696,32,0,2601,1047,235,1652,1,4,284,-48,542184,0
542162,7,-2074,245,-100,37,144,13612,-5,-29,284,64,35346,-118,35,127,0,0,3693,-5,0,2601,1047,235,1662,1,4,284,-48,542184,0
542172,-14,-2072,238,-102,34,148,13612,7,7,241,64,35341,-132,35,127,0,0,3696,32,0,2601,1047,235,1672,1,4,284,-48,542184,0
542182,-15,-2072,251,-102,30,152,13612,0,-10,288,96,35334,-130,35,127,0,0,3695,32,0,2601,1047,235,1682,1,4,284,-48,542200,0
542192,-34,-2072,251,-100,39,149,13613,-1,0,310,88,35328,-137,35,127,0,0,3695,0,0,2601,1047,235,1692,1,4,284,-48,542200,0
542202,-38,-2082,244,-97,31,139,13614,9,4,347,104,35334,-130,35,127,0,0,3697,-10,0,2601,1047,235,1702,1,4,284,-48,542200,0
542212,-32,-2074,244,-91,37,142,13614,-6,5,353,104,35336,-126,35,127,0,0,3697,27,0,2601,1047,235,1712,1,4,284,-48,542200,0
542223,-23,-2074,251,-92,45,129,13614,-7,-7,370,112,35338,-134,35,127,0,0,3700,32,0,2601,1047,235,1723,1,4,284,-48,542200,0
542233,-11,-2074,244,-89,39,126,13617,6,-1,388,144,35342,-144,35,127,0,0,3700,21,0,2601,1047,235,1733,1,4,284,-48,542200,0
542243,-18,-2078,253,-93,37,121,13618,-3,5,411,88,35357,-142,35,127,0,0,3697,-21,0,2601,1047,235,1743,1,4,284,-48,542231,0
542253,-32,-2074,263,-94,36,123,13618,7,-6,400,104,35365,-119,35,127,0,0,3700,0,0,2601,1047,235,1753,1,4,284,-48,542231,0
542263,-42,-2080,270,-103,35,126,13617,-5,-1,380,104,35362,-127,35,127,0,0,3700,21,0,2601,1047,235,1763,1,4,284,-48,542231,0
542273,-15,-2080,268,-110,36,120,13618,1,1,383,136,35348,-114,35,127,0,0,3697,10,0,2601,1047,235,1773,1,4,284,-48,542231,0
542283,0,-2079,264,-116,33,110,13616,-2,0,388,136,35343,-135,35,127,0,0,3700,0,0,2601,1047,235,1783,1,4,284,-48,542262,0
542293,-49,-2073,254,-122,30,112,13620,10,0,398,104,35353,-145,35,127,0,0,3700,0,0,2601,1047,235,1793,1,4,284,-48,542262,0
542303,-64,-2074,255,-119,22,103,13620,8,1,398,136,35354,-154,35,127,0,0,3700,10,0,2601,1047,235,1803,1,4,284,-48,542278,0
542313,-25,-2081,245,-122,31,89,13620,5,5,426,120,35353,-150,35,127,0,0,3697,-32,0,2601,1047,235,1813,1,4,284,-48,542294,0
542323,-26,-2082,243,-115,32,84,13618,-3,-8,386,96,35351,-140,35,127,0,0,3697,-10,0,2601,1047,235,1823,1,4,284,-48,542294,0
542333,-42,-2076,237,-115,34,92,13618,-1,1,387,104,35351,-145,35,127,0,0,3697,-21,0,2601,1047,235,1833,1,4,284,-48,542309,0
542343,-25,-2076,244,-110,28,105,13618,5,2,350,96,35353,-145,35,127,0,0,3695,0,0,2601,1047,235,1843,1,4,284,-48,542309,0
542353,-8,-2076,241,-103,41,95,13618,-1,-2,346,104,35345,-131,35,127,0,0,3695,-21,0,2601,1047,235,1853,1,4,284,-48,542341,0
