state_time,accelx,accely,accelz,gyrox,gyroy,gyroz,mot_ang,mot_vel,mot_acc,mot_cur,mot_volt,batt_volt,batt_curr,temperature,status_mn,status_ex,status_re,ank_ang,ank_vel,ank_torque,peak_ank_torque,step_energy,step_count,step_time,gait_state,movement,speed,incline,sys_time,eventFlags
534009,9,-2043,221,-31,-3,-35,15689,-7,-2,-175,-32,35487,-24,35,127,0,0,4078,10,0,10590,2739,229,31825,-4,0,36,0,533989,0
534019,21,-2042,221,-41,-5,-31,15692,-3,0,-165,-40,35482,-23,35,127,0,0,4078,0,0,10590,2739,229,31835,-4,0,36,0,534036,0
534029,2,-2044,223,-38,-19,-37,15690,-1,-4,-170,-32,35488,-37,35,127,0,0,4075,-10,0,10590,2739,229,31845,-4,0,36,0,534036,0
534039,34,-2043,224,-38,-10,-36,15689,-12,-3,-185,-32,35482,-30,35,127,0,0,4075,-21,0,10590,2739,229,31855,-4,0,36,0,534036,0
534049,-20,-2040,228,-40,-15,-33,15690,2,1,-191,-32,35478,-24,35,127,0,0,4078,0,0,10590,2739,229,31865,-4,0,36,0,534051,0
534059,2,-2038,223,-34,-7,-37,15689,0,-3,-183,-32,35475,-29,35,127,0,0,4078,21,0,10590,2739,229,31875,-4,0,36,0,534051,0
534069,5,-2040,221,-32,-10,-39,15690,3,5,-183,-32,35480,-58,35,127,0,0,4078,21,0,10590,2739,229,31885,-4,0,36,0,534051,0
534079,7,-2038,230,-34,-13,-40,15690,3,1,-151,0,35487,-75,35,127,0,0,4078,0,0,10590,2739,229,31895,-4,0,36,0,534051,0
534089,-25,-2041,223,-37,-7,-41,15691,-4,3,-108,-16,35494,-40,34,127,0,0,4078,-10,0,10590,2739,229,31905,-4,0,36,0,534098,0
534099,-26,-2046,220,-35,-6,-45,15689,-3,-2,-132,0,35493,-27,34,127,0,0,4080,21,0,10590,2739,229,31915,-4,0,36,0,534098,0
534109,3,-2042,228,-37,-1,-38,15693,10,2,-81,-56,35491,-28,35,127,0,0,4078,-21,0,10590,2739,229,31925,-4,0,36,0,534098,0
534119,1,-2042,230,-37,-10,-38,15690,-6,-4,-131,-32,35486,-40,35,127,0,0,4078,-21,0,10590,2739,229,31935,-4,0,36,0,534098,0
534129,14,-2045,226,-41,-12,-38,15689,-1,-7,-175,-32,35479,-49,35,127,0,0,4078,0,0,10590,2739,229,31945,-4,0,36,0,534098,0
534139,13,-2038,217,-37,-6,-42,15691,8,4,-109,-56,35490,-42,35,127,0,0,4078,-21,0,10590,2739,229,31955,-4,0,36,0,534114,0
534149,-2,-2041,223,-35,-4,-32,15690,-12,-6,-122,-72,35505,-49,34,127,0,0,4080,21,0,10590,2739,229,31965,-4,0,36,0,534145,0
534159,2,-2039,218,-38,-9,-19,15693,1,4,-93,-8,35513,-45,35,127,0,0,4080,0,0,10590,2739,229,31975,-4,0,36,0,534145,0
534169,-16,-2041,223,-31,-12,-24,15691,14,2,-72,-48,35500,-43,34,127,0,0,4078,-32,0,10590,2739,229,31985,-4,0,36,0,534145,0
534179,-22,-2043,217,-24,-15,-26,15689,-10,-2,-159,-32,35487,-38,34,127,0,0,4080,21,0,10590,2739,229,31995,-4,0,36,0,534145,0
534189,32,-2044,226,-32,3,-31,15690,1,3,-157,-32,35498,-38,35,127,0,0,4080,65,0,10590,2739,229,32005,-4,0,36,0,534223,0
534199,24,-2036,229,-35,-2,-25,15695,10,15,-70,-64,35508,-58,35,127,0,0,4080,-10,0,10590,2739,229,32015,-4,0,36,0,534223,0
534209,14,-2041,226,-35,-7,-29,15690,-6,-11,-127,-32,35498,-58,35,127,0,0,4080,21,0,10590,2739,229,32025,-4,0,36,0,534223,0
534219,-5,-2033,231,-33,3,-24,15693,11,0,-88,32,35486,-53,34,127,0,0,4078,-21,0,10590,2739,229,32035,-4,0,36,0,534223,0
534229,-37,-2052,233,-44,-5,-27,15692,-7,5,-88,-48,35474,-48,34,127,0,0,4078,-21,0,10590,2739,229,32045,-4,0,36,0,534239,0
534239,-18,-2037,234,-44,-11,-35,15692,-2,-8,-137,-40,35480,-56,35,127,0,0,4080,10,0,10590,2739,229,32055,-4,0,36,0,534239,0
534249,37,-2044,236,-49,-5,-48,15691,-3,5,-148,-32,35481,-67,35,127,0,0,4078,32,0,10590,2739,229,32065,-4,0,36,0,534239,0
534259,21,-2049,229,-49,0,-45,15693,12,4,-125,-40,35479,-51,34,127,0,0,4078,-32,0,10590,2739,229,32075,-4,0,36,0,534239,0
534269,-6,-2038,225,-49,2,-45,15690,-7,-6,-79,-8,35494,-48,34,127,0,0,4078,-21,0,10590,2739,229,32085,-4,0,36,0,534239,0
534279,14,-2043,215,-44,-5,-48,15692,-3,-4,-79,-24,35512,-43,35,127,0,0,4078,-10,0,10590,2739,229,32095,-4,0,36,0,534254,0
534289,-19,-2039,222,-44,-16,-47,15691,-10,2,-137,-40,35515,-43,34,127,0,0,4078,-10,0,10590,2739,229,32105,-4,0,36,0,534270,0
534299,29,-2034,230,-44,-12,-47,15689,-7,-2,-171,-32,35494,-39,34,127,0,0,4078,10,0,10590,2739,229,32115,-4,0,36,0,534270,0
534309,-19,-2047,237,-48,-19,-47,15692,11,4,-122,-8,35482,-19,35,127,0,0,4078,-10,0,10590,2739,229,32125,-4,0,36,0,534286,0
534319,20,-2040,232,-50,-14,-49,15692,1,0,-132,-32,35491,-43,35,127,0,0,4078,-10,0,10590,2739,229,32135,-4,0,36,0,534286,0
534329,0,-2044,216,-55,-5,-45,15692,9,0,-145,-40,35504,-50,35,127,0,0,4078,-10,0,10590,2739,229,32145,-4,0,36,0,534317,0
534339,15,-2048,221,-54,-9,-48,15691,1,10,-79,-16,35501,-47,35,127,0,0,4078,-21,0,10590,2739,229,32155,-4,0,36,0,534317,0
534349,-6,-2037,217,-51,-8,-47,15688,-26,-13,-125,0,35491,-47,34,127,0,0,4078,0,0,10590,2739,229,32165,-4,0,36,0,534317,0
534359,26,-2048,219,-51,-4,-49,15695,20,3,-102,-48,35502,-42,35,127,0,0,4082,0,0,10590,2739,229,32175,-4,0,36,0,534333,0
534369,42,-2036,228,-52,-4,-40,15691,0,11,-55,-48,35509,-56,35,127,0,0,4080,-10,0,10590,2739,229,32185,-4,0,36,0,534348,0
534379,-2,-2043,221,-53,2,-46,15693,19,-2,-44,16,35507,-60,35,127,0,0,4080,0,0,10590,2739,229,32195,-4,0,36,0,534364,0
534389,18,-2048,227,-54,-11,-49,15688,-27,-3,-121,0,35489,-48,34,127,0,0,4080,43,0,10590,2739,229,32205,-4,0,36,0,534399,0
534399,9,-2047,226,-50,-4,-52,15691,1,-2,-87,-16,35485,-60,34,127,0,0,4078,-10,0,10590,2739,229,32215,-4,0,36,0,534399,0
534409,-19,-2040,234,-60,-16,-42,15687,-19,-5,-127,0,35488,-59,35,127,0,0,4078,0,0,10590,2739,229,32225,-4,0,36,0,534415,0
534419,17,-2042,228,-59,-3,-47,15690,-4,-6,-141,0,35495,-70,35,127,0,0,4078,0,0,10590,2739,229,32235,-4,0,36,0,534415,0
534429,-43,-2045,228,-56,-14,-38,15691,15,8,-90,-48,35486,-47,35,127,0,0,4078,-32,0,10590,2739,229,32245,-4,0,36,0,534415,0
534439,4,-2024,225,-49,-16,-34,15688,-16,-5,-156,-32,35480,-48,35,127,0,0,4078,0,0,10590,2739,229,32255,-4,0,36,0,534415,0
534449,-23,-2053,221,-56,-22,-48,15690,7,-5,-129,-8,35495,-48,34,127,0,0,4082,43,0,10590,2739,229,32265,-4,0,36,0,534415,0
534459,-22,-2046,229,-58,-25,-39,15691,-8,7,-111,-40,35505,-28,35,127,0,0,4080,21,0,10590,2739,229,32275,-4,0,36,0,534477,0
534469,-15,-2043,221,-50,-11,-47,15691,20,1,-82,0,35500,-29,35,127,0,0,4078,0,0,10590,2739,229,32285,-4,0,36,0,534477,0
534479,14,-2034,227,-56,-14,-59,15689,-16,-1,-124,-48,35484,-16,35,127,0,0,4078,-10,0,10590,2739,229,32295,-4,0,36,0,534477,0
534489,-23,-2037,228,-55,-8,-66,15691,12,-4,-142,-40,35473,-32,34,127,0,0,4078,-10,0,10590,2739,229,32305,-4,0,36,0,534493,0
534499,-14,-2033,231,-64,-21,-67,15688,-9,2,-139,0,35475,-30,35,127,0,0,4080,32,0,10590,2739,229,32315,-4,0,36,0,534493,0
534509,2,-2032,229,-67,-19,-71,15693,-1,3,-111,-40,35473,-37,35,127,0,0,4078,-10,0,10590,2739,229,32325,-4,0,36,0,534493,0
534519,7,-2034,227,-77,-21,-70,15692,23,0,-82,-16,35475,-39,35,127,0,0,4080,0,0,10590,2739,229,32335,-4,0,36,0,534493,0
534529,0,-2044,232,-77,-24,-79,15690,-18,-1,-94,-48,35482,-40,35,127,0,0,4082,43,0,10590,2739,229,32345,-4,0,36,0,534509,0
534539,-15,-2047,232,-83,-19,-70,15692,5,-2,-97,-48,35498,-61,34,127,0,0,4075,-10,0,10590,2739,229,32355,-4,0,36,0,534509,0
534549,-17,-2053,240,-90,-19,-85,15687,-1,-10,-160,-32,35501,-54,34,127,0,0,4075,-10,0,10590,2739,229,32365,-4,0,36,0,534540,0
534559,26,-2050,241,-88,-28,-81,15687,-14,-3,-207,-64,35492,-43,34,127,0,0,4075,0,0,10590,2739,229,32375,-4,0,36,0,534540,0
534569,12,-2041,204,-86,2,-107,15689,1,10,-199,-64,35476,-48,34,127,0,0,4075,-10,0,10590,2739,229,32385,-4,0,36,0,534540,0
534579,-22,-2044,203,-81,-4,-97,15686,7,-1,-251,-104,35472,-56,35,127,0,0,4073,-21,0,10590,2739,229,32395,-4,0,36,0,534556,0
534589,25,-2040,222,-85,-1,-83,15683,1,-4,-250,-72,35490,-63,34,127,0,0,4073,10,0,10590,2739,229,32405,-4,0,36,0,534587,0
534599,30,-2046,236,-84,-14,-77,15682,-19,1,-273,-56,35489,-30,34,127,0,0,4071,-32,0,10590,2739,229,32415,-4,0,36,0,534587,0
534609,-6,-2038,203,-83,-13,-73,15680,-1,-8,-275,-88,35487,-13,35,127,0,0,4071,-10,0,10590,2739,229,32425,-4,0,36,0,534587,0
534619,-3,-2043,201,-85,-15,-78,15679,-6,0,-323,-112,35483,-32,35,127,0,0,4071,0,0,10590,2739,229,32435,-4,0,36,0,534587,0
534629,7,-2042,213,-74,-6,-78,15677,0,0,-312,-72,35487,-19,35,127,0,0,4073,21,0,10590,2739,229,32445,-4,0,36,0,534618,0
534639,-5,-2040,219,-74,-12,-74,15676,-14,-1,-325,-64,35484,-36,35,127,0,0,4067,0,0,10590,2739,229,32455,-4,0,36,0,534618,0
534649,4,-2050,220,-84,-8,-76,15674,-8,-10,-396,-144,35480,-29,35,127,0,0,4067,-21,0,10590,2739,229,32465,-4,0,36,0,534618,0
534659,5,-2043,215,-72,-1,-77,15670,-1,-2,-344,-40,35481,-32,35,127,0,0,4064,-32,0,10590,2739,229,32475,-4,0,36,0,534665,0
534669,8,-2043,215,-73,-10,-72,15668,-11,4,-408,-112,35490,-52,35,127,0,0,4064,-10,0,10590,2739,229,32485,-4,0,36,0,534665,0
534679,14,-2034,223,-79,-10,-69,15664,-7,-4,-374,-112,35484,-50,34,127,0,0,4062,-43,0,10590,2739,229,32495,-4,0,36,0,534665,0
534689,22,-2042,216,-78,-4,-65,15660,-20,-1,-416,-64,35468,-49,34,127,0,0,4062,0,0,10590,2739,229,32505,-4,0,36,0,534665,0
534699,24,-2042,217,-79,-10,-58,15652,-22,-17,-380,-128,35467,-48,35,127,0,0,4062,-10,0,10590,2739,229,32515,-4,0,36,0,534665,0
534709,25,-2036,204,-84,-14,-53,15639,-37,-17,-317,-88,35485,-62,34,127,0,0,4064,10,0,10590,2739,229,32525,-4,0,36,0,534696,0
534719,12,-2035,188,-71,-12,-46,15626,-21,-8,-206,-64,35484,-70,34,127,0,0,4060,-21,0,10590,2739,229,32535,-4,0,36,0,534696,0
534729,27,-2032,202,-73,-16,-39,15623,-5,27,-283,-48,35481,-53,34,127,0,0,4064,54,0,10590,2739,229,32545,-4,0,36,0,534712,0
534739,18,-2040,238,-69,-10,-34,15626,8,32,-212,-64,35482,-50,34,127,0,0,4058,-43,0,10590,2739,229,32555,-4,0,36,0,534712,0
534749,-10,-2041,233,-86,-15,-36,15623,7,-6,-216,-64,35496,-38,35,127,0,0,4062,-10,0,10590,2739,229,32565,-4,0,36,0,534759,0
534759,8,-2032,229,-94,-12,-28,15624,-10,-2,-198,-56,35492,-40,35,127,0,0,4062,0,0,10590,2739,229,32575,-4,0,36,0,534774,0
534769,38,-2048,195,-97,-1,-16,15623,-2,5,-212,-56,35479,-25,35,127,0,0,4064,21,0,10590,2739,229,32585,-4,0,36,0,534774,0
534779,22,-2032,193,-85,3,-8,15624,0,4,-175,-24,35462,-18,35,127,0,0,4062,0,0,10590,2739,229,32595,-4,0,36,0,534774,0
534789,40,-2040,208,-86,1,-1,15625,5,-1,-183,-72,35465,-45,34,127,0,0,4062,-10,0,10590,2739,229,32605,-4,0,36,0,534774,0
534799,51,-2036,206,-85,-14,17,15624,-4,-1,-198,-56,35474,-49,35,127,0,0,4062,0,0,10590,2739,229,32615,-4,0,36,0,534790,0
534809,46,-2037,209,-98,-3,40,15625,4,1,-136,-16,35466,-54,34,127,0,0,4062,-21,0,10590,2739,229,32625,-4,0,36,0,534790,0
534819,32,-2057,266,-99,5,42,15624,-15,-5,-191,-72,35475,-42,34,127,0,0,4064,21,0,10590,2739,229,32635,-4,0,36,0,534790,0
534829,16,-2045,293,-137,1,60,15627,6,0,-158,-40,35492,-41,34,127,0,0,4067,32,0,10590,2739,229,32645,-4,0,36,0,534868,0
534839,0,-2044,275,-157,-7,68,15630,23,17,-40,56,35499,-60,34,127,0,0,4067,-21,0,10590,2739,229,32655,-4,0,36,0,534868,0
534849,-28,-2046,220,-182,-23,44,15630,-2,-4,17,8,35482,-52,35,127,0,0,4071,21,0,10590,2739,229,32665,-4,0,36,0,534868,0
534859,-75,-2048,209,-185,-9,26,15638,15,4,105,56,35470,-42,35,127,0,0,4078,21,0,10590,2739,229,32675,-4,0,36,0,534868,0
534869,-28,-2039,223,-193,19,-15,15643,0,6,129,8,35464,-36,35,127,0,0,4078,43,0,10590,2739,229,32685,-4,0,36,0,534884,0
534879,-15,-2040,220,-202,7,-20,15647,25,-7,212,56,35477,-47,34,127,0,0,4075,-32,0,10590,2739,229,32695,-4,0,36,0,534884,0
534889,-25,-2044,219,-215,-10,-26,15651,-9,3,47,24,35480,-59,35,127,0,0,4073,-21,0,10590,2739,229,32705,-4,0,36,0,534884,0
534899,-39,-2038,222,-219,-5,-44,15652,9,-16,80,24,35472,-43,34,127,0,0,4078,0,0,10590,2739,229,32715,-4,0,36,0,534884,0
534909,13,-2036,230,-245,0,-59,15651,-8,0,72,-8,35477,-46,34,127,0,0,4078,21,0,10590,2739,229,32725,-4,0,36,0,534884,0
534919,-6,-2034,231,-260,-7,-54,15651,8,-4,70,-8,35494,-49,35,127,0,0,4075,0,0,10590,2739,229,32735,-4,0,36,0,534884,0
534929,-37,-2051,236,-294,-31,-81,15648,-16,-2,51,32,35513,-51,35,127,0,0,4075,21,0,10590,2739,229,32745,-4,0,36,0,534915,0
534939,-74,-2052,243,-306,-24,-108,15650,-9,-7,55,24,35496,-49,35,127,0,0,4073,-21,0,10590,2739,229,32755,-4,0,36,0,534930,0
534949,-64,-2050,230,-343,-24,-217,15648,-17,-7,12,8,35484,-34,35,127,0,0,4073,0,0,10590,2739,229,32765,-4,0,36,0,534930,0
534959,-264,-2022,224,-355,-9,-299,15647,-14,-7,-141,-96,35477,-47,34,127,0,0,4060,-131,0,10590,2739,229,32775,-4,0,36,0,534930,0
534969,-296,-2045,245,-403,5,-498,15617,-67,-59,-282,-152,35495,-42,35,127,0,0,4049,-120,0,10590,2739,229,32785,-4,0,36,0,534946,0
534979,-313,-2025,246,-443,-13,-624,15600,-29,-16,-638,-296,35492,-41,34,127,0,0,4027,-208,0,10590,2739,229,32795,-4,0,36,0,534946,0
534989,-448,-2024,367,-538,-14,-931,15547,-162,-45,-735,-416,35491,-40,34,127,0,0,4003,-241,0,10590,2739,229,32805,-4,0,36,0,534962,0
534999,-534,-2069,394,-624,0,-1186,15444,-245,-182,-593,-544,35491,-27,35,127,0,0,3968,-362,0,10590,2739,229,32815,-4,0,36,0,534993,0
535009,-575,-2076,440,-777,15,-1593,15316,-291,-133,-648,-672,35495,-39,35,127,0,0,3922,-472,0,10590,2739,229,32825,-4,0,36,0,534993,0
535019,-578,-2063,560,-916,-11,-1893,15160,-365,-97,-720,-936,35486,-21,35,127,0,0,3869,-560,0,10590,2739,229,32835,-4,0,36,0,534993,0
535029,-681,-1998,541,-1140,-75,-2393,14966,-468,-134,-785,-1288,35481,-5,34,127,0,0,3801,-670,0,10590,2739,229,32845,-4,0,36,0,535009,0
535039,-798,-1999,428,-1265,-125,-2769,14720,-564,-182,-801,-1568,35477,-11,34,127,0,0,3722,-769,0,10590,2739,229,32855,-4,0,36,0,535009,0
535049,-913,-1982,282,-1349,-209,-3427,14421,-690,-198,-828,-1968,35485,-19,35,127,0,0,3625,-988,0,10590,2739,229,32865,-4,0,36,0,535024,0
535059,-840,-1989,186,-1396,-163,-3850,14061,-834,-221,-858,-2280,35486,-22,35,127,0,0,3520,-1098,0,10590,2739,229,32875,-4,0,36,0,535040,0
535069,-778,-1992,-14,-1354,-78,-4434,13641,-971,-238,-847,-2640,35467,5,34,127,0,0,3396,-1252,0,10590,2739,229,32885,-4,0,36,0,535040,0
535079,-382,-2050,-92,-1232,94,-4669,13152,-1117,-250,-838,-3016,35471,30,34,127,0,0,3269,-1263,0,10590,2739,229,32895,-4,0,36,0,535071,0
535089,466,-3575,244,-878,-351,-4570,12593,-1271,-259,-741,-3200,35474,24,35,127,0,0,3153,-1120,0,10590,2739,229,32905,-4,0,36,0,535087,0
535099,445,-3856,251,-662,-1024,-4005,12002,-1297,-183,-455,-2912,35481,24,35,127,0,0,3080,-648,0,10590,2739,229,32915,-4,0,0,0,535087,0
535109,918,-3350,648,-924,-1217,-3204,11456,-1137,51,-184,-2080,35469,21,35,127,0,0,3071,-21,0,10590,2739,229,32925,-4,0,1,0,535087,0
535119,-157,-3125,619,-885,-1606,-3029,11031,-836,341,-81,-1184,35465,14,35,127,0,0,3093,230,0,10590,2739,229,32935,-4,0,2,0,535087,0
535129,172,-3042,254,-871,-1737,-2912,10750,-515,523,11,-112,35485,-11,35,127,0,0,3137,483,0,10590,2739,229,32945,-4,0,3,0,535165,0
535139,79,-3355,586,-715,-2065,-2829,10709,155,767,832,584,35497,-30,35,127,0,0,3203,681,0,10590,2739,229,32955,-4,0,4,0,535165,0
535149,-93,-3011,817,-621,-2273,-2719,10884,432,902,502,1112,35492,-11,34,127,0,0,3282,780,0,10590,2739,229,32965,-4,0,6,0,535165,0
535159,124,-2668,771,-666,-2461,-2716,11131,585,488,575,1496,35479,6,34,127,0,0,3377,944,0,10590,2739,229,32975,-4,0,7,0,535180,0
535169,558,-2366,261,-651,-2660,-2976,11450,743,262,636,1816,35477,1,35,127,0,0,3467,900,0,10590,2739,229,32985,-4,0,9,0,535180,0
535179,868,-2253,122,-535,-2731,-2887,11821,843,231,539,2040,35484,-30,34,127,0,0,3555,900,0,10590,2739,229,32995,-4,0,10,0,535180,0
535189,638,-2146,242,-295,-2504,-2400,12214,861,130,488,1984,35478,-24,35,127,0,0,3629,791,0,10590,2739,229,33005,-4,0,11,0,535180,0
535199,590,-1693,187,-89,-2016,-2093,12611,878,36,527,2024,35471,2,34,127,0,0,3700,670,0,10590,2739,229,33015,-4,0,12,0,535180,0
535209,452,-1168,-30,-11,-1230,-1816,13003,845,-7,322,1696,35474,9,34,127,0,0,3730,285,0,10590,2739,229,33025,-4,0,14,0,535180,0
535219,143,-1128,-143,177,-861,-1469,13340,694,-131,178,1056,35501,-10,35,127,0,0,3730,-43,0,10590,2739,229,33035,-4,0,15,0,535196,0
535229,65,-1115,-12,606,-508,-855,13597,498,-271,118,504,35516,-35,35,127,0,0,3728,-21,0,10590,2739,229,33045,-4,0,18,0,535212,0
535239,-45,-998,165,884,-406,-458,13763,310,-331,84,144,35506,-37,35,127,0,0,3728,10,0,10590,2739,229,33055,-4,0,19,0,535212,0
535249,14,-882,102,1165,-338,82,13838,99,-346,-60,0,35492,-26,35,127,0,0,3726,-21,0,10590,2739,229,33065,-4,0,22,0,535212,0
535259,93,-875,-28,1302,-302,527,13825,-61,-345,11,32,35494,-25,35,127,0,0,3728,0,0,10590,2739,229,33075,-4,0,24,0,535243,0
535269,-63,-911,-98,1500,-309,1313,13820,24,-130,195,104,35503,-11,35,127,0,0,3737,98,0,10590,2739,229,33085,-4,0,27,0,535258,0
535279,-45,-942,-75,1590,-292,1776,13846,71,94,390,184,35498,-17,35,127,0,0,3755,186,0,10590,2739,229,33095,-4,0,29,0,535258,0
535289,-102,-1038,-47,1682,-273,2412,13905,130,112,536,344,35482,-9,35,127,0,0,3783,307,0,10590,2739,229,33105,-4,0,32,0,535258,0
535299,-104,-1128,-78,1727,-242,2786,13995,237,118,606,576,35485,-3,35,127,0,0,3825,417,0,10590,2739,229,33115,-4,0,35,0,535290,0
535309,-10,-1244,-112,1756,-140,3364,14137,333,166,582,816,35494,-8,35,127,0,0,3873,494,0,10590,2739,229,33125,-4,0,39,0,535290,0
535319,-24,-1318,-103,1770,-28,3703,14318,429,166,613,1104,35487,-10,34,127,0,0,3941,681,0,10590,2739,229,33135,-4,0,41,0,535290,0
535329,-29,-1439,-61,1803,192,4101,14551,543,177,656,1424,35483,-29,34,127,0,0,4014,714,0,10590,2739,229,33145,-4,0,45,0,535305,0
535339,-35,-1523,-71,1834,369,4312,14841,663,211,609,1672,35483,-21,35,127,0,0,4100,878,0,10590,2739,229,33155,-4,0,48,0,535321,0
535349,11,-1679,-14,1908,623,4590,15177,768,191,600,1944,35489,-25,34,127,0,0,4194,955,0,10590,2739,229,33165,-4,0,53,0,535321,0
535359,70,-1754,-7,1978,841,4711,15563,878,181,679,2240,35488,-21,35,127,0,0,4297,1043,0,10590,2739,229,33175,-4,0,55,0,535337,0
535369,200,-1808,0,2069,1144,4875,16002,989,188,678,2576,35471,8,34,127,0,0,4412,1186,0,10590,2739,229,33185,-4,0,60,0,535337,0
535379,234,-1838,20,2134,1289,4900,16487,1094,181,841,2824,35473,-2,34,127,0,0,4532,1241,0,10590,2739,229,33195,-4,0,63,0,535368,0
535389,337,-1842,48,2166,1488,4899,17020,1185,170,810,3016,35472,5,35,127,0,0,4649,1164,0,10590,2739,229,33205,-4,0,67,0,535368,0
535399,415,-1876,64,2176,1566,4820,17578,1236,134,730,3048,35474,5,35,127,0,0,4759,1054,0,10590,2739,229,33215,-4,0,70,0,535368,0
535409,526,-1986,161,2173,1573,4580,18146,1249,64,700,3080,35466,30,35,127,0,0,4858,988,0,10590,2739,229,33225,-4,0,74,10,535399,0
535419,609,-2087,211,2181,1484,4384,18711,1234,14,549,2864,35463,34,35,127,0,0,4948,867,0,10590,2739,229,33235,-4,0,76,8,535399,0
535429,699,-2137,277,2074,1167,4074,19248,1163,-63,480,2704,35474,13,34,127,0,0,5025,769,0,10590,2739,229,33245,-4,0,80,6,535415,0
535439,698,-2153,376,1940,869,3840,19745,1059,-132,455,2464,35472,10,35,127,0,0,5095,692,0,10590,2739,229,33255,-4,0,82,4,535415,0
535449,738,-2142,388,1770,286,3454,20191,947,-181,536,2240,35472,0,35,127,0,0,5156,626,0,10590,2739,229,33265,-4,0,84,2,535415,0
535459,782,-2062,316,1650,-126,3187,20597,863,-177,512,2008,35475,10,35,127,0,0,5214,538,0,10590,2739,229,33275,-4,0,86,1,535446,0
535469,898,-1728,212,1375,-668,2824,20965,804,-144,521,1872,35480,6,35,127,0,0,5269,527,0,10590,2739,229,33285,-4,0,88,0,535446,0
535479,877,-1608,220,1184,-1056,2633,21305,729,-111,519,1752,35483,-8,35,127,0,0,5317,472,0,10590,2739,229,33295,-4,0,89,0,535446,0
535489,748,-1656,55,995,-1605,2287,21609,650,-116,567,1584,35476,-16,35,127,0,0,5365,472,0,10590,2739,229,33305,-4,0,90,-2,535462,0
535499,663,-1736,-20,923,-1947,2053,21894,610,-105,624,1512,35475,2,35,127,0,0,5414,505,0,10590,2739,229,33315,-4,0,90,-3,535524,0
535509,631,-1804,-41,842,-2305,1754,22166,588,-58,613,1416,35476,-2,35,127,0,0,5458,450,0,10590,2739,229,33325,-4,0,90,-4,535540,0
535519,626,-1729,-46,702,-2432,1606,22427,577,-38,534,768,35478,-6,34,127,0,0,5504,439,0,10590,2739,229,33335,-4,0,90,-5,535540,0
535529,654,-1633,-10,567,-2589,1568,22533,-71,-352,-1354,-792,35469,-14,35,127,0,0,5552,549,0,10590,2739,229,33345,-4,0,90,-6,535540,0
535539,492,-1521,-188,545,-2627,1235,22329,-532,-986,-724,-1592,35457,-17,34,127,0,0,5587,340,0,10590,2739,229,33355,-4,0,90,-6,535540,0
535549,638,-1417,-262,440,-2748,1082,21999,-815,-780,-845,-2256,35453,-9,34,127,0,0,5625,373,0,10590,2739,229,33365,-4,0,90,-6,535540,0
535559,497,-1417,-184,342,-2791,978,21549,-1078,-466,-976,-3096,35453,-11,35,127,0,0,5651,219,0,10590,2739,229,33375,-4,0,88,-11,535540,0
535569,303,-1492,-181,197,-2776,860,20960,-1376,-502,-926,-3808,35453,4,34,127,0,0,5682,296,0,10590,2739,229,33385,-4,0,88,-12,535540,0
535579,241,-1567,-281,86,-2723,821,20224,-1727,-551,-983,-4584,35446,26,34,127,0,0,5719,417,0,10590,2739,229,33395,-4,0,88,-12,535555,0
535589,114,-1716,-355,-152,-2588,775,19320,-2107,-613,-1093,-5592,35447,57,35,127,0,0,5759,406,0,10590,2739,229,33405,-4,0,88,-12,535618,0
535599,-20,-1822,-319,-382,-2397,666,18245,-2472,-659,-1197,-6616,35442,71,34,127,0,0,5800,428,0,10590,2739,229,33415,-4,0,88,-12,535618,0
535609,-175,-1944,-200,-721,-1867,389,16985,-2901,-681,-1272,-7784,35431,113,35,127,0,0,5840,362,0,10590,2739,229,33425,-4,0,88,-12,535618,0
535619,-260,-1997,-197,-958,-1394,194,15488,-3423,-819,-1151,-8200,35414,162,35,127,0,0,5873,307,0,10590,2739,229,33435,-4,0,88,-12,535618,0
535629,-464,-2004,-227,-1165,-488,-82,13997,-3167,-390,-312,-7424,35420,199,35,127,0,0,5890,164,0,10590,2739,229,33445,-4,0,88,-12,535618,0
535639,-471,-1917,-436,-1245,217,-169,12634,-2946,334,-259,-6928,35438,178,35,127,0,0,5917,241,0,10590,2739,229,33455,-4,0,88,-12,535618,0
535649,-535,-1753,-408,-1262,1219,-336,11336,-2803,347,-302,-6456,35457,112,34,127,0,0,5937,219,0,10590,2739,229,33465,-4,0,88,-12,535618,0
535659,-459,-1711,-325,-1131,1802,-484,10131,-2579,305,-436,-6160,35460,55,35,127,0,0,5958,175,0,10590,2739,229,33475,-4,0,88,-12,535633,0
535669,-263,-1592,-218,-1048,2558,-638,8998,-2471,318,-570,-5920,35467,57,34,127,0,0,5985,274,0,10590,2739,229,33485,-4,0,88,-12,535680,0
535679,-216,-1584,-4,-1002,2927,-707,7890,-2426,164,-638,-5728,35462,70,34,127,0,0,6013,296,0,10590,2739,229,33495,-4,0,88,-12,535680,0
535689,-93,-1782,142,-977,3347,-882,6802,-2368,84,-673,-5664,35450,69,34,127,0,0,6046,340,0,2947,254,230,9,1,4,88,-12,535680,0
535699,-35,-1917,282,-998,3598,-1008,5744,-2306,99,-734,-5792,35436,69,35,127,0,0,6084,373,0,2947,254,230,19,1,4,88,-12,535680,0
535709,166,-2199,416,-958,3862,-1251,4693,-2339,65,-801,-6032,35421,84,34,127,0,0,6123,384,0,2947,254,230,29,1,4,88,-12,535680,0
535719,216,-2313,547,-926,3947,-1496,3579,-2495,-135,-670,-5456,35436,101,34,127,0,0,6161,318,0,2947,254,230,39,1,4,88,-12,535696,0
535729,392,-2306,678,-876,3919,-2055,2555,-2084,164,341,-3040,35463,81,35,127,0,0,6180,153,0,2947,254,230,49,1,4,88,-12,535712,0
535739,573,-2307,744,-849,3781,-2335,1838,-1347,658,576,-1392,35491,31,35,127,0,0,6185,21,0,2947,254,230,59,1,4,88,-12,535712,0
535749,629,-2276,774,-748,3255,-2568,1405,-796,1149,295,-480,35487,-14,35,127,0,0,6185,0,0,2947,254,230,69,1,4,88,-12,535712,0
535759,642,-2139,743,-660,2719,-2792,1185,-356,949,231,-56,35483,-43,35,127,0,0,6183,-32,0,2947,254,230,79,1,4,88,-12,535758,0
535769,2454,-4336,2048,-177,5371,-3014,1161,53,777,200,32,35482,-48,34,127,0,0,6121,-736,0,2947,254,230,89,1,4,88,-12,535758,0
535779,-254,-5619,-567,-137,6020,-5996,1031,-632,212,-2465,-2128,35479,-38,35,127,0,0,5699,-4537,0,2947,254,230,99,1,4,88,-12,535758,0
535789,176,-433,2602,792,3766,-5733,651,-820,-780,-214,-1368,35466,0,34,127,0,0,5218,-4757,0,2947,254,230,109,1,4,88,-12,535758,0
535799,2208,-2236,732,-728,2820,-4337,517,293,-55,3034,2480,35455,8,34,127,0,0,4882,-3273,0,2947,254,230,119,1,4,88,-12,535774,0
535809,-377,-3930,1496,-207,-376,-4471,1054,1373,1860,1500,4152,35466,44,35,127,0,0,4530,-3515,0,2947,254,230,129,1,4,88,-12,535790,0
535819,-1224,-3573,1217,172,-1182,-3863,1792,1965,1845,1725,6000,35460,42,35,127,0,0,4166,-3526,0,2947,254,230,139,1,4,88,-12,535790,0
535829,-1874,-3161,933,34,-316,-3923,2943,2784,1240,1866,7776,35415,116,35,127,0,0,3882,-2834,0,2947,254,230,149,1,4,88,-12,535805,0
535839,-3164,-13206,1095,96,-683,-4665,4406,3361,1269,1618,9304,35386,213,34,127,0,0,3596,-2867,0,2947,254,230,159,1,4,88,-12,535821,0
535849,1356,708,-2444,807,-572,-4194,6088,3934,986,2436,11864,35346,293,34,127,0,0,3520,-527,0,2947,254,230,169,1,4,88,-12,535821,0
535859,-2931,-2354,-1443,-2600,-499,-4476,8157,4618,1197,-183,7784,35378,432,35,127,0,0,3353,-1582,0,2947,254,230,179,1,4,88,-12,535821,0
535869,-966,-2875,-2434,28,42,-5326,9726,2845,-416,-2541,3296,35453,317,35,127,0,0,3201,-1614,0,2947,254,230,189,1,4,88,-12,535852,0
535879,-164,-1229,-2015,125,316,-5458,10503,1261,-2722,-1810,128,35506,90,35,127,0,0,3043,-1560,0,2947,254,230,199,1,4,88,-12,535883,0
535889,70,-2066,-451,611,1227,-6053,10545,-440,-2890,-1905,-1672,35530,-141,35,127,0,0,2865,-1779,0,2947,254,230,209,1,4,88,-12,535883,0
535899,1381,-1976,862,545,995,-5757,10200,-884,-2110,-1086,-2504,35483,-211,35,127,0,0,2713,-1516,0,2947,254,230,219,1,4,88,-12,535883,0
535909,2430,-1447,1513,-86,200,-4725,9716,-1124,-847,-773,-2824,35467,-59,35,127,0,0,2583,-1274,0,2947,254,230,229,1,4,88,-12,535883,0
535919,2891,-1286,1545,-140,107,-4025,9177,-1207,-336,-527,-2824,35461,19,35,127,0,0,2469,-1109,0,2947,254,230,239,1,4,88,-12,535883,0
535929,3338,-1129,877,42,79,-3117,8631,-1211,-104,-556,-2808,35464,26,35,127,0,0,2353,-1109,0,2947,254,230,249,1,4,88,-12,535930,0
535939,2690,-2069,1198,205,-138,-2313,8086,-1193,-9,-498,-2816,35465,13,34,127,0,0,2236,-1131,0,2947,254,230,259,1,4,88,-12,535946,0
535949,1167,-2070,1035,-740,-742,-1087,7541,-1188,2,-396,-2520,35464,2,35,127,0,0,2157,-703,0,2947,254,230,269,1,4,88,-12,535946,0
535959,-121,-2528,804,-1047,-844,-932,7044,-1044,106,-201,-2008,35459,16,34,127,0,0,2113,-439,0,2947,254,230,279,1,4,88,-12,535946,0
535969,12,-1984,-473,-836,-20,-1412,6634,-839,273,-165,-1512,35457,8,34,127,0,0,2078,-384,0,2947,254,230,289,1,4,88,-12,535946,0
535979,226,-1857,-971,-620,386,-1658,6311,-659,337,-274,-1280,35474,-8,35,127,0,0,2025,-516,0,2947,254,230,299,1,4,88,-12,535946,0
535989,1344,-1896,10,-244,160,-1468,6035,-588,245,-401,-1296,35492,-43,35,127,0,0,1968,-516,0,2947,254,230,309,1,4,88,-12,535961,0
535999,1200,-1816,862,-412,-240,-1171,5781,-551,113,-492,-1232,35493,-33,35,127,0,0,1929,-351,0,2947,254,230,319,1,4,88,-12,535961,0
536009,380,-1989,952,-775,-563,-1107,5546,-489,74,-431,-1040,35482,-18,35,127,0,0,1898,-296,0,2947,254,230,329,1,4,88,-12,536008,0
536019,218,-1872,274,-791,-415,-1308,5335,-450,90,-422,-936,35466,-27,35,127,0,0,1861,-340,0,2947,254,230,339,1,4,88,-12,536024,0
536029,467,-1930,-419,-590,-54,-1649,5143,-405,84,-495,-928,35475,-29,35,127,0,0,1817,-461,0,2947,254,230,349,1,4,88,-12,536024,0
536039,715,-1804,-258,-418,-17,-1690,4953,-425,36,-578,-1032,35478,-43,35,127,0,0,1766,-483,0,2947,254,230,359,1,4,88,-12,536024,0
536049,735,-1816,262,-364,-180,-1720,4743,-476,-47,-566,-1096,35469,-19,35,127,0,0,1716,-472,0,2947,254,230,369,1,4,88,-12,536024,0
536059,614,-1833,411,-381,-210,-1798,4516,-514,-70,-569,-1200,35478,-19,35,127,0,0,1663,-516,0,2947,254,230,379,1,4,88,-12,536024,0
536069,497,-1971,213,-380,-155,-1913,4278,-540,-52,-626,-1296,35486,-31,35,127,0,0,1608,-549,0,2947,254,230,389,1,4,88,-12,536055,0
536079,679,-1913,159,-352,-111,-1985,4024,-577,-61,-558,-1368,35497,-17,35,127,0,0,1553,-571,0,2947,254,230,399,1,4,88,-12,536055,0
536089,781,-1829,230,-383,-85,-2039,3755,-594,-59,-497,-1376,35479,-27,35,127,0,0,1500,-527,0,2947,254,230,409,1,4,88,-12,536055,0
536099,845,-1880,475,-425,-211,-2038,3478,-622,-38,-547,-1368,35477,-25,35,127,0,0,1447,-516,0,2947,254,230,419,1,4,88,-12,536071,0
536109,570,-1832,647,-619,-435,-2127,3197,-611,-24,-538,-1456,35489,-30,35,127,0,0,1395,-516,0,2947,254,230,429,1,4,88,-12,536086,0
536119,434,-1809,711,-743,-504,-2296,2910,-627,-13,-526,-1464,35500,-34,35,127,0,0,1344,-483,0,2947,254,230,439,1,4,88,-12,536102,0
536129,785,-1761,263,-708,-257,-2643,2622,-646,-18,-583,-1592,35488,-23,34,127,0,0,1278,-637,0,2947,254,230,449,1,4,88,-12,536102,0
536139,1146,-1793,54,-723,-273,-2598,2311,-712,-60,-616,-1760,35482,-28,34,127,0,0,1212,-659,0,2947,254,230,459,1,4,88,-12,536133,0
536149,1249,-1680,277,-811,-596,-2313,1973,-746,-102,-581,-1840,35476,-2,35,127,0,0,1151,-615,0,2947,254,230,469,1,4,88,-12,536133,0
536159,1085,-1710,378,-868,-700,-2283,1618,-788,-75,-555,-1896,35482,-4,35,127,0,0,1096,-549,0,2947,254,230,479,1,4,88,-12,536133,0
536169,764,-1862,180,-797,-680,-2402,1264,-764,-30,-536,-1888,35474,-16,35,127,0,0,1041,-571,0,2947,254,230,489,1,4,88,-12,536133,0
536179,818,-1908,23,-679,-601,-2522,906,-802,-1,-560,-1880,35473,16,35,127,0,0,979,-582,0,2947,254,230,499,1,4,88,-12,536180,0
536189,1019,-2161,45,-507,-517,-2669,559,-715,14,-234,-1176,35476,-7,35,127,0,0,918,-637,0,2947,254,230,509,1,4,88,-12,536180,0
536199,980,-2310,255,-505,-659,-2595,299,-506,215,-207,-640,35483,1,35,127,0,0,870,-483,0,2947,254,230,519,1,4,88,-12,536180,0
536209,818,-2531,288,-699,-885,-2599,128,-310,346,-243,-272,35479,-35,34,127,0,0,826,-406,0,2947,254,230,529,1,4,88,-12,536180,0
536219,735,-2823,299,-793,-976,-2599,34,-154,319,-168,-72,35479,-37,34,127,0,0,806,-219,0,2947,254,230,539,1,4,88,-12,536180,0
536229,664,-2794,194,-723,-888,-2801,32,54,331,-212,-48,35489,-39,35,127,0,0,804,-21,0,2947,254,230,549,1,4,88,-12,536258,0
536239,723,-2674,138,-630,-793,-3054,32,-33,163,-223,-56,35499,-65,34,127,0,0,802,21,0,2947,254,230,559,1,4,88,-12,536258,0
536249,637,-3060,13,-651,-982,-3070,34,-2,-23,-220,-56,35499,-49,35,127,0,0,821,197,0,2947,254,230,569,1,4,88,-12,536274,0
536259,801,-2981,389,-702,-1180,-3130,36,11,16,-195,-32,35481,-46,35,127,0,0,865,483,0,2947,254,230,579,1,4,88,-12,536274,0
536269,758,-2861,640,-615,-1435,-3559,35,7,-4,-125,-24,35472,-30,35,127,0,0,922,560,0,2947,254,230,589,1,4,88,-12,536274,0
536279,788,-2863,418,-324,-1425,-3837,37,-7,0,-119,-8,35476,-33,35,127,0,0,975,538,0,2947,254,230,599,1,4,88,-12,536289,0
536289,1295,-2854,168,-36,-1834,-3994,38,11,-4,30,184,35483,-43,35,127,0,0,1037,626,0,2947,254,230,609,1,4,88,-12,536289,0
536299,1036,-3581,392,115,-2242,-3941,119,296,179,826,928,35476,-39,35,127,0,0,1116,780,0,2947,254,230,619,1,4,88,-12,536289,0
536309,145,-4321,970,-10,-2881,-4008,345,580,461,915,1880,35474,-29,35,127,0,0,1230,1186,0,2947,254,230,629,1,4,88,-12,536289,0
536319,-441,-4786,1198,-48,-3167,-4310,724,944,565,1027,2672,35483,-10,35,127,0,0,1375,1505,0,2947,254,230,639,1,4,88,-12,536289,0
536329,-713,-5047,980,137,-3246,-4708,1256,1271,590,1037,3496,35500,3,34,127,0,0,1549,1746,0,2947,254,230,649,1,4,88,-12,536321,0
536339,-789,-4801,814,412,-3201,-4853,1928,1567,555,1014,4208,35494,31,35,127,0,0,1755,2054,0,2947,254,230,659,1,4,88,-12,536321,0
536349,-841,-3762,755,809,-3603,-4373,2736,1860,525,1042,5008,35459,75,34,127,0,0,2008,2581,0,2947,254,230,669,1,4,88,-12,536321,0
536359,-587,-2779,1251,1031,-4256,-3532,3677,2168,514,1199,5904,35442,89,34,127,0,0,2329,3317,0,2947,254,230,679,1,4,88,-12,536352,0
536369,-57,1062,1104,1313,-5344,-2535,4765,2487,546,1234,6704,35432,108,35,127,0,0,2647,3164,0,2947,254,230,689,1,4,88,-12,536352,0
536379,384,3568,-692,918,-5792,-2204,5956,2675,474,1038,7008,35432,131,35,127,0,0,2891,2351,0,2947,254,230,699,1,4,88,-12,536368,0
536389,1419,2696,-2275,344,-4365,-946,7191,2690,256,401,6088,35416,162,35,127,0,0,3016,1208,0,2947,254,230,709,1,4,88,-12,536368,0
536399,-1236,1288,-1727,1286,-3196,-650,8328,2370,-159,-225,3544,35432,142,35,127,0,0,2944,-878,0,2947,254,230,719,0,4,88,-12,536368,0
536409,-2571,-25,128,2520,-794,934,9119,1407,-926,-1234,808,35477,55,35,127,0,0,2845,-955,0,2947,254,230,729,0,4,88,-12,536399,0
536419,-2716,11,1899,2280,138,1716,9398,190,-1730,-1798,-464,35502,-39,35,127,0,0,2799,-384,0,2947,254,230,739,0,4,88,-12,536399,0
536429,-1179,-171,1494,1719,1784,2752,9263,-333,-1767,-327,-424,35495,-80,34,127,0,0,2781,-131,0,2947,254,230,749,0,4,88,-12,536399,0
536439,-125,211,248,1782,2690,3800,9120,-291,-662,-137,-104,35476,-77,34,127,0,0,2790,87,0,2947,254,230,759,0,4,88,-12,536414,0
536449,190,1444,-431,1881,3145,5405,9091,62,247,321,224,35484,-23,35,127,0,0,2823,351,0,2947,254,230,769,0,4,88,-12,536430,0
536459,415,1707,-233,1899,3281,6125,9191,255,490,470,488,35491,-34,35,127,0,0,2871,450,0,2947,254,230,779,0,4,88,-12,536446,0
536469,798,931,420,1858,3377,7278,9324,305,277,586,672,35486,-2,35,127,0,0,2924,505,0,2947,254,230,789,0,4,88,-12,536446,0
536479,929,500,644,1771,3502,8235,9485,371,111,680,1080,35468,1,34,127,0,0,3012,933,0,2947,254,230,799,0,4,88,-12,536446,0
536489,1063,302,418,1742,3525,9171,9717,586,201,1082,1904,35467,11,34,127,0,0,3157,1483,0,2947,254,230,809,0,4,88,-12,536477,0
536499,1394,318,-80,1899,3358,9375,10106,964,461,1214,2848,35463,-6,35,127,0,0,3337,1823,0,2947,254,230,819,0,4,88,-12,536477,0
536509,2086,205,-601,2068,3039,9711,10677,1371,657,1119,3720,35455,-1,35,127,0,0,3533,2010,0,2947,254,230,829,0,4,88,-12,536477,0
536519,2336,54,-444,2176,2895,9929,11408,1692,649,1106,4600,35439,35,35,127,0,0,3752,2241,0,2947,254,230,839,0,4,88,-12,536493,0
536529,2110,-294,-435,1977,2500,9856,12286,2020,572,1088,5312,35439,66,35,127,0,0,3988,2406,0,2947,254,230,849,0,4,88,-12,536508,0
536539,2439,-490,-202,1862,2387,9610,13272,2230,484,1035,5872,35436,79,35,127,0,0,4238,2493,0,2947,254,230,859,0,4,88,-12,536508,0
536549,2777,-1088,-434,1665,2370,9172,14340,2404,351,977,6448,35434,93,35,127,0,0,4495,2581,0,2947,254,230,869,0,4,88,-12,536524,0
536559,2712,-1595,-479,1537,2409,8834,15532,2698,394,807,6600,35429,123,35,127,0,0,4721,2208,0,2947,254,230,879,0,4,88,-12,536539,0
536569,2616,-2334,-320,1383,2547,8076,16771,2694,315,546,6336,35435,133,35,127,0,0,4926,2032,0,2947,254,230,889,0,4,88,-12,536539,0
536579,2548,-2841,-159,1276,2663,7476,17940,2517,-97,422,5936,35458,114,34,127,0,0,5099,1680,0,2947,254,230,899,0,4,88,-12,536555,0
536589,2458,-3484,133,1061,2614,6771,19025,2331,-301,335,5448,35468,86,35,127,0,0,5255,1538,0,2947,254,230,909,0,4,88,-12,536633,0
536599,2351,-3863,333,947,2441,6369,20022,2132,-329,330,4936,35463,59,34,127,0,0,5405,1483,0,2947,254,230,919,0,4,88,-12,536633,0
536609,2183,-4145,572,885,1955,5830,20923,1934,-353,421,3960,35449,34,34,127,0,0,5550,1439,0,2947,254,230,929,0,4,88,-12,536633,0
536619,2137,-4163,604,814,1501,5535,21649,1414,-527,-490,1272,35457,40,35,127,0,0,5686,1351,0,2947,254,230,939,0,4,88,-12,536633,0
536629,2004,-3668,696,259,852,4921,21970,296,-1192,-2046,-744,35468,-6,34,127,0,0,5811,1197,0,2947,254,230,949,0,4,88,-12,536633,0
536639,1793,-3844,623,320,276,4362,21762,-584,-1847,-924,-1888,35471,-37,35,127,0,0,5908,900,0,2947,254,230,959,0,4,88,-12,536633,0
536649,1604,-4104,332,321,-451,3853,21366,-1000,-1259,-1133,-3008,35448,-38,34,127,0,0,5976,637,0,2947,254,230,969,0,4,88,-12,536633,0
536659,1210,-4077,368,396,-819,3490,20776,-1423,-720,-1171,-4000,35433,-2,34,127,0,0,6020,439,0,2947,254,230,979,0,4,88,-12,536633,0
536669,809,-3701,481,482,-1062,2874,19997,-1836,-729,-1081,-4888,35442,51,35,127,0,0,6033,131,0,2947,254,230,989,0,4,88,-12,536649,0
536679,745,-3213,438,329,-1140,2556,19051,-2170,-675,-969,-5624,35458,71,35,127,0,0,6033,21,0,2947,254,230,999,0,4,88,-12,536649,0
536689,399,-2849,567,55,-1532,1835,17993,-2382,-518,-872,-6080,35448,94,34,127,0,0,6029,-54,0,2947,254,230,1009,0,4,88,-12,536680,0
536699,162,-2566,401,-77,-1805,998,16845,-2596,-374,-901,-6552,35439,118,34,127,0,0,6022,-87,0,2947,254,230,1019,0,4,88,-12,536680,0
536709,136,-2071,51,-198,-2194,-171,15593,-2794,-371,-743,-6728,35428,129,35,127,0,0,6020,-32,0,2947,254,230,1029,0,4,88,-12,536696,0
536719,64,-1786,64,-320,-2323,-1012,14348,-2707,-154,-809,-6824,35427,127,34,127,0,0,6022,32,0,2947,254,230,1039,0,4,88,-12,536696,0
536729,-59,-1197,76,-515,-2432,-2104,13125,-2685,215,-623,-6712,35427,122,34,127,0,0,6042,230,0,2947,254,230,1049,0,4,88,-12,536696,0
536739,-48,-1116,-112,-746,-2252,-2935,11900,-2685,-104,-478,-6344,35432,128,34,127,0,0,6073,307,0,2947,254,230,1059,0,4,88,-12,536711,0
536749,-1872,-4483,322,204,4922,-4418,10710,-2595,-214,-814,-6968,35441,108,34,127,0,0,5866,-2625,0,2947,254,230,1069,0,4,88,-12,536727,0
536759,-4029,-4021,-114,-528,4327,-7649,9265,-3589,-370,-3433,-10816,35384,107,35,127,0,0,5376,-4954,0,3197,1490,231,7,1,4,218,-53,536789,0
536769,-1487,-1741,625,-998,5319,-7316,7732,-2465,-888,5818,1304,35405,317,34,127,0,0,4906,-4669,0,3197,1490,231,17,1,4,218,-53,536789,0
536779,-187,-2816,-80,-2455,5859,-6676,8190,1900,3801,4439,5952,35349,207,34,127,0,0,4491,-4174,0,3197,1490,231,27,1,4,218,-53,536805,0
536789,-194,-142,103,-1968,2262,-7222,9399,2931,5378,2178,8672,35368,368,35,127,0,0,4016,-4570,0,3197,1490,231,37,1,4,218,-53,536805,0
536799,1698,-2039,-1242,-1424,1367,-7037,11050,3837,2185,728,5712,35342,270,34,127,0,0,3574,-4515,0,3197,1490,231,47,1,4,218,-53,536805,0
536809,721,-1910,506,-466,1395,-6805,12058,1284,-245,-5200,-1264,35416,379,35,127,0,0,3133,-4416,0,3197,1490,231,57,1,4,218,-53,536805,0
536819,695,-1924,1389,-403,1940,-7296,11641,-1497,-4135,-3198,-5048,35414,120,34,127,0,0,2652,-4636,0,3197,1490,231,67,1,4,218,-53,536805,0
536829,-6187,-7726,5404,2236,-1997,-2438,10664,-2719,-4043,-1822,-7000,35427,89,34,127,0,0,2390,-2065,0,3197,1490,231,77,1,4,218,-53,536805,0
536839,-554,3040,-990,-2914,-1851,-6608,9441,-2540,-1521,36,-5016,35407,54,35,127,0,0,2225,-2098,0,3197,1490,231,87,1,4,218,-53,536821,0
536849,-1070,-2854,269,-2477,-968,-6668,8392,-2251,205,-329,-5024,35453,171,35,127,0,0,2043,-1538,0,3197,1490,231,97,1,4,218,-53,536821,0
536859,741,-14,-4366,-2311,1066,-8210,7443,-2029,493,-553,-4968,35472,109,35,127,0,0,1806,-2581,0,3197,1490,231,107,1,4,218,-53,536867,0
536869,3252,-1489,-1613,-413,533,-6845,6481,-2184,137,-980,-5384,35464,26,35,127,0,0,1604,-1944,0,3197,1490,231,117,1,4,218,-53,536867,0
536879,3021,-1154,60,-283,41,-6047,5493,-2154,-107,-607,-5312,35452,45,35,127,0,0,1419,-1779,0,3197,1490,231,127,1,4,218,-53,536867,0
536889,2155,-1152,3492,-1114,-998,-4942,4523,-2122,10,-455,-5112,35461,69,35,127,0,0,1278,-1417,0,3197,1490,231,137,1,4,218,-53,536867,0
536899,2208,-1423,1929,-1830,-1191,-4643,3583,-2037,93,-369,-4888,35461,78,35,127,0,0,1140,-1406,0,3197,1490,231,147,1,4,218,-53,536883,0
536909,2578,-1261,-1100,-2077,-1567,-3539,2671,-1985,120,-437,-4648,35456,64,35,127,0,0,1019,-1197,0,3197,1490,231,157,1,4,218,-53,536883,0
536919,1777,-1780,-1565,-1845,-1421,-2989,1809,-1840,155,-204,-3608,35469,49,35,127,0,0,920,-988,0,3197,1490,231,167,1,4,218,-53,536914,0
536929,771,-2155,285,-1351,-721,-2736,1080,-1474,380,129,-2152,35483,-3,35,127,0,0,839,-758,0,3197,1490,231,177,1,4,218,-53,536914,0
536939,1086,-2087,1073,-1347,-535,-2812,541,-1054,649,192,-1072,35487,-25,34,127,0,0,764,-747,0,3197,1490,231,187,1,4,218,-53,536914,0
536949,2092,-1928,449,-1545,-1075,-2301,193,-651,733,89,-376,35486,-38,34,127,0,0,714,-450,0,3197,1490,231,197,1,4,218,-53,536992,0
536959,2022,-1908,112,-1598,-1509,-1914,14,-284,682,139,-16,35485,-41,35,127,0,0,681,-318,0,3197,1490,231,207,1,4,218,-53,537008,0
536969,946,-2699,172,-1314,-1698,-1851,13,72,659,-94,-16,35496,-42,35,127,0,0,659,-197,0,3197,1490,231,217,1,4,218,-53,537008,0
536979,535,-2861,97,-1036,-1458,-2093,32,-8,341,-239,-56,35488,-44,35,127,0,0,643,-109,0,3197,1490,231,227,1,4,218,-53,537008,0
536989,827,-2968,-245,-869,-1527,-2477,29,16,-50,-181,-48,35468,-34,34,127,0,0,641,0,0,3197,1490,231,237,1,4,218,-53,537008,0
536999,581,-3812,-159,-1054,-1510,-2649,29,-2,-20,-191,-48,35461,-43,34,127,0,0,652,98,0,3197,1490,231,247,1,4,218,-53,537024,0
537009,526,-4207,171,-1124,-1681,-2612,32,19,14,-31,80,35468,-51,35,127,0,0,716,736,0,3197,1490,231,257,1,4,218,-53,537024,0
537019,69,-3752,397,-804,-1656,-3191,78,135,103,386,272,35477,-57,34,127,0,0,791,758,0,3197,1490,231,267,1,4,218,-53,537024,0
537029,568,-3696,126,-324,-1901,-3924,168,218,174,360,280,35469,-47,34,127,0,0,872,823,0,3197,1490,231,277,1,4,218,-53,537024,0
537039,539,-4263,417,-73,-2184,-4077,269,207,97,236,168,35469,-32,35,127,0,0,966,1021,0,3197,1490,231,287,1,4,218,-53,537024,0
537049,51,-4232,694,-69,-2812,-4065,346,168,-37,417,360,35481,-69,35,127,0,0,1096,1340,0,3197,1490,231,297,1,4,218,-53,537024,0
537059,-370,-4462,861,-139,-3207,-4180,471,364,59,1193,1808,35501,-61,35,127,0,0,1267,1724,0,3197,1490,231,307,1,4,218,-53,537024,0
537069,-989,-4610,894,159,-3305,-4302,846,998,623,1475,3216,35496,-51,35,127,0,0,1469,2076,0,3197,1490,231,317,1,4,218,-53,537055,0
537079,-942,-4315,802,518,-3194,-4354,1476,1533,996,1356,4376,35464,19,35,127,0,0,1705,2362,0,3197,1490,231,327,1,4,218,-53,537055,0
537089,-723,-3171,618,846,-3291,-3903,2313,1964,870,1233,5320,35446,72,35,127,0,0,1986,2845,0,3197,1490,231,337,1,4,218,-53,537071,0
537099,-631,-1996,601,1022,-3652,-3187,3322,2324,711,1222,6264,35439,113,35,127,0,0,2324,3438,0,3197,1490,231,347,1,4,218,-53,537071,0
537109,-771,185,356,1300,-4650,-1815,4484,2644,614,1426,7368,35435,154,35,127,0,0,2674,3559,0,3197,1490,231,357,1,4,218,-53,537102,0
537119,-744,1346,122,1507,-5783,-792,5803,3001,591,1428,8288,35414,202,35,127,0,0,3069,4010,0,3197,1490,231,367,1,4,218,-53,537102,0
537129,-365,4213,-1165,921,-6443,332,7326,3532,705,1736,9520,35385,237,35,127,0,0,3454,3768,0,3197,1490,231,377,1,4,218,-53,537102,0
537139,783,3172,-1706,547,-5572,1020,9069,3891,824,783,9160,35392,296,34,127,0,0,3719,2493,0,3197,1490,231,387,1,4,218,-53,537117,0
537149,-253,845,-1294,1612,-2259,90,10775,3667,280,-160,6616,35434,277,35,127,0,0,3717,-307,0,3197,1490,231,397,0,4,218,-53,537149,0
537159,-1544,364,-392,2593,-255,484,12126,2494,-864,-2243,2240,35486,189,34,127,0,0,3541,-1823,0,3197,1490,231,407,0,4,218,-53,537149,0
537169,-2754,382,1720,2398,1372,1634,12666,652,-2410,-2976,-944,35510,-9,34,127,0,0,3370,-1647,0,3197,1490,231,417,0,4,218,-53,537149,0
537179,-2260,120,1661,2185,2365,2289,12443,-653,-2994,-851,-1752,35505,-121,35,127,0,0,3282,-769,0,3197,1490,231,427,0,4,218,-53,537164,0
537189,-653,309,58,2218,3905,3506,12099,-750,-1476,-290,-1208,35496,-139,34,127,0,0,3282,54,0,3197,1490,231,437,0,4,218,-53,537164,0
537199,-277,724,-196,2555,4713,4305,11811,-566,-28,-61,-336,35485,-44,35,127,0,0,3324,417,0,3197,1490,231,447,0,4,218,-53,537164,0
537209,192,1603,144,2660,5844,4790,11692,-34,475,910,400,35492,-13,35,127,0,0,3361,362,0,3197,1490,231,457,0,4,218,-53,537180,0
537219,840,1579,240,2443,6528,5530,11814,309,832,410,472,35500,-37,34,127,0,0,3396,373,0,3197,1490,231,467,0,4,218,-53,537211,0
537229,1476,840,223,2158,7431,7080,11962,341,441,483,720,35507,-44,35,127,0,0,3454,593,0,3197,1490,231,477,0,4,218,-53,537211,0
537239,1379,655,390,1887,7311,7751,12134,420,87,680,1136,35489,-53,34,127,0,0,3541,889,0,3197,1490,231,487,0,4,218,-53,537211,0
537249,1628,219,422,1967,5945,7670,12382,612,206,814,1624,35477,-48,34,127,0,0,3634,944,0,3197,1490,231,497,0,4,218,-53,537211,0
537259,2360,-253,-123,2155,4736,7622,12711,775,314,778,2160,35477,-28,35,127,0,0,3744,1120,0,3197,1490,231,507,0,4,218,-53,537242,0
537269,2837,-801,-576,2142,3119,8077,13112,934,296,945,2688,35489,-26,35,127,0,0,3882,1395,0,3197,1490,231,517,0,4,218,-53,537242,0
537279,2696,-957,-431,2013,2309,8220,13619,1202,349,1070,3376,35480,1,35,127,0,0,4051,1713,0,3197,1490,231,527,0,4,218,-53,537274,0
537289,2916,-1522,-362,1674,1332,7978,14248,1475,452,1037,4016,35461,21,35,127,0,0,4234,1834,0,3197,1490,231,537,0,4,218,-53,537274,0
537299,3027,-2065,-479,1476,823,7790,14997,1721,471,868,4376,35448,45,35,127,0,0,4409,1724,0,3197,1490,231,547,0,4,218,-53,537274,0
537309,2921,-2929,-399,990,440,7624,15828,1866,378,745,4592,35456,63,35,127,0,0,4574,1658,0,3197,1490,231,557,0,4,218,-53,537274,0
537319,2558,-3246,-249,585,305,7411,16682,1851,178,594,4448,35466,49,35,127,0,0,4726,1516,0,3197,1490,231,567,0,4,218,-53,537305,0
537329,2354,-3663,-243,61,241,6830,17504,1799,-44,645,4376,35466,44,35,127,0,0,4860,1351,0,3197,1490,231,577,0,4,218,-53,537336,0
537339,2318,-3881,-372,-178,198,6431,18294,1717,-115,553,4136,35466,44,35,127,0,0,4989,1285,0,3197,1490,231,587,0,4,218,-53,537352,0
537349,4442,-5769,635,-685,-1840,6722,19053,1655,-125,737,4512,35466,44,35,127,0,0,5225,2614,0,3197,1490,231,597,0,4,218,-53,537352,0
537359,770,-1363,174,-33,-756,5399,19927,2040,189,1132,4936,35466,44,35,127,0,0,5376,1285,0,3197,1490,231,607,0,4,218,-53,537352,0
537369,2184,-3840,-774,-1087,661,4363,20816,1900,259,412,4488,35465,48,35,127,0,0,5486,1032,0,3197,1490,231,617,0,4,218,-53,537352,0
537379,1754,-3702,-372,-439,550,3479,21588,1558,-268,-400,1304,35455,35,35,127,0,0,5521,318,0,3197,1490,231,627,0,4,218,-53,537352,0
537389,1866,-3061,67,-363,600,3390,21831,-138,-1343,-2989,-1768,35469,-8,34,127,0,0,5539,197,0,3197,1490,231,637,0,4,218,-53,537352,0
537399,800,-3006,740,-328,872,2791,21466,-957,-2318,-1236,-3104,35481,-4,34,127,0,0,5545,32,0,3197,1490,231,647,0,4,218,-53,537430,0
537409,1273,-3150,397,-272,979,2331,20851,-1516,-1487,-1363,-4384,35494,-1,35,127,0,0,5563,164,0,3197,1490,231,657,0,4,218,-53,537430,0
537419,1169,-3090,228,-199,962,2131,19990,-2070,-951,-1352,-5672,35474,65,34,127,0,0,5587,274,0,3197,1490,231,667,0,4,218,-53,537430,0
537429,860,-2712,317,64,870,1394,18921,-2400,-854,-693,-5856,35440,112,35,127,0,0,5625,373,0,3197,1490,231,677,0,4,218,-53,537430,0
537439,923,-2471,382,98,713,682,17830,-2399,-377,-565,-5960,35423,111,34,127,0,0,5642,142,0,3197,1490,231,687,0,4,218,-53,537445,0
537449,1051,-2182,453,58,272,-108,16704,-2527,-98,-726,-6216,35422,100,34,127,0,0,5653,76,0,3197,1490,231,697,0,4,218,-53,537445,0
537459,872,-1978,460,27,-147,-574,15513,-2642,-209,-697,-6424,35431,86,35,127,0,0,5657,0,0,3197,1490,231,707,0,4,218,-53,537445,0
537469,760,-1445,393,-63,-998,-1149,14321,-2605,-114,-758,-6584,35429,94,35,127,0,0,5666,54,0,3197,1490,231,717,0,4,218,-53,537445,0
537479,717,-1103,304,-196,-1627,-1271,13135,-2614,21,-632,-6544,35429,114,35,127,0,0,5686,230,0,3197,1490,231,727,0,4,218,-53,537461,0
537489,1127,-5568,-1316,306,1220,-3315,11937,-2638,-20,-845,-6976,35445,87,35,127,0,0,5526,-2010,0,1970,1403,232,1,1,4,228,-69,537477,0
537499,-365,-3663,934,-313,1325,-6742,10583,-3096,-348,-533,-3480,35433,162,34,127,0,0,5038,-5031,0,1970,1403,232,11,1,4,228,-69,537477,0
537509,-1222,422,-6,-226,1654,-4855,10135,419,1639,7019,4136,35447,70,35,127,0,0,4603,-4174,0,1970,1403,232,21,1,4,228,-69,537477,0
537519,734,-2359,232,-1683,1078,-5017,10963,2120,4619,1725,5872,35418,166,35,127,0,0,4185,-4284,0,1970,1403,232,31,1,4,228,-69,537508,0
537529,-1432,-3728,733,-702,-327,-4986,12139,2769,2720,1190,5072,35416,176,35,127,0,0,3737,-4438,0,1970,1403,232,41,1,4,228,-69,537508,0
537539,-206,-4086,-226,-735,-69,-5134,13008,1216,-111,-4323,-1104,35421,165,34,127,0,0,3333,-4020,0,1970,1403,232,51,1,4,228,-69,537508,0
537549,-1645,-1620,332,-494,1271,-6080,12644,-1367,-3297,-3106,-5080,35443,95,35,127,0,0,2882,-4504,0,1970,1403,232,61,1,4,228,-69,537539,0
537559,-12216,-11964,5577,-1074,412,-5512,11599,-2706,-3561,-2058,-7560,35435,135,34,127,0,0,2520,-3669,0,1970,1403,232,71,1,4,228,-69,537539,0
537569,-2868,3210,1475,-2033,324,-6868,10288,-2705,-1645,24,-4744,35426,187,34,127,0,0,2465,-1175,0,1970,1403,232,81,1,4,228,-69,537539,0
537579,-5068,-3992,2068,-2243,240,-5696,9224,-2238,192,-77,-4848,35416,203,35,127,0,0,2287,-1483,0,1970,1403,232,91,1,4,228,-69,537570,0
537589,22,-1201,-4327,-1085,1231,-8357,8327,-1892,779,-398,-4688,35448,114,35,127,0,0,2054,-2526,0,1970,1403,232,101,1,4,228,-69,537570,0
537599,2786,-1595,-1831,-268,503,-7489,7412,-2109,233,-1082,-5120,35460,35,35,127,0,0,1832,-2043,0,1970,1403,232,111,1,4,228,-69,537570,0
537609,3254,-1244,376,322,158,-6113,6443,-2117,-189,-589,-5128,35450,57,34,127,0,0,1643,-1856,0,1970,1403,232,121,1,4,228,-69,537570,0
537619,2059,-1541,2562,-158,-644,-5277,5508,-2022,1,-524,-4880,35445,66,34,127,0,0,1494,-1439,0,1970,1403,232,131,1,4,228,-69,537602,0
537629,1793,-2055,2155,-1120,-815,-4701,4625,-1903,175,-347,-4456,35451,60,35,127,0,0,1371,-1230,0,1970,1403,232,141,1,4,228,-69,537617,0
537639,2179,-1824,326,-1286,-915,-4201,3801,-1780,218,-312,-4056,35454,40,34,127,0,0,1267,-999,0,1970,1403,232,151,1,4,228,-69,537617,0
537649,2598,-1138,-1118,-1140,-798,-3464,3038,-1624,225,-235,-3584,35445,23,34,127,0,0,1175,-933,0,1970,1403,232,161,1,4,228,-69,537617,0
537659,1970,-1274,-506,-991,-785,-2990,2348,-1477,261,-366,-3456,35455,-11,35,127,0,0,1083,-911,0,1970,1403,232,171,1,4,228,-69,537633,0
537669,1572,-1539,850,-966,-584,-2695,1707,-1382,228,-442,-3168,35472,-10,34,127,0,0,1001,-769,0,1970,1403,232,181,1,4,228,-69,537633,0
537679,1542,-2113,621,-988,-654,-2456,1117,-1240,185,-198,-2336,35469,-11,35,127,0,0,925,-714,0,1970,1403,232,191,1,4,228,-69,537664,0
537689,1762,-2416,-9,-893,-938,-2002,639,-965,331,2,-1352,35474,-14,34,127,0,0,876,-483,0,1970,1403,232,201,1,4,228,-69,537664,0
537699,1072,-2871,76,-695,-991,-1849,307,-639,514,-28,-656,35469,-24,34,127,0,0,843,-340,0,1970,1403,232,211,1,4,228,-69,537695,0
537709,612,-3017,507,-593,-1104,-1927,108,-345,536,-130,-232,35487,-38,35,127,0,0,826,-153,0,1970,1403,232,221,1,4,228,-69,537711,0
537719,724,-3308,438,-831,-1085,-2071,21,-124,461,-89,-40,35477,-39,35,127,0,0,826,0,0,1970,1403,232,231,1,4,228,-69,537711,0
537729,264,-3695,31,-1065,-1205,-2057,36,42,393,-230,-40,35464,-37,35,127,0,0,856,373,0,1970,1403,232,241,1,4,228,-69,537711,0
537739,411,-3237,433,-1063,-1069,-2292,36,3,130,-91,-8,35466,-45,35,127,0,0,916,582,0,1970,1403,232,251,1,4,228,-69,537727,0
537749,575,-2874,128,-717,-1147,-2797,51,55,-8,177,120,35463,-49,35,127,0,0,986,692,0,1970,1403,232,261,1,4,228,-69,537727,0
537759,1028,-2917,116,-540,-1546,-2924,104,153,110,314,336,35470,-51,34,127,0,0,1061,736,0,1970,1403,232,271,1,4,228,-69,537758,0
537769,543,-3530,193,-564,-2285,-2937,226,355,206,762,1136,35473,-33,35,127,0,0,1153,966,0,1970,1403,232,281,1,4,228,-69,537758,0
537779,194,-4075,520,-623,-2643,-3101,496,713,409,1056,2128,35469,-32,34,127,0,0,1283,1307,0,1970,1403,232,291,1,4,228,-69,537758,0
537789,-844,-4391,964,-328,-2810,-3860,938,1066,619,1004,2936,35463,-7,34,127,0,0,1432,1516,0,1970,1403,232,301,1,4,228,-69,537758,0
537799,-558,-3866,669,-44,-2283,-4523,1507,1315,584,837,3424,35457,11,35,127,0,0,1582,1538,0,1970,1403,232,311,1,4,228,-69,537789,0
537809,206,-3671,352,540,-2587,-5192,2164,1485,417,648,3640,35462,42,34,127,0,0,1722,1428,0,1970,1403,232,321,1,4,228,-69,537789,0
537819,559,-3989,598,562,-3266,-4928,2849,1520,220,633,3808,35451,41,34,127,0,0,1891,1746,0,1970,1403,232,331,1,4,228,-69,537789,0
537829,-168,-3912,1248,354,-4016,-4301,3504,1637,137,866,4248,35455,15,35,127,0,0,2111,2241,0,1970,1403,232,341,1,4,228,-69,537805,0
537839,-1028,-3353,1380,307,-4214,-4000,4308,1830,244,1127,5064,35466,34,34,127,0,0,2379,2691,0,1970,1403,232,351,1,4,228,-69,537805,0
537849,-1331,-2234,869,562,-4206,-3542,5223,2083,371,1135,5712,35459,78,35,127,0,0,2654,2757,0,1970,1403,232,361,1,4,228,-69,537840,0
537859,-771,-917,877,991,-4640,-3295,6251,2345,436,1139,6328,35448,117,34,127,0,0,2948,2944,0,1970,1403,232,371,1,4,228,-69,537840,0
537869,453,2443,280,1193,-5591,-2614,7419,2680,497,1293,6984,35425,154,34,127,0,0,3245,2911,0,1970,1403,232,381,1,4,228,-69,537840,0
537879,478,3883,-1105,599,-5452,-1514,8720,2897,519,806,6848,35419,162,35,127,0,0,3451,1911,0,1970,1403,232,391,1,4,228,-69,537855,0
537889,273,2385,-2017,414,-3628,-111,9979,2693,123,148,5704,35440,162,35,127,0,0,3550,944,0,1970,1403,232,401,1,4,228,-69,537855,0
537899,-2308,1215,-989,1471,-2153,-184,11103,2347,-384,-415,3040,35452,117,35,127,0,0,3456,-1098,0,1970,1403,232,411,0,4,228,-69,537886,0
537909,-3001,87,549,2334,-453,787,11842,1244,-1063,-1414,184,35482,9,35,127,0,0,3324,-1252,0,1970,1403,232,421,0,4,228,-69,537886,0
537919,-2632,-162,1570,2141,705,1906,11922,-326,-2132,-1740,-984,35493,-73,35,127,0,0,3256,-571,0,1970,1403,232,431,0,4,228,-69,537886,0
537929,-1578,-362,785,2031,2498,3213,11701,-517,-1813,-320,-800,35495,-109,35,127,0,0,3249,21,0,1970,1403,232,441,0,4,228,-69,537902,0
537939,-939,117,-235,2306,3873,3958,11494,-421,-370,-110,-184,35494,-70,35,127,0,0,3262,164,0,1970,1403,232,451,0,4,228,-69,537933,0
537949,-148,1084,-729,2641,5108,5038,11397,-104,272,347,168,35480,-29,34,127,0,0,3280,175,0,1970,1403,232,461,0,4,228,-69,537933,0
537959,300,1486,-447,2601,5268,5836,11455,169,527,330,272,35488,-19,34,127,0,0,3311,351,0,1970,1403,232,471,0,4,228,-69,537933,0
537969,1093,887,154,2426,5103,6860,11561,265,353,535,632,35485,-12,35,127,0,0,3364,549,0,1970,1403,232,481,0,4,228,-69,537933,0
537979,1537,402,244,2302,4812,7560,11707,359,158,676,992,35482,-1,35,127,0,0,3438,780,0,1970,1403,232,491,0,4,228,-69,537964,0
537989,1884,151,578,1984,4311,8588,11916,517,205,856,1592,35486,12,35,127,0,0,3548,1131,0,1970,1403,232,501,0,4,228,-69,537964,0
537999,2043,92,333,1734,4066,9113,12231,765,333,996,2272,35485,-4,35,127,0,0,3689,1428,0,1970,1403,232,511,0,4,228,-69,537964,0
538009,2214,-178,-366,1598,3755,9273,12675,1074,461,1093,3024,35494,8,34,127,0,0,3840,1483,0,1970,1403,232,521,0,4,228,-69,537996,0
538019,2307,-510,-654,1547,3529,9263,13239,1296,482,957,3512,35482,39,35,127,0,0,3992,1516,0,1970,1403,232,531,0,4,228,-69,537996,0
538029,2528,-865,-551,1536,3067,9327,13879,1450,360,870,3920,35465,63,35,127,0,0,4166,1779,0,1970,1403,232,541,0,4,228,-69,537996,0
538039,2595,-1099,-531,1424,2832,9293,14602,1654,307,949,4448,35454,57,35,127,0,0,4368,2065,0,1970,1403,232,551,0,4,228,-69,538105,0
538049,2761,-1564,-437,1144,2596,9196,15444,1927,393,954,5088,35451,49,35,127,0,0,4592,2307,0,1970,1403,232,561,0,4,228,-69,538121,0
538059,2789,-1982,-468,945,2568,9014,16408,2190,468,974,5456,35447,67,34,127,0,0,4801,2054,0,1970,1403,232,571,0,4,228,-69,538121,0
538069,2692,-2691,-350,552,2700,8639,17426,2265,323,897,5640,35434,95,35,127,0,0,5009,2065,0,1970,1403,232,581,0,4,228,-69,538121,0
538079,2614,-3248,-111,287,2884,8210,18466,2304,129,700,5680,35424,105,34,127,0,0,5198,1878,0,1970,1403,232,591,0,4,228,-69,538121,0
538089,2486,-4009,134,0,3143,7489,19508,2275,43,519,5472,35432,103,34,127,0,0,5370,1691,0,1970,1403,232,601,0,4,228,-69,538168,0
538099,2487,-4497,234,-135,3277,6986,20501,2135,-106,554,4928,35444,74,35,127,0,0,5534,1593,0,1970,1403,232,611,0,4,228,-69,538168,0
538109,2311,-4758,310,-123,3324,6049,21368,1756,-359,-369,2208,35448,67,34,127,0,0,5664,1252,0,1970,1403,232,621,0,4,228,-69,538168,0
538119,2248,-4681,348,-138,3182,5213,21892,845,-962,-1669,-432,35459,-4,34,127,0,0,5761,911,0,1970,1403,232,631,0,4,228,-69,538168,0
538129,1959,-4350,491,-84,2631,3709,21758,-594,-1999,-1273,-2208,35474,-35,35,127,0,0,5818,516,0,1970,1403,232,641,0,4,228,-69,538168,0
538139,1796,-3712,513,-141,2064,2915,21309,-1177,-1803,-1489,-3712,35480,-26,35,127,0,0,5840,252,0,1970,1403,232,651,0,4,228,-69,538168,0
538149,1788,-3272,354,-84,1304,1990,20598,-1719,-1026,-1331,-4808,35463,43,34,127,0,0,5853,120,0,1970,1403,232,661,0,4,228,-69,538168,0
538159,1495,-2770,266,-88,698,1380,19671,-2156,-898,-1006,-5480,35441,108,34,127,0,0,5866,142,0,1970,1403,232,671,0,4,228,-69,538183,0
538169,1224,-2153,284,-151,-311,313,18628,-2339,-607,-827,-5904,35439,131,35,127,0,0,5879,120,0,1970,1403,232,681,0,4,228,-69,538183,0
538179,1104,-1826,348,-263,-1058,-221,17527,-2457,-305,-709,-6120,35457,116,34,127,0,0,5906,296,0,1970,1403,232,691,0,4,228,-69,538183,0
538189,735,-1520,374,-456,-2160,-1170,16382,-2537,-191,-505,-5968,35464,104,35,127,0,0,5956,505,0,1970,1403,232,701,0,4,228,-69,538183,0
538199,528,-1390,265,-465,-2649,-1970,15252,-2438,-43,-430,-5720,35468,82,34,127,0,0,6024,659,0,1970,1403,232,711,0,4,228,-69,538183,0
538209,362,-1173,152,-542,-2777,-2936,14210,-2228,230,-495,-5416,35466,74,34,127,0,0,6090,681,0,1970,1403,232,721,0,4,228,-69,538183,0
538219,1909,-6377,788,466,4565,-4758,13222,-2176,265,-1294,-6928,35480,57,35,127,0,0,5802,-3669,0,2322,1028,233,3,1,4,259,-45,538214,0
538229,-2212,-1170,3757,-122,2988,-9373,11767,-3876,-926,-3413,-7280,35451,187,35,127,0,0,5163,-6394,0,2322,1028,233,13,1,4,259,-45,538214,0
538239,-1013,451,-384,-1108,3889,-7732,10632,-1052,-226,8762,4464,35419,237,35,127,0,0,4638,-5163,0,2322,1028,233,23,1,4,259,-45,538214,0
538249,833,-3473,-648,-3259,863,-6184,11557,2724,5309,3159,7720,35363,398,34,127,0,0,4181,-4581,0,2322,1028,233,33,1,4,259,-45,538230,0
538259,-458,-3679,-423,-1885,-56,-5921,12995,3156,4525,-498,3520,35339,443,34,127,0,0,3748,-4262,0,2322,1028,233,43,1,4,259,-45,538246,0
538269,-991,-2759,-865,-801,1822,-6815,13629,444,-1047,-5474,-2400,35421,173,35,127,0,0,3313,-4449,0,2322,1028,233,53,1,4,259,-45,538246,0
538279,-1320,-922,222,-259,3180,-7718,13035,-1826,-4197,-3352,-6632,35419,163,35,127,0,0,2797,-5262,0,2322,1028,233,63,1,4,259,-45,538246,0
538289,-1302,-25460,-2387,-1686,-1086,-6925,11726,-3229,-3532,-1665,-8512,35424,141,35,127,0,0,2337,-4658,0,2322,1028,233,73,1,4,259,-45,538277,0
538299,712,-3848,4732,1043,-3069,-4188,10048,-3590,-1937,-82,-6904,35405,238,35,127,0,0,2234,-615,0,2322,1028,233,83,1,4,259,-45,538277,0
538309,-6307,-5175,3057,-3559,-1603,-6154,8629,-2966,19,172,-6048,35409,218,34,127,0,0,2019,-2087,0,2322,1028,233,93,1,4,259,-45,538277,0
538319,-129,309,-2225,-1962,700,-8730,7441,-2455,971,-19,-5112,35450,66,35,127,0,0,1808,-2285,0,2322,1028,233,103,1,4,259,-45,538293,0
538329,3408,-1341,-3177,-581,534,-7822,6404,-2278,711,-876,-5856,35469,-21,35,127,0,0,1555,-2427,0,2322,1028,233,113,1,4,259,-45,538308,0
538339,4641,-478,-2517,350,-11,-6618,5329,-2370,147,-730,-5856,35469,17,35,127,0,0,1353,-2010,0,2322,1028,233,123,1,4,259,-45,538308,0
538349,1666,-1374,2956,-82,-864,-5127,4248,-2377,-95,-435,-5592,35463,40,34,127,0,0,1208,-1373,0,2322,1028,233,133,1,4,259,-45,538324,0
538359,1447,-1278,3915,-1052,-575,-5246,3209,-2240,72,-277,-5216,35453,82,35,127,0,0,1061,-1472,0,2322,1028,233,143,1,4,259,-45,538339,0
538369,3186,-1447,62,-1851,-1035,-4358,2228,-2139,208,-406,-4640,35456,71,35,127,0,0,922,-1395,0,2322,1028,233,153,1,4,259,-45,538339,0
538379,3022,-1677,-942,-1734,-1472,-3324,1347,-1829,301,161,-2840,35464,45,35,127,0,0,808,-1076,0,2322,1028,233,163,1,4,259,-45,538371,0
538389,1060,-1931,-323,-1343,-1457,-2634,667,-1342,612,376,-1440,35478,-5,35,127,0,0,718,-845,0,2322,1028,233,173,1,4,259,-45,538371,0
538399,506,-2040,725,-1295,-1132,-2695,228,-814,860,226,-520,35485,-32,34,127,0,0,659,-615,0,2322,1028,233,183,1,4,259,-45,538386,0
538409,870,-2249,272,-1236,-683,-3027,6,-352,872,209,-24,35483,-35,35,127,0,0,597,-593,0,2322,1028,233,193,1,4,259,-45,538386,0
538419,1777,-2176,118,-1086,-884,-2882,-12,74,805,121,40,35477,-34,35,127,0,0,555,-373,0,2322,1028,233,203,1,4,259,-45,538464,0
538429,1730,-2947,69,-745,-1288,-2495,26,49,470,-243,-56,35493,-45,35,127,0,0,514,-406,0,2322,1028,233,213,1,4,259,-45,538464,0
538439,1553,-2881,306,-664,-1833,-2280,21,-2,-32,-133,-40,35494,-53,35,127,0,0,509,10,0,2322,1028,233,223,1,4,259,-45,538464,0
538449,-293,-4507,401,-1106,-2176,-2474,23,-11,-59,-156,-40,35488,-42,34,127,0,0,522,153,0,2322,1028,233,233,1,4,259,-45,538480,0
538459,136,-5224,130,-1353,-2181,-2480,28,21,8,4,128,35464,-44,34,127,0,0,595,791,0,2322,1028,233,243,1,4,259,-45,538480,0
538469,-140,-4458,282,-1078,-1973,-3472,90,202,133,571,536,35465,-47,35,127,0,0,705,1120,0,2322,1028,233,253,1,4,259,-45,538480,0
538479,46,-5039,148,-775,-1815,-4401,245,386,311,447,632,35469,-44,34,127,0,0,810,1032,0,2322,1028,233,263,1,4,259,-45,538480,0
538489,492,-6036,892,-345,-2471,-4849,416,373,193,322,536,35468,-43,35,127,0,0,944,1384,0,2322,1028,233,273,1,4,259,-45,538480,0
538499,-186,-6006,1398,-485,-3198,-4777,567,321,-29,407,600,35457,-43,34,127,0,0,1133,1955,0,2322,1028,233,283,1,4,259,-45,538480,0
538509,-1491,-5438,1409,-450,-4100,-4921,748,475,34,1286,2312,35459,-21,34,127,0,0,1382,2526,0,2322,1028,233,293,1,4,259,-45,538480,0
538519,-1894,-5194,990,99,-3698,-5164,1263,1400,772,2010,4360,35473,13,35,127,0,0,1667,2878,0,2322,1028,233,303,1,4,259,-45,538496,0
538529,-1759,-3687,879,1037,-3564,-4747,2128,2100,1357,1636,5864,35469,87,35,127,0,0,1995,3317,0,2322,1028,233,313,1,4,259,-45,538511,0
538539,-1338,-1084,1571,1781,-4028,-4129,3254,2621,1137,1372,6912,35445,160,35,127,0,0,2355,3647,0,2322,1028,233,323,1,4,259,-45,538511,0
538549,-873,4112,134,1887,-4909,-2540,4537,2863,771,1010,7248,35414,207,35,127,0,0,2630,2658,0,2322,1028,233,333,1,4,259,-45,538511,0
538559,90,5518,-1705,1182,-4364,-567,5807,2761,221,578,6624,35413,195,35,127,0,0,2805,1647,0,2322,1028,233,343,1,4,259,-45,538558,0
538569,-1636,3139,-2315,1675,-3531,424,6996,2528,-216,-43,4496,35433,134,35,127,0,0,2766,-560,0,2322,1028,233,353,0,4,259,-45,538558,0
538579,-3496,1071,-964,3263,-2889,1982,7913,1728,-727,-941,1696,35447,66,35,127,0,0,2687,-769,0,2322,1028,233,363,0,4,259,-45,538574,0
538589,-3533,575,1961,3889,-1474,3417,8409,872,-1405,-502,424,35460,-34,35,127,0,0,2687,76,0,2322,1028,233,373,0,4,259,-45,538574,0
538599,-2396,465,2132,3625,188,4247,8635,370,-1287,-94,184,35476,-75,35,127,0,0,2711,252,0,2322,1028,233,383,0,4,259,-45,538574,0
538609,-1048,676,-142,3551,2202,5741,8709,99,-758,113,72,35482,-75,35,127,0,0,2713,21,0,2322,1028,233,393,0,4,259,-45,538574,0
538619,-1224,1175,-993,3730,2946,6864,8707,-16,-407,346,168,35483,-49,34,127,0,0,2737,263,0,2322,1028,233,403,0,4,259,-45,538605,0
538629,-629,1073,-493,4065,3735,8081,8748,144,-25,825,624,35474,-53,34,127,0,0,2805,747,0,2322,1028,233,413,0,4,259,-45,538605,0
538639,297,544,-103,4056,4107,8969,8895,380,318,913,1232,35475,-83,35,127,0,0,2911,1098,0,2322,1028,233,423,0,4,259,-45,538605,0
538649,1117,192,220,3747,4053,10292,9162,684,432,1165,2184,35468,-64,34,127,0,0,3095,1988,0,2322,1028,233,433,0,4,259,-45,538652,0
538659,1716,197,-2,3681,3578,10632,9630,1197,637,1534,3664,35471,-19,35,127,0,0,3339,2493,0,2322,1028,233,443,0,4,259,-45,538652,0
538669,2772,-150,-421,3577,2812,10703,10368,1820,941,1527,4960,35445,47,34,127,0,0,3599,2581,0,2322,1028,233,453,0,4,259,-45,538652,0
538679,2937,-357,-563,3362,2571,10667,11332,2248,957,1151,5760,35421,93,34,127,0,0,3854,2537,0,2322,1028,233,463,0,4,259,-45,538652,0
538689,2774,-642,-339,2917,2756,10371,12430,2474,663,968,6152,35415,116,35,127,0,0,4102,2460,0,2322,1028,233,473,0,4,259,-45,538699,0
538699,2631,-1054,-449,2575,2965,10058,13569,2513,299,776,6480,35428,146,35,127,0,0,4348,2471,0,2322,1028,233,483,0,4,259,-45,538714,0
538709,2821,-1777,-314,2135,3436,9717,14748,2647,140,804,6712,35428,161,35,127,0,0,4592,2438,0,2322,1028,233,493,0,4,259,-45,538714,0
538719,2966,-2252,-168,1862,3671,9574,16008,2805,246,654,6664,35425,128,35,127,0,0,4822,2285,0,2322,1028,233,503,0,4,259,-45,538714,0
538729,3140,-3031,208,1337,3927,9137,17262,2722,-143,636,6520,35413,116,35,127,0,0,5047,2241,0,2322,1028,233,513,0,4,259,-45,538714,0
538739,3234,-3611,397,968,4003,8582,18470,2643,30,601,6408,35419,101,35,127,0,0,5255,2054,0,2322,1028,233,523,0,4,259,-45,538730,0
538749,3337,-4386,571,554,3769,7695,19652,2576,147,460,6104,35417,109,34,127,0,0,5451,1922,0,2322,1028,233,533,0,4,259,-45,538730,0
538759,3316,-4785,586,377,3414,7076,20753,2330,-189,149,4232,35424,79,35,127,0,0,5627,1757,0,2322,1028,233,543,0,4,259,-45,538730,0
538769,3122,-4986,691,164,2661,5900,21590,1579,-648,-866,1568,35460,26,35,127,0,0,5785,1538,0,2322,1028,233,553,0,4,259,-45,538746,0
538779,2849,-4735,698,21,2146,4758,21988,547,-1341,-1815,-584,35491,-39,35,127,0,0,5904,1153,0,2322,1028,233,563,0,4,259,-45,538761,0
538789,2366,-4431,477,22,1394,3061,21811,-570,-1962,-1095,-1984,35502,-73,35,127,0,0,5978,681,0,2322,1028,233,573,0,4,259,-45,538761,0
538799,2137,-4006,210,87,877,2300,21392,-1084,-1544,-1369,-3344,35481,-63,35,127,0,0,6024,461,0,2322,1028,233,583,0,4,259,-45,538808,0
538809,1787,-3324,322,370,-66,1233,20745,-1557,-885,-1260,-4368,35458,-2,35,127,0,0,6055,307,0,2322,1028,233,593,0,4,259,-45,538808,0
538819,1451,-2617,475,174,-1245,456,19905,-1960,-808,-999,-5000,35453,43,35,127,0,0,6086,351,0,2322,1028,233,603,0,4,259,-45,538824,0
538829,1081,-1994,538,-130,-2978,-1188,19047,-2136,-600,-774,-5304,35438,93,35,127,0,0,6130,406,0,2322,1028,233,613,0,4,259,-45,538824,0
538839,966,-1632,97,-359,-3909,-2187,18055,-2211,-292,-656,-5480,35429,99,34,127,0,0,6167,362,0,2322,1028,233,623,0,4,259,-45,538824,0
538849,534,-1180,-298,-671,-4541,-3523,17028,-2295,-146,-692,-5688,35429,95,34,127,0,0,6196,274,0,2322,1028,233,633,0,4,259,-45,538824,0
538859,74,-980,-455,-840,-4391,-4318,15941,-2435,-195,-757,-6000,35436,74,35,127,0,0,6216,175,0,2322,1028,233,643,0,4,259,-45,538824,0
538869,529,-4894,2076,202,3899,-5218,14815,-2474,-183,-869,-6592,35448,80,34,127,0,0,6051,-2065,0,2322,1028,233,653,0,4,259,-45,538871,0
538879,-7611,-5077,-806,59,6082,-9196,13467,-3431,-546,-4480,-12088,35426,180,35,127,0,0,5372,-7031,0,2024,1175,234,7,1,4,287,-48,538871,0
538889,-3920,-4008,2122,-389,7621,-10978,11561,-3770,-1610,5267,-608,35336,454,34,127,0,0,4688,-7064,0,2024,1175,234,17,1,4,287,-48,538871,0
538899,-855,-2747,316,-2510,4732,-7942,11620,1802,3345,7927,7584,35363,337,34,127,0,0,4126,-5372,0,2024,1175,234,27,1,4,287,-48,538871,0
538909,724,-370,948,-2437,-665,-6523,12951,2939,6487,-949,2624,35294,541,35,127,0,0,3682,-4405,0,2024,1175,234,37,1,4,287,-48,538886,0
538919,474,-1234,-953,-1873,-1929,-6894,13466,136,44,-5254,-2576,35424,97,35,127,0,0,3271,-4097,0,2024,1175,234,47,1,4,287,-48,538917,0
538929,-1569,-1039,-1803,-1239,1556,-8784,12873,-1804,-4023,-3278,-6792,35376,302,35,127,0,0,2726,-5471,0,2024,1175,234,57,1,4,287,-48,538917,0
538939,4684,-5923,-2282,-1604,1873,-8485,11533,-3360,-3385,-1202,-8560,35426,127,35,127,0,0,2276,-4273,0,2024,1175,234,67,1,4,287,-48,538917,0
538949,-532,-3815,3016,706,-2197,-7727,9716,-3907,-2248,266,-7704,35412,200,34,127,0,0,2010,-2351,0,2024,1175,234,77,1,4,287,-48,538917,0
538959,-6969,-4505,1732,-3052,-1792,-7382,8134,-3354,-206,36,-6992,35415,176,35,127,0,0,1773,-2054,0,2024,1175,234,87,1,4,287,-48,538949,0
538969,868,-811,-2532,-1164,1925,-9778,6765,-2852,901,-146,-6368,35464,38,35,127,0,0,1522,-2713,0,2024,1175,234,97,1,4,287,-48,538949,0
538979,4674,-934,-2327,-692,914,-8559,5531,-2710,653,-743,-6696,35479,-2,35,127,0,0,1287,-2307,0,2024,1175,234,107,1,4,287,-48,538949,0
538989,4440,-1526,-1483,400,-631,-5973,4289,-2744,174,-425,-6600,35475,37,34,127,0,0,1107,-1768,0,2024,1175,234,117,1,4,287,-48,538964,0
538999,1514,-2069,2266,107,-1645,-4863,3058,-2678,0,-216,-5760,35456,71,35,127,0,0,988,-1087,0,2024,1175,234,127,1,4,287,-48,538980,0
539009,1181,-1894,4160,-1036,-1576,-5404,1949,-2304,287,131,-3888,35457,63,34,127,0,0,887,-1032,0,2024,1175,234,137,1,4,287,-48,538996,0
539019,2240,-2686,1098,-1098,-1657,-5232,1079,-1736,739,481,-2152,35470,-1,34,127,0,0,769,-1186,0,2024,1175,234,147,1,4,287,-48,538996,0
539029,3219,-1760,-822,-1116,-2011,-3630,480,-1148,998,463,-952,35482,-51,35,127,0,0,700,-637,0,2024,1175,234,157,1,4,287,-48,538996,0
539039,2015,-1701,-1261,-1141,-2329,-2923,119,-663,967,226,-232,35504,-62,35,127,0,0,674,-252,0,2024,1175,234,167,1,4,287,-48,539027,0
539049,420,-2725,481,-1722,-1760,-2791,-23,-153,860,332,56,35496,-32,35,127,0,0,663,-76,0,2024,1175,234,177,1,4,287,-48,539027,0
539059,278,-3337,735,-1748,-1260,-3097,12,101,750,-130,-16,35489,-25,34,127,0,0,665,0,0,2024,1175,234,187,1,4,287,-48,539027,0
539069,1197,-3549,-143,-1578,-759,-3390,31,3,244,-187,-32,35484,-41,34,127,0,0,692,285,0,2024,1175,234,197,1,4,287,-48,539042,0
539079,1406,-3645,-113,-1130,-1099,-3275,24,10,-99,-151,-40,35494,-54,35,127,0,0,736,439,0,2024,1175,234,207,1,4,287,-48,539058,0
539089,900,-4314,684,-779,-1887,-3144,40,46,15,233,192,35488,-45,34,127,0,0,815,834,0,2024,1175,234,217,1,4,287,-48,539074,0
539099,504,-4661,983,-735,-2406,-3174,105,208,140,638,616,35484,-33,34,127,0,0,938,1263,0,2024,1175,234,227,1,4,287,-48,539074,0
539109,-385,-5495,550,-717,-2818,-3317,257,382,286,521,832,35474,-49,35,127,0,0,1105,1658,0,2024,1175,234,237,1,4,287,-48,539074,0
539119,-916,-5392,301,-540,-2923,-3470,465,522,269,1116,2328,35483,-48,34,127,0,0,1322,2197,0,2024,1175,234,247,1,4,287,-48,539089,0
539129,-1572,-5107,449,-150,-2527,-3759,959,1338,694,1816,4168,35488,-9,35,127,0,0,1582,2614,0,2024,1175,234,257,1,4,287,-48,539105,0
539139,-1748,-4735,735,277,-2224,-3769,1770,1962,1214,1518,5520,35459,63,34,127,0,0,1883,3054,0,2024,1175,234,267,1,4,287,-48,539120,0
539149,-1473,-3342,1170,805,-2248,-3214,2826,2469,1042,1351,6728,35438,141,34,127,0,0,2245,3746,0,2024,1175,234,277,1,4,287,-48,539120,0
539159,-1250,-2010,1346,1154,-3079,-2535,4092,2899,857,1354,7616,35418,179,35,127,0,0,2632,3845,0,2024,1175,234,287,1,4,287,-48,539214,0
539169,-1289,934,651,1274,-4743,-506,5487,3153,629,1599,8904,35417,223,35,127,0,0,3089,4647,0,2024,1175,234,297,1,4,287,-48,539214,0
539179,-567,3784,-608,850,-5575,764,7124,3865,726,2372,10928,35393,310,35,127,0,0,3592,4965,0,2024,1175,234,307,1,4,287,-48,539230,0
539189,-262,5283,-3157,-161,-4204,2089,9146,4609,1266,1432,11304,35350,421,35,127,0,0,3963,3515,0,2024,1175,234,317,1,4,287,-48,539230,0
539199,1150,1697,-2494,574,-1789,992,11250,4603,829,32,9184,35338,431,35,127,0,0,4051,505,0,2024,1175,234,327,1,4,287,-48,539230,0
539209,-2507,-246,-498,3282,16,1621,13017,3348,-639,-2523,4136,35374,273,34,127,0,0,3878,-1779,0,2024,1175,234,337,0,4,287,-48,539230,0
539219,-3059,468,1760,3318,237,2705,13868,1331,-2623,-2083,296,35467,-28,35,127,0,0,3715,-1527,0,2024,1175,234,347,0,4,287,-48,539230,0
539229,-1027,267,3031,2576,15,4553,13952,-332,-3241,-1805,-760,35509,-195,34,127,0,0,3684,-175,0,2024,1175,234,357,0,4,287,-48,539230,0
539239,-392,244,1524,2225,-6,5543,13762,-397,-1897,-162,-272,35521,-196,34,127,0,0,3706,241,0,2024,1175,234,367,0,4,287,-48,539230,0
539249,988,618,-451,2757,-13,6939,13673,-21,-111,759,368,35487,-73,35,127,0,0,3739,329,0,2024,1175,234,377,0,4,287,-48,539230,0
539259,1036,1424,-787,3208,-432,7542,13775,244,606,424,408,35471,-13,34,127,0,0,3755,164,0,2024,1175,234,387,0,4,287,-48,539230,0
539269,1372,1890,-588,3472,-1080,8051,13888,242,327,327,280,35463,-5,34,127,0,0,3768,131,0,2024,1175,234,397,0,4,287,-48,539245,0
539279,1580,1222,-269,3553,-1229,8566,13970,158,-54,486,392,35474,-11,35,127,0,0,3807,439,0,2024,1175,234,407,0,4,287,-48,539277,0
539289,1389,396,-590,3642,-973,8951,14080,295,0,786,928,35487,-7,34,127,0,0,3893,911,0,2024,1175,234,417,0,4,287,-48,539277,0
539299,1538,200,-749,3709,-445,8832,14289,542,273,994,1792,35485,3,35,127,0,0,4016,1285,0,2024,1175,234,427,0,4,287,-48,539277,0
539309,2040,-104,-1454,3548,736,8459,14645,894,491,1140,2632,35465,3,35,127,0,0,4183,1680,0,2024,1175,234,437,0,4,287,-48,539277,0
539319,2263,-383,-1649,3298,1671,8194,15169,1266,615,1115,3520,35451,19,35,127,0,0,4374,1922,0,2024,1175,234,447,0,4,287,-48,539324,0
539329,2311,-960,-1392,2974,3103,7496,15860,1636,649,1115,4320,35465,26,35,127,0,0,4561,1900,0,2024,1175,234,457,0,4,287,-48,539324,0
539339,2443,-1352,-1143,2785,3872,6994,16671,1815,535,794,4488,35465,72,34,127,0,0,4726,1636,0,2024,1175,234,467,0,4,287,-48,539324,0
539349,2759,-1967,-685,2357,4519,6520,17499,1811,219,671,4448,35458,90,35,127,0,0,4873,1494,0,2024,1175,234,477,0,4,287,-48,539339,0
539359,2943,-2384,-301,1989,4607,6411,18311,1780,-13,678,4400,35439,87,35,127,0,0,5029,1571,0,2024,1175,234,487,0,4,287,-48,539339,0
539369,3096,-2915,43,1399,4462,6330,19126,1812,-18,685,4464,35437,71,35,127,0,0,5192,1647,0,2024,1175,234,497,0,4,287,-48,539339,0
539379,3122,-3193,122,953,4267,6337,19956,1832,47,754,4600,35449,49,35,127,0,0,5363,1702,0,2024,1175,234,507,0,4,287,-48,539370,0
539389,3106,-3715,283,390,3806,6187,20796,1862,43,840,4384,35459,63,35,127,0,0,5554,1878,0,2024,1175,234,517,0,4,287,-48,539386,0
539399,2863,-4069,448,181,3392,6031,21555,1524,-161,-174,2016,35453,51,34,127,0,0,5723,1702,0,2024,1175,234,527,0,4,287,-48,539386,0
539409,2395,-4519,713,-32,2692,5410,22039,835,-756,-715,32,35460,14,34,127,0,0,5877,1560,0,2024,1175,234,537,0,4,287,-48,539386,0
539419,2327,-4759,860,-131,2199,4847,22030,-368,-1547,-1346,-1272,35474,-34,35,127,0,0,6005,1241,0,2024,1175,234,547,0,4,287,-48,539386,0
539429,1741,-4377,943,-186,1601,3588,21752,-726,-1458,-1069,-2408,35484,-45,35,127,0,0,6086,747,0,2024,1175,234,557,0,4,287,-48,539449,0
539439,1617,-3812,342,-249,1417,2852,21279,-1185,-791,-1259,-3584,35469,-13,35,127,0,0,6125,362,0,2024,1175,234,567,0,4,287,-48,539449,0
539449,842,-2855,138,-31,1088,1743,20590,-1666,-806,-1328,-4672,35452,34,35,127,0,0,6141,153,0,2024,1175,234,577,0,4,287,-48,539449,0
539459,537,-2223,-213,42,932,854,19691,-2101,-814,-1076,-5424,35445,78,34,127,0,0,6152,153,0,2024,1175,234,587,0,4,287,-48,539464,0
539469,310,-1414,44,-29,760,-136,18662,-2318,-627,-852,-5776,35441,112,35,127,0,0,6180,318,0,2024,1175,234,597,0,4,287,-48,539464,0
539479,199,-1284,117,-136,549,-1095,17589,-2350,-300,-534,-5672,35429,124,34,127,0,0,6235,560,0,2024,1175,234,607,0,4,287,-48,539464,0
539489,118,-2121,49,-166,-161,-2923,16521,-2352,-45,-571,-5688,35427,103,34,127,0,0,6281,450,0,2024,1175,234,617,0,4,287,-48,539464,0
539499,2144,-8044,296,515,5318,-5576,15426,-2461,-53,-1688,-7792,35433,64,35,127,0,0,5912,-4460,0,3513,1404,235,3,1,4,255,-51,539464,0
539509,-1262,-734,3478,250,4570,-9542,13763,-4323,-1267,-4767,-11720,35398,238,35,127,0,0,5225,-6932,0,3513,1404,235,13,1,4,255,-51,539495,0
539519,-1005,1085,-268,-1293,3955,-8259,12016,-2707,-1222,6775,752,35343,421,35,127,0,0,4651,-5668,0,3513,1404,235,23,1,4,255,-51,539495,0
539529,-527,-3418,569,-2625,-1206,-6594,12473,2339,4911,6451,7400,35351,378,34,127,0,0,4122,-5317,0,3513,1404,235,33,1,4,255,-51,539542,0
539539,-592,-6287,-67,-1497,-2227,-6079,13679,2377,5513,-2105,1376,35320,429,34,127,0,0,3682,-4339,0,3513,1404,235,43,1,4,255,-51,539542,0
539549,-4569,-3821,797,-563,-395,-7438,13824,-695,-1417,-5243,-3928,35445,21,34,127,0,0,3218,-4636,0,3513,1404,235,53,1,4,255,-51,539558,0
539559,-2555,-3292,577,-771,1874,-8582,12997,-2242,-4113,-2827,-6968,35367,318,34,127,0,0,2770,-4482,0,3513,1404,235,63,1,4,255,-51,539558,0
539569,-1265,-4585,461,-1137,276,-8215,11638,-3257,-2654,-1580,-8352,35403,175,35,127,0,0,2364,-3966,0,3513,1404,235,73,1,4,255,-51,539558,0
539579,-1213,-6336,1935,-1539,-1492,-5742,10029,-3576,-1407,-388,-8192,35363,324,35,127,0,0,2100,-2340,0,3513,1404,235,83,1,4,255,-51,539558,0
539589,-2311,-2021,51,-1781,-2172,-7397,8524,-3177,-159,-24,-6712,35380,258,35,127,0,0,1900,-2120,0,3513,1404,235,93,1,4,255,-51,539558,0
539599,-2111,-4059,128,-1326,-709,-7465,7202,-2787,620,-110,-5888,35426,128,34,127,0,0,1720,-1702,0,3513,1404,235,103,1,4,255,-51,539589,0
539609,550,-2034,-1275,-135,130,-8390,6075,-2356,722,-237,-5512,35448,30,34,127,0,0,1524,-2043,0,3513,1404,235,113,1,4,255,-51,539605,0
539619,3163,-1843,-242,-610,-567,-7168,5051,-2227,555,-466,-5288,35453,7,35,127,0,0,1373,-1406,0,3513,1404,235,123,1,4,255,-51,539605,0
539629,2708,-2371,1861,-1055,-1876,-5311,4078,-2099,261,-178,-4560,35451,9,35,127,0,0,1283,-812,0,3513,1404,235,133,1,4,255,-51,539605,0
539639,1984,-1694,1862,-1444,-2276,-4707,3201,-1841,289,11,-3352,35449,22,35,127,0,0,1239,-406,0,3513,1404,235,143,1,4,255,-51,539620,0
539649,1536,-1007,-162,-1276,-2165,-4440,2488,-1444,525,100,-2384,35455,14,34,127,0,0,1204,-384,0,3513,1404,235,153,1,4,255,-51,539620,0
539659,2104,-680,-1093,-1004,-1812,-4295,1953,-1054,668,25,-1776,35458,7,34,127,0,0,1160,-450,0,3513,1404,235,163,1,4,255,-51,539652,0
539669,2249,-1346,-896,-761,-1730,-3660,1554,-812,595,-158,-1536,35472,-30,35,127,0,0,1116,-395,0,3513,1404,235,173,1,4,255,-51,539652,0
539679,1686,-1831,74,-907,-1847,-3190,1238,-654,402,-326,-1328,35465,-26,34,127,0,0,1089,-274,0,3513,1404,235,183,1,4,255,-51,539652,0
539689,1181,-2909,693,-1168,-1805,-2980,971,-556,234,-302,-928,35457,-4,35,127,0,0,1081,-65,0,3513,1404,235,193,1,4,255,-51,539652,0
539699,1006,-3422,591,-1117,-1703,-3152,760,-418,196,-248,-488,35446,-14,34,127,0,0,1085,10,0,3513,1404,235,203,1,4,255,-51,539683,0
539709,818,-4621,446,-835,-2145,-3210,628,-250,259,-107,-48,35451,-18,34,127,0,0,1114,318,0,3513,1404,235,213,1,4,255,-51,539683,0
539719,565,-4757,886,-642,-2323,-3377,675,255,508,668,648,35454,-33,35,127,0,0,1175,626,0,3513,1404,235,223,1,4,255,-51,539698,0
539729,214,-5305,989,-682,-3275,-3355,856,478,573,787,1472,35452,-1,35,127,0,0,1285,1142,0,3513,1404,235,233,1,4,255,-51,539714,0
539739,-550,-5728,1075,-653,-3707,-3454,1177,814,441,1132,2480,35459,4,35,127,0,0,1447,1680,0,3513,1404,235,243,1,4,255,-51,539714,0
539749,-1425,-5631,1163,-423,-4064,-3719,1691,1255,675,1210,3576,35459,-5,35,127,0,0,1654,2142,0,3513,1404,235,253,1,4,255,-51,539714,0
539759,-1383,-5120,1190,50,-3786,-3736,2406,1723,758,1302,4712,35463,25,34,127,0,0,1913,2625,0,3513,1404,235,263,1,4,255,-51,539730,0
539769,-1224,-3558,716,627,-3910,-3395,3315,2118,760,1186,5600,35445,80,35,127,0,0,2221,3131,0,3513,1404,235,273,1,4,255,-51,539745,0
539779,-966,-2273,722,1035,-4389,-2692,4382,2450,671,1344,6504,35425,142,35,127,0,0,2559,3383,0,3513,1404,235,283,1,4,255,-51,539761,0
539789,-919,467,847,1788,-6009,-1046,5579,2722,552,1386,7520,35418,171,35,127,0,0,2933,3801,0,3513,1404,235,293,1,4,255,-51,539761,0
539799,-247,2333,264,2152,-7580,-211,6972,3247,609,1842,8976,35401,203,35,127,0,0,3375,4383,0,3513,1404,235,303,1,4,255,-51,539777,0
539809,344,4688,-1108,1769,-9828,1395,8670,3899,970,1620,9920,35383,301,35,127,0,0,3761,3790,0,3513,1404,235,313,1,4,255,-51,539792,0
539819,-465,5615,-849,1477,-8930,3187,10501,4074,861,866,9712,35366,340,35,127,0,0,4058,2845,0,3513,1404,235,323,1,4,255,-51,539792,0
539829,-1593,2256,-1035,2019,-6617,2083,12151,3969,249,7,7800,35363,295,35,127,0,0,4139,417,0,3513,1404,235,333,0,4,255,-51,539808,0
539839,-3319,762,144,3395,-4027,1823,13675,2971,-670,-1862,3704,35410,131,35,127,0,0,3994,-1582,0,3513,1404,235,343,0,4,255,-51,539823,0
539849,-3427,365,1430,3712,-807,2654,14496,1340,-2093,-1968,56,35478,-81,35,127,0,0,3818,-1790,0,3513,1404,235,353,0,4,255,-51,539823,0
539859,-2331,65,1577,3451,675,4139,14540,-382,-2892,-1434,-968,35500,-126,35,127,0,0,3774,-296,0,3513,1404,235,363,0,4,255,-51,539839,0
539869,-1662,386,79,3424,3203,5236,14331,-445,-1883,-199,-288,35491,-114,34,127,0,0,3821,582,0,3513,1404,235,373,0,4,255,-51,539839,0
539879,-375,449,-768,3982,4884,5403,14268,116,30,1183,664,35480,-43,34,127,0,0,3891,703,0,3513,1404,235,383,0,4,255,-51,539855,0
539889,1113,960,-806,4308,6030,6121,14427,388,779,566,952,35485,-33,35,127,0,0,3941,483,0,3513,1404,235,393,0,4,255,-51,539870,0
539899,1341,902,-73,4224,6271,6569,14622,446,424,573,1016,35490,-47,35,127,0,0,3985,439,0,3513,1404,235,403,0,4,255,-51,539870,0
539909,1684,193,148,4089,5695,7025,14833,476,89,532,1048,35479,-35,35,127,0,0,4036,516,0,3513,1404,235,413,0,4,255,-51,539917,0
539919,2298,-191,148,3927,4740,7430,15057,504,57,692,1400,35466,-35,35,127,0,0,4128,944,0,3513,1404,235,423,0,4,255,-51,539917,0
539929,3264,-298,-326,3848,3186,8186,15343,699,152,1010,2176,35469,-27,34,127,0,0,4282,1571,0,3513,1404,235,433,0,4,255,-51,539933,0
539939,3344,-285,-695,3550,2325,8381,15787,1116,452,1294,3264,35461,-3,35,127,0,0,4480,1988,0,3513,1404,235,443,0,4,255,-51,539933,0
539949,3184,-804,-937,3137,1355,7942,16427,1526,702,1254,4160,35442,38,35,127,0,0,4673,1911,0,3513,1404,235,453,0,4,255,-51,539933,0
539959,2974,-1283,-1009,2900,1114,7365,17205,1762,624,891,4376,35427,75,35,127,0,0,4829,1549,0,3513,1404,235,463,0,4,255,-51,539933,0
539969,2587,-2104,-887,2441,1417,6645,18005,1739,273,640,4256,35439,67,35,127,0,0,4965,1329,0,3513,1404,235,473,0,4,255,-51,539933,0
539979,2389,-2631,-690,2118,1983,6315,18785,1689,-23,498,3984,35460,71,35,127,0,0,5082,1219,0,3513,1404,235,483,0,4,255,-51,539964,0
539989,2091,-3199,-395,1674,3095,5982,19523,1594,-127,475,3760,35474,55,35,127,0,0,5200,1175,0,3513,1404,235,493,0,4,255,-51,539964,0
539999,2006,-3417,-288,1454,3837,5827,20212,1482,-180,595,3608,35470,30,35,127,0,0,5319,1175,0,3513,1404,235,503,0,4,255,-51,539964,0
540009,1966,-3685,-34,1080,4937,5539,20861,1417,-165,684,3552,35454,24,35,127,0,0,5440,1285,0,3513,1404,235,513,0,4,255,-51,540011,0
540019,1918,-3827,206,1003,5564,5336,21499,1372,-87,337,2224,35452,24,35,127,0,0,5556,1131,0,3513,1404,235,523,0,4,255,-51,540027,0
540029,2059,-3803,520,556,6151,4953,21964,842,-384,-886,-264,35455,29,35,127,0,0,5651,922,0,3513,1404,235,533,0,4,255,-51,540027,0
540039,2149,-3957,602,420,6054,4622,21885,-498,-1472,-1236,-1784,35455,-5,34,127,0,0,5737,867,0,3513,1404,235,543,0,4,255,-51,540027,0
540049,1782,-4001,687,409,5072,3722,21518,-938,-1583,-1219,-3016,35456,-25,34,127,0,0,5798,604,0,3513,1404,235,553,0,4,255,-51,540027,0
540059,1873,-4184,668,379,4132,3039,20948,-1361,-838,-1104,-3920,35454,-3,35,127,0,0,5853,516,0,3513,1404,235,563,0,4,255,-51,540042,0
540069,1600,-4366,849,527,2505,2106,20210,-1728,-701,-984,-4504,35453,61,34,127,0,0,5904,483,0,3513,1404,235,573,0,4,255,-51,540042,0
540079,1479,-4098,669,581,1450,1416,19343,-1965,-555,-772,-4896,35442,94,34,127,0,0,5952,505,0,3513,1404,235,583,0,4,255,-51,540042,0
540089,1336,-2943,395,289,-68,266,18416,-2069,-336,-715,-5160,35442,94,34,127,0,0,5998,439,0,3513,1404,235,593,0,4,255,-51,540073,0
540099,1277,-2367,138,100,-1047,-508,17453,-2132,-176,-661,-5392,35451,69,34,127,0,0,6031,307,0,3513,1404,235,603,0,4,255,-51,540073,0
540109,1019,-1708,-93,-461,-2434,-1650,16428,-2313,-191,-795,-5712,35455,74,35,127,0,0,6064,285,0,3513,1404,235,613,0,4,255,-51,540073,0
540119,849,-1549,-67,-771,-3306,-2408,15327,-2469,-276,-866,-5984,35446,84,35,127,0,0,6095,285,0,3513,1404,235,623,0,4,255,-51,540105,0
540129,542,-1425,-196,-1216,-4115,-3245,14221,-2417,-136,-756,-6032,35446,84,35,127,0,0,6128,362,0,3513,1404,235,633,0,4,255,-51,540105,0
540139,35,-2322,641,126,3377,-3616,13126,-2416,22,-1045,-7072,35450,68,35,127,0,0,5910,-2768,0,4685,1240,236,3,1,4,210,-116,540105,0
540149,-3143,-1870,2150,-445,3544,-9057,11687,-3679,-729,-3768,-11352,35434,161,34,127,0,0,5345,-5811,0,4685,1240,236,13,1,4,210,-116,540151,0
540159,-2379,-2869,418,-328,5975,-7863,10000,-2867,-1160,5684,400,35387,336,35,127,0,0,4818,-5207,0,4685,1240,236,23,1,4,210,-116,540151,0
540169,1048,-3483,1040,-2143,2422,-7018,10337,2057,4123,5994,6840,35392,310,35,127,0,0,4289,-5372,0,4685,1240,236,33,1,4,210,-116,540151,0
540179,2183,-2962,571,-1817,446,-5800,11711,3391,5915,2173,7272,35353,434,35,127,0,0,3849,-4284,0,4685,1240,236,43,1,4,210,-116,540151,0
540189,-643,-1781,173,-1479,-1070,-5444,12974,2065,1225,-3955,168,35404,209,35,127,0,0,3460,-3834,0,4685,1240,236,53,1,4,210,-116,540167,0
540199,-854,-1386,-258,-1199,976,-6671,12941,-868,-3162,-3893,-4216,35393,282,35,127,0,0,3005,-4702,0,4685,1240,236,63,1,4,210,-116,540183,0
540209,1904,-4646,-699,-1236,1817,-7541,12045,-2444,-4126,-2693,-7176,35445,129,35,127,0,0,2533,-4636,0,4685,1240,236,73,1,4,210,-116,540183,0
540219,-3104,-16778,5917,1662,-145,-3862,10584,-3488,-2566,-847,-8376,35441,131,35,127,0,0,2230,-2482,0,4685,1240,236,83,1,4,210,-116,540198,0
540229,-3722,42,1325,-4735,-1474,-7616,9086,-3115,-999,83,-6328,35408,251,35,127,0,0,2032,-2449,0,4685,1240,236,93,1,4,210,-116,540198,0
540239,-4397,-6340,4159,-3169,-1083,-6607,7793,-2753,489,-206,-5872,35432,165,34,127,0,0,1858,-1406,0,4685,1240,236,103,1,4,210,-116,540214,0
540249,572,-608,-4276,-2449,902,-8548,6670,-2343,688,-155,-5184,35462,62,34,127,0,0,1669,-1944,0,4685,1240,236,113,1,4,210,-116,540230,0
540259,2795,-2770,-2639,-1797,-88,-7946,5681,-2139,580,-570,-5224,35476,7,35,127,0,0,1491,-1669,0,4685,1240,236,123,1,4,210,-116,540230,0
540269,2969,-3228,185,-799,-920,-5984,4733,-2055,295,-300,-4680,35473,8,34,127,0,0,1388,-966,0,4685,1240,236,133,1,4,210,-116,540323,0
540279,1230,-2697,3023,-842,-1922,-5407,3863,-1829,230,-42,-3472,35474,-1,35,127,0,0,1346,-362,0,4685,1240,236,143,1,4,210,-116,540323,0
540289,643,-2226,2268,-1614,-1573,-5621,3137,-1477,455,80,-2376,35474,6,34,127,0,0,1320,-241,0,4685,1240,236,153,1,4,210,-116,540323,0
540299,1748,-775,-421,-1323,-867,-5720,2596,-1077,644,67,-1632,35477,-14,34,127,0,0,1283,-406,0,4685,1240,236,163,1,4,210,-116,540323,0
540309,3299,1036,-2786,-676,-450,-4916,2204,-780,629,-75,-1256,35479,-43,35,127,0,0,1234,-516,0,4685,1240,236,173,1,4,210,-116,540323,0
540319,2847,772,-2124,-248,-404,-4240,1910,-615,452,-420,-1416,35479,-40,34,127,0,0,1175,-571,0,4685,1240,236,183,1,4,210,-116,540339,0
540329,1831,-153,865,-517,-168,-3766,1625,-649,170,-658,-1672,35472,-21,35,127,0,0,1105,-692,0,4685,1240,236,193,1,4,210,-116,540339,0
540339,1265,-1199,1603,-859,-327,-3774,1299,-745,-84,-803,-2104,35462,-17,34,127,0,0,1017,-889,0,4685,1240,236,203,1,4,210,-116,540339,0
540349,1634,-2441,1362,-977,-551,-3770,902,-920,-219,-614,-1872,35463,-14,34,127,0,0,931,-878,0,4685,1240,236,213,1,4,210,-116,540339,0
540359,1729,-2518,736,-798,-814,-3732,537,-731,-56,-169,-1128,35469,-13,35,127,0,0,856,-736,0,4685,1240,236,223,1,4,210,-116,540339,0
540369,1606,-2567,745,-636,-1273,-3625,278,-498,304,-189,-592,35481,23,34,127,0,0,793,-615,0,4685,1240,236,233,1,4,210,-116,540339,0
540379,1337,-2487,805,-690,-1490,-3612,116,-291,390,-251,-240,35495,-1,34,127,0,0,747,-428,0,4685,1240,236,243,1,4,210,-116,540367,0
540389,1161,-2222,480,-860,-1665,-3650,36,-120,340,-173,-72,35509,-41,35,127,0,0,722,-274,0,4685,1240,236,253,1,4,210,-116,540371,0
540399,1207,-1825,18,-907,-1616,-3744,37,52,312,-227,-56,35509,-61,35,127,0,0,705,-164,0,4685,1240,236,263,1,4,210,-116,540371,0
540409,1239,-1515,-428,-845,-1385,-3806,32,-33,131,-236,-56,35499,-40,35,127,0,0,687,-142,0,4685,1240,236,273,1,4,210,-116,540386,0
540419,1306,-1450,-487,-798,-1246,-3840,36,8,-10,-250,-64,35481,-23,35,127,0,0,674,-120,0,4685,1240,236,283,1,4,210,-116,540402,0
540429,1443,-1676,-495,-792,-1144,-3759,35,0,11,-239,-56,35472,-30,35,127,0,0,665,-98,0,4685,1240,236,293,1,4,210,-116,540402,0
540439,1318,-1724,-386,-809,-1110,-3734,34,-4,-12,-239,-64,35480,-66,35,127,0,0,665,10,0,4685,1240,236,303,1,4,210,-116,540418,0
540449,1191,-1612,-359,-747,-789,-3979,35,1,-1,-242,-64,35480,-62,35,127,0,0,665,0,0,4685,1240,236,313,1,4,210,-116,540433,0
540459,1341,-1794,-380,-626,-626,-4024,36,9,2,-221,-64,35476,-44,35,127,0,0,672,54,0,4685,1240,236,323,1,4,210,-116,540433,0
540469,1865,-1805,-201,-471,-746,-3890,36,3,1,-232,-56,35468,-31,35,127,0,0,692,208,0,4685,1240,236,333,1,4,210,-116,540449,0
540479,1767,-2092,-30,-470,-970,-3855,34,-1,-4,-213,-64,35481,-47,35,127,0,0,727,318,0,4685,1240,236,343,1,4,210,-116,540449,0
540489,1697,-2929,269,-378,-1144,-3790,37,6,2,-169,-24,35490,-49,34,127,0,0,777,571,0,4685,1240,236,353,1,4,210,-116,540465,0
540499,1793,-3238,501,-325,-1139,-3822,51,59,35,209,152,35496,-31,35,127,0,0,852,791,0,4685,1240,236,363,1,4,210,-116,540480,0
540509,1981,-3414,714,-421,-1259,-3729,117,188,137,427,384,35479,-27,34,127,0,0,949,955,0,4685,1240,236,373,1,4,210,-116,540496,0
540519,1882,-3606,990,-438,-1580,-3409,225,258,184,422,416,35471,-44,34,127,0,0,1076,1285,0,4685,1240,236,383,1,4,210,-116,540496,0
540529,1656,-3223,1251,-483,-1953,-3139,372,394,157,1082,1744,35468,-71,35,127,0,0,1237,1593,0,4685,1240,236,393,1,4,210,-116,540527,0
540539,1339,-2868,1196,-401,-2135,-2985,747,1000,552,1444,3072,35482,-51,34,127,0,0,1419,1834,0,4685,1240,236,403,1,4,210,-116,540527,0
540549,1775,-2359,1101,-279,-2359,-2544,1351,1451,908,1231,4000,35460,19,34,127,0,0,1619,2021,0,4685,1240,236,413,1,4,210,-116,540527,0
540559,1885,-1914,1232,-203,-2664,-1961,2112,1765,713,1083,4736,35448,61,35,127,0,0,1845,2296,0,4685,1240,236,423,1,4,210,-116,540527,0
540569,1977,-345,1156,-123,-2948,-866,3005,2039,545,982,5296,35441,91,35,127,0,0,2093,2526,0,4685,1240,236,433,1,4,210,-116,540543,0
540579,1708,477,455,-235,-3110,-308,3996,2229,427,992,5664,35444,93,35,127,0,0,2351,2548,0,4685,1240,236,443,1,4,210,-116,540558,0
540589,1238,3256,-463,-19,-3177,753,5024,2263,243,684,5624,35439,125,35,127,0,0,2548,1889,0,4685,1240,236,453,1,4,210,-116,540558,0
540599,-549,3859,-1563,-146,-3220,2185,6009,2112,-39,359,4832,35434,124,35,127,0,0,2652,1010,0,4685,1240,236,463,1,4,210,-116,540605,0
540609,-900,2336,-1717,301,-2852,3330,6884,1852,-323,123,3720,35449,74,35,127,0,0,2693,274,0,4685,1240,236,473,0,4,210,-116,540652,0
540619,-1586,998,-1360,885,-2260,3864,7607,1459,-517,-130,1920,35460,28,35,127,0,0,2649,-516,0,4685,1240,236,483,0,4,210,-116,540652,0
540629,-1923,-298,6,1617,-924,5118,8099,906,-764,-338,480,35468,5,35,127,0,0,2614,-307,0,4685,1240,236,493,0,4,210,-116,540668,0
540639,-1332,-146,340,1614,408,5699,8332,335,-958,-489,-64,35460,-29,35,127,0,0,2621,54,0,4685,1240,236,503,0,4,210,-116,540668,0
540649,-392,-49,-138,1598,2013,6609,8327,-76,-942,31,80,35460,-48,35,127,0,0,2636,164,0,4685,1240,236,513,0,4,210,-116,540668,0
540659,-56,33,-876,1544,2761,7152,8338,67,-348,408,192,35464,-51,34,127,0,0,2649,153,0,4685,1240,236,523,0,4,210,-116,540668,0
540669,360,-82,-952,1735,3287,8105,8385,117,143,464,240,35459,-9,35,127,0,0,2676,274,0,4685,1240,236,533,0,4,210,-116,540668,0
540679,642,-249,-611,1881,3207,8660,8449,188,89,816,592,35450,16,34,127,0,0,2729,549,0,4685,1240,236,543,0,4,210,-116,540668,0
540689,1460,-449,-212,1978,2571,9100,8585,349,193,718,952,35451,6,34,127,0,0,2794,703,0,4685,1240,236,553,0,4,210,-116,540668,0
540699,2022,-490,-270,1911,1980,9277,8778,451,253,657,1088,35457,-3,35,127,0,0,2845,494,0,4685,1240,236,563,0,4,210,-116,540668,0
540709,2204,-808,-351,1963,797,9711,8999,482,149,460,960,35470,-15,34,127,0,0,2874,285,0,4685,1240,236,573,0,4,210,-116,540683,0
540719,2005,-939,-308,1966,-217,9923,9198,433,0,462,920,35486,-28,34,127,0,0,2917,472,0,4685,1240,236,583,0,4,210,-116,540730,0
540729,1616,-1465,-171,1922,-1219,9996,9391,432,-100,602,1040,35493,-44,35,127,0,0,2975,615,0,4685,1240,236,593,0,4,210,-116,540730,0
540739,1620,-1922,-419,1953,-1173,9835,9610,520,14,704,1328,35495,-43,35,127,0,0,3056,802,0,4685,1240,236,603,0,4,210,-116,540730,0
540749,1332,-2328,-856,2144,-453,9462,9882,624,198,670,1576,35486,-36,35,127,0,0,3135,823,0,4685,1240,236,613,0,4,210,-116,540730,0
540759,1144,-2411,-1084,2295,443,9074,10197,718,182,610,1624,35478,-16,35,127,0,0,3205,703,0,4685,1240,236,623,0,4,210,-116,540746,0
540769,1111,-2466,-1059,2241,1865,8448,10536,755,125,562,1808,35465,-11,35,127,0,0,3291,878,0,4685,1240,236,633,0,4,210,-116,540746,0
540779,1007,-2706,-956,2172,2853,7941,10906,832,109,623,2072,35462,-11,35,127,0,0,3388,1010,0,4685,1240,236,643,0,4,210,-116,540746,0
540789,1179,-2889,-879,1891,4358,7147,11319,942,143,713,2392,35458,-16,35,127,0,0,3504,1208,0,4685,1240,236,653,0,4,210,-116,540777,0
540799,1485,-3012,-708,1721,5223,6563,11793,1085,191,780,2776,35460,1,35,127,0,0,3629,1219,0,4685,1240,236,663,0,4,210,-116,540777,0
540809,1823,-3221,-331,1450,6293,5356,12325,1191,236,633,2888,35454,23,34,127,0,0,3726,889,0,4685,1240,236,673,0,4,210,-116,540777,0
540819,1892,-3296,-46,1260,6618,4668,12853,1128,105,356,2488,35451,21,34,127,0,0,3774,450,0,4685,1240,236,683,0,4,210,-116,540793,0
540829,1950,-3209,420,778,6284,3901,13264,949,-159,207,1896,35457,3,35,127,0,0,3803,296,0,4685,1240,236,693,0,4,210,-116,540808,0
540839,1972,-3137,573,482,5659,3486,13631,741,-332,174,1256,35460,3,35,127,0,0,3818,208,0,4685,1240,236,703,0,4,210,-116,540808,0
540849,2027,-3119,552,92,4396,2893,13908,559,-352,260,960,35455,-2,34,127,0,0,3832,142,0,4685,1240,236,713,0,4,210,-116,540839,0
540859,2077,-3106,521,-41,3475,2530,14117,424,-291,311,632,35457,-3,35,127,0,0,3843,76,0,4685,1240,236,723,0,4,210,-116,540839,0
540869,1938,-2724,440,-251,2047,2072,14280,335,-208,277,320,35460,-32,35,127,0,0,3845,21,0,4685,1240,236,733,0,4,210,-116,540839,0
540879,1801,-2520,447,-296,1130,1805,14388,194,-194,196,80,35461,-36,35,127,0,0,3843,10,0,4685,1240,236,743,0,4,210,-116,540855,0
540889,3147,-3522,-526,-470,1048,908,14431,60,-227,114,64,35458,-32,35,127,0,0,3843,0,0,4685,1240,236,753,0,4,210,-116,540871,0
540899,2540,-2476,600,-152,864,-206,14426,-53,-210,-224,-344,35464,-42,35,127,0,0,3781,-736,0,4685,1240,236,763,0,4,210,-116,540871,0
540909,135,-1449,386,168,771,-288,14309,-340,-321,-684,-1040,35471,-30,34,127,0,0,3691,-911,0,1918,717,237,5,1,0,167,-62,540886,0
540919,-125,-1755,1045,87,280,112,14087,-557,-426,-781,-1608,35475,-44,35,127,0,0,3607,-769,0,1918,717,237,15,1,0,167,-62,540902,0
540929,924,-3211,849,17,-394,513,13788,-681,-335,-570,-1608,35474,-38,34,127,0,0,3548,-560,0,1918,717,237,25,1,0,167,-62,540902,0
540939,-57,-2374,912,142,-467,695,13475,-689,-151,-506,-1656,35468,-18,35,127,0,0,3489,-538,0,1918,717,237,35,1,0,167,-62,540902,0
540949,-1997,-3678,1185,315,-72,1087,13162,-689,-13,-478,-1680,35473,-45,35,127,0,0,3436,-549,0,1918,717,237,45,1,0,167,-62,540933,0
540959,-313,-1616,-251,-289,-300,1580,12848,-661,0,-198,-744,35471,-25,35,127,0,0,3484,571,0,1918,717,237,55,1,0,167,-62,540933,0
540969,-659,-2562,-570,-406,-16,787,12639,-361,218,175,40,35465,-25,35,127,0,0,3511,252,0,1918,717,237,65,1,0,167,-62,540949,0
540979,-467,-2166,-1030,70,141,588,12640,142,641,393,272,35459,-27,35,127,0,0,3528,219,0,1918,717,237,75,1,0,167,-62,540949,0
540989,-9,-2039,-669,506,59,463,12742,225,587,202,216,35479,-54,35,127,0,0,3546,186,0,1918,717,237,85,1,0,167,-62,540964,0
540999,-71,-2006,-310,709,91,334,12820,152,90,301,216,35490,-93,35,127,0,0,3559,120,0,1918,717,237,95,1,0,167,-62,540980,0
541009,27,-2053,415,712,163,216,12884,126,-82,307,184,35487,-58,35,127,0,0,3566,54,0,1918,717,237,105,1,0,167,-62,541011,0
541019,140,-2070,666,638,102,210,12935,93,-55,282,152,35478,-51,35,127,0,0,3574,65,0,1918,717,237,115,1,0,167,-62,541011,0
541029,183,-2057,714,437,3,243,12953,21,-96,417,184,35473,-44,35,127,0,0,3583,109,0,1918,717,237,125,1,0,167,-62,541027,0
541039,155,-2019,605,314,-24,251,12983,86,-34,484,200,35486,-51,35,127,0,0,3592,65,0,1918,717,237,135,1,0,167,-62,541027,0
541049,94,-2054,420,187,-51,224,13022,88,51,530,256,35482,-52,34,127,0,0,3599,43,0,1918,717,237,145,1,0,167,-62,541027,0
541059,31,-2045,316,152,-45,224,13086,136,59,327,128,35475,-29,34,127,0,0,3610,120,0,1918,717,237,155,1,0,167,-62,541027,0
541069,28,-2038,240,121,-13,150,13134,71,11,348,144,35474,-8,35,127,0,0,3612,54,0,1918,717,237,165,1,0,167,-62,541058,0
541079,28,-2035,218,133,19,91,13140,7,-118,522,192,35495,-2,35,127,0,0,3616,43,0,1918,717,237,175,1,0,167,-62,541074,0
541089,37,-2047,214,148,9,66,13156,65,-46,541,160,35489,18,35,127,0,0,3618,10,0,1918,717,237,185,1,0,167,-62,541074,0
541099,81,-2035,205,155,14,45,13183,54,54,452,152,35480,31,34,127,0,0,3623,32,0,1918,717,237,195,1,0,167,-62,541074,0
541109,58,-2031,215,161,6,17,13193,9,-22,502,160,35479,30,34,127,0,0,3623,0,0,1918,717,237,205,1,0,167,-62,541074,0
541119,30,-2054,302,156,11,-9,13201,9,-41,523,168,35498,3,35,127,0,0,3627,54,0,1918,717,237,215,1,0,167,-62,541105,0
541129,55,-2041,380,114,10,-64,13222,60,20,406,120,35506,-24,35,127,0,0,3627,32,0,1918,717,237,225,1,0,167,-62,541105,0
541139,69,-2040,425,62,-10,-75,13250,41,44,261,40,35501,-19,35,127,0,0,3627,10,0,1918,717,237,235,1,0,167,-62,541105,0
541149,71,-2048,428,-31,-42,-104,13244,-24,-63,282,72,35484,-28,34,127,0,0,3625,21,0,1918,717,237,245,1,0,167,-62,541152,0
541159,37,-2062,369,-72,-36,-129,13247,11,-41,246,88,35474,-30,34,127,0,0,3625,10,0,1918,717,237,255,1,0,167,-62,541152,0
541169,92,-2040,234,-87,-35,-170,13246,0,12,238,48,35480,-46,35,127,0,0,3623,0,0,1918,717,237,265,1,0,167,-62,541152,0
541179,130,-2030,194,-69,-27,-190,13247,8,1,177,32,35481,-22,34,127,0,0,3621,-21,0,1918,717,237,275,1,0,167,-62,541168,0
541189,89,-2037,187,-31,-14,-199,13240,-16,-5,82,-32,35478,-19,34,127,0,0,3616,-21,0,1918,717,237,285,1,0,167,-62,541168,0
541199,160,-2032,179,-10,16,-193,13232,-17,-13,-67,-56,35477,-32,35,127,0,0,3612,-32,0,1918,717,237,295,1,0,167,-62,541183,0
541209,238,-2033,190,22,11,-132,13227,7,4,-64,-40,35486,-40,35,127,0,0,3610,-65,0,1918,717,237,305,1,0,167,-62,541183,0
541219,272,-2031,245,32,-11,-67,13222,-23,5,-220,-32,35491,-26,35,127,0,0,3610,10,0,1918,717,237,315,1,0,167,-62,541199,0
541229,238,-2040,284,37,-1,-1,13215,-12,-7,-171,-16,35484,-15,35,127,0,0,3607,-10,0,1918,717,237,325,1,0,167,-62,541199,0
541239,252,-2032,254,35,15,32,13211,-15,10,-202,-8,35495,-25,35,127,0,0,3607,10,0,1918,717,237,335,1,0,167,-62,541214,0
541249,187,-2019,192,54,19,74,13211,-10,5,-216,-40,35506,-48,34,127,0,0,3610,32,0,1918,717,237,345,1,0,167,-62,541214,0
541259,125,-2038,187,65,7,112,13211,13,5,-41,16,35507,-38,35,127,0,0,3610,21,0,1918,717,237,355,1,0,167,-62,541246,0
541269,218,-2040,226,94,-9,172,13217,11,21,31,40,35492,-22,35,127,0,0,3618,65,0,1918,717,237,365,1,0,167,-62,541246,0
541279,107,-2043,217,110,-8,189,13236,45,31,179,56,35475,-3,35,127,0,0,3627,98,0,1918,717,237,375,1,0,167,-62,541261,0
541289,91,-2030,206,136,-8,204,13250,31,10,354,128,35471,-26,35,127,0,0,3634,76,0,1918,717,237,385,1,0,167,-62,541261,0
541299,101,-2020,200,150,0,199,13262,33,-12,484,160,35488,-35,34,127,0,0,3640,54,0,1918,717,237,395,1,0,167,-62,541293,0
541309,50,-2023,217,176,7,191,13301,106,48,428,200,35492,-36,35,127,0,0,3651,109,0,1918,717,237,405,1,0,167,-62,541293,0
541319,96,-2033,285,176,12,161,13343,93,55,487,248,35489,-32,34,127,0,0,3654,43,0,1918,717,237,415,1,0,167,-62,541293,0
541329,87,-2039,346,153,4,155,13385,86,0,359,168,35485,-44,34,127,0,0,3665,87,0,1918,717,237,425,1,0,167,-62,541293,0
541339,54,-2034,365,129,6,120,13421,104,-7,428,144,35487,-51,35,127,0,0,3667,10,0,1918,717,237,435,1,0,167,-62,541324,0
541349,113,-2031,349,90,-10,116,13457,53,-7,347,128,35486,-50,35,127,0,0,3669,10,0,1918,717,237,445,1,0,167,-62,541324,0
541359,9,-2032,325,65,-17,107,13485,68,-25,335,152,35480,-45,34,127,0,0,3680,87,0,1918,717,237,455,1,0,167,-62,541324,0
541369,52,-2030,311,49,-11,62,13510,35,-14,429,136,35474,-82,35,127,0,0,3680,0,0,1918,717,237,465,1,0,167,-62,541417,0
541379,26,-2035,321,27,-10,38,13510,-9,-62,502,200,35491,-98,35,127,0,0,3684,43,0,1918,717,237,475,1,0,167,-62,541417,0
541389,47,-2039,345,1,-3,3,13517,19,-30,524,168,35492,-104,35,127,0,0,3687,43,0,1918,717,237,485,1,0,167,-62,541417,0
541399,51,-2037,345,-16,-3,-16,13536,55,43,520,192,35492,-94,34,127,0,0,3689,32,0,1918,717,237,495,1,0,167,-62,541417,0
541409,75,-2021,342,-50,-29,-22,13563,34,36,371,136,35473,-79,34,127,0,0,3689,0,0,1918,717,237,505,1,0,167,-62,541417,0
541419,45,-2032,331,-65,-24,-44,13561,-11,-53,471,128,35468,-91,35,127,0,0,3689,10,0,1918,717,237,515,1,0,167,-62,541433,0
541429,70,-2033,307,-89,-24,-71,13563,-6,-45,454,160,35467,-68,35,127,0,0,3691,10,0,1918,717,237,525,1,0,167,-62,541433,0
541439,41,-2032,290,-99,-31,-81,13564,6,1,493,112,35468,-52,34,127,0,0,3689,-10,0,1918,717,237,535,1,0,167,-62,541433,0
541449,42,-2033,287,-105,-40,-92,13563,-7,-3,480,112,35467,-39,34,127,0,0,3689,-10,0,1918,717,237,545,1,0,167,-62,541433,0
541459,32,-2025,270,-102,-37,-110,13564,-1,-1,466,120,35472,-63,35,127,0,0,3689,0,0,1918,717,237,555,1,0,167,-62,541433,0
541469,54,-2036,247,-94,-32,-135,13563,1,1,443,136,35484,-74,34,127,0,0,3687,-21,0,1918,717,237,565,1,0,167,-62,541433,0
541479,84,-2036,227,-81,-36,-150,13562,3,-2,414,88,35487,-61,35,127,0,0,3687,0,0,1918,717,237,575,1,0,167,-62,541480,0
541489,108,-2037,234,-66,-33,-165,13561,-9,-3,345,80,35479,-39,34,127,0,0,3682,-43,0,1918,717,237,585,1,0,167,-62,541480,0
541499,60,-2033,245,-53,-6,-192,13559,4,-1,277,64,35475,-52,34,127,0,0,3680,-54,0,1918,717,237,595,1,0,167,-62,541480,0
541509,125,-2031,264,-34,7,-177,13552,-20,-5,172,-24,35471,-60,35,127,0,0,3676,-87,0,1918,717,237,605,1,0,167,-62,541480,0
541519,157,-2028,274,-38,-4,-159,13544,-18,-17,30,32,35476,-64,34,127,0,0,3671,-21,0,1918,717,237,615,1,0,167,-62,541511,0
541529,163,-2037,267,-40,-21,-115,13541,-11,5,-92,-24,35484,-64,34,127,0,0,3669,-10,0,1918,717,237,625,1,0,167,-62,541511,0
541539,138,-2036,269,-33,-23,-99,13537,-11,8,-116,-16,35481,-89,35,127,0,0,3669,-10,0,1918,717,237,635,1,0,167,-62,541511,0
541549,126,-2027,260,-24,-12,-87,13534,-6,-3,-115,-40,35490,-91,34,127,0,0,3667,-43,0,1918,717,237,645,1,0,167,-62,541511,0
541559,130,-2025,267,-15,-12,-76,13525,-26,-11,-165,-40,35483,-94,35,127,0,0,3667,10,0,1918,717,237,655,1,0,167,-62,541558,0
541569,104,-2026,266,-10,-12,-66,13515,-19,-12,-56,16,35488,-73,34,127,0,0,3669,21,0,1918,717,237,665,1,0,167,-62,541558,0
541579,89,-2034,262,3,-14,-64,13511,-11,11,-61,0,35478,-79,34,127,0,0,3665,-10,0,1918,717,237,675,1,0,167,-62,541558,0
541589,77,-2035,264,13,-6,-74,13504,-17,3,-68,-16,35478,-114,35,127,0,0,3667,10,0,1918,717,237,685,1,0,167,-62,541574,0
541599,81,-2036,272,15,-2,-77,13503,4,5,-36,-16,35473,-122,34,127,0,0,3665,0,0,1918,717,237,695,1,0,167,-62,541574,0
541609,95,-2030,290,14,-6,-76,13502,0,12,-81,0,35473,-109,35,127,0,0,3665,10,0,1918,717,237,705,1,0,167,-62,541589,0
541619,84,-2030,299,8,-14,-83,13498,-15,-8,-153,-56,35479,-115,35,127,0,0,3660,-21,0,1918,717,237,715,1,0,167,-62,541589,0
541629,70,-2035,278,8,-3,-95,13491,-4,-10,-167,-40,35477,-123,35,127,0,0,3660,0,0,1918,717,237,725,1,0,167,-62,541605,0
541639,93,-2029,269,10,-3,-94,13488,-19,3,-268,-48,35484,-140,35,127,0,0,3658,0,0,1918,717,237,735,1,0,167,-62,541621,0
541649,86,-2033,269,17,-2,-112,13486,3,0,-258,-72,35481,-97,35,127,0,0,3654,-21,0,1918,717,237,745,1,0,167,-62,541621,0
541659,104,-2032,260,18,-9,-109,13482,-11,1,-365,-96,35468,-74,34,127,0,0,3654,0,0,1918,717,237,755,1,0,167,-62,541636,0
541669,98,-2026,230,46,-9,-118,13477,-10,-7,-383,-104,35467,-77,34,127,0,0,3651,0,0,1918,717,237,765,1,0,167,-62,541652,0
541679,90,-2021,205,69,-3,-128,13475,-9,4,-420,-128,35484,-95,35,127,0,0,3649,-32,0,1918,717,237,775,1,0,167,-62,541652,0
541689,84,-2027,225,96,14,-148,13465,-33,-16,-485,-152,35482,-107,34,127,0,0,3643,-21,0,1918,717,237,785,1,0,167,-62,541667,0
541699,88,-2032,276,96,20,-157,13434,-85,-60,-387,-152,35477,-102,34,127,0,0,3638,-65,0,1918,717,237,795,1,0,167,-62,541667,0
541709,80,-2039,348,93,21,-178,13404,-36,-33,-355,-136,35459,-85,35,127,0,0,3636,-43,0,1918,717,237,805,1,0,167,-62,541683,0
541719,157,-2023,366,73,14,-153,13387,-48,42,-468,-200,35469,-87,34,127,0,0,3629,-21,0,1918,717,237,815,1,0,167,-62,541683,0
541729,128,-2030,368,27,8,-142,13352,-72,-14,-298,-128,35470,-49,35,127,0,0,3627,-43,0,1918,717,237,825,1,0,167,-62,541730,0
541739,149,-2025,353,10,7,-113,13339,-18,17,-404,-136,35486,-46,34,127,0,0,3623,-21,0,1918,717,237,835,1,0,167,-62,541746,0
541749,176,-2032,357,-8,-1,-76,13323,-43,34,-332,-112,35475,-22,34,127,0,0,3621,-32,0,1918,717,237,845,1,0,167,-62,541761,0
541759,168,-2034,345,-27,-2,-51,13298,-47,-26,-244,-80,35474,-61,35,127,0,0,3621,-21,0,1918,717,237,855,1,0,167,-62,541761,0
541769,168,-2035,296,-34,-5,-13,13299,20,39,-291,-112,35473,-56,34,127,0,0,3621,0,0,1918,717,237,865,1,0,167,-62,541761,0
541779,127,-2022,270,-25,-13,-3,13296,-3,48,-269,-72,35470,-38,35,127,0,0,3621,32,0,1918,717,237,875,1,0,167,-62,541761,0
541789,133,-2020,215,10,6,-5,13297,-10,-2,-282,-72,35466,-36,34,127,0,0,3621,10,0,1918,717,237,885,1,0,167,-62,541761,0
541799,131,-2024,230,17,11,7,13297,0,0,-273,-72,35474,-48,34,127,0,0,3623,21,0,1918,717,237,895,1,0,167,-62,541761,0
541809,136,-2023,293,35,20,10,13296,-11,-3,-268,-72,35493,-66,35,127,0,0,3621,21,0,1918,717,237,905,1,0,167,-62,541808,0
541819,121,-2033,329,32,10,11,13298,6,1,-222,-56,35497,-45,34,127,0,0,3623,0,0,1918,717,237,915,1,0,167,-62,541808,0
541829,90,-2030,322,15,3,10,13297,-4,4,-218,-88,35489,-27,35,127,0,0,3623,0,0,1918,717,237,925,1,0,167,-62,541808,0
541839,78,-2020,289,15,-4,8,13297,0,-1,-208,-48,35468,-37,35,127,0,0,3623,0,0,1918,717,237,935,1,0,167,-62,541808,0
541849,89,-2027,318,4,9,-10,13296,-11,-4,-218,-48,35471,-47,35,127,0,0,3623,10,0,1918,717,237,945,1,0,167,-62,541839,0
541859,87,-2028,347,-4,5,-11,13297,-2,-1,-220,-40,35475,-45,34,127,0,0,3623,10,0,1918,717,237,955,1,0,167,-62,541839,0
541869,91,-2039,350,-29,-2,-26,13299,9,6,-166,-64,35476,-32,34,127,0,0,3625,0,0,1918,717,237,965,1,0,167,-62,541839,0
541879,76,-2031,324,-39,-17,-21,13297,-10,-4,-184,-48,35470,-29,35,127,0,0,3623,0,0,1918,717,237,975,1,0,167,-62,541855,0
541889,77,-2022,280,-37,-6,-38,13298,2,-5,-208,-56,35486,-43,35,127,0,0,3621,-10,0,1918,717,237,985,1,0,167,-62,541886,0
541899,94,-2027,281,-38,0,-54,13301,19,7,-149,-80,35484,-46,35,127,0,0,3623,-43,0,1918,717,237,995,1,0,167,-62,541902,0
541909,127,-2034,320,-35,4,-61,13298,-15,-5,-156,-72,35489,-30,35,127,0,0,3625,0,0,1918,717,237,1005,1,0,167,-62,541902,0
541919,117,-2033,326,-40,-4,-44,13299,1,-4,-158,16,35471,-26,35,127,0,0,3623,0,0,1918,717,237,1015,1,0,167,-62,541902,0
541929,96,-2035,337,-57,-10,-31,13299,3,4,-173,-16,35467,-41,35,127,0,0,3625,21,0,1918,717,237,1025,1,0,167,-62,541902,0
541939,143,-2032,324,-63,-11,-21,13300,-7,2,-163,-64,35469,-61,35,127,0,0,3627,21,0,1918,717,237,1035,1,0,167,-62,541902,0
541949,146,-2035,318,-71,-11,-21,13300,5,-3,-156,-64,35482,-44,35,127,0,0,3625,10,0,1918,717,237,1045,1,0,167,-62,541933,0
541959,107,-2033,307,-71,-16,-19,13299,9,-3,-168,-56,35486,-39,34,127,0,0,3625,10,0,1918,717,237,1055,1,0,167,-62,541933,0
541969,109,-2030,267,-65,-13,-23,13301,8,6,-130,16,35485,-30,34,127,0,0,3625,-10,0,1918,717,237,1065,1,0,167,-62,541949,0
541979,114,-2035,272,-61,-9,-29,13298,-10,-1,-139,8,35477,-41,35,127,0,0,3627,43,0,1918,717,237,1075,1,0,167,-62,541949,0
541989,106,-2021,284,-50,-9,-27,13302,3,4,-143,-72,35481,-35,34,127,0,0,3627,21,0,1918,717,237,1085,1,0,167,-62,542011,0
541999,83,-2028,279,-37,-6,-20,13303,32,7,-57,-16,35473,-27,34,127,0,0,3623,-54,0,1918,717,237,1095,1,0,167,-62,542011,0
542009,66,-2039,279,-34,1,-27,13298,-18,-6,-144,-32,35470,-33,35,127,0,0,3627,32,0,1918,717,237,1105,1,0,167,-62,542011,0
542019,104,-2026,274,-29,-8,-22,13302,-2,-3,-121,0,35475,-33,34,127,0,0,3625,10,0,1918,717,237,1115,1,0,167,-62,542011,0
542029,116,-2034,303,-25,7,-22,13300,-2,4,-148,-32,35480,-40,35,127,0,0,3625,-10,0,1918,717,237,1125,1,0,167,-62,542011,0
542039,101,-2028,309,-29,-4,-14,13300,2,-8,-116,-8,35480,-24,35,127,0,0,3623,0,0,1918,717,237,1135,1,0,167,-62,542011,0
542049,99,-2021,273,-23,-8,-16,13300,-9,1,-106,-8,35472,-18,35,127,0,0,3627,10,0,1918,717,237,1145,1,0,167,-62,542027,0
542059,86,-2032,265,-10,2,-16,13301,2,-2,-55,-8,35469,-35,35,127,0,0,3629,21,0,1918,717,237,1155,1,0,167,-62,542027,0
542069,102,-2030,277,7,6,-27,13302,-1,-2,-35,-16,35479,-30,35,127,0,0,3627,0,0,1918,717,237,1165,1,0,167,-62,542042,0
542079,117,-2031,295,4,10,-33,13302,-3,-2,-51,-16,35483,-23,35,127,0,0,3627,0,0,1918,717,237,1175,1,0,167,-62,542058,0
542089,122,-2032,332,0,4,-21,13302,-3,0,-51,-16,35481,-23,35,127,0,0,3627,0,0,1918,717,237,1185,1,0,167,-62,542058,0
542099,124,-2027,336,-7,1,-11,13302,4,-4,-47,-16,35495,-52,35,127,0,0,3627,0,0,1918,717,237,1195,1,0,167,-62,542120,0
542109,100,-2032,316,-17,-10,-3,13301,-7,-2,-33,24,35496,-64,34,127,0,0,3627,10,0,1918,717,237,1205,1,0,167,-62,542120,0
542119,120,-2029,308,-24,-8,1,13302,-7,-4,18,80,35494,-47,35,127,0,0,3634,43,0,1918,717,237,1215,1,0,167,-62,542136,0
542129,117,-2033,300,-18,-11,3,13309,2,8,54,32,35480,-33,34,127,0,0,3634,65,0,1918,717,237,1225,1,0,167,-62,542136,0
542139,83,-2025,287,-8,-4,0,13311,17,1,149,-8,35468,-35,34,127,0,0,3632,-32,0,1918,717,237,1235,1,0,167,-62,542136,0
542149,72,-2037,300,-12,3,-20,13310,-2,-14,162,32,35474,-54,35,127,0,0,3636,0,0,1918,717,237,1245,1,0,167,-62,542136,0
542159,70,-2032,308,-9,0,-18,13314,12,0,229,56,35476,-40,34,127,0,0,3636,-10,0,1918,717,237,1255,1,0,167,-62,542136,0
542169,67,-2031,315,-13,-10,-19,13314,-6,6,232,56,35477,-26,34,127,0,0,3636,0,0,1918,717,237,1265,1,0,167,-62,542152,0
542179,76,-2029,310,-11,-3,-31,13316,1,-5,242,40,35487,-30,35,127,0,0,3636,0,0,1918,717,237,1275,1,0,167,-62,542152,0
542189,98,-2033,312,-19,-4,-35,13317,-10,2,157,64,35512,-39,35,127,0,0,3636,10,0,1918,717,237,1285,1,0,167,-62,542183,0
542199,112,-2031,315,-21,-6,-37,13319,16,-1,225,80,35515,-46,35,127,0,0,3638,32,0,1918,717,237,1295,1,0,167,-62,542199,0
542209,124,-2028,324,-24,-4,-32,13322,-6,7,188,40,35509,-49,34,127,0,0,3636,0,0,1918,717,237,1305,1,0,167,-62,542199,0
542219,101,-2032,334,-38,-13,-29,13321,6,-15,231,72,35482,-32,34,127,0,0,3636,0,0,1918,717,237,1315,1,0,167,-62,542199,0
542229,94,-2025,324,-41,-12,-33,13324,-6,3,157,40,35476,-50,35,127,0,0,3638,21,0,1918,717,237,1325,1,0,167,-62,542199,0
542239,66,-2033,333,-50,-17,-31,13322,2,-2,178,32,35480,-47,35,127,0,0,3636,10,0,1918,717,237,1335,1,0,167,-62,542214,0
542249,71,-2031,325,-62,-17,-52,13324,6,4,175,40,35486,-48,35,127,0,0,3636,0,0,1918,717,237,1345,1,0,167,-62,542230,0
542259,74,-2033,320,-64,-12,-57,13323,4,-2,172,40,35488,-28,35,127,0,0,3638,21,0,1918,717,237,1355,1,0,167,-62,542245,0
542269,81,-2028,330,-76,-18,-66,13324,8,1,205,72,35485,-37,35,127,0,0,3636,-10,0,1918,717,237,1365,1,0,167,-62,542245,0
542279,118,-2027,321,-77,-31,-70,13323,-12,0,163,40,35487,-51,34,127,0,0,3636,10,0,1918,717,237,1375,1,0,167,-62,542261,0
542289,74,-2030,286,-74,-33,-70,13325,6,-2,138,48,35493,-57,35,127,0,0,3636,-10,0,1918,717,237,1385,1,0,167,-62,542261,0
542299,90,-2022,266,-63,-19,-82,13323,0,3,172,40,35489,-44,34,127,0,0,3636,0,0,1918,717,237,1395,1,0,167,-62,542261,0
542309,108,-2031,265,-48,-16,-81,13324,2,-1,174,40,35496,-41,34,127,0,0,3636,0,0,1918,717,237,1405,1,0,167,-62,542292,0
542319,105,-2029,273,-40,-9,-77,13324,3,2,150,0,35490,-41,35,127,0,0,3636,0,0,1918,717,237,1415,1,0,167,-62,542292,0
542329,133,-2027,273,-26,-15,-67,13324,7,8,163,-8,35487,-37,34,127,0,0,3636,-10,0,1918,717,237,1425,1,0,167,-62,542308,0
542339,110,-2028,286,-15,-8,-58,13323,3,1,172,40,35478,-32,34,127,0,0,3638,21,0,1918,717,237,1435,1,0,167,-62,542308,0
542349,132,-2032,280,-8,-9,-52,13323,-6,-2,187,40,35476,-42,35,127,0,0,3636,0,0,1918,717,237,1445,1,0,167,-62,542339,0
542359,121,-2030,282,-2,-6,-50,13324,3,1,173,40,35494,-47,34,127,0,0,3636,0,0,1918,717,237,1455,1,0,167,-62,542339,0
542369,131,-2021,302,8,2,-44,13320,-23,-11,112,56,35495,-46,35,127,0,0,3636,32,0,1918,717,237,1465,1,0,167,-62,542339,0
542379,136,-2037,318,8,6,-36,13321,0,-1,98,56,35490,-20,35,127,0,0,3636,21,0,1918,717,237,1475,1,0,167,-62,542355,0
542389,127,-2021,304,20,-2,-21,13320,-1,1,102,56,35494,-29,35,127,0,0,3636,32,0,1918,717,237,1485,1,0,167,-62,542370,0
542399,136,-2023,292,11,-3,-13,13321,-3,0,132,40,35501,-50,35,127,0,0,3636,10,0,1918,717,237,1495,1,0,167,-62,542370,0
542409,62,-2025,330,10,4,-13,13323,8,2,202,32,35503,-68,34,127,0,0,3636,-10,0,1918,717,237,1505,1,0,167,-62,542417,0
542419,71,-2024,334,8,0,-16,13323,-11,-5,147,48,35496,-59,35,127,0,0,3636,10,0,1918,717,237,1515,1,0,167,-62,542417,0
542429,132,-2024,323,-9,2,-29,13322,5,-1,162,32,35478,-48,35,127,0,0,3636,10,0,1918,717,237,1525,1,0,167,-62,542417,0
542439,94,-2033,331,-15,-4,-26,13323,-5,4,176,40,35470,-54,35,127,0,0,3638,21,0,1918,717,237,1535,1,0,167,-62,542433,0
542449,108,-2026,330,-27,-3,-38,13323,1,-1,161,40,35476,-62,35,127,0,0,3636,10,0,1918,717,237,1545,1,0,167,-62,542433,0
542459,77,-2025,319,-34,4,-46,13323,5,4,172,40,35477,-34,35,127,0,0,3636,0,0,1918,717,237,1555,1,0,167,-62,542433,0
542469,81,-2033,316,-36,-14,-53,13322,-7,-1,173,40,35482,-24,35,127,0,0,3636,0,0,1918,717,237,1565,1,0,167,-62,542542,0
542479,89,-2026,314,-47,-9,-64,13323,3,0,178,40,35498,-37,35,127,0,0,3636,0,0,1918,717,237,1575,1,0,167,-62,542558,0
542489,94,-2031,331,-39,-17,-62,13323,1,2,177,40,35506,-48,35,127,0,0,3636,0,0,1918,717,237,1585,1,0,167,-62,542558,0
542499,90,-2030,342,-54,-22,-69,13324,4,2,186,40,35504,-37,34,127,0,0,3638,0,0,1918,717,237,1595,1,0,167,-62,542558,0
542509,99,-2031,340,-64,-20,-73,13325,12,5,217,24,35486,-30,34,127,0,0,3638,-10,0,1918,717,237,1605,1,0,167,-62,542558,0
542519,78,-2026,337,-72,-26,-76,13324,-4,1,223,64,35467,-30,35,127,0,0,3638,10,0,1918,717,237,1615,1,0,167,-62,542558,0
542529,78,-2029,315,-75,-26,-78,13325,2,-2,218,24,35469,-65,34,127,0,0,3636,-32,0,1918,717,237,1625,1,0,167,-62,542558,0
542539,67,-2025,304,-82,-29,-82,13321,-12,-4,161,40,35471,-65,35,127,0,0,3636,32,0,1918,717,237,1635,1,0,167,-62,542558,0
542549,113,-2019,308,-80,-18,-104,13322,-13,1,122,40,35475,-59,34,127,0,0,3636,10,0,1918,717,237,1645,1,0,167,-62,542558,0
542559,90,-2037,306,-81,-12,-101,13322,10,1,149,8,35473,-42,34,127,0,0,3629,-65,0,1918,717,237,1655,1,0,167,-62,542558,0
542569,115,-2029,314,-86,-15,-104,13316,-20,-10,21,0,35473,-57,35,127,0,0,3629,-32,0,1918,717,237,1665,1,0,167,-62,542573,0
542579,123,-2033,333,-92,-18,-102,13314,17,-3,2,-16,35477,-61,34,127,0,0,3632,-10,0,1918,717,237,1675,1,0,167,-62,542573,0
542589,122,-2024,317,-95,-15,-92,13312,-4,17,-49,-48,35479,-46,35,127,0,0,3629,-10,0,1918,717,237,1685,1,0,167,-62,542573,0
542599,116,-2030,308,-89,-8,-99,13309,6,-4,-7,0,35485,-53,35,127,0,0,3627,-32,0,1918,717,237,1695,1,0,167,-62,542573,0
542609,110,-2033,289,-90,-18,-95,13307,-18,-1,-96,-24,35507,-61,35,127,0,0,3627,10,0,1918,717,237,1705,1,0,167,-62,542589,0
542619,105,-2034,290,-85,-8,-83,13307,0,0,-131,-16,35512,-73,35,127,0,0,3625,-10,0,1918,717,237,1715,1,0,167,-62,542589,0
542629,126,-2018,289,-77,-4,-81,13305,1,4,-118,-24,35505,-40,34,127,0,0,3625,-21,0,1918,717,237,1725,1,0,167,-62,542605,0
542639,144,-2025,296,-74,-8,-71,13304,-12,-8,-192,-72,35483,2,34,127,0,0,3625,-10,0,1918,717,237,1735,1,0,167,-62,542652,0
542649,128,-2029,309,-71,-9,-51,13299,-5,-10,-180,-72,35472,-7,34,127,0,0,3623,0,0,1918,717,237,1745,1,0,167,-62,542652,0
542659,130,-2025,305,-78,-7,-42,13300,-9,10,-224,-24,35475,-25,34,127,0,0,3623,32,0,1918,717,237,1755,1,0,167,-62,542652,0
542669,105,-2031,305,-74,-9,-37,13302,1,1,-188,-72,35474,-44,35,127,0,0,3623,-32,0,1918,717,237,1765,1,0,167,-62,542652,0
542679,95,-2027,301,-74,-13,-30,13300,3,1,-199,-56,35468,-43,35,127,0,0,3621,-21,0,1918,717,237,1775,1,0,167,-62,542652,0
542689,90,-2031,286,-61,-1,-30,13301,3,1,-216,-56,35459,-35,35,127,0,0,3623,-21,0,1918,717,237,1785,1,0,167,-62,542667,0
542699,92,-2022,296,-62,-8,-28,13302,-1,5,-180,-64,35475,-55,34,127,0,0,3627,32,0,1918,717,237,1795,1,0,167,-62,542683,0
542709,152,-2032,297,-66,3,-35,13302,-11,3,-160,-72,35491,-48,35,127,0,0,3623,10,0,1918,717,237,1805,1,0,167,-62,542683,0
542719,128,-2032,297,-65,-6,-36,13301,9,-7,-208,-56,35490,-40,34,127,0,0,3625,21,0,1918,717,237,1815,1,0,167,-62,542698,0
542729,91,-2027,309,-66,-10,-34,13301,0,5,-184,-56,35477,-29,34,127,0,0,3623,-21,0,1918,717,237,1825,1,0,167,-62,542730,0
542739,101,-2027,305,-64,-4,-45,13300,1,-1,-202,-56,35477,-44,35,127,0,0,3627,43,0,1918,717,237,1835,1,0,167,-62,542730,0
542749,130,-2035,311,-62,-16,-44,13304,6,4,-119,-88,35482,-57,34,127,0,0,3623,-21,0,1918,717,237,1845,1,0,167,-62,542730,0
542759,127,-2033,302,-70,-16,-49,13300,-9,-3,-198,-24,35482,-34,35,127,0,0,3625,21,0,1918,717,237,1855,1,0,167,-62,542745,0
542769,99,-2022,282,-63,-21,-43,13301,0,0,-168,-24,35463,-38,34,127,0,0,3623,-21,0,1918,717,237,1865,1,0,167,-62,542745,0
542779,101,-2029,292,-59,-8,-54,13300,4,5,-173,-72,35465,-31,34,127,0,0,3623,-32,0,1918,717,237,1875,1,0,167,-62,542761,0
542789,91,-2033,306,-64,-11,-47,13300,3,-3,-189,-56,35487,-57,35,127,0,0,3621,-54,0,1918,717,237,1885,1,0,167,-62,542761,0
542799,96,-2026,315,-67,-6,-56,13300,5,3,-200,-64,35496,-54,34,127,0,0,3623,-10,0,1918,717,237,1895,1,0,167,-62,542761,0
542809,98,-2031,324,-71,-17,-54,13299,-9,5,-203,-56,35494,-50,34,127,0,0,3623,-10,0,1918,717,237,1905,1,0,167,-62,542792,0
542819,94,-2029,315,-71,-17,-55,13299,-4,-1,-222,-56,35479,-49,35,127,0,0,3623,21,0,1918,717,237,1915,1,0,167,-62,542792,0
542829,105,-2026,315,-80,-17,-58,13300,-1,7,-199,-56,35475,-46,34,127,0,0,3623,0,0,1918,717,237,1925,1,0,167,-62,542808,0
542839,114,-2025,303,-78,-21,-56,13300,5,1,-218,-48,35480,-61,35,127,0,0,3623,-10,0,1918,717,237,1935,1,0,167,-62,542856,0
542849,123,-2032,285,-77,-13,-56,13300,5,3,-225,-88,35469,-56,35,127,0,0,3623,0,0,1918,717,237,1945,1,0,167,-62,542856,0
542859,97,-2029,282,-72,-15,-55,13299,0,0,-192,-64,35469,-44,35,127,0,0,3623,-10,0,1918,717,237,1955,1,0,167,-62,542872,0
542869,130,-2033,298,-71,-8,-54,13296,-28,-10,-246,-40,35469,-57,35,127,0,0,3623,32,0,1918,717,237,1965,1,0,167,-62,542872,0
542879,140,-2031,298,-66,-5,-52,13302,14,5,-247,-80,35473,-41,35,127,0,0,3623,-10,0,1918,717,237,1975,1,0,167,-62,542872,0
542889,148,-2031,292,-63,-8,-45,13298,10,4,-211,-56,35467,-34,34,127,0,0,3623,0,0,1918,717,237,1985,1,0,167,-62,542872,0
542899,115,-2030,293,-66,-9,-39,13299,-8,-1,-198,-56,35469,-27,34,127,0,0,3623,-10,0,1918,717,237,1995,1,0,167,-62,542872,0
542909,98,-2036,305,-61,-14,-32,13301,19,5,-183,-56,35473,-38,35,127,0,0,3623,-21,0,1918,717,237,2005,1,0,167,-62,542887,0
542919,110,-2029,303,-65,-8,-38,13299,-7,4,-188,-16,35485,-51,35,127,0,0,3623,0,0,1918,717,237,2015,1,0,167,-62,542919,0
542929,73,-2032,299,-67,-18,-37,13298,-9,-8,-186,-56,35484,-39,35,127,0,0,3623,-10,0,1918,717,237,2025,1,0,167,-62,542919,0
542939,105,-2031,295,-60,-15,-35,13299,5,1,-198,-16,35472,-34,34,127,0,0,3625,21,0,1918,717,237,2035,1,0,167,-62,542919,0
542949,94,-2023,290,-63,-8,-43,13299,0,-1,-185,-56,35466,-28,34,127,0,0,3623,0,0,1918,717,237,2045,1,0,167,-62,542919,0
542959,105,-2037,308,-61,-9,-41,13298,-2,-1,-225,-56,35478,-47,35,127,0,0,3623,21,0,1918,717,237,2055,1,0,167,-62,542934,0
542969,94,-2023,303,-61,-17,-45,13299,0,4,-158,8,35485,-46,34,127,0,0,3623,10,0,1918,717,237,2065,1,0,167,-62,542934,0
542979,128,-2034,303,-74,-12,-54,13300,-15,-1,-142,-80,35479,-36,34,127,0,0,3623,-43,0,1918,717,237,2075,1,0,167,-62,542965,0
542989,98,-2033,296,-73,-14,-49,13300,7,-8,-171,-24,35483,-64,35,127,0,0,3623,-21,0,1918,717,237,2085,1,0,167,-62,542965,0
542999,124,-2029,304,-76,-7,-58,13298,-5,0,-179,-64,35481,-66,34,127,0,0,3625,21,0,1918,717,237,2095,1,0,167,-62,542965,0
543009,126,-2031,298,-79,-16,-57,13300,1,1,-166,-32,35487,-69,35,127,0,0,3623,-10,0,1918,717,237,2105,1,0,167,-62,542981,0
543019,95,-2030,294,-76,-23,-59,13299,5,0,-165,-64,35486,-66,34,127,0,0,3625,-10,0,1918,717,237,2115,1,0,167,-62,542997,0
543029,113,-2028,288,-74,-8,-60,13298,-4,-3,-182,-56,35477,-51,34,127,0,0,3623,0,0,1918,717,237,2125,1,0,167,-62,543012,0
543039,117,-2035,289,-77,-9,-63,13300,7,4,-204,-56,35493,-83,35,127,0,0,3623,0,0,1918,717,237,2135,1,0,167,-62,543012,0
543049,94,-2030,294,-66,-13,-57,13300,4,4,-191,-56,35494,-75,35,127,0,0,3623,-10,0,1918,717,237,2145,1,0,167,-62,543028,0
543059,122,-2027,302,-76,-14,-57,13301,7,2,-180,-72,35491,-53,35,127,0,0,3625,0,0,1918,717,237,2155,1,0,167,-62,543028,0
543069,118,-2031,292,-78,-16,-59,13302,13,2,-176,-104,35481,-14,35,127,0,0,3623,-32,0,1918,717,237,2165,1,0,167,-62,543043,0
543079,104,-2038,298,-76,-17,-54,13300,9,3,-202,-56,35473,-11,35,127,0,0,3623,-10,0,1918,717,237,2175,1,0,167,-62,543043,0
543089,120,-2034,301,-80,-14,-51,13298,-7,-1,-231,-88,35487,-27,34,127,0,0,3625,54,0,1918,717,237,2185,1,0,167,-62,543059,0
543099,116,-2035,288,-76,-15,-41,13301,0,8,-220,-48,35496,-39,35,127,0,0,3621,-32,0,1918,717,237,2195,1,0,167,-62,543075,0
543109,100,-2032,274,-75,-7,-48,13297,0,-5,-239,-40,35492,-29,34,127,0,0,3621,0,0,1918,717,237,2205,1,0,167,-62,543090,0
543119,137,-2036,267,-70,-7,-50,13298,-12,-2,-244,-88,35480,-24,34,127,0,0,3623,0,0,1918,717,237,2215,1,0,167,-62,543090,0
543129,127,-2027,291,-63,-6,-44,13298,4,-2,-221,-8,35481,-35,35,127,0,0,3623,10,0,1918,717,237,2225,1,0,167,-62,543106,0
543139,140,-2035,289,-62,-3,-46,13298,-1,-2,-202,-56,35483,-51,34,127,0,0,3623,-10,0,1918,717,237,2235,1,0,167,-62,543122,0
543149,115,-2026,294,-59,-12,-34,13299,0,-2,-201,-56,35483,-53,34,127,0,0,3621,-21,0,1918,717,237,2245,1,0,167,-62,543122,0
543159,133,-2031,292,-63,-8,-44,13298,-7,-2,-262,-88,35477,-47,35,127,0,0,3625,54,0,1918,717,237,2255,1,0,167,-62,543137,0
543169,145,-2024,286,-61,-9,-38,13299,-6,4,-218,-48,35479,-43,35,127,0,0,3627,54,0,1918,717,237,2265,1,0,167,-62,543137,0
543179,112,-2036,289,-59,-9,-38,13300,17,4,-185,-40,35484,-34,35,127,0,0,3623,10,0,1918,717,237,2275,1,0,167,-62,543168,0
543189,93,-2039,299,-64,-7,-44,13298,0,-4,-202,-56,35484,-34,34,127,0,0,3623,0,0,1918,717,237,2285,1,0,167,-62,543168,0
543199,98,-2032,297,-69,-15,-42,13299,0,4,-200,-56,35484,-27,34,127,0,0,3623,0,0,1918,717,237,2295,1,0,167,-62,543184,0
543209,92,-2031,284,-62,-10,-45,13299,5,3,-190,-56,35481,-55,35,127,0,0,3623,-21,0,1918,717,237,2305,1,0,167,-62,543215,0
