state_time,accelx,accely,accelz,gyrox,gyroy,gyroz,mot_ang,mot_vel,mot_acc,mot_cur,mot_volt,batt_volt,batt_curr,temperature,status_mn,status_ex,status_re,ank_ang,ank_vel,ank_torque,peak_ank_torque,step_energy,step_count,step_time,gait_state,movement,speed,incline,sys_time,eventFlags
77483,1,-2036,278,-83,-8,-28,14399,13,2,23,40,35685,7,33,127,0,0,3834,-10,0,2984,319,29,3227,-4,0,154,0,880640,0
77493,28,-2037,279,-91,-7,-48,14396,-12,-1,-17,8,35689,-8,33,127,0,0,3834,21,0,2984,319,29,3237,-4,0,154,0,77483,0
77503,54,-2044,277,-90,-13,-49,14400,10,6,-9,-40,35679,-30,33,127,0,0,3836,-10,0,2984,319,29,3247,-4,0,154,0,77483,0
77513,100,-2045,263,-88,-6,-44,14397,1,1,17,0,35667,-50,33,127,0,0,3834,21,0,2984,319,29,3257,-4,0,154,0,77514,0
77523,78,-2050,267,-81,-7,-51,14399,5,0,15,0,35663,-26,33,127,0,0,3832,-43,0,2984,319,29,3267,-4,0,154,0,77514,0
77533,37,-2042,248,-73,-9,-47,14396,-3,-3,-27,-32,35658,-27,33,127,0,0,3832,-10,0,2984,319,29,3277,-4,0,154,0,77530,0
77543,88,-2042,243,-58,-12,-41,14397,-6,-3,-74,-32,35657,-30,33,127,0,0,3836,32,0,2984,319,29,3287,-4,0,154,0,77530,0
77553,69,-2032,251,-54,-14,-30,14399,17,1,41,0,35662,-45,33,127,0,0,3836,0,0,2984,319,29,3297,-4,0,154,0,77561,0
77563,70,-2028,257,-52,-6,-29,14399,-7,-1,56,40,35665,-29,33,127,0,0,3832,-54,0,2984,319,29,3307,-4,0,154,0,77561,0
77573,33,-2033,269,-45,-16,-29,14394,-12,-21,-34,8,35660,-27,33,127,0,0,3834,10,0,2984,319,29,3317,-4,0,154,0,77561,0
77583,51,-2039,269,-41,-11,-24,14399,14,13,40,24,35658,-40,33,127,0,0,3836,21,0,2984,319,29,3327,-4,0,154,0,77592,0
77593,59,-2034,280,-43,-3,-13,14401,-7,16,9,-8,35664,-27,33,127,0,0,3836,-10,0,2984,319,29,3337,-4,0,154,0,77592,0
77603,3,-2035,273,-46,-7,-20,14400,14,-15,90,-8,35670,-28,33,127,0,0,3836,-10,0,2984,319,29,3347,-4,0,154,0,77592,0
77613,26,-2035,281,-47,-5,-18,14401,1,6,83,24,35672,-26,33,127,0,0,3836,-32,0,2984,319,29,3357,-4,0,154,0,77623,0
77623,19,-2049,278,-48,-7,-26,14400,5,-2,97,56,35667,-28,33,127,0,0,3836,0,0,2984,319,29,3367,-4,0,154,0,77623,0
77633,32,-2044,282,-56,-11,-34,14402,-4,5,54,104,35668,-29,33,127,0,0,3836,10,0,2984,319,29,3377,-4,0,154,0,77623,0
77643,56,-2038,273,-56,-6,-46,14400,-8,-5,30,-16,35667,-26,33,127,0,0,3840,43,0,2984,319,29,3387,-4,0,154,0,77623,0
77653,67,-2027,280,-67,-11,-45,14406,23,7,154,32,35662,-26,33,127,0,0,3836,-32,0,2984,319,29,3397,-4,0,154,0,77655,0
77663,68,-2043,275,-73,-11,-53,14404,-14,-2,45,-32,35666,-29,33,127,0,0,3836,-10,0,2984,319,29,3407,-4,0,154,0,77655,0
77673,49,-2035,278,-66,-15,-55,14403,3,-18,70,0,35667,-34,33,127,0,0,3838,10,0,2984,319,29,3417,-4,0,154,0,77655,0
77683,47,-2037,286,-73,-7,-52,14407,8,14,135,80,35669,-47,33,127,0,0,3836,-43,0,2984,319,29,3427,-4,0,154,0,77670,0
77693,36,-2041,277,-77,-10,-56,14406,-7,-5,73,32,35667,-41,34,127,0,0,3836,0,0,2984,319,29,3437,-4,0,154,0,77702,0
77703,61,-2036,268,-77,-16,-54,14405,-12,-8,-7,24,35665,-40,33,127,0,0,3836,10,0,2984,319,29,3447,-4,0,154,0,77702,0
77713,58,-2020,254,-72,-17,-60,14405,2,7,29,16,35668,-39,33,127,0,0,3836,21,0,2984,319,29,3457,-4,0,154,0,77702,0
77723,37,-2021,247,-69,-17,-56,14407,3,5,58,48,35670,-42,33,127,0,0,3836,0,0,2984,319,29,3467,-4,0,154,0,77733,0
77733,39,-2013,249,-62,-11,-59,14404,-5,-4,43,16,35667,-23,33,127,0,0,3836,0,0,2984,319,29,3477,-4,0,154,0,77733,0
77743,50,-2019,258,-57,-8,-57,14404,-5,-3,21,24,35662,-24,33,127,0,0,3838,32,0,2984,319,29,3487,-4,0,154,0,77748,0
77753,88,-2009,275,-54,-6,-59,14406,7,5,75,40,35663,-33,33,127,0,0,3834,-21,0,2984,319,29,3497,-4,0,154,0,77764,0
77763,95,-2017,278,-62,-9,-52,14404,-9,-2,63,40,35667,-40,33,127,0,0,3836,-10,0,2984,319,29,3507,-4,0,154,0,77764,0
77773,67,-2026,269,-60,-11,-38,14405,-7,-8,-1,-16,35665,-32,33,127,0,0,3836,10,0,2984,319,29,3517,-4,0,154,0,77780,0
77783,72,-2043,267,-54,-5,-44,14407,15,5,86,0,35669,-32,33,127,0,0,3836,-32,0,2984,319,29,3527,-4,0,154,0,77780,0
77793,60,-2047,274,-57,-10,-37,14404,-9,-5,45,16,35662,-24,33,127,0,0,3836,-10,0,2984,319,29,3537,-4,0,154,0,77780,0
77803,44,-2052,269,-54,-2,-30,14405,2,-5,59,48,35675,-41,33,127,0,0,3838,21,0,2984,319,29,3547,-4,0,154,0,77795,0
77813,66,-2055,271,-56,-10,-26,14407,-4,11,48,8,35679,-28,33,127,0,0,3836,0,0,2984,319,29,3557,-4,0,154,0,77811,0
77823,46,-2063,259,-59,-6,-30,14404,-2,-7,60,48,35671,-33,33,127,0,0,3836,0,0,2984,319,29,3567,-4,0,154,0,77811,0
77833,30,-2061,269,-52,-7,-36,14405,-15,-2,11,24,35673,-41,33,127,0,0,3838,32,0,2984,319,29,3577,-4,0,154,0,77842,0
77843,28,-2059,258,-56,-9,-38,14406,6,-1,73,0,35667,-47,33,127,0,0,3836,-10,0,2984,319,29,3587,-4,0,154,0,77842,0
77853,18,-2050,264,-43,-9,-42,14404,-7,-2,43,16,35675,-52,33,127,0,0,3836,0,0,2984,319,29,3597,-4,0,154,0,77842,0
77863,40,-2050,261,-43,-11,-48,14407,11,-2,43,8,35679,-39,33,127,0,0,3838,21,0,2984,319,29,3607,-4,0,154,0,77842,0
77873,67,-2054,269,-45,-10,-50,14407,1,12,58,16,35673,-34,33,127,0,0,3836,0,0,2984,319,29,3617,-4,0,154,0,77905,0
77883,55,-2053,273,-45,-10,-53,14407,6,-2,79,0,35680,-38,33,127,0,0,3836,-32,0,2984,319,29,3627,-4,0,154,0,77905,0
77893,37,-2034,283,-49,-10,-41,14405,-1,-3,34,24,35683,-31,33,127,0,0,3836,0,0,2984,319,29,3637,-4,0,154,0,77920,0
77903,78,-2007,274,-52,-16,-49,14406,0,4,33,8,35681,-28,33,127,0,0,3834,-21,0,2984,319,29,3647,-4,0,154,0,77920,0
77913,19,-2020,266,-53,-19,-40,14404,-8,1,-15,-8,35666,-21,33,127,0,0,3836,10,0,2984,319,29,3657,-4,0,154,0,77920,0
77923,50,-2008,276,-46,-13,-38,14405,3,-1,5,24,35663,-21,33,127,0,0,3836,10,0,2984,319,29,3667,-4,0,154,0,77920,0
77933,42,-2008,284,-52,1,-41,14405,1,4,64,0,35671,-25,33,127,0,0,3836,-10,0,2984,319,29,3677,-4,0,154,0,77920,0
77943,34,-2013,277,-59,-12,-41,14407,8,-3,81,8,35685,-21,33,127,0,0,3834,-76,0,2984,319,29,3687,-4,0,154,0,77920,0
77953,47,-2036,269,-71,1,-35,14401,-7,-13,46,16,35694,-32,33,127,0,0,3836,-10,0,2984,319,29,3697,-4,0,154,0,77951,0
77963,48,-2044,270,-62,0,-39,14405,8,5,81,80,35690,-21,33,127,0,0,3836,0,0,2984,319,29,3707,-4,0,154,0,77951,0
77973,54,-2038,258,-68,-6,-31,14405,-13,10,28,8,35677,-39,33,127,0,0,3836,0,0,2984,319,29,3717,-4,0,154,0,77967,0
77983,67,-2035,259,-61,-7,-20,14404,0,-10,16,24,35670,-32,33,127,0,0,3836,0,0,2984,319,29,3727,-4,0,154,0,77967,0
77993,71,-2037,243,-55,-3,-12,14406,4,4,85,32,35670,-28,34,127,0,0,3836,0,0,2984,319,29,3737,-4,0,154,0,77998,0
78003,82,-2036,248,-40,0,-2,14407,-15,-1,15,8,35671,-37,33,127,0,0,3836,0,0,2984,319,29,3747,-4,0,154,0,77998,0
78013,48,-2044,244,-29,-3,15,14406,22,-10,73,0,35671,-30,33,127,0,0,3840,54,0,2984,319,29,3757,-4,0,154,0,77998,0
78023,52,-2039,242,-24,-26,50,14413,9,22,90,16,35667,-37,33,127,0,0,3840,32,0,2984,319,29,3767,-4,0,154,0,78014,0
78033,35,-2045,251,-14,-17,36,14416,26,2,230,104,35665,-5,33,127,0,0,3847,54,0,2984,319,29,3777,-4,0,154,0,78014,0
78043,22,-2053,253,-15,-21,47,14436,35,25,195,88,35662,-9,33,127,0,0,3847,32,0,2984,319,29,3787,-4,0,154,0,78030,0
78053,24,-2054,263,-15,-11,20,14439,7,-6,277,128,35676,-24,33,127,0,0,3851,21,0,2984,319,29,3797,-4,0,154,0,78045,0
78063,16,-2047,273,-13,-13,20,14439,-9,-26,307,112,35673,-37,33,127,0,0,3851,32,0,2984,319,29,3807,-4,0,154,0,78045,0
78073,16,-2039,280,-21,-11,7,14442,7,-7,380,128,35680,-31,33,127,0,0,3854,10,0,2984,319,29,3817,-4,0,154,0,78061,0
78083,23,-2035,292,-23,-12,-7,14446,1,-3,400,104,35679,-24,33,127,0,0,3856,10,0,2984,319,29,3827,-4,0,154,0,78076,0
78093,-6,-2036,294,-29,-1,-28,14448,7,0,420,112,35670,-32,33,127,0,0,3854,-21,0,2984,319,29,3837,-4,0,154,0,78076,0
78103,17,-2033,298,-34,-7,-42,14447,3,-6,394,120,35674,-45,33,127,0,0,3854,-21,0,2984,319,29,3847,-4,0,154,0,78092,0
78113,39,-2036,294,-49,-8,-53,14447,7,-2,394,104,35673,-34,33,127,0,0,3856,10,0,2984,319,29,3857,-4,0,154,0,78170,0
78123,25,-2038,291,-58,-12,-51,14449,11,5,439,136,35670,-35,33,127,0,0,3854,-32,0,2984,319,29,3867,-4,0,154,0,78170,0
78133,17,-2029,267,-62,-6,-53,14449,11,-1,429,136,35663,-25,33,127,0,0,3854,-32,0,2984,319,29,3877,-4,0,154,0,78170,0
78143,32,-2043,266,-62,-12,-55,14447,-10,-4,375,112,35660,-40,34,127,0,0,3856,21,0,2984,319,29,3887,-4,0,154,0,78170,0
78153,64,-2026,261,-59,-12,-61,14449,8,3,405,96,35657,-37,33,127,0,0,3854,0,0,2984,319,29,3897,-4,0,154,0,78186,0
78163,45,-2024,268,-63,-18,-60,14449,0,2,365,112,35657,-31,33,127,0,0,3854,0,0,2984,319,29,3907,-4,0,154,0,78186,0
78173,34,-2024,264,-62,-16,-63,14449,0,-6,361,112,35656,-47,33,127,0,0,3854,0,0,2984,319,29,3917,-4,0,154,0,78186,0
78183,29,-2049,270,-66,-18,-70,14448,-4,4,382,104,35654,-47,33,127,0,0,3856,10,0,2984,319,29,3927,-4,0,154,0,78186,0
78193,45,-2036,275,-59,-14,-62,14449,0,-2,397,112,35658,-62,34,127,0,0,3854,-21,0,2984,319,29,3937,-4,0,154,0,78186,0
78203,77,-2045,265,-61,-9,-58,14448,4,-2,360,112,35674,-41,33,127,0,0,3854,0,0,2984,319,29,3947,-4,0,154,0,78186,0
78213,59,-2052,257,-62,-20,-56,14449,5,2,363,112,35680,-24,33,127,0,0,3854,0,0,2984,319,29,3957,-4,0,154,0,78201,0
78223,57,-2049,247,-55,-19,-52,14450,5,5,363,112,35691,-35,33,127,0,0,3856,21,0,2984,319,29,3967,-4,0,154,0,78217,0
78233,77,-2041,241,-41,-7,-41,14449,8,6,386,112,35692,-27,33,127,0,0,3854,0,0,2984,319,29,3977,-4,0,154,0,78217,0
78243,66,-2042,239,-36,-1,-38,14449,8,4,362,112,35677,-42,33,127,0,0,3854,0,0,2984,319,29,3987,-4,0,154,0,78233,0
78253,58,-2040,248,-24,-4,-27,14448,0,-1,361,112,35677,-40,33,127,0,0,3856,21,0,2984,319,29,3997,-4,0,154,0,78264,0
78263,43,-2036,251,-25,-3,-22,14449,-3,2,368,112,35672,-45,33,127,0,0,3854,21,0,2984,319,29,4007,-4,0,154,0,78264,0
78273,52,-2023,271,-20,-1,-24,14448,-1,-4,361,112,35675,-48,33,127,0,0,3856,21,0,2984,319,29,4017,-4,0,154,0,78264,0
78283,41,-2034,283,-22,0,-14,14448,-4,1,390,152,35671,-38,33,127,0,0,3854,0,0,2984,319,29,4027,-4,0,154,0,78264,0
78293,30,-2022,285,-30,2,-19,14449,4,-1,367,112,35662,-31,33,127,0,0,3854,0,0,2984,319,29,4037,-4,0,154,0,78280,0
78303,20,-2029,280,-34,-3,-20,14450,10,5,393,96,35671,-27,33,127,0,0,3854,-32,0,2984,319,29,4047,-4,0,154,0,78295,0
78313,23,-2032,280,-39,-4,-30,14448,-5,0,369,112,35675,-40,33,127,0,0,3856,32,0,2984,319,29,4057,-4,0,154,0,78295,0
78323,23,-2036,277,-40,-4,-40,14451,-1,3,403,96,35681,-42,33,127,0,0,3856,0,0,2984,319,29,4067,-4,0,154,0,78342,0
78333,32,-2037,287,-50,-1,-53,14451,-5,6,410,96,35670,-14,33,127,0,0,3854,-21,0,2984,319,29,4077,-4,0,154,0,78342,0
78343,39,-2048,282,-59,-7,-57,14448,-8,-11,387,104,35661,-19,33,127,0,0,3854,-10,0,2984,319,29,4087,-4,0,154,0,78342,0
78353,19,-2043,284,-66,-18,-56,14449,1,1,399,96,35658,-22,33,127,0,0,3856,-10,0,2984,319,29,4097,-4,0,154,0,78342,0
78363,12,-2045,274,-65,-19,-57,14450,5,1,417,96,35661,-51,33,127,0,0,3854,-32,0,2984,319,29,4107,-4,0,154,0,78342,0
78373,38,-2041,269,-63,-7,-60,14449,0,-3,379,144,35673,-36,33,127,0,0,3854,0,0,2984,319,29,4117,-4,0,154,0,78382,0
78383,58,-2033,268,-62,-14,-66,14450,-5,3,399,136,35673,-29,33,127,0,0,3854,-10,0,2984,319,29,4127,-4,0,154,0,78382,0
78393,42,-2033,261,-60,-13,-52,14449,-4,-1,384,96,35671,-40,33,127,0,0,3854,-10,0,2984,319,29,4137,-4,0,154,0,78382,0
78403,42,-2041,253,-62,-14,-54,14449,-2,-3,366,112,35666,-39,33,127,0,0,3854,0,0,2984,319,29,4147,-4,0,154,0,78382,0
78413,50,-2032,250,-60,-15,-53,14449,-6,1,377,144,35666,-36,33,127,0,0,3854,0,0,2984,319,29,4157,-4,0,154,0,78413,0
78423,49,-2041,258,-59,-17,-56,14449,-3,0,365,112,35668,-28,33,127,0,0,3854,0,0,2984,319,29,4167,-4,0,154,0,78413,0
78433,46,-2039,262,-52,-10,-49,14451,14,4,386,144,35668,-24,33,127,0,0,3856,0,0,2984,319,29,4177,-4,0,154,0,78413,0
78443,42,-2035,276,-54,-13,-49,14450,-2,3,397,144,35670,-37,33,127,0,0,3856,21,0,2984,319,29,4187,-4,0,154,0,78444,0
78453,46,-2037,273,-54,-10,-54,14450,1,-1,412,136,35669,-31,33,127,0,0,3856,10,0,2984,319,29,4197,-4,0,154,0,78444,0
78463,23,-2030,269,-61,-8,-54,14450,2,3,415,96,35662,-23,33,127,0,0,3854,-32,0,2984,319,29,4207,-4,0,154,0,78444,0
78473,50,-2029,266,-57,-9,-56,14450,6,0,365,112,35656,-16,33,127,0,0,3854,0,0,2984,319,29,4217,-4,0,154,0,78475,0
78483,48,-2034,266,-58,-3,-61,14448,-5,1,366,112,35657,-37,33,127,0,0,3854,0,0,2984,319,29,4227,-4,0,154,0,78475,0
78493,42,-2039,270,-62,-10,-60,14449,0,3,364,112,35662,-48,33,127,0,0,3854,0,0,2984,319,29,4237,-4,0,154,0,78491,0
78503,48,-2035,277,-63,-8,-59,14450,6,3,392,136,35666,-49,33,127,0,0,3854,-10,0,2984,319,29,4247,-4,0,154,0,78507,0
78513,27,-2032,270,-69,-18,-56,14449,-8,-2,370,112,35652,-44,33,127,0,0,3854,0,0,2984,319,29,4257,-4,0,154,0,78538,0
78523,40,-2030,268,-72,-9,-56,14450,-5,-1,346,112,35653,-47,33,127,0,0,3854,21,0,2984,319,29,4267,-4,0,154,0,78538,0
78533,38,-2030,274,-71,-11,-62,14449,0,0,360,112,35660,-43,33,127,0,0,3854,0,0,2984,319,29,4277,-4,0,154,0,78553,0
78543,37,-2038,271,-70,-15,-60,14450,3,4,364,112,35658,-40,33,127,0,0,3854,0,0,2984,319,29,4287,-4,0,154,0,78553,0
78553,53,-2043,275,-78,-17,-60,14449,-3,1,364,112,35651,-45,33,127,0,0,3854,0,0,2984,319,29,4297,-4,0,154,0,78553,0
78563,46,-2047,266,-78,-13,-58,14451,8,10,367,112,35649,-57,33,127,0,0,3851,-21,0,2984,319,29,4307,-4,0,154,0,78553,0
78573,36,-2048,259,-77,-14,-55,14449,5,5,350,112,35662,-54,33,127,0,0,3854,0,0,2984,319,29,4317,-4,0,154,0,78569,0
78583,49,-2055,253,-80,-17,-52,14450,-3,6,364,112,35668,-52,33,127,0,0,3854,0,0,2984,319,29,4327,-4,0,154,0,78569,0
78593,64,-2037,256,-75,-9,-54,14448,-3,-4,337,80,35677,-44,33,127,0,0,3854,21,0,2984,319,29,4337,-4,0,154,0,78616,0
78603,51,-2043,254,-77,-8,-45,14449,-1,1,361,112,35674,-28,33,127,0,0,3851,-32,0,2984,319,29,4347,-4,0,154,0,78663,0
78613,30,-2039,249,-63,-12,-44,14448,0,-1,339,128,35673,-45,33,127,0,0,3851,-21,0,2984,319,29,4357,-4,0,154,0,78663,0
78623,59,-2033,243,-60,-3,-45,14449,0,-2,354,112,35667,-39,33,127,0,0,3851,-32,0,2984,319,29,4367,-4,0,154,0,78678,0
78633,53,-2038,251,-57,-6,-41,14450,-1,2,333,80,35658,-43,33,127,0,0,3854,21,0,2984,319,29,4377,-4,0,154,0,78678,0
78643,56,-2034,256,-53,-4,-34,14448,-5,-2,335,120,35658,-40,33,127,0,0,3854,32,0,2984,319,29,4387,-4,0,154,0,78678,0
78653,51,-2047,261,-51,-9,-37,14449,0,3,345,72,35663,-35,33,127,0,0,3854,0,0,2984,319,29,4397,-4,0,154,0,78678,0
78663,41,-2041,258,-47,-7,-31,14447,-2,-4,323,88,35673,-40,33,127,0,0,3854,21,0,2984,319,29,4407,-4,0,154,0,78678,0
78673,57,-2041,263,-46,-9,-31,14450,0,4,334,120,35671,-16,33,127,0,0,3851,10,0,2984,319,29,4417,-4,0,154,0,78678,0
78683,63,-2043,262,-45,-6,-32,14448,-3,-6,320,128,35662,-25,33,127,0,0,3854,32,0,2984,319,29,4427,-4,0,154,0,78678,0
78693,46,-2044,267,-47,-10,-31,14450,7,3,359,112,35665,-29,33,127,0,0,3849,-43,0,2984,319,29,4437,-4,0,154,0,78694,0
78703,65,-2049,267,-46,-16,-34,14448,4,0,308,128,35679,-38,33,127,0,0,3851,-10,0,2984,319,29,4447,-4,0,154,0,78694,0
78713,47,-2032,262,-48,-5,-36,14449,-5,3,327,80,35695,-37,33,127,0,0,3849,-21,0,2984,319,29,4457,-4,0,154,0,78725,0
78723,56,-2028,260,-50,-15,-38,14447,-3,-3,289,128,35692,-36,33,127,0,0,3851,10,0,2984,319,29,4467,-4,0,154,0,78725,0
78733,46,-2028,259,-49,-14,-38,14448,-11,-2,320,128,35678,-42,33,127,0,0,3851,10,0,2984,319,29,4477,-4,0,154,0,78725,0
78743,59,-2021,261,-51,-10,-42,14450,2,0,318,88,35672,-45,33,127,0,0,3851,-21,0,2984,319,29,4487,-4,0,154,0,78725,0
78753,46,-2026,264,-48,-3,-39,14450,13,6,347,112,35669,-39,33,127,0,0,3851,-21,0,2984,319,29,4497,-4,0,154,0,78741,0
78763,61,-2020,264,-46,-10,-36,14448,0,-4,320,88,35673,-45,33,127,0,0,3854,0,0,2984,319,29,4507,-4,0,154,0,78741,0
78773,57,-2027,264,-50,-8,-31,14450,6,4,345,72,35677,-34,33,127,0,0,3854,-10,0,2984,319,29,4517,-4,0,154,0,78772,0
78783,31,-2029,266,-43,-7,-30,14450,5,2,348,80,35682,-38,33,127,0,0,3851,0,0,2984,319,29,4527,-4,0,154,0,78772,0
78793,48,-2038,265,-52,-9,-32,14448,-10,-3,343,112,35677,-35,33,127,0,0,3854,10,0,2984,319,29,4537,-4,0,154,0,78772,0
78803,59,-2046,262,-53,-12,-30,14449,-6,1,349,112,35679,-39,34,127,0,0,3854,21,0,2984,319,29,4547,-4,0,154,0,78803,0
78813,28,-2043,264,-51,-1,-26,14450,10,4,372,104,35668,-54,33,127,0,0,3854,-10,0,2984,319,29,4557,-4,0,154,0,78803,0
78823,50,-2040,264,-53,-14,-28,14449,-12,1,352,112,35666,-48,33,127,0,0,3854,21,0,2984,319,29,4567,-4,0,154,0,78803,0
78833,31,-2043,264,-49,-9,-30,14449,0,-6,375,144,35673,-53,34,127,0,0,3854,10,0,2984,319,29,4577,-4,0,154,0,78913,0
78843,50,-2046,270,-53,-9,-33,14449,-9,2,363,112,35669,-38,33,127,0,0,3854,0,0,2984,319,29,4587,-4,0,154,0,78913,0
78853,41,-2044,261,-55,-11,-32,14449,3,-6,358,104,35669,-41,33,127,0,0,3854,0,0,2984,319,29,4597,-4,0,154,0,78913,0
78863,38,-2047,262,-53,-9,-35,14449,-2,3,353,112,35669,-47,33,127,0,0,3854,21,0,2984,319,29,4607,-4,0,154,0,78913,0
78873,19,-2041,262,-56,-8,-38,14451,6,1,377,112,35671,-37,33,127,0,0,3854,-21,0,2984,319,29,4617,-4,0,154,0,78928,0
78883,35,-2042,262,-55,-11,-42,14449,-3,-1,362,112,35672,-42,33,127,0,0,3854,0,0,2984,319,29,4627,-4,0,154,0,78928,0
78893,28,-2038,259,-61,-11,-45,14449,-3,-6,380,112,35666,-36,33,127,0,0,3854,-10,0,2984,319,29,4637,-4,0,154,0,78928,0
78903,59,-2038,271,-64,-12,-47,14448,-3,-5,360,112,35661,-38,33,127,0,0,3856,21,0,2984,319,29,4647,-4,0,154,0,78928,0
78913,57,-2042,260,-59,-15,-50,14450,-3,1,377,112,35667,-36,33,127,0,0,3854,0,0,2984,319,29,4657,-4,0,154,0,78928,0
78923,51,-2038,256,-62,-16,-58,14449,-2,0,361,104,35668,-30,33,127,0,0,3854,0,0,2984,319,29,4667,-4,0,154,0,78928,0
78933,38,-2033,257,-58,-9,-47,14451,4,0,395,96,35667,-28,33,127,0,0,3854,-32,0,2984,319,29,4677,-4,0,154,0,78928,0
78943,37,-2028,250,-56,-15,-47,14450,5,1,368,112,35677,-31,33,127,0,0,3854,-10,0,2984,319,29,4687,-4,0,154,0,78928,0
78953,44,-2033,253,-55,-3,-43,14451,4,6,384,96,35696,-31,33,127,0,0,3854,-10,0,2984,319,29,4697,-4,0,154,0,78944,0
78963,31,-2030,254,-53,-12,-39,14449,3,3,369,112,35712,-27,33,127,0,0,3851,-21,0,2984,319,29,4707,-4,0,154,0,78944,0
78973,34,-2040,250,-46,-7,-37,14449,4,0,356,112,35708,-11,33,127,0,0,3854,-21,0,2984,319,29,4717,-4,0,154,0,78975,0
78983,43,-2026,251,-45,-12,-37,14449,-4,10,362,112,35693,-32,33,127,0,0,3856,32,0,2984,319,29,4727,-4,0,154,0,78975,0
78993,60,-2035,252,-44,-7,-30,14449,-10,-3,386,104,35679,-41,33,127,0,0,3854,-32,0,2984,319,29,4737,-4,0,154,0,78975,0
79003,37,-2036,246,-39,-3,-28,14450,11,-1,377,144,35688,-48,34,127,0,0,3856,21,0,2984,319,29,4747,-4,0,154,0,79006,0
79013,58,-2042,252,-34,-5,-23,14451,-7,1,430,128,35683,-38,33,127,0,0,3854,-10,0,2984,319,29,4757,-4,0,154,0,79022,0
79023,80,-2044,266,-37,1,-22,14449,-15,-10,366,112,35676,-38,33,127,0,0,3854,10,0,2984,319,29,4767,-4,0,154,0,79022,0
79033,52,-2046,273,-34,-2,-19,14452,3,-6,418,120,35666,-50,33,127,0,0,3856,-21,0,2984,319,29,4777,-4,0,154,0,79022,0
79043,23,-2055,262,-35,-10,-14,14450,-7,-3,394,104,35672,-35,33,127,0,0,3856,32,0,2984,319,29,4787,-4,0,154,0,79022,0
79053,66,-2040,260,-35,-6,-7,14452,-5,-1,393,136,35679,-33,33,127,0,0,3856,21,0,2984,319,29,4797,-4,0,154,0,79053,0
79063,64,-2045,260,-37,-6,-8,14452,-1,5,418,128,35676,-27,33,127,0,0,3858,32,0,2984,319,29,4807,-4,0,154,0,79053,0
79073,53,-2042,264,-35,-8,-7,14453,-1,-3,433,128,35675,-21,33,127,0,0,3858,10,0,2984,319,29,4817,-4,0,154,0,79053,0
79083,27,-2036,264,-34,-20,16,14454,11,1,469,152,35683,-34,33,127,0,0,3860,32,0,2984,319,29,4827,-4,0,154,0,79100,0
79093,41,-2034,273,-43,-20,14,14459,12,5,547,200,35687,-29,33,127,0,0,3860,-10,0,2984,319,29,4837,-4,0,154,0,79100,0
79103,29,-2029,255,-41,-17,8,14463,14,8,550,176,35674,-42,33,127,0,0,3862,0,0,2984,319,29,4847,-4,0,154,0,79100,0
79113,29,-2031,245,-33,0,-1,14471,23,6,572,224,35666,-31,33,127,0,0,3864,0,0,2984,319,29,4857,-4,0,154,0,79116,0
79123,38,-2035,258,-34,-10,-2,14492,49,30,417,144,35657,-37,33,127,0,0,3864,0,0,2984,319,29,4867,-4,0,154,0,79116,0
79133,36,-2033,278,-35,-18,0,14513,30,25,356,136,35672,-42,33,127,0,0,3869,32,0,2984,319,29,4877,-4,0,154,0,79116,0
79143,10,-2026,267,-43,-18,-9,14515,-3,-41,415,120,35682,-29,33,127,0,0,3869,32,0,2984,319,29,4887,-4,0,154,0,79147,0
79153,21,-2034,253,-39,-8,-18,14517,10,-34,442,152,35685,-40,33,127,0,0,3869,10,0,2984,319,29,4897,-4,0,154,0,79147,0
79163,27,-2041,255,-37,-5,-33,14516,-8,-3,477,168,35680,-36,33,127,0,0,3871,10,0,2984,319,29,4907,-4,0,154,0,79147,0
79173,45,-2039,261,-40,-17,-36,14523,7,1,470,152,35679,-38,33,127,0,0,3869,0,0,2984,319,29,4917,-4,0,154,0,79178,0
79183,46,-2031,269,-41,-9,-35,14526,2,2,408,120,35672,-29,33,127,0,0,3869,0,0,2984,319,29,4927,-4,0,154,0,79178,0
79193,28,-2040,261,-42,-8,-38,14526,4,-15,430,112,35666,-26,33,127,0,0,3871,10,0,2984,319,29,4937,-4,0,154,0,79178,0
79203,29,-2038,262,-45,-12,-38,14528,9,0,454,144,35664,-50,33,127,0,0,3869,0,0,2984,319,29,4947,-4,0,154,0,79272,0
79213,22,-2047,261,-48,-15,-38,14537,25,20,416,120,35672,-34,33,127,0,0,3869,-21,0,2984,319,29,4957,-4,0,154,0,79272,0
79223,33,-2041,269,-46,-12,-43,14555,40,32,250,48,35670,-24,33,127,0,0,3871,0,0,2984,319,29,4967,-4,0,154,0,79272,0
79233,32,-2041,266,-53,-17,-41,14574,26,16,222,80,35667,-16,33,127,0,0,3871,-21,0,2984,319,29,4977,-4,0,154,0,79272,0
79243,41,-2044,258,-51,-7,-56,14572,-11,-50,249,88,35650,-14,33,127,0,0,3871,-32,0,2984,319,29,4987,-4,0,154,0,79288,0
79253,21,-2038,257,-50,-14,-45,14572,-4,-30,237,88,35657,-22,33,127,0,0,3869,-32,0,2984,319,29,4997,-4,0,154,0,79288,0
79263,35,-2037,263,-53,-14,-57,14571,-5,0,182,16,35664,-11,33,127,0,0,3873,21,0,2984,319,29,5007,-4,0,154,0,79288,0
79273,80,-2033,263,-54,-11,-48,14573,8,6,215,48,35662,-11,33,127,0,0,3871,0,0,2984,319,29,5017,-4,0,154,0,79288,0
79283,59,-2031,265,-52,-15,-55,14570,-14,-1,162,72,35660,-14,33,127,0,0,3871,21,0,2984,319,29,5027,-4,0,154,0,79288,0
79293,25,-2038,259,-56,-18,-61,14570,-8,-12,178,56,35662,-11,33,127,0,0,3869,0,0,2984,319,29,5037,-4,0,154,0,79288,0
79303,54,-2027,263,-54,-10,-57,14571,-1,1,138,32,35678,-16,33,127,0,0,3871,10,0,2984,319,29,5047,-4,0,154,0,79288,0
79313,68,-2032,259,-54,-9,-47,14574,13,5,168,64,35689,0,34,127,0,0,3871,10,0,2984,319,29,5057,-4,0,154,0,79303,0
79323,60,-2039,255,-58,-12,-57,14573,5,1,222,48,35696,-3,33,127,0,0,3871,0,0,2984,319,29,5067,-4,0,154,0,79319,0
79333,40,-2029,259,-58,-13,-55,14572,-10,-11,206,16,35695,-5,33,127,0,0,3871,0,0,2984,319,29,5077,-4,0,154,0,79319,0
79343,40,-2026,258,-56,-13,-46,14573,10,-3,192,16,35687,-1,33,127,0,0,3871,-10,0,2984,319,29,5087,-4,0,154,0,79335,0
79353,53,-2040,261,-55,-12,-59,14570,-3,1,171,24,35682,0,33,127,0,0,3869,0,0,2984,319,29,5097,-4,0,154,0,79350,0
79363,59,-2037,260,-51,-10,-52,14571,-5,1,189,56,35666,10,33,127,0,0,3871,0,0,2984,319,29,5107,-4,0,154,0,79350,0
79373,43,-2041,260,-58,-15,-49,14573,-3,3,189,64,35662,12,33,127,0,0,3871,10,0,2984,319,29,5117,-4,0,154,0,79366,0
79383,57,-2032,257,-58,-13,-46,14574,2,2,179,64,35667,8,33,127,0,0,3871,10,0,2984,319,29,5127,-4,0,154,0,79366,0
79393,36,-2041,258,-57,-19,-47,14573,-1,-2,188,64,35671,5,33,127,0,0,3871,0,0,2984,319,29,5137,-4,0,154,0,79397,0
79403,33,-2040,256,-54,-11,-54,14572,3,0,181,64,35672,8,33,127,0,0,3869,-10,0,2984,319,29,5147,-4,0,154,0,79397,0
79413,47,-2047,261,-58,-3,-58,14571,0,4,170,56,35669,15,33,127,0,0,3869,-10,0,2984,319,29,5157,-4,0,154,0,79397,0
79423,33,-2044,262,-58,-17,-61,14570,-11,0,143,72,35678,11,33,127,0,0,3869,0,0,2984,319,29,5167,-4,0,154,0,79413,0
79433,30,-2040,261,-57,-7,-51,14571,0,-2,160,16,35676,10,33,127,0,0,3869,-21,0,2984,319,29,5177,-4,0,154,0,79428,0
79443,31,-2036,260,-56,-14,-52,14570,-11,-3,137,72,35674,19,33,127,0,0,3869,10,0,2984,319,29,5187,-4,0,154,0,79444,0
79453,30,-2044,255,-61,-15,-59,14572,-11,-3,149,56,35669,-1,33,127,0,0,3871,10,0,2984,319,29,5197,-4,0,154,0,79444,0
79463,4,-2045,261,-58,-13,-52,14571,-2,-1,160,16,35671,1,33,127,0,0,3869,0,0,2984,319,29,5207,-4,0,154,0,79444,0
79473,52,-2037,256,-57,3,-59,14570,-6,-7,126,64,35674,-15,33,127,0,0,3871,21,0,2984,319,29,5217,-4,0,154,0,79475,0
79483,33,-2045,263,-54,-7,-52,14571,1,-3,149,64,35667,9,33,127,0,0,3871,32,0,2984,319,29,5227,-4,0,154,0,79475,0
79493,68,-2031,253,-56,-5,-60,14572,0,4,183,48,35653,-10,33,127,0,0,3869,10,0,2984,319,29,5237,-4,0,154,0,79475,0
79503,78,-2038,251,-58,-7,-55,14570,-14,-7,163,56,35656,-15,33,127,0,0,3869,-10,0,2984,319,29,5247,-4,0,154,0,79506,0
79513,21,-2034,256,-63,-17,-47,14571,-5,-10,167,56,35668,-20,33,127,0,0,3869,-10,0,2984,319,29,5257,-4,0,154,0,79506,0
79523,32,-2044,264,-54,-10,-55,14572,0,2,198,56,35672,-4,33,127,0,0,3869,-32,0,2984,319,29,5267,-4,0,154,0,79506,0
79533,31,-2033,252,-61,-13,-51,14570,-6,-3,142,64,35663,-7,33,127,0,0,3871,32,0,2984,319,29,5277,-4,0,154,0,79522,0
79543,58,-2039,253,-49,-9,-54,14574,3,7,194,48,35655,-17,34,127,0,0,3869,-21,0,2984,319,29,5287,-4,0,154,0,79538,0
79553,26,-2044,238,-49,-4,-58,14572,4,1,168,56,35671,-22,33,127,0,0,3871,10,0,2984,319,29,5297,-4,0,154,0,79553,0
79563,23,-2040,253,-53,-7,-54,14571,-7,-7,187,56,35671,-12,34,127,0,0,3871,21,0,2984,319,29,5307,-4,0,154,0,79553,0
79573,66,-2031,264,-60,-9,-57,14572,-12,3,185,48,35663,-9,33,127,0,0,3871,21,0,2984,319,29,5317,-4,0,154,0,79569,0
79583,57,-2040,261,-56,-7,-55,14572,-7,-3,189,48,35655,0,33,127,0,0,3869,0,0,2984,319,29,5327,-4,0,154,0,79584,0
79593,39,-2031,257,-55,-9,-56,14570,-18,-6,138,72,35661,-24,33,127,0,0,3869,0,0,2984,319,29,5337,-4,0,154,0,79616,0
79603,50,-2033,254,-52,-10,-55,14571,-2,-3,105,32,35675,-23,33,127,0,0,3869,10,0,2984,319,29,5347,-4,0,154,0,79616,0
79613,62,-2038,260,-50,-3,-57,14571,-3,7,129,16,35659,-16,33,127,0,0,3869,0,0,2984,319,29,5357,-4,0,154,0,79631,0
79623,46,-2037,260,-57,-8,-55,14571,-1,-5,125,32,35658,-21,33,127,0,0,3871,0,0,2984,319,29,5367,-4,0,154,0,79631,0
79633,73,-2038,252,-55,-10,-53,14573,7,1,160,16,35649,-18,33,127,0,0,3869,0,0,2984,319,29,5377,-4,0,154,0,79631,0
79643,55,-2038,251,-63,-10,-54,14570,-8,0,110,32,35664,-33,34,127,0,0,3869,10,0,2984,319,29,5387,-4,0,154,0,79631,0
79653,46,-2041,252,-53,-10,-61,14572,-2,-1,128,16,35669,-17,33,127,0,0,3871,21,0,2984,319,29,5397,-4,0,154,0,79631,0
79663,30,-2034,250,-57,-13,-51,14571,-12,1,137,32,35671,-9,33,127,0,0,3869,10,0,2984,319,29,5407,-4,0,154,0,79678,0
79673,50,-2042,260,-57,-7,-63,14572,5,-7,124,16,35673,-17,33,127,0,0,3869,-10,0,2984,319,29,5417,-4,0,154,0,79678,0
79683,19,-2044,256,-60,-6,-54,14570,0,-5,112,32,35671,-11,33,127,0,0,3869,0,0,2984,319,29,5427,-4,0,154,0,79678,0
79693,50,-2033,251,-60,-5,-60,14571,1,-3,131,16,35667,-13,33,127,0,0,3867,-32,0,2984,319,29,5437,-4,0,154,0,79678,0
79703,42,-2037,253,-62,-10,-62,14570,-1,1,96,32,35663,3,33,127,0,0,3867,-10,0,2984,319,29,5447,-4,0,154,0,79694,0
79713,41,-2038,251,-58,-13,-59,14570,-9,1,91,32,35673,5,33,127,0,0,3869,-10,0,2984,319,29,5457,-4,0,154,0,79709,0
79723,20,-2037,256,-64,-10,-61,14571,8,3,139,24,35689,-11,33,127,0,0,3869,-10,0,2984,319,29,5467,-4,0,154,0,79725,0
79733,58,-2040,258,-71,-8,-57,14567,-22,-11,42,16,35688,-17,33,127,0,0,3869,54,0,2984,319,29,5477,-4,0,154,0,79725,0
79743,57,-2037,258,-67,-3,-59,14574,18,11,104,24,35675,-14,33,127,0,0,3869,0,0,2984,319,29,5487,-4,0,154,0,79725,0
79753,28,-2036,258,-72,-18,-64,14570,-1,8,121,40,35667,8,33,127,0,0,3867,-32,0,2984,319,29,5497,-4,0,154,0,79741,0
79763,37,-2033,256,-78,-10,-63,14570,6,-12,93,32,35678,-7,34,127,0,0,3867,-21,0,2984,319,29,5507,-4,0,154,0,79741,0
79773,40,-2033,253,-75,-7,-72,14568,-11,6,81,32,35691,-12,33,127,0,0,3867,-10,0,2984,319,29,5517,-4,0,154,0,79787,0
79783,44,-2035,257,-80,-12,-74,14568,-7,-2,32,8,35681,-5,33,127,0,0,3864,-21,0,2984,319,29,5527,-4,0,154,0,79787,0
79793,36,-2029,250,-82,-3,-75,14568,0,3,-11,24,35668,-8,33,127,0,0,3864,-21,0,2984,319,29,5537,-4,0,154,0,79787,0
79803,42,-2037,250,-81,-4,-83,14566,-3,-3,-37,0,35662,-16,33,127,0,0,3864,-10,0,2984,319,29,5547,-4,0,154,0,79819,0
79813,48,-2041,252,-78,-1,-79,14565,-2,-3,-57,-40,35672,-20,33,127,0,0,3862,0,0,2984,319,29,5557,-4,0,154,0,79819,0
79823,55,-2041,244,-79,-4,-75,14564,-9,2,-96,-24,35674,-11,33,127,0,0,3862,-10,0,2984,319,29,5567,-4,0,154,0,79819,0
79833,51,-2046,249,-77,-8,-69,14560,-16,-10,-136,-8,35670,-8,33,127,0,0,3864,43,0,2984,319,29,5577,-4,0,154,0,79819,0
79843,46,-2044,246,-78,-7,-63,14561,-7,1,-151,-40,35668,-28,33,127,0,0,3862,43,0,2984,319,29,5587,-4,0,154,0,79819,0
79853,71,-2041,238,-78,-5,-54,14560,1,7,-181,-64,35681,-29,33,127,0,0,3858,-21,0,2984,319,29,5597,-4,0,154,0,79866,0
79863,64,-2044,239,-72,-8,-46,14552,-15,-18,-210,-48,35683,-17,33,127,0,0,3858,21,0,2984,319,29,5607,-4,0,154,0,79866,0
79873,64,-2048,238,-66,-9,-34,14554,6,3,-233,-88,35675,-19,33,127,0,0,3858,0,0,2984,319,29,5617,-4,0,154,0,79866,0
79883,59,-2049,237,-60,-13,-25,14552,6,5,-233,-32,35664,-16,33,127,0,0,3858,0,0,2984,319,29,5627,-4,0,154,0,79866,0
79893,47,-2057,243,-55,-9,-20,14553,6,5,-214,-48,35677,-22,33,127,0,0,3858,0,0,2984,319,29,5637,-4,0,154,0,79881,0
79903,56,-2052,240,-55,-4,-22,14552,1,0,-237,-32,35691,-2,33,127,0,0,3856,-10,0,2984,319,29,5647,-4,0,154,0,79897,0
79913,46,-2044,245,-55,-2,-14,14552,10,3,-221,-80,35683,15,33,127,0,0,3860,21,0,2984,319,29,5657,-4,0,154,0,79897,0
79923,22,-2037,241,-50,-4,-6,14554,8,8,-155,-48,35679,8,33,127,0,0,3858,-21,0,2984,319,29,5667,-4,0,154,0,79944,0
79933,47,-2036,232,-46,8,-13,14551,-2,-4,-151,-24,35680,-9,33,127,0,0,3858,-10,0,2984,319,29,5677,-4,0,154,0,79944,0
79943,50,-2043,235,-41,0,-10,14552,-3,-3,-160,-16,35695,-27,33,127,0,0,3858,-21,0,2984,319,29,5687,-4,0,154,0,79959,0
79953,42,-2023,252,-39,4,-14,14551,-2,-2,-155,-24,35700,-14,34,127,0,0,3862,43,0,2984,319,29,5697,-4,0,154,0,79959,0
79963,39,-2030,250,-36,-1,-10,14557,11,10,-92,0,35685,-19,33,127,0,0,3862,0,0,2984,319,29,5707,-4,0,154,0,79991,0
79973,31,-2031,240,-39,-4,-1,14558,16,1,-60,-80,35680,-21,33,127,0,0,3860,-43,0,2984,319,29,5717,-4,0,154,0,80006,0
79983,20,-2024,243,-40,-8,-6,14557,7,-4,-46,-16,35675,-28,33,127,0,0,3860,-32,0,2984,319,29,5727,-4,0,154,0,80006,0
79993,19,-2031,243,-39,-11,-10,14556,-8,-2,-84,40,35679,-23,33,127,0,0,3862,0,0,2984,319,29,5737,-4,0,154,0,80006,0
80003,35,-2026,240,-36,-4,-15,14558,6,5,-40,-16,35673,-21,33,127,0,0,3862,-21,0,2984,319,29,5747,-4,0,154,0,80006,0
80013,21,-2036,250,-42,-11,-13,14559,9,4,5,8,35670,-33,34,127,0,0,3862,-32,0,2984,319,29,5757,-4,0,154,0,80006,0
80023,30,-2041,252,-42,-7,-16,14559,5,-4,-14,-24,35679,-26,33,127,0,0,3867,10,0,2984,319,29,5767,-4,0,154,0,80006,0
80033,30,-2038,247,-40,-10,-20,14563,18,13,62,-8,35693,-11,34,127,0,0,3864,-10,0,2984,319,29,5777,-4,0,154,0,80053,0
80043,33,-2042,248,-42,-11,-24,14562,1,2,63,24,35688,-7,33,127,0,0,3867,10,0,2984,319,29,5787,-4,0,154,0,80053,0
80053,26,-2037,255,-42,-21,-27,14563,3,-5,46,32,35684,-6,33,127,0,0,3867,10,0,2984,319,29,5797,-4,0,154,0,80069,0
80063,27,-2044,248,-39,-10,-39,14564,11,5,44,0,35676,-15,33,127,0,0,3867,0,0,2984,319,29,5807,-4,0,154,0,80069,0
80073,29,-2049,256,-41,-12,-40,14563,4,3,50,0,35673,-9,33,127,0,0,3867,21,0,2984,319,29,5817,-4,0,154,0,80069,0
80083,45,-2036,251,-42,-14,-40,14563,-7,1,48,24,35665,9,33,127,0,0,3869,21,0,2984,319,29,5827,-4,0,154,0,80069,0
80093,29,-2038,246,-44,-18,-56,14566,13,1,133,40,35665,3,33,127,0,0,3867,-10,0,2984,319,29,5837,-4,0,154,0,80100,0
80103,32,-2046,259,-39,-13,-58,14564,-4,1,89,8,35670,-8,33,127,0,0,3867,-10,0,2984,319,29,5847,-4,0,154,0,80100,0
80113,45,-2030,262,-51,-7,-64,14564,-5,-8,34,24,35675,-14,33,127,0,0,3869,54,0,2984,319,29,5857,-4,0,154,0,80100,0
80123,64,-2030,267,-51,-12,-55,14568,5,13,120,40,35674,2,33,127,0,0,3869,21,0,2984,319,29,5867,-4,0,154,0,80116,0
80133,31,-2031,253,-63,-24,-69,14567,-3,-1,141,40,35668,-6,33,127,0,0,3864,-21,0,2984,319,29,5877,-4,0,154,0,80162,0
80143,65,-2033,246,-61,-21,-73,14566,-5,-16,58,-24,35676,-19,33,127,0,0,3864,-43,0,2984,319,29,5887,-4,0,154,0,80162,0
80153,35,-2033,248,-62,-19,-63,14564,-3,-2,0,0,35680,-18,33,127,0,0,3867,32,0,2984,319,29,5897,-4,0,154,0,80162,0
80163,59,-2040,257,-64,-15,-64,14564,-4,3,27,24,35675,-3,33,127,0,0,3867,-10,0,2984,319,29,5907,-4,0,154,0,80162,0
80173,46,-2048,254,-67,-19,-63,14565,1,3,26,-16,35659,0,33,127,0,0,3862,-54,0,2984,319,29,5917,-4,0,154,0,80162,0
80183,57,-2049,247,-66,-16,-60,14561,-11,-10,-39,8,35664,-6,33,127,0,0,3864,21,0,2984,319,29,5927,-4,0,154,0,80162,0
80193,50,-2047,238,-64,-18,-54,14564,0,8,-27,-40,35677,-17,33,127,0,0,3867,32,0,2984,319,29,5937,-4,0,154,0,80194,0
80203,54,-2037,237,-63,-14,-50,14567,25,13,88,-32,35682,-11,33,127,0,0,3867,-43,0,2984,319,29,5947,-4,0,154,0,80194,0
80213,70,-2042,248,-63,-8,-45,14562,-14,-13,36,0,35669,-18,33,127,0,0,3867,10,0,2984,319,29,5957,-4,0,154,0,80194,0
80223,40,-2033,243,-57,-6,-47,14565,16,-3,18,-48,35661,-8,33,127,0,0,3864,-21,0,2984,319,29,5967,-4,0,154,0,80225,0
80233,76,-2033,244,-62,-4,-45,14563,-1,15,16,-8,35663,-25,33,127,0,0,3864,-10,0,2984,319,29,5977,-4,0,154,0,80225,0
80243,47,-2037,243,-58,-9,-40,14562,-4,-8,-12,48,35667,-14,33,127,0,0,3864,10,0,2984,319,29,5987,-4,0,154,0,80225,0
80253,42,-2034,243,-58,3,-42,14564,5,5,6,32,35668,0,34,127,0,0,3862,-43,0,2984,319,29,5997,-4,0,154,0,80256,0
80263,50,-2036,242,-58,-4,-48,14563,-6,3,-22,0,35667,-2,33,127,0,0,3864,0,0,2984,319,29,6007,-4,0,154,0,80256,0
80273,47,-2036,249,-56,-8,-47,14565,4,-3,9,-16,35674,6,33,127,0,0,3864,-10,0,2984,319,29,6017,-4,0,154,0,80256,0
80283,44,-2031,248,-64,-8,-46,14563,-1,2,1,0,35680,-17,33,127,0,0,3864,0,0,2984,319,29,6027,-4,0,154,0,80272,0
80293,37,-2038,248,-64,-8,-46,14563,3,2,1,-48,35671,-5,33,127,0,0,3864,-32,0,2984,319,29,6037,-4,0,154,0,80287,0
80303,18,-2043,237,-65,-10,-42,14564,18,3,21,0,35669,-11,33,127,0,0,3862,-43,0,2984,319,29,6047,-4,0,154,0,80303,0
80313,23,-2047,251,-59,-3,-46,14564,4,6,17,-16,35673,-8,33,127,0,0,3867,-10,0,2984,319,29,6057,-4,0,154,0,80303,0
80323,11,-2053,251,-63,-14,-48,14563,-7,-1,28,-8,35678,-6,33,127,0,0,3864,0,0,2984,319,29,6067,-4,0,154,0,80381,0
80333,33,-2041,249,-64,-3,-50,14563,-3,2,8,0,35676,-6,33,127,0,0,3864,-10,0,2984,319,29,6077,-4,0,154,0,80397,0
80343,46,-2051,244,-71,-15,-53,14563,-7,0,9,32,35664,-4,33,127,0,0,3864,0,0,2984,319,29,6087,-4,0,154,0,80397,0
80353,44,-2042,240,-68,-6,-64,14562,-11,-3,-22,0,35663,-7,33,127,0,0,3867,43,0,2984,319,29,6097,-4,0,154,0,80397,0
80363,42,-2044,236,-68,-9,-58,14565,0,5,17,0,35662,-9,33,127,0,0,3867,0,0,2984,319,29,6107,-4,0,154,0,80397,0
80373,53,-2043,246,-65,-8,-59,14564,2,0,16,0,35665,-5,33,127,0,0,3864,-21,0,2984,319,29,6117,-4,0,154,0,80397,0
80383,48,-2043,245,-56,-11,-55,14564,3,-3,2,0,35656,-11,33,127,0,0,3864,-10,0,2984,319,29,6127,-4,0,154,0,80397,0
80393,41,-2023,238,-69,-10,-52,14564,14,3,-1,0,35651,-3,33,127,0,0,3864,0,0,2984,319,29,6137,-4,0,154,0,80397,0
80403,52,-2029,242,-61,-12,-53,14562,-10,0,-27,16,35653,-6,34,127,0,0,3862,0,0,2984,319,29,6147,-4,0,154,0,80397,0
80413,30,-2030,230,-61,-12,-58,14564,0,3,-36,0,35665,5,33,127,0,0,3862,-21,0,2984,319,29,6157,-4,0,154,0,80412,0
80423,48,-2035,236,-54,-15,-58,14563,3,-3,-7,32,35676,13,33,127,0,0,3862,-43,0,2984,319,29,6167,-4,0,154,0,80412,0
80433,33,-2046,239,-53,-8,-49,14562,-13,-2,-39,-32,35686,-10,33,127,0,0,3864,0,0,2984,319,29,6177,-4,0,154,0,80475,0
80443,44,-2045,247,-55,-11,-47,14563,1,-4,-40,16,35691,-17,33,127,0,0,3862,-10,0,2984,319,29,6187,-4,0,154,0,80475,0
80453,34,-2047,238,-52,-9,-47,14562,-6,0,-84,24,35688,-29,33,127,0,0,3864,10,0,2984,319,29,6197,-4,0,154,0,80475,0
80463,42,-2038,231,-47,-15,-47,14562,0,-5,-58,8,35672,-7,33,127,0,0,3864,21,0,2984,319,29,6207,-4,0,154,0,80475,0
80473,30,-2035,228,-42,-11,-54,14563,1,0,-15,0,35655,-11,33,127,0,0,3864,0,0,2984,319,29,6217,-4,0,154,0,80475,0
80483,38,-2035,236,-42,-22,-48,14563,-8,-1,-37,-32,35652,-18,33,127,0,0,3864,21,0,2984,319,29,6227,-4,0,154,0,80490,0
80493,43,-2042,250,-43,-20,-51,14563,0,-3,-43,16,35660,-7,33,127,0,0,3864,0,0,2984,319,29,6237,-4,0,154,0,80490,0
80503,31,-2039,243,-47,-13,-49,14562,2,3,-36,16,35681,-4,33,127,0,0,3862,-10,0,2984,319,29,6247,-4,0,154,0,80490,0
80513,44,-2047,244,-46,-16,-63,14560,-18,-6,-73,16,35690,8,33,127,0,0,3860,-21,0,2984,319,29,6257,-4,0,154,0,80506,0
80523,57,-2036,240,-42,-14,-70,14561,1,-4,-105,-16,35692,8,33,127,0,0,3862,10,0,2984,319,29,6267,-4,0,154,0,80506,0
80533,57,-2048,242,-42,-15,-70,14561,-7,3,-58,8,35690,-1,33,127,0,0,3860,-32,0,2984,319,29,6277,-4,0,154,0,80522,0
80543,58,-2051,247,-45,-8,-76,14562,5,0,-79,-16,35689,-6,33,127,0,0,3860,-43,0,2984,319,29,6287,-4,0,154,0,80537,0
80553,57,-2046,240,-47,-18,-69,14559,-9,-2,-119,-16,35675,16,33,127,0,0,3864,43,0,2984,319,29,6297,-4,0,154,0,80553,0
80563,55,-2049,248,-47,-15,-61,14561,-5,5,-94,-8,35674,13,33,127,0,0,3862,21,0,2984,319,29,6307,-4,0,154,0,80553,0
80573,54,-2053,235,-44,-13,-61,14561,0,0,-120,-48,35668,2,33,127,0,0,3862,-10,0,2984,319,29,6317,-4,0,154,0,80553,0
80583,42,-2048,234,-46,-14,-58,14562,14,-2,-69,-16,35670,-19,33,127,0,0,3860,-32,0,2984,319,29,6327,-4,0,154,0,80600,0
80593,45,-2058,248,-41,-20,-61,14556,-24,-12,-134,-40,35668,-2,33,127,0,0,3862,54,0,2984,319,29,6337,-4,0,154,0,80600,0
80603,61,-2056,241,-36,-16,-54,14561,8,4,-107,-56,35665,-13,33,127,0,0,3858,-54,0,2984,319,29,6347,-4,0,154,0,80600,0
80613,14,-2056,235,-40,-12,-55,14556,1,0,-138,-64,35664,-15,33,127,0,0,3862,0,0,2984,319,29,6357,-4,0,154,0,80600,0
80623,31,-2053,231,-36,-11,-56,14556,-5,-4,-149,-40,35668,-23,33,127,0,0,3860,32,0,2984,319,29,6367,-4,0,154,0,80600,0
80633,33,-2046,241,-30,-6,-63,14559,11,13,-103,-48,35676,-9,33,127,0,0,3860,-32,0,2984,319,29,6377,-4,0,154,0,80631,0
80643,32,-2041,247,-32,-17,-63,14555,-6,-11,-125,8,35667,-6,33,127,0,0,3860,0,0,2984,319,29,6387,-4,0,154,0,80631,0
80653,47,-2029,241,-30,-9,-68,14557,0,-2,-154,-32,35668,-9,33,127,0,0,3860,-10,0,2984,319,29,6397,-4,0,154,0,80631,0
80663,34,-2016,235,-34,-14,-65,14553,-3,-3,-189,-56,35673,-14,33,127,0,0,3856,-21,0,2984,319,29,6407,-4,0,154,0,80662,0
80673,54,-2005,228,-33,-9,-71,14554,6,-1,-194,-64,35671,-5,33,127,0,0,3856,-43,0,2984,319,29,6417,-4,0,154,0,80662,0
80683,55,-2012,224,-31,-11,-63,14553,0,1,-221,-48,35663,-25,33,127,0,0,3856,-10,0,2984,319,29,6427,-4,0,154,0,80662,0
80693,68,-2018,235,-24,-2,-58,14553,-5,2,-231,-48,35664,-16,33,127,0,0,3856,-32,0,2984,319,29,6437,-4,0,154,0,80678,0
80703,68,-2020,233,-24,-9,-59,14549,-11,-8,-230,-40,35675,-38,33,127,0,0,3860,32,0,2984,319,29,6447,-4,0,154,0,80694,0
80713,75,-2024,223,-18,-13,-45,14552,4,3,-213,-72,35684,-18,33,127,0,0,3856,-10,0,2984,319,29,6457,-4,0,154,0,80709,0
80723,71,-2022,224,-11,-4,-39,14547,-19,-5,-256,-104,35679,-10,33,127,0,0,3858,32,0,2984,319,29,6467,-4,0,154,0,80725,0
80733,69,-2024,216,0,-17,-32,14548,6,-3,-186,-72,35678,-6,33,127,0,0,3860,54,0,2984,319,29,6477,-4,0,154,0,80740,0
80743,59,-2029,226,2,-13,-22,14551,7,18,-179,-80,35675,-14,33,127,0,0,3856,-43,0,2984,319,29,6487,-4,0,154,0,80740,0
80753,24,-2035,232,3,-18,-24,14540,-20,-23,-170,-16,35685,-25,33,127,0,0,3854,-21,0,2984,319,29,6497,-4,0,154,0,80740,0
80763,68,-2037,239,9,-5,-32,14541,1,-8,-197,-48,35691,-7,33,127,0,0,3856,-21,0,2984,319,29,6507,-4,0,154,0,80787,0
80773,58,-2049,257,10,0,-24,14540,-4,15,-187,-8,35690,-7,33,127,0,0,3858,21,0,2984,319,29,6517,-4,0,154,0,80787,0
80783,51,-2060,269,12,-4,-25,14541,12,4,-117,24,35688,-5,33,127,0,0,3854,-32,0,2984,319,29,6527,-4,0,154,0,80787,0
80793,16,-2072,274,2,-6,-26,14540,-1,5,-159,-56,35680,-10,33,127,0,0,3856,-21,0,2984,319,29,6537,-4,0,154,0,80803,0
80803,50,-2073,277,-8,-11,-24,14536,-18,-13,-214,-40,35664,-3,33,127,0,0,3856,21,0,2984,319,29,6547,-4,0,154,0,80803,0
80813,21,-2072,282,-25,0,-28,14535,6,-2,-80,-8,35662,-8,33,127,0,0,3856,-32,0,2984,319,29,6557,-4,0,154,0,80803,0
80823,29,-2067,273,-38,-4,-23,14534,-7,4,-93,-16,35679,-26,33,127,0,0,3856,-10,0,2984,319,29,6567,-4,0,154,0,80819,0
80833,20,-2056,272,-48,-2,-27,14532,-5,-4,-149,-32,35696,-24,33,127,0,0,3856,10,0,2984,319,29,6577,-4,0,154,0,80819,0
80843,38,-2063,271,-53,-4,-33,14531,7,2,-28,32,35695,-18,34,127,0,0,3856,-21,0,2984,319,29,6587,-4,0,154,0,80834,0
80853,22,-2050,278,-67,-5,-46,14529,-12,3,-96,8,35679,-19,33,127,0,0,3858,21,0,2984,319,29,6597,-4,0,154,0,80850,0
80863,19,-2053,276,-67,-5,-52,14525,-7,-4,-49,-32,35667,-10,33,127,0,0,3858,10,0,2984,319,29,6607,-4,0,154,0,80850,0
80873,53,-2022,267,-79,-9,-57,14526,0,4,-18,16,35683,-30,34,127,0,0,3858,0,0,2984,319,29,6617,-4,0,154,0,80881,0
80883,29,-2018,259,-82,-8,-56,14525,0,4,-3,8,35692,-6,33,127,0,0,3856,-32,0,2984,319,29,6627,-4,0,154,0,80897,0
80893,17,-2010,241,-84,-4,-63,14524,-5,-2,-16,8,35676,3,33,127,0,0,3856,-10,0,2984,319,29,6637,-4,0,154,0,80897,0
80903,41,-2013,241,-88,-4,-67,14524,2,-1,-35,16,35673,-1,33,127,0,0,3858,43,0,2984,319,29,6647,-4,0,154,0,80897,0
80913,78,-2013,239,-88,4,-69,14524,-9,5,-45,16,35670,-26,33,127,0,0,3858,21,0,2984,319,29,6657,-4,0,154,0,80897,0
80923,58,-2028,233,-86,-3,-67,14523,4,-3,-19,32,35696,-44,33,127,0,0,3854,-32,0,2984,319,29,6667,-4,0,154,0,80912,0
80933,59,-2038,231,-75,-3,-67,14519,-7,-8,-63,-8,35696,-19,33,127,0,0,3856,0,0,2984,319,29,6677,-4,0,154,0,80928,0
80943,58,-2031,233,-75,-10,-54,14517,-16,-4,-79,8,35685,-21,33,127,0,0,3856,32,0,2984,319,29,6687,-4,0,154,0,80928,0
80953,78,-2028,223,-72,-6,-60,14516,-7,0,-19,-8,35676,-32,33,127,0,0,3858,32,0,2984,319,29,6697,-4,0,154,0,80943,0
80963,38,-2035,228,-66,-14,-51,14518,-1,4,19,32,35681,-37,33,127,0,0,3854,-21,0,2984,319,29,6707,-4,0,154,0,80943,0
80973,31,-2033,234,-63,-3,-50,14516,-9,-6,12,24,35689,-34,33,127,0,0,3858,10,0,2984,319,29,6717,-4,0,154,0,80959,0
80983,34,-2039,238,-66,-10,-49,14517,-12,-2,-2,32,35689,-27,33,127,0,0,3856,0,0,2984,319,29,6727,-4,0,154,0,80990,0
80993,61,-2047,229,-57,-5,-48,14518,-1,-1,10,-8,35680,-28,33,127,0,0,3856,-10,0,2984,319,29,6737,-4,0,154,0,81006,0
81003,42,-2048,232,-50,-9,-42,14516,-11,-4,-19,0,35687,-27,33,127,0,0,3856,21,0,2984,319,29,6747,-4,0,154,0,81006,0
81013,54,-2059,240,-53,-6,-42,14516,-6,0,-8,0,35675,-17,33,127,0,0,3856,0,0,2984,319,29,6757,-4,0,154,0,81006,0
81023,65,-2053,232,-45,-5,-38,14517,0,3,2,0,35667,-15,33,127,0,0,3858,21,0,2984,319,29,6767,-4,0,154,0,81006,0
81033,78,-2048,236,-40,-11,-30,14516,-3,-2,-16,16,35673,-9,33,127,0,0,3858,32,0,2984,319,29,6777,-4,0,154,0,81037,0
81043,67,-2047,236,-40,-4,-23,14518,6,8,-7,8,35687,-33,33,127,0,0,3856,-10,0,2984,319,29,6787,-4,0,154,0,81115,0
81053,46,-2046,232,-35,-2,-32,14519,15,1,48,-24,35695,-35,33,127,0,0,3856,-21,0,2984,319,29,6797,-4,0,154,0,81115,0
81063,14,-2037,227,-31,-14,-26,14515,-13,-7,38,24,35677,-21,33,127,0,0,3858,10,0,2984,319,29,6807,-4,0,154,0,81115,0
81073,59,-2041,231,-29,-10,-18,14519,3,-1,-6,-40,35661,-13,33,127,0,0,3858,21,0,2984,319,29,6817,-4,0,154,0,81131,0
81083,39,-2050,232,-16,-1,-14,14518,12,3,50,-16,35664,-8,33,127,0,0,3856,-21,0,2984,319,29,6827,-4,0,154,0,81131,0
81093,29,-2050,240,-17,-7,-18,14515,-4,-3,13,8,35673,-28,33,127,0,0,3856,0,0,2984,319,29,6837,-4,0,154,0,81131,0
81103,42,-2032,241,-14,-8,-16,14518,6,4,13,40,35666,-18,33,127,0,0,3856,0,0,2984,319,29,6847,-4,0,154,0,81131,0
81113,43,-2033,236,-12,-11,-21,14517,2,8,72,8,35654,-24,33,127,0,0,3856,-10,0,2984,319,29,6857,-4,0,154,0,81131,0
81123,51,-2030,227,-8,-9,-22,14515,-14,-3,38,40,35657,-35,33,127,0,0,3858,0,0,2984,319,29,6867,-4,0,154,0,81131,0
81133,32,-2014,236,-1,1,-14,14518,2,-1,79,56,35662,-36,33,127,0,0,3856,-10,0,2984,319,29,6877,-4,0,154,0,81131,0
81143,86,-2026,241,1,-2,-19,14519,-1,3,72,56,35674,-24,33,127,0,0,3858,-10,0,2984,319,29,6887,-4,0,154,0,81131,0
81153,50,-2024,246,3,-1,-19,14519,0,-4,111,80,35672,-19,33,127,0,0,3858,10,0,2984,319,29,6897,-4,0,154,0,81131,0
81163,84,-2027,245,-1,-8,-16,14521,-4,2,100,40,35688,-19,33,127,0,0,3858,-32,0,2984,319,29,6907,-4,0,154,0,81193,0
81173,16,-2037,247,0,-11,-13,14520,3,-5,131,40,35692,-31,33,127,0,0,3860,0,0,2984,319,29,6917,-4,0,154,0,81193,0
81183,52,-2031,252,0,-11,-16,14524,9,4,143,32,35688,-18,33,127,0,0,3862,0,0,2984,319,29,6927,-4,0,154,0,81209,0
81193,47,-2041,247,6,-9,-19,14524,9,6,170,-16,35664,-9,34,127,0,0,3862,10,0,2984,319,29,6937,-4,0,154,0,81209,0
81203,16,-2043,244,3,-11,-21,14524,7,0,227,56,35655,-10,34,127,0,0,3862,0,0,2984,319,29,6947,-4,0,154,0,81209,0
81213,42,-2050,243,15,-9,-20,14528,9,8,182,48,35659,-32,33,127,0,0,3862,0,0,2984,319,29,6957,-4,0,154,0,81209,0
81223,32,-2048,248,9,-15,-19,14527,-1,-2,207,88,35677,-38,33,127,0,0,3864,21,0,2984,319,29,6967,-4,0,154,0,81209,0
81233,32,-2047,248,3,-10,-29,14533,15,5,237,64,35682,-23,34,127,0,0,3864,0,0,2984,319,29,6977,-4,0,154,0,81209,0
81243,30,-2049,260,-1,-14,-35,14541,12,17,206,48,35681,-24,33,127,0,0,3867,21,0,2984,319,29,6987,-4,0,154,0,81240,0
81253,26,-2051,271,-13,-14,-40,14551,34,8,167,16,35674,-29,33,127,0,0,3864,-32,0,2984,319,29,6997,-4,0,154,0,81256,0
81263,14,-2044,279,-13,-14,-43,14555,7,-1,103,8,35676,-34,33,127,0,0,3867,0,0,2984,319,29,7007,-4,0,154,0,81256,0
81273,44,-2040,271,-26,-14,-47,14558,3,-13,101,0,35675,-20,33,127,0,0,3864,-32,0,2984,319,29,7017,-4,0,154,0,81256,0
81283,25,-2036,260,-31,-10,-59,14556,-5,-6,63,48,35677,-10,33,127,0,0,3864,0,0,2984,319,29,7027,-4,0,154,0,81287,0
81293,11,-2044,271,-42,-18,-72,14558,-6,2,30,8,35680,-30,33,127,0,0,3867,32,0,2984,319,29,7037,-4,0,154,0,81303,0
81303,45,-2056,278,-54,-21,-75,14559,5,5,61,40,35683,-20,33,127,0,0,3862,-21,0,2984,319,29,7047,-4,0,154,0,81303,0
81313,-2,-2040,285,-62,-15,-83,14555,-14,-3,1,32,35668,-6,33,127,0,0,3864,10,0,2984,319,29,7057,-4,0,154,0,81303,0
81323,34,-2043,270,-70,-21,-85,14556,-7,-1,35,48,35651,0,33,127,0,0,3864,21,0,2984,319,29,7067,-4,0,154,0,81303,0
81333,29,-2033,261,-67,-16,-83,14558,-5,7,40,-40,35656,-5,33,127,0,0,3867,10,0,2984,319,29,7077,-4,0,154,0,81334,0
81343,-13,-2022,252,-78,-24,-78,14557,10,-6,46,16,35672,-19,33,127,0,0,3864,32,0,2984,319,29,7087,-4,0,154,0,81350,0
81353,58,-2034,252,-76,-14,-99,14558,-3,4,35,8,35674,-11,33,127,0,0,3864,0,0,2984,319,29,7097,-4,0,154,0,81350,0
81363,53,-2029,248,-83,-13,-91,14556,1,-6,14,-24,35660,1,33,127,0,0,3864,0,0,2984,319,29,7107,-4,0,154,0,81350,0
81373,74,-2034,243,-83,-15,-99,14555,-8,-4,-24,-8,35655,4,33,127,0,0,3864,32,0,2984,319,29,7117,-4,0,154,0,81365,0
81383,48,-2031,246,-88,-21,-93,14555,-1,-1,-35,-8,35663,-2,33,127,0,0,3862,0,0,2984,319,29,7127,-4,0,154,0,81365,0
81393,68,-2030,248,-84,-13,-104,14552,-7,-6,-94,-24,35672,-13,33,127,0,0,3860,32,0,2984,319,29,7137,-4,0,154,0,81381,0
81403,58,-2037,245,-78,-11,-105,14551,-3,1,-132,-8,35675,-8,33,127,0,0,3860,0,0,2984,319,29,7147,-4,0,154,0,81428,0
81413,51,-2030,236,-80,-5,-111,14548,-3,1,-118,-48,35656,-18,33,127,0,0,3856,-43,0,2984,319,29,7157,-4,0,154,0,81443,0
81423,75,-2033,239,-72,-10,-95,14541,-27,-12,-210,-88,35660,-21,33,127,0,0,3851,-54,0,2984,319,29,7167,-4,0,154,0,81459,0
81433,53,-2035,225,-69,-16,-85,14520,-60,-42,-117,-40,35656,-29,33,127,0,0,3851,-43,0,2984,319,29,7177,-4,0,154,0,81459,0
81443,60,-2035,211,-56,-2,-84,14501,-33,-21,-73,16,35653,-26,33,127,0,0,3851,0,0,2984,319,29,7187,-4,0,154,0,81475,0
81453,92,-2044,225,-40,-3,-69,14503,-5,49,-120,-24,35646,-29,33,127,0,0,3851,-10,0,2984,319,29,7197,-4,0,154,0,81475,0
81463,66,-2037,241,-36,-2,-68,14503,3,29,-102,-8,35648,-42,33,127,0,0,3851,0,0,2984,319,29,7207,-4,0,154,0,81475,0
81473,82,-2053,248,-36,-10,-48,14500,-14,-13,-159,-40,35667,-43,33,127,0,0,3849,0,0,2984,319,29,7217,-4,0,154,0,81475,0
81483,73,-2044,248,-37,-1,-39,14501,4,2,-182,-32,35670,-38,34,127,0,0,3851,21,0,2984,319,29,7227,-4,0,154,0,81475,0
81493,90,-2040,247,-35,-7,-31,14499,0,8,-154,-40,35670,-34,33,127,0,0,3847,-32,0,2984,319,29,7237,-4,0,154,0,81475,0
81503,59,-2036,237,-35,-2,-30,14498,3,-1,-174,-32,35675,-33,33,127,0,0,3847,-21,0,2984,319,29,7247,-4,0,154,0,81521,0
81513,40,-2034,236,-27,-1,-29,14498,-1,4,-186,-32,35680,-44,33,127,0,0,3849,0,0,2984,319,29,7257,-4,0,154,0,81521,0
81523,49,-2053,242,-27,-5,-30,14498,-3,0,-178,-32,35680,-44,33,127,0,0,3849,0,0,2984,319,29,7267,-4,0,154,0,81521,0
81533,45,-2037,256,-25,-3,-33,14498,5,0,-167,-32,35664,-21,33,127,0,0,3849,0,0,2984,319,29,7277,-4,0,154,0,81521,0
81543,45,-2043,247,-24,-2,-32,14499,12,3,-124,0,35650,-17,33,127,0,0,3849,-21,0,2984,319,29,7287,-4,0,154,0,81537,0
81553,46,-2041,252,-27,-8,-40,14496,-12,-4,-165,-24,35665,-27,33,127,0,0,3849,21,0,2984,319,29,7297,-4,0,154,0,81553,0
81563,54,-2042,255,-30,-9,-41,14497,0,-4,-168,-32,35686,-40,33,127,0,0,3849,0,0,2984,319,29,7307,-4,0,154,0,81568,0
81573,48,-2039,262,-34,-5,-46,14498,3,6,-155,-32,35681,-18,33,127,0,0,3847,-21,0,2984,319,29,7317,-4,0,154,0,81568,0
81583,51,-2034,254,-38,-9,-53,14496,-5,-10,-169,-32,35662,-20,33,127,0,0,3849,0,0,2984,319,29,7327,-4,0,154,0,81568,0
81593,34,-2040,267,-40,-18,-59,14498,-1,4,-137,-40,35661,-37,33,127,0,0,3849,-10,0,2984,319,29,7337,-4,0,154,0,81600,0
81603,-2,-2034,276,-57,-14,-64,14497,-3,-1,-138,0,35679,-50,33,127,0,0,3851,21,0,2984,319,29,7347,-4,0,154,0,81600,0
81613,22,-2037,295,-82,-22,-99,14496,-15,-3,-194,-104,35682,-35,33,127,0,0,3849,43,0,2984,319,29,7357,-4,0,154,0,81600,0
81623,16,-2042,286,-85,-8,-157,14495,12,-5,-225,-88,35666,-26,33,127,0,0,3845,-21,0,2984,319,29,7367,-4,0,154,0,81615,0
81633,-35,-2031,272,-100,0,-199,14488,-16,-8,-313,-88,35658,-34,33,127,0,0,3840,-21,0,2984,319,29,7377,-4,0,154,0,81631,0
81643,16,-2026,281,-119,1,-243,14465,-67,-45,-298,-128,35674,-45,33,127,0,0,3834,-87,0,2984,319,29,7387,-4,0,154,0,81631,0
81653,-15,-2029,273,-151,-7,-290,14423,-77,-74,-263,-112,35678,-44,33,127,0,0,3825,-87,0,2984,319,29,7397,-4,0,154,0,81631,0
81663,6,-2050,285,-164,-17,-298,14404,-42,20,-438,-136,35671,-41,33,127,0,0,3818,-76,0,2984,319,29,7407,-4,0,154,0,81646,0
81673,-10,-2040,250,-175,-6,-353,14375,-73,18,-415,-176,35660,-50,33,127,0,0,3810,-109,0,2984,319,29,7417,-4,0,154,0,81662,0
81683,12,-2053,239,-172,-8,-369,14344,-77,-26,-527,-240,35676,-72,33,127,0,0,3801,-76,0,2984,319,29,7427,-4,0,154,0,81662,0
81693,46,-2048,233,-160,-3,-397,14291,-133,-52,-397,-192,35691,-77,33,127,0,0,3792,-76,0,2984,319,29,7437,-4,0,154,0,81693,0
81703,93,-2037,217,-158,1,-382,14231,-134,-58,-410,-184,35680,-71,33,127,0,0,3781,-54,0,2984,319,29,7447,-4,0,154,0,81693,0
81713,146,-2030,223,-153,-15,-368,14184,-116,23,-479,-216,35672,-80,33,127,0,0,3770,-98,0,2984,319,29,7457,-4,0,154,0,81709,0
81723,75,-2032,214,-147,-10,-366,14132,-110,11,-416,-248,35668,-82,33,127,0,0,3759,-131,0,2984,319,29,7467,-4,0,154,0,81709,0
81733,101,-2046,219,-135,-10,-346,14071,-134,-23,-397,-208,35681,-82,33,127,0,0,3750,-76,0,2984,319,29,7477,-4,0,154,0,81740,0
81743,95,-2038,222,-127,-5,-351,14017,-99,-2,-391,-216,35679,-49,33,127,0,0,3739,-98,0,2984,319,29,7487,-4,0,154,0,81740,0
81753,127,-2035,230,-123,-3,-329,13971,-86,28,-437,-192,35666,-34,33,127,0,0,3735,-65,0,2984,319,29,7497,-4,0,154,0,81740,0
81763,157,-2029,225,-120,-16,-286,13927,-108,17,-440,-192,35669,-39,33,127,0,0,3726,-32,0,2984,319,29,7507,-4,0,154,0,81771,0
81773,111,-2035,204,-118,-20,-250,13878,-110,-13,-397,-184,35681,-28,33,127,0,0,3719,-65,0,2984,319,29,7517,-4,0,154,0,81771,0
81783,121,-2050,200,-95,5,-255,13842,-38,21,-405,-168,35686,-6,33,127,0,0,3711,-98,0,2984,319,29,7527,-4,0,154,0,81771,0
81793,218,-2032,208,-79,-12,-202,13818,-67,51,-496,-184,35665,19,33,127,0,0,3706,-54,0,2984,319,29,7537,-4,0,154,0,81787,0
81803,164,-2038,208,-77,-11,-164,13791,-51,5,-472,-168,35655,5,33,127,0,0,3702,-54,0,2984,319,29,7547,-4,0,154,0,81818,0
81813,166,-2041,204,-61,-15,-115,13777,-31,27,-528,-152,35669,-14,33,127,0,0,3700,-21,0,2984,319,29,7557,-4,0,154,0,81818,0
81823,167,-2028,213,-58,-22,-84,13744,-93,-14,-383,-128,35676,-15,33,127,0,0,3697,-10,0,2984,319,29,7567,-4,0,154,0,81834,0
81833,122,-2044,200,-45,-9,-64,13712,-52,-34,-309,-88,35669,-11,33,127,0,0,3695,-21,0,2984,319,29,7577,-4,0,154,0,81834,0
81843,151,-2034,209,-37,-3,-50,13696,-42,36,-268,-72,35663,-14,33,127,0,0,3697,0,0,2984,319,29,7587,-4,0,154,0,81834,0
81853,128,-2036,243,-38,-12,-36,13685,-1,30,-191,-48,35677,-37,33,127,0,0,3700,43,0,2984,319,29,7597,-4,0,154,0,81834,0
81863,82,-2059,250,-46,-16,-35,13690,2,48,-136,-40,35695,-29,33,127,0,0,3697,-10,0,2984,319,29,7607,-4,0,154,0,81881,0
81873,62,-2052,249,-52,-15,-59,13687,-1,6,-173,-16,35693,-10,33,127,0,0,3695,-10,0,2984,319,29,7617,-4,0,154,0,81881,0
81883,72,-2054,266,-58,-16,-74,13683,-15,-14,-299,-24,35677,-25,33,127,0,0,3695,65,0,2984,319,29,7627,-4,0,154,0,81881,0
81893,48,-2052,247,-71,-14,-98,13684,4,11,-299,-96,35664,-27,33,127,0,0,3691,-32,0,2984,319,29,7637,-4,0,154,0,81881,0
81903,56,-2041,252,-77,-6,-123,13677,-6,-4,-347,-120,35677,-45,33,127,0,0,3689,-21,0,2984,319,29,7647,-4,0,154,0,81881,0
81913,98,-2030,262,-90,-11,-143,13675,-6,-7,-413,-96,35696,-17,33,127,0,0,3687,-10,0,2984,319,29,7657,-4,0,154,0,81912,0
81923,89,-2032,236,-97,-9,-143,13670,-5,-1,-462,-152,35684,-15,33,127,0,0,3682,-32,0,2984,319,29,7667,-4,0,154,0,81912,0
81933,95,-2026,218,-96,-12,-153,13663,-13,-4,-513,-144,35676,-26,33,127,0,0,3680,-43,0,2984,319,29,7677,-4,0,154,0,81928,0
81943,117,-2023,217,-97,-9,-159,13648,-31,-17,-483,-144,35678,-30,33,127,0,0,3676,-43,0,2984,319,29,7687,-4,0,154,0,81928,0
81953,133,-2019,229,-97,-13,-158,13621,-76,-36,-463,-128,35689,-38,33,127,0,0,3673,0,0,2984,319,29,7697,-4,0,154,0,81959,0
81963,83,-2019,210,-87,-7,-162,13595,-35,-22,-403,-128,35681,-26,33,127,0,0,3671,0,0,2984,319,29,7707,-4,0,154,0,81959,0
81973,122,-2030,207,-80,-11,-157,13581,-34,35,-409,-128,35673,-29,34,127,0,0,3669,-21,0,2984,319,29,7717,-4,0,154,0,81959,0
81983,121,-2037,205,-83,-17,-156,13552,-79,-15,-327,-120,35686,-52,33,127,0,0,3665,-21,0,2984,319,29,7727,-4,0,154,0,81990,0
81993,102,-2042,214,-72,-5,-159,13534,-27,-8,-377,-136,35695,-64,33,127,0,0,3658,-32,0,2984,319,29,7737,-4,0,154,0,81990,0
82003,141,-2043,224,-67,-7,-165,13522,-30,36,-445,-120,35686,-62,33,127,0,0,3656,-21,0,2984,319,29,7747,-4,0,154,0,81990,0
82013,135,-2041,215,-65,-10,-151,13495,-67,-19,-359,-128,35671,-75,33,127,0,0,3651,-54,0,2984,319,29,7757,-4,0,154,0,82021,0
82023,117,-2041,198,-62,-6,-144,13480,-9,1,-388,-152,35666,-102,33,127,0,0,3651,-21,0,2984,319,29,7767,-4,0,154,0,82021,0
82033,157,-2041,207,-52,-12,-133,13480,-7,59,-480,-136,35672,-115,33,127,0,0,3645,-65,0,2984,319,29,7777,-4,0,154,0,82021,0
82043,135,-2053,216,-45,-17,-124,13473,-18,6,-564,-200,35670,-95,33,127,0,0,3643,-32,0,2984,319,29,7787,-4,0,154,0,82021,0
82053,146,-2038,199,-38,-5,-115,13459,-40,-27,-550,-208,35658,-87,33,127,0,0,3640,-32,0,2984,319,29,7797,-4,0,154,0,82053,0
82063,150,-2037,190,-33,-7,-104,13428,-83,-41,-420,-96,35668,-83,33,127,0,0,3638,-10,0,2984,319,29,7807,-4,0,154,0,82053,0
82073,123,-2039,180,-17,-4,-105,13409,-19,-26,-418,-144,35681,-85,33,127,0,0,3638,21,0,2984,319,29,7817,-4,0,154,0,82053,0
82083,144,-2036,186,-6,1,-93,13407,-1,68,-464,-128,35692,-59,33,127,0,0,3636,0,0,2984,319,29,7827,-4,0,154,0,82099,0
82093,135,-2041,208,-5,-2,-84,13408,1,37,-478,-168,35681,-46,33,127,0,0,3636,-10,0,2984,319,29,7837,-4,0,154,0,82099,0
82103,120,-2038,215,1,-1,-77,13401,-14,-13,-503,-144,35677,-77,33,127,0,0,3632,-21,0,2984,319,29,7847,-4,0,154,0,82099,0
82113,130,-2046,232,1,-5,-78,13379,-54,-41,-403,-128,35678,-69,33,127,0,0,3632,0,0,2984,319,29,7857,-4,0,154,0,82099,0
82123,119,-2040,248,-5,4,-80,13357,-27,-34,-294,-144,35681,-55,33,127,0,0,3632,-21,0,2984,319,29,7867,-4,0,154,0,82099,0
82133,155,-2034,258,-16,-5,-69,13356,12,48,-360,-136,35674,-34,33,127,0,0,3627,0,0,2984,319,29,7877,-4,0,154,0,82115,0
82143,139,-2038,262,-27,-11,-67,13354,-4,37,-391,-128,35673,-32,33,127,0,0,3627,-10,0,2984,319,29,7887,-4,0,154,0,82146,0
82153,111,-2023,261,-45,-5,-67,13353,-8,-1,-416,-112,35681,-62,33,127,0,0,3627,0,0,2984,319,29,7897,-4,0,154,0,82162,0
82163,116,-2036,241,-44,-4,-70,13354,6,3,-406,-120,35679,-54,33,127,0,0,3627,0,0,2984,319,29,7907,-4,0,154,0,82162,0
82173,123,-2032,231,-45,-11,-66,13352,-5,1,-434,-136,35668,-43,33,127,0,0,3623,-32,0,2984,319,29,7917,-4,0,154,0,82162,0
82183,142,-2033,224,-51,-12,-71,13346,-15,-10,-459,-112,35662,-32,33,127,0,0,3623,-10,0,2984,319,29,7927,-4,0,154,0,82193,0
82193,123,-2041,222,-47,-11,-65,13335,-40,-24,-442,-128,35668,-42,33,127,0,0,3623,0,0,2984,319,29,7937,-4,0,154,0,82209,0
82203,130,-2034,220,-45,-10,-62,13315,-64,-31,-304,-88,35679,-51,33,127,0,0,3623,21,0,2984,319,29,7947,-4,0,154,0,82209,0
82213,117,-2037,233,-39,-3,-64,13299,-3,-6,-198,-88,35680,-38,33,127,0,0,3621,-21,0,2984,319,29,7957,-4,0,154,0,82209,0
82223,162,-2045,241,-46,-11,-58,13301,0,61,-264,-48,35662,-37,33,127,0,0,3623,10,0,2984,319,29,7967,-4,0,154,0,82209,0
82233,152,-2044,238,-58,-14,-55,13301,5,24,-253,-96,35670,-54,33,127,0,0,3621,-10,0,2984,319,29,7977,-4,0,154,0,82224,0
82243,120,-2051,240,-54,-8,-57,13301,11,-1,-250,-48,35692,-68,33,127,0,0,3623,0,0,2984,319,29,7987,-4,0,154,0,82256,0
82253,130,-2035,236,-57,-9,-57,13297,-16,-3,-264,-72,35694,-57,33,127,0,0,3621,0,0,2984,319,29,7997,-4,0,154,0,82256,0
82263,142,-2042,230,-63,-6,-58,13299,-2,0,-261,-56,35680,-39,33,127,0,0,3621,-10,0,2984,319,29,8007,-4,0,154,0,82256,0
82273,124,-2039,222,-57,-12,-57,13297,-13,2,-283,-72,35667,-49,33,127,0,0,3618,-10,0,2984,319,29,8017,-4,0,154,0,82271,0
82283,152,-2034,218,-61,-10,-57,13299,-3,-4,-326,-112,35673,-43,33,127,0,0,3621,0,0,2984,319,29,8027,-4,0,154,0,82271,0
82293,139,-2042,205,-57,-10,-56,13301,13,7,-283,-80,35685,-43,33,127,0,0,3618,-21,0,2984,319,29,8037,-4,0,154,0,82287,0
82303,142,-2037,202,-49,-9,-56,13296,0,-7,-279,-72,35676,-36,33,127,0,0,3621,0,0,2984,319,29,8047,-4,0,154,0,82303,0
82313,139,-2032,202,-37,-11,-51,13299,1,0,-250,-88,35664,-38,33,127,0,0,3621,-10,0,2984,319,29,8057,-4,0,154,0,82303,0
82323,136,-2033,204,-37,-9,-39,13298,-4,3,-294,-64,35666,-51,33,127,0,0,3618,-21,0,2984,319,29,8067,-4,0,154,0,82334,0
82333,135,-2030,211,-26,-2,-35,13296,-2,-3,-310,-72,35673,-50,33,127,0,0,3621,21,0,2984,319,29,8077,-4,0,154,0,82334,0
82343,142,-2034,225,-25,-9,-32,13298,-9,5,-292,-112,35667,-32,33,127,0,0,3621,-10,0,2984,319,29,8087,-4,0,154,0,82334,0
82353,156,-2037,210,-20,5,-21,13296,1,-4,-282,-104,35663,-32,33,127,0,0,3621,0,0,2984,319,29,8097,-4,0,154,0,82334,0
82363,147,-2038,219,-20,-8,-16,13297,1,-1,-275,-112,35661,-39,33,127,0,0,3621,0,0,2984,319,29,8107,-4,0,154,0,82396,0
82373,148,-2037,232,-17,0,-10,13298,4,3,-282,-112,35672,-59,33,127,0,0,3621,-10,0,2984,319,29,8117,-4,0,154,0,82396,0
82383,114,-2042,237,-21,-1,-7,13298,9,5,-258,-72,35670,-46,33,127,0,0,3621,0,0,2984,319,29,8127,-4,0,154,0,82396,0
82393,120,-2036,232,-21,3,-5,13297,-5,0,-256,-72,35652,-45,33,127,0,0,3621,0,0,2984,319,29,8137,-4,0,154,0,82396,0
82403,137,-2039,219,-16,8,0,13297,0,-4,-260,-72,35645,-55,33,127,0,0,3621,0,0,2984,319,29,8147,-4,0,154,0,82412,0
82413,126,-2036,224,-9,6,5,13298,1,10,-261,-72,35655,-61,33,127,0,0,3621,10,0,2984,319,29,8157,-4,0,154,0,82412,0
82423,128,-2048,237,-10,5,2,13297,-2,-3,-269,-72,35661,-41,33,127,0,0,3621,10,0,2984,319,29,8167,-4,0,154,0,82412,0
82433,147,-2050,236,-12,4,1,13297,0,2,-254,-40,35657,-26,33,127,0,0,3623,43,0,2984,319,29,8177,-4,0,154,0,82412,0
82443,138,-2050,234,-19,-1,13,13300,0,7,-197,-32,35655,-28,33,127,0,0,3627,65,0,2984,319,29,8187,-4,0,154,0,82443,0
82453,139,-2036,250,-20,-17,24,13303,6,3,-107,-48,35665,-49,33,127,0,0,3627,21,0,2984,319,29,8197,-4,0,154,0,82460,0
82463,120,-2045,244,-27,-11,22,13303,9,-4,-34,-24,35662,-43,33,127,0,0,3629,10,0,2984,319,29,8207,-4,0,154,0,82462,0
82473,117,-2032,230,-26,-8,15,13303,2,-3,3,8,35652,-34,33,127,0,0,3634,65,0,2984,319,29,8217,-4,0,154,0,82465,0
82483,100,-2026,227,-25,-8,19,13313,24,16,133,32,35657,-35,33,127,0,0,3634,0,0,2984,319,29,8227,-4,0,154,0,82484,0
82493,115,-2038,224,-27,-4,7,13314,-3,-1,197,56,35672,-57,33,127,0,0,3634,-21,0,2984,319,29,8237,-4,0,154,0,82484,0
82503,151,-2032,218,-23,-6,6,13318,11,-15,206,88,35691,-57,33,127,0,0,3636,-21,0,2984,319,29,8247,-4,0,154,0,82500,0
82513,135,-2026,215,-26,-7,13,13320,-1,5,199,32,35687,-39,34,127,0,0,3638,21,0,2984,319,29,8257,-4,0,154,0,82500,0
82523,110,-2027,213,-15,-16,12,13325,13,3,250,48,35676,-35,33,127,0,0,3638,-10,0,2984,319,29,8267,-4,0,154,0,82578,0
82533,102,-2024,180,0,5,-10,13335,28,20,212,16,35668,-38,33,127,0,0,3640,0,0,2984,319,29,8277,-4,0,154,0,82578,0
82543,76,-2032,202,4,7,-30,13354,52,24,162,56,35661,-54,33,127,0,0,3638,-65,0,2984,319,29,8287,-4,0,154,0,82578,0
82553,86,-2048,269,-5,-2,-39,13359,-20,-17,18,0,35659,-38,33,127,0,0,3643,21,0,2984,319,29,8297,-4,0,154,0,82593,0
82563,53,-2038,282,-20,-8,-50,13362,19,-37,107,0,35643,-26,33,127,0,0,3643,-10,0,2984,319,29,8307,-4,0,154,0,82593,0
82573,156,-2058,229,-37,-6,-58,13359,-15,-1,80,0,35643,-37,33,127,0,0,3640,10,0,2984,319,29,8317,-4,0,154,0,82593,0
82583,133,-2058,233,-31,1,-54,13360,-5,-8,14,16,35656,-35,33,127,0,0,3640,21,0,2984,319,29,8327,-4,0,154,0,82593,0
82593,945,-2039,0,-126,6,-443,13362,5,7,47,8,35661,-39,33,127,0,0,3638,-32,0,2984,319,29,8337,-4,0,154,0,82593,0
82603,873,-1865,65,-185,85,-598,13358,-13,-4,-79,-72,35658,-28,33,127,0,0,3623,-208,0,2984,319,29,8347,-4,0,154,0,82593,0
82613,102,-1996,388,-88,-130,-48,13326,-101,-70,-413,-200,35654,-39,33,127,0,0,3614,-54,0,2984,319,29,8357,-4,0,154,0,82593,0
82623,-95,-2180,385,-55,-57,-10,13273,-84,-91,-211,-40,35672,-47,33,127,0,0,3616,-10,0,2984,319,29,8367,-4,0,154,0,82625,0
82633,515,-2083,25,-124,57,-343,13276,29,91,-276,-88,35678,-48,33,127,0,0,3616,-10,0,2984,319,29,8377,-4,0,154,0,82625,0
82643,1090,-1916,-81,-166,49,-585,13276,-19,93,-385,-144,35670,-39,33,127,0,0,3603,-120,0,2984,319,29,8387,-4,0,154,0,82625,0
82653,414,-1984,155,-128,-90,-284,13245,-101,-81,-567,-272,35664,-37,33,127,0,0,3590,-109,0,2984,319,29,8397,-4,0,154,0,82640,0
82663,19,-2071,274,-117,-91,-171,13185,-138,-124,-455,-216,35678,-43,34,127,0,0,3585,-76,0,2984,319,29,8407,-4,0,154,0,82656,0
82673,359,-2080,134,-106,41,-328,13120,-133,-51,-264,-104,35691,-39,33,127,0,0,3583,-54,0,2984,319,29,8417,-4,0,154,0,82656,0
82683,601,-2078,47,-138,55,-479,13089,-25,68,-372,-160,35685,1,33,127,0,0,3570,-98,0,2984,319,29,8427,-4,0,154,0,82672,0
82693,534,-1942,126,-167,-69,-442,13082,-21,116,-630,-224,35666,15,33,127,0,0,3561,-98,0,2984,319,29,8437,-4,0,154,0,82687,0
82703,255,-1975,199,-159,-107,-305,13038,-113,-45,-538,-304,35662,13,33,127,0,0,3555,-65,0,2984,319,29,8447,-4,0,154,0,82703,0
82713,227,-2081,144,-139,-33,-304,12988,-115,-86,-403,-176,35683,-20,33,127,0,0,3550,-32,0,2984,319,29,8457,-4,0,154,0,82703,0
82723,389,-2068,65,-120,31,-433,12935,-103,-13,-348,-136,35675,-24,33,127,0,0,3544,-43,0,2984,319,29,8467,-4,0,154,0,82718,0
82733,527,-2031,162,-139,9,-512,12898,-56,36,-366,-128,35673,-23,33,127,0,0,3533,-120,0,2984,319,29,8477,-4,0,154,0,82718,0
82743,500,-2031,240,-165,-58,-474,12876,-69,54,-592,-256,35662,-41,33,127,0,0,3522,-98,0,2984,319,29,8487,-4,0,154,0,82750,0
82753,226,-2074,198,-191,-76,-432,12825,-108,-41,-470,-264,35676,-37,33,127,0,0,3511,-109,0,2984,319,29,8497,-4,0,154,0,82750,0
82763,293,-2061,165,-174,-21,-488,12762,-137,-68,-371,-208,35679,-51,33,127,0,0,3504,-65,0,2984,319,29,8507,-4,0,154,0,82750,0
82773,395,-2025,144,-169,4,-538,12704,-128,-5,-359,-176,35673,-59,33,127,0,0,3491,-87,0,2984,319,29,8517,-4,0,154,0,82781,0
82783,443,-2023,170,-184,-29,-523,12660,-118,30,-459,-224,35666,-72,33,127,0,0,3480,-120,0,2984,319,29,8527,-4,0,154,0,82781,0
82793,322,-2034,198,-222,-77,-491,12612,-112,7,-473,-240,35676,-87,33,127,0,0,3469,-98,0,2984,319,29,8537,-4,0,154,0,82781,0
82803,278,-2068,229,-220,-58,-507,12559,-108,-13,-415,-232,35685,-76,33,127,0,0,3462,-109,0,2984,319,29,8547,-4,0,154,0,82781,0
82813,295,-2048,168,-186,-36,-579,12503,-107,-8,-379,-192,35682,-41,33,127,0,0,3454,-65,0,2984,319,29,8557,-4,0,154,0,82812,0
82823,382,-2058,164,-178,-51,-587,12463,-101,33,-513,-240,35677,-20,33,127,0,0,3436,-142,0,2984,319,29,8567,-4,0,154,0,82812,0
82833,290,-2060,180,-177,-87,-567,12413,-127,1,-550,-296,35682,-28,33,127,0,0,3423,-175,0,2984,319,29,8577,-4,0,154,0,82812,0
82843,232,-2071,192,-177,-89,-548,12333,-185,-79,-422,-232,35693,-24,33,127,0,0,3412,-109,0,2984,319,29,8587,-4,0,154,0,82859,0
82853,282,-2071,154,-151,-72,-554,12264,-138,-26,-391,-232,35690,8,33,127,0,0,3403,-76,0,2984,319,29,8597,-4,0,154,0,82859,0
82863,312,-2062,157,-131,-103,-538,12212,-119,60,-418,-216,35681,20,33,127,0,0,3396,-54,0,2984,319,29,8607,-4,0,154,0,82859,0
82873,310,-2065,159,-123,-151,-526,12159,-105,15,-311,-120,35667,-2,33,127,0,0,3388,-120,0,2984,319,29,8617,-4,0,154,0,82859,0
82883,307,-2029,162,-119,-173,-528,12115,-78,16,-356,-112,35670,-50,33,127,0,0,3381,-54,0,2984,319,29,8627,-4,0,154,0,82859,0
82893,347,-2073,157,-87,-201,-515,12098,-55,70,-525,-168,35682,-52,33,127,0,0,3377,-32,0,2984,319,29,8637,-4,0,154,0,82953,0
82903,359,-2106,199,-60,-232,-511,12062,-86,-2,-419,-136,35676,-37,33,127,0,0,3370,-21,0,2984,319,29,8647,-4,0,154,0,82953,0
82913,346,-2146,182,-45,-295,-467,12040,-35,-1,-478,-168,35673,-51,33,127,0,0,3366,-32,0,2984,319,29,8657,-4,0,154,0,82953,0
82923,246,-2125,186,-64,-243,-437,12005,-78,6,-295,-80,35674,-44,33,127,0,0,3366,-10,0,2984,319,29,8667,-4,0,154,0,82968,0
82933,199,-2045,111,-47,-144,-458,12001,7,35,-336,-88,35671,-69,33,127,0,0,3366,0,0,2984,319,29,8677,-4,0,154,0,82968,0
82943,275,-2023,76,-19,-128,-462,12001,-13,65,-359,-80,35668,-61,33,127,0,0,3370,54,0,2984,319,29,8687,-4,0,154,0,82968,0
82953,347,-1991,59,-9,-124,-442,12005,4,5,-289,-56,35661,-70,34,127,0,0,3368,0,0,2984,319,29,8697,-4,0,154,0,82968,0
82963,299,-2015,81,-21,-123,-449,12004,7,4,-283,-104,35674,-82,33,127,0,0,3368,10,0,2984,319,29,8707,-4,0,154,0,82968,0
82973,286,-2041,110,-5,-115,-470,12005,1,0,-240,-48,35679,-76,33,127,0,0,3366,-54,0,2984,319,29,8717,-4,0,154,0,82968,0
82983,241,-2073,164,6,-115,-480,12002,2,-3,-271,-80,35682,-76,33,127,0,0,3370,0,0,2984,319,29,8727,-4,0,154,0,82968,0
82993,134,-2121,187,20,-102,-508,12003,-5,-2,-230,-40,35679,-73,33,127,0,0,3370,0,0,2984,319,29,8737,-4,0,154,0,82984,0
83003,147,-2127,161,29,-73,-514,12004,5,3,-216,-48,35683,-94,34,127,0,0,3375,54,0,2984,319,29,8747,-4,0,154,0,83031,0
83013,194,-2074,99,69,-70,-544,12016,31,24,7,32,35691,-107,33,127,0,0,3379,21,0,2984,319,29,8757,-4,0,154,0,83031,0
83023,286,-2029,77,60,-76,-587,12024,20,16,180,72,35687,-78,33,127,0,0,3388,43,0,2984,319,29,8767,-4,0,154,0,83047,0
83033,225,-2003,69,55,-48,-647,12052,71,34,194,112,35670,-62,33,127,0,0,3392,43,0,2984,319,29,8777,-4,0,154,0,83047,0
83043,246,-2002,53,44,-51,-669,12090,47,53,46,32,35667,-50,33,127,0,0,3396,43,0,2984,319,29,8787,-4,0,154,0,83047,0
83053,249,-1965,16,88,-30,-737,12090,-13,-70,178,48,35679,-49,33,127,0,0,3399,32,0,2984,319,29,8797,-4,0,154,0,83047,0
83063,279,-1986,26,93,-30,-786,12094,8,-61,233,56,35692,-33,33,127,0,0,3399,0,0,2984,319,29,8807,-4,0,154,0,83047,0
83073,351,-2009,81,88,5,-828,12097,4,6,194,24,35692,-41,33,127,0,0,3399,10,0,2984,319,29,8817,-4,0,154,0,83062,0
83083,368,-1944,104,79,19,-804,12097,0,-7,210,64,35698,-48,34,127,0,0,3394,-21,0,2984,319,29,8827,-4,0,154,0,83093,0
83093,478,-1889,62,87,43,-763,12095,-12,-11,119,40,35708,-57,33,127,0,0,3396,0,0,2984,319,29,8837,-4,0,154,0,83093,0
83103,505,-1882,88,87,70,-727,12097,7,2,146,40,35694,-44,33,127,0,0,3396,0,0,2984,319,29,8847,-4,0,154,0,83093,0
83113,616,-1865,175,81,65,-756,12095,-8,4,116,8,35674,-29,33,127,0,0,3394,-10,0,2984,319,29,8857,-4,0,154,0,83093,0
83123,703,-1740,153,114,109,-876,12093,-7,-8,9,-80,35666,-27,33,127,0,0,3379,-197,0,2984,319,29,8867,-4,0,154,0,83125,0
83133,588,-1798,234,93,120,-855,12059,-93,-57,-321,-168,35673,-49,33,127,0,0,3366,-142,0,2984,319,29,8877,-4,0,154,0,83125,0
83143,480,-1854,344,73,172,-818,12015,-120,-87,-479,-256,35683,-59,33,127,0,0,3344,-219,0,2984,319,29,8887,-4,0,154,0,83125,0
83153,640,-1802,410,21,153,-768,11946,-185,-80,-521,-328,35681,-37,33,127,0,0,3324,-197,0,2984,319,29,8897,-4,0,154,0,83140,0
83163,674,-1863,384,12,95,-714,11854,-210,-92,-532,-408,35677,-55,33,127,0,0,3304,-208,0,2984,319,29,8907,-4,0,154,0,83156,0
83173,761,-2071,391,-42,10,-651,11750,-241,-54,-422,-376,35678,-62,33,127,0,0,3284,-197,0,2984,319,29,8917,-4,0,154,0,83187,0
83183,725,-2015,419,-76,-1,-654,11651,-211,-16,-468,-360,35686,-80,33,127,0,0,3267,-197,0,2984,319,29,8927,-4,0,154,0,83187,0
83193,519,-2081,462,-121,-90,-379,11552,-224,7,-422,-312,35675,-30,33,127,0,0,3256,-109,0,2984,319,29,8937,-4,0,154,0,83187,0
83203,554,-2275,458,-128,-115,-353,11464,-176,17,-392,-208,35667,0,33,127,0,0,3247,-76,0,2984,319,29,8947,-4,0,154,0,83187,0
83213,780,-2274,439,-188,-159,-399,11396,-153,75,-373,-184,35656,4,33,127,0,0,3236,-87,0,2984,319,29,8957,-4,0,154,0,83203,0
83223,700,-2115,408,-227,-265,-310,11334,-151,32,-318,-120,35674,-26,33,127,0,0,3236,10,0,2984,319,29,8967,-4,0,154,0,83218,0
83233,401,-2044,206,-192,-370,-222,11308,-18,82,-264,-72,35681,-40,33,127,0,0,3236,-10,0,2984,319,29,8977,-4,0,154,0,83218,0
83243,269,-2102,89,-166,-287,-262,11307,0,131,-305,-64,35670,-28,33,127,0,0,3238,21,0,2984,319,29,8987,-4,0,154,0,83234,0
83253,450,-2121,130,-211,-99,-377,11308,-3,40,-280,-72,35669,-23,34,127,0,0,3238,21,0,2984,319,29,8997,-4,0,154,0,83250,0
83263,486,-2057,165,-261,-78,-386,11306,-4,-2,-278,-64,35678,-28,33,127,0,0,3236,0,0,2984,319,29,9007,-4,0,154,0,83281,0
83273,330,-2053,172,-268,-121,-343,11308,11,0,-274,-72,35684,-26,34,127,0,0,3238,0,0,2984,319,29,9017,-4,0,154,0,83296,0
83283,251,-2120,180,-260,-151,-291,11310,17,6,-106,-16,35672,-26,33,127,0,0,3247,76,0,2984,319,29,9027,-4,0,154,0,83296,0
83293,446,-2105,267,-289,-119,-359,11342,89,62,91,80,35652,-15,33,127,0,0,3260,87,0,2984,319,29,9037,-4,0,154,0,83296,0
83303,529,-1983,247,-332,-145,-382,11376,58,60,257,96,35655,-43,33,127,0,0,3269,87,0,2984,319,29,9047,-4,0,154,0,83312,0
83313,424,-1978,201,-361,-146,-422,11418,116,21,280,136,35666,-37,33,127,0,0,3280,76,0,2984,319,29,9057,-4,0,154,0,83312,0
83323,493,-2013,247,-387,-137,-454,11465,120,40,281,88,35661,-14,33,127,0,0,3287,54,0,2984,319,29,9067,-4,0,154,0,83312,0
83333,575,-2022,422,-442,-172,-506,11521,111,21,239,152,35658,7,33,127,0,0,3298,98,0,2984,319,29,9077,-4,0,154,0,83343,0
83343,551,-1998,476,-489,-237,-504,11573,77,-1,174,72,35661,9,33,127,0,0,3306,109,0,2984,319,29,9087,-4,0,154,0,83343,0
83353,455,-1973,426,-533,-378,-535,11606,89,-47,298,96,35668,-1,33,127,0,0,3313,65,0,2984,319,29,9097,-4,0,154,0,83343,0
83363,465,-2010,364,-533,-467,-568,11633,51,-39,411,160,35673,8,33,127,0,0,3324,65,0,2984,319,29,9107,-4,0,154,0,83343,0
83373,373,-2046,331,-547,-522,-728,11676,121,19,337,152,35667,-3,33,127,0,0,3324,21,0,2984,319,29,9117,-4,0,154,0,83375,0
83383,369,-2062,306,-609,-540,-811,11729,93,57,67,40,35664,-36,33,127,0,0,3328,43,0,2984,319,29,9127,-4,0,154,0,83375,0
83393,288,-2067,238,-685,-526,-940,11747,12,-69,198,80,35674,-53,33,127,0,0,3328,-43,0,2984,319,29,9137,-4,0,154,0,83390,0
83403,294,-2059,172,-724,-501,-1048,11741,-19,-111,133,48,35676,-53,33,127,0,0,3328,21,0,2984,319,29,9147,-4,0,154,0,83390,0
83413,364,-2062,86,-778,-469,-1176,11744,1,-12,94,0,35668,-34,33,127,0,0,3328,-10,0,2984,319,29,9157,-4,0,154,0,83406,0
83423,352,-2028,95,-799,-451,-1288,11741,14,7,71,16,35661,-28,33,127,0,0,3326,-10,0,2984,319,29,9167,-4,0,154,0,83406,0
83433,312,-2034,87,-764,-443,-1452,11737,-7,-15,-89,-48,35670,-54,33,127,0,0,3313,-109,0,2984,319,29,9177,-4,0,154,0,83421,0
83443,405,-2044,80,-778,-460,-1479,11715,-50,-39,-322,-136,35681,-56,33,127,0,0,3302,-109,0,2984,319,29,9187,-4,0,154,0,83437,0
83453,484,-2126,56,-843,-559,-1226,11676,-119,-73,-412,-168,35673,-51,33,127,0,0,3300,21,0,2984,319,29,9197,-4,0,154,0,83437,0
83463,575,-2440,165,-956,-494,-1728,11644,-30,-16,-226,-80,35677,-34,33,127,0,0,3304,54,0,2984,319,29,9207,-4,0,-20,0,83453,0
83473,336,-1974,207,-1058,-390,-1668,11644,17,101,-236,-56,35664,-41,33,127,0,0,3298,-32,0,2984,319,29,9217,-4,0,-22,0,83468,0
83483,-4,-2080,375,-1138,-481,-1470,11631,-35,29,-184,-72,35677,-59,33,127,0,0,3304,65,0,2984,319,29,9227,-4,0,-21,0,83468,0
83493,531,-2676,339,-1140,-485,-1827,11642,52,18,106,136,35677,-24,33,127,0,0,3324,208,0,2984,319,29,9237,-4,0,-21,0,83500,0
83503,461,-2609,246,-1134,-460,-2212,11707,180,163,141,0,35666,-12,33,127,0,0,3324,-10,0,2984,319,29,9247,-4,0,-21,0,83500,0
83513,390,-2201,234,-1265,-560,-2430,11738,13,23,-104,-64,35663,-25,33,127,0,0,3322,-10,0,2984,319,29,9257,-4,0,-20,0,83500,0
83523,-131,-2133,249,-1247,-680,-2556,11726,17,-170,57,24,35665,-56,33,127,0,0,3324,-10,0,2984,319,29,9267,-4,0,-20,0,83515,0
83533,-75,-2664,237,-1261,-682,-2752,11733,-7,-12,69,64,35669,-45,34,127,0,0,3331,76,0,2984,319,29,9277,-4,0,-20,0,83531,0
83543,-19,-2761,325,-1249,-666,-2979,11746,42,38,319,136,35660,-23,33,127,0,0,3344,142,0,2984,319,29,9287,-4,0,-19,0,83531,0
83553,251,-2619,354,-1351,-883,-3126,11772,61,44,513,224,35658,-37,33,127,0,0,3361,208,0,2984,319,29,9297,-4,0,-19,0,83546,0
83563,358,-2605,154,-1378,-1111,-3031,11834,181,97,566,440,35663,-22,33,127,0,0,3401,439,0,2984,319,29,9307,-4,0,-18,0,83546,0
83573,377,-2697,-17,-1316,-1340,-3083,11963,334,210,578,776,35674,-29,33,127,0,0,3456,571,0,2984,319,29,9317,-4,0,-17,0,83578,0
83583,309,-2659,90,-1271,-1405,-3205,12144,428,220,541,992,35667,-6,33,127,0,0,3517,626,0,2984,319,29,9327,-4,0,-17,0,83578,0
83593,281,-2861,416,-1322,-1476,-3395,12364,515,165,586,1240,35647,-4,33,127,0,0,3585,703,0,2984,319,29,9337,-4,0,-16,0,83578,0
83603,492,-2937,538,-1343,-1542,-3576,12623,601,148,562,1496,35666,-18,33,127,0,0,3651,681,0,2984,319,29,9347,-4,0,-15,0,83609,0
83613,573,-2866,344,-1343,-1595,-3753,12912,643,135,522,1568,35675,-33,33,127,0,0,3711,593,0,2984,319,29,9357,-4,0,-14,0,83625,0
83623,582,-2577,198,-1276,-1746,-3655,13211,658,70,507,1584,35671,-9,33,127,0,0,3774,648,0,2984,319,29,9367,-4,0,-14,0,83625,0
83633,762,-2461,169,-1253,-1871,-3823,13523,701,39,497,1696,35655,-10,33,127,0,0,3840,626,0,2984,319,29,9377,-4,0,-13,0,83656,0
83643,765,-2440,244,-1237,-1880,-3914,13845,710,47,462,1656,35651,-10,33,127,0,0,3897,560,0,2984,319,29,9387,-4,0,-12,0,83687,0
83653,930,-2290,369,-1226,-1962,-3815,14167,697,13,430,1592,35668,-26,33,127,0,0,3946,527,0,2984,319,29,9397,-4,0,-11,0,83687,0
83663,980,-2147,384,-1259,-2061,-3622,14477,671,-25,406,1504,35669,-15,33,127,0,0,4001,527,0,2984,319,29,9407,-4,0,-10,0,83687,0
83673,945,-1927,282,-1260,-2096,-3271,14776,649,-45,465,1464,35654,7,33,127,0,0,4056,549,0,2984,319,29,9417,-4,0,-8,0,83703,0
83683,963,-1714,161,-1193,-2026,-3041,15070,652,-34,510,1480,35649,-21,33,127,0,0,4113,538,0,2984,319,29,9427,-4,0,-7,0,83703,0
83693,733,-778,98,-972,-1563,-2481,15361,625,-13,480,1408,35664,-28,33,127,0,0,4159,439,0,2984,319,29,9437,-4,0,-6,0,83703,0
83703,896,-588,-713,-985,-821,-2289,15640,603,-35,372,1032,35665,-25,33,127,0,0,4159,-87,0,2984,319,29,9447,-4,0,-5,0,83703,0
83713,288,-1006,-346,-674,-130,-1812,15865,432,-131,30,-16,35659,-14,33,127,0,0,4091,-758,0,2984,319,29,9457,-4,0,-3,0,83703,0
83723,508,-1069,-252,-292,118,-1229,15836,-289,-647,-749,-656,35656,-38,33,127,0,0,4025,-626,0,2984,319,29,9467,-4,0,-2,0,83734,0
83733,-9,-856,298,-21,361,-815,15645,-444,-820,-424,-960,35675,-63,33,127,0,0,3963,-626,0,2984,319,29,9477,-4,0,-1,0,83734,0
83743,225,-821,304,27,629,-590,15413,-535,-298,-473,-1240,35686,-51,33,127,0,0,3895,-692,0,2984,319,29,9487,-4,0,0,0,83734,0
83753,421,-926,-51,182,931,22,15148,-617,-142,-545,-1424,35678,-27,33,127,0,0,3816,-791,0,2984,319,29,9497,-4,0,1,0,83734,0
83763,405,-923,-229,375,1098,497,14840,-704,-155,-546,-1632,35663,-14,33,127,0,0,3744,-725,0,2984,319,29,9507,-4,0,3,0,83765,0
83773,267,-770,-140,655,1303,1123,14503,-745,-134,-483,-1800,35675,-32,34,127,0,0,3671,-769,0,2984,319,29,9517,-4,0,5,0,83781,0
83783,299,-713,-17,708,1379,1523,14155,-777,-70,-481,-1840,35689,-36,33,127,0,0,3603,-681,0,2984,319,29,9527,-4,0,6,0,83781,0
83793,454,-874,33,805,1467,2199,13802,-774,-35,-428,-1808,35682,-19,33,127,0,0,3539,-659,0,2984,319,29,9537,-4,0,8,0,83781,0
83803,485,-954,-62,858,1480,2661,13450,-775,-1,-388,-1704,35665,-8,33,127,0,0,3482,-593,0,2984,319,29,9547,-4,0,10,0,83796,0
83813,479,-1005,-98,1011,1413,3287,13111,-742,28,-347,-1568,35658,-21,34,127,0,0,3429,-472,0,2984,319,29,9557,-4,0,12,0,83812,0
83823,467,-1035,-93,1116,1301,3653,12792,-687,64,-340,-1400,35670,-29,33,127,0,0,3383,-461,0,2984,319,29,9567,-4,0,14,0,83812,0
83833,501,-1144,-81,1236,1093,4203,12492,-649,80,-303,-1208,35690,-15,33,127,0,0,3348,-329,0,2984,319,29,9577,-4,0,16,0,83828,0
83843,565,-1255,-69,1323,978,4576,12229,-555,105,-290,-928,35682,10,33,127,0,0,3322,-241,0,2984,319,29,9587,-4,0,18,0,83828,0
83853,595,-1436,-51,1483,849,5097,12000,-478,134,-271,-744,35676,-3,33,127,0,0,3302,-208,0,2984,319,29,9597,-4,0,20,0,83843,0
83863,621,-1533,-3,1583,769,5401,11814,-371,149,-319,-480,35677,-37,33,127,0,0,3295,-65,0,2984,319,29,9607,-4,0,22,0,83859,0
83873,588,-1673,8,1722,661,5784,11669,-279,164,-240,-240,35677,-48,33,127,0,0,3287,-87,0,2984,319,29,9617,-4,0,24,0,83859,0
83883,621,-1769,-55,1812,616,5972,11580,-170,186,-190,-104,35669,-26,33,127,0,0,3287,0,0,2984,319,29,9627,-4,0,26,0,83874,0
83893,488,-1987,-103,1986,613,6129,11554,-11,227,-27,0,35675,-13,34,127,0,0,3289,0,0,2984,319,29,9637,-4,0,29,0,83890,0
83903,506,-2126,-98,2088,681,6215,11563,5,187,-99,-24,35687,1,33,127,0,0,3289,0,0,2984,319,29,9647,-4,0,31,0,83890,0
83913,401,-2271,-35,2196,811,6381,11563,21,26,61,24,35694,5,33,127,0,0,3300,65,0,2984,319,29,9657,-4,0,33,18,83906,0
83923,462,-2324,4,2239,976,6415,11589,90,43,315,200,35683,9,33,127,0,0,3313,109,0,2984,319,29,9667,-4,0,35,14,83906,0
83933,492,-2406,-22,2309,1255,6374,11655,154,124,286,200,35660,24,33,127,0,0,3331,142,0,2984,319,29,9677,-4,0,38,10,83937,0
83943,442,-2459,-19,2372,1464,6320,11739,187,103,185,72,35667,-12,34,127,0,0,3333,21,0,2984,319,29,9687,-4,0,40,7,83937,0
83953,430,-2462,21,2437,1780,6382,11773,14,-77,120,48,35679,-18,33,127,0,0,3333,-32,0,2984,319,29,9697,-4,0,42,4,83953,0
83963,388,-2401,80,2455,1932,6423,11757,-40,-210,201,80,35671,-15,34,127,0,0,3333,0,0,2984,319,29,9707,-4,0,44,2,83953,0
83973,374,-2378,170,2486,2043,6427,11761,10,-31,189,80,35667,-10,33,127,0,0,3333,0,0,2984,319,29,9717,-4,0,47,0,83968,0
83983,392,-2400,214,2491,2056,6434,11758,-12,26,164,16,35661,-13,33,127,0,0,3333,0,0,2984,319,29,9727,-4,0,49,-1,83968,0
83993,406,-2427,265,2497,2007,6460,11761,11,-4,184,40,35673,-31,33,127,0,0,3335,32,0,2984,319,29,9737,-4,0,52,-2,83968,0
84003,270,-2445,296,2486,1922,6524,11760,-6,10,245,64,35693,-30,33,127,0,0,3339,43,0,2984,319,29,9747,-4,0,54,-3,84046,0
84013,313,-2494,338,2471,1772,6641,11773,53,15,486,192,35688,-21,33,127,0,0,3357,175,0,2984,319,29,9757,-4,0,56,-4,84046,0
84023,243,-2511,371,2460,1632,6700,11833,169,130,545,384,35682,-29,33,127,0,0,3385,285,0,2984,319,29,9767,-4,0,58,-5,84062,0
84033,206,-2540,333,2467,1455,6638,11950,291,209,466,560,35674,-38,33,127,0,0,3427,384,0,2984,319,29,9777,-4,0,61,-5,84062,0
84043,214,-2567,327,2489,1333,6578,12102,353,171,469,696,35670,-45,33,127,0,0,3476,527,0,2984,319,29,9787,-4,0,63,-6,84062,0
84053,198,-2583,325,2541,1167,6399,12278,399,61,491,864,35659,-34,33,127,0,0,3526,494,0,2984,319,29,9797,-4,0,65,-6,84078,0
84063,179,-2542,318,2518,1096,6188,12481,458,71,489,968,35653,-13,34,127,0,0,3574,450,0,2984,319,29,9807,-4,0,67,-6,84078,0
84073,224,-2533,323,2395,1059,5776,12699,477,114,387,944,35660,-26,33,127,0,0,3610,329,0,2984,319,29,9817,-4,0,69,-6,84078,0
84083,236,-2522,266,2299,1067,5470,12910,446,15,343,792,35670,-28,33,127,0,0,3629,175,0,2984,319,29,9827,-4,0,70,-6,84078,0
84093,198,-2524,254,2207,1018,5017,13099,410,-54,313,560,35679,-21,33,127,0,0,3638,65,0,2984,319,29,9837,-4,0,72,-6,84078,0
84103,221,-2447,287,2132,866,4713,13256,310,-103,231,304,35684,1,33,127,0,0,3649,87,0,2984,319,29,9847,-4,0,74,-6,84109,0
84113,310,-2333,347,1948,550,4165,13366,208,-158,198,176,35687,-17,33,127,0,0,3658,98,0,2984,319,29,9857,-4,0,75,-6,84124,0
84123,394,-2307,372,1784,310,3700,13434,138,-164,202,160,35682,-50,33,127,0,0,3665,87,0,2984,319,29,9867,-4,0,75,-6,84124,0
84133,415,-2273,349,1501,-66,2911,13478,86,-132,189,136,35667,-53,33,127,0,0,3669,54,0,2984,319,29,9877,-4,0,75,-6,84124,0
84143,511,-2255,338,1277,-301,2396,13498,-10,-91,29,0,35663,-66,33,127,0,0,3667,-21,0,2984,319,29,9887,-4,0,75,-6,84124,0
84153,430,-2128,305,903,-590,1486,13488,4,-110,101,16,35675,-86,33,127,0,0,3667,0,0,2984,319,29,9897,-4,0,75,-6,84156,0
84163,459,-2110,233,643,-694,836,13489,-14,-25,50,16,35689,-103,33,127,0,0,3662,-21,0,2984,319,29,9907,-4,0,75,-6,84156,0
84173,413,-2124,172,289,-722,-143,13487,-13,3,-198,-80,35691,-96,33,127,0,0,3654,-76,0,2984,319,29,9917,-4,0,75,-6,84171,0
84183,412,-2050,143,77,-632,-750,13464,-46,-40,-315,-152,35667,-74,33,127,0,0,3640,-153,0,2984,319,29,9927,-4,0,75,-6,84171,0
84193,409,-1926,135,-199,-435,-1514,13421,-133,-77,-365,-120,35674,-96,33,127,0,0,3632,-65,0,2984,319,29,9937,-4,0,75,-6,84187,0
84203,334,-1961,111,-357,-240,-1960,13369,-111,-68,-322,-160,35687,-96,33,127,0,0,3627,-54,0,2984,319,29,9947,-4,0,75,-6,84202,0
84213,166,-3151,-50,-633,300,-2468,13325,-79,11,-286,-104,35700,-78,33,127,0,0,3623,0,0,2984,319,29,9957,-4,0,75,-6,84202,0
84223,-568,-7273,283,-1089,933,-2282,13301,3,54,370,496,35679,-43,33,127,0,0,3726,1197,0,958,0,30,7,1,0,75,-6,84218,0
84233,-936,-1376,2178,502,1204,-3720,13459,511,430,1044,1752,35656,-15,33,127,0,0,3849,1175,0,958,0,30,17,1,0,75,-6,84234,0
84243,215,-1053,1003,-236,657,-3850,13787,767,705,688,1976,35657,-23,33,127,0,0,3922,681,0,958,0,30,27,1,0,75,-6,84234,0
84253,-27,-1021,125,-1161,671,-2594,14153,815,346,560,2112,35671,-11,34,127,0,0,4016,966,0,958,0,30,37,1,0,75,-6,84234,0
84263,-938,-1117,-898,-1643,589,-2241,14553,905,131,699,2456,35673,1,33,127,0,0,4139,1263,0,958,0,30,47,1,0,75,-6,84265,0
84273,-967,-1958,-1686,-1295,1098,-2640,15027,1104,218,778,2880,35662,34,33,127,0,0,4273,1318,0,958,0,30,57,1,0,75,-6,84265,0
84283,-346,-2003,-1503,-966,1047,-2957,15582,1258,305,721,3096,35650,27,33,127,0,0,4401,1219,0,958,0,30,67,1,0,75,-6,84296,0
84293,425,-2324,-265,-527,526,-2804,16183,1324,230,633,3208,35657,19,33,127,0,0,4524,1230,0,958,0,30,77,1,0,75,-6,84296,0
84303,478,-2420,394,-526,51,-2783,16788,1334,76,591,3096,35649,20,33,127,0,0,4616,878,0,958,0,30,87,1,0,75,-6,84296,0
84313,740,-2517,174,-459,-835,-2916,17361,1225,-54,444,2792,35644,21,33,127,0,0,4682,637,0,958,0,30,97,1,0,75,-6,84296,0
84323,721,-2382,-137,-666,-1169,-2958,17870,1059,-205,320,2176,35631,22,33,127,0,0,4713,296,0,958,0,30,107,1,0,75,-6,84312,0
84333,120,-2308,191,-567,-888,-3016,18286,843,-316,221,1496,35654,-24,33,127,0,0,4719,65,0,958,0,30,117,1,0,75,-6,84343,0
84343,256,-2159,159,-516,-638,-3017,18593,614,-390,184,824,35665,-20,33,127,0,0,4706,-142,0,958,0,30,127,1,0,75,-6,84343,0
84353,-62,-2109,236,-297,-274,-3240,18800,391,-391,93,56,35662,-16,33,127,0,0,4669,-395,0,958,0,30,137,1,0,75,-6,84367,0
84363,451,-2149,448,-195,-249,-3136,18813,-172,-578,-608,-424,35652,-37,34,127,0,0,4629,-406,0,958,0,30,147,1,0,75,-6,84398,0
84373,247,-1833,718,-111,-17,-3454,18675,-335,-684,-415,-800,35652,-48,33,127,0,0,4548,-889,0,958,0,30,157,1,0,75,-6,84398,0
84383,409,-1995,1010,-152,-29,-3097,18465,-522,-380,-612,-1392,35653,-46,33,127,0,0,4449,-988,0,958,0,30,167,1,0,75,-6,84398,0
84393,591,-2034,874,-404,-91,-2697,18165,-719,-320,-580,-1760,35654,-15,33,127,0,0,4368,-812,0,958,0,30,177,1,0,75,-6,84414,0
84403,38,-1936,674,-491,-152,-2468,17811,-796,-267,-456,-1936,35649,1,33,127,0,0,4289,-769,0,958,0,30,187,1,0,75,-6,84414,0
84413,64,-1955,293,-515,-71,-2285,17432,-842,-133,-383,-1832,35655,-30,33,127,0,0,4223,-637,0,958,0,30,197,1,0,75,-6,84414,0
84423,54,-1922,97,-472,-16,-2207,17053,-834,-38,-328,-1792,35658,-32,33,127,0,0,4152,-692,0,958,0,30,207,1,0,75,-6,84414,0
84433,39,-2010,249,-312,-23,-2020,16681,-815,17,-329,-1672,35669,-23,33,127,0,0,4091,-604,0,958,0,30,217,1,0,75,-6,84414,0
84443,19,-1942,380,-300,-35,-1926,16320,-798,37,-362,-1704,35678,-17,33,127,0,0,4029,-615,0,958,0,30,227,1,0,75,-6,84429,0
84453,117,-2079,485,-332,-6,-1832,15966,-769,32,-310,-1512,35680,-21,33,127,0,0,3977,-527,0,958,0,30,237,1,0,75,-6,84445,0
84463,264,-2078,452,-337,10,-1814,15638,-712,66,-324,-1440,35677,-47,33,127,0,0,3924,-560,0,958,0,30,247,1,0,75,-6,84445,0
84473,301,-2090,452,-334,-13,-1691,15333,-658,95,-342,-1344,35668,-8,33,127,0,0,3869,-538,0,958,0,30,257,1,0,75,-6,84461,0
84483,289,-2050,480,-325,-38,-1564,15045,-625,77,-400,-1304,35670,-28,33,127,0,0,3823,-450,0,958,0,30,267,1,0,75,-6,84492,0
84493,342,-2037,362,-342,-51,-1446,14770,-602,52,-403,-1216,35660,-21,33,127,0,0,3779,-428,0,958,0,30,277,1,0,75,-6,84492,0
84503,360,-1944,285,-324,-37,-1398,14510,-561,48,-385,-1160,35669,-46,33,127,0,0,3739,-384,0,958,0,30,287,1,0,75,-6,84492,0
84513,387,-1868,207,-285,-28,-1247,14268,-515,63,-418,-1088,35665,-48,33,127,0,0,3700,-351,0,958,0,30,297,1,0,75,-6,84492,0
84523,372,-1911,251,-243,-28,-1143,14039,-495,61,-392,-992,35660,-22,33,127,0,0,3667,-296,0,958,0,30,307,1,0,75,-6,84523,0
84533,413,-1965,318,-178,-48,-1047,13823,-463,48,-393,-920,35654,-18,34,127,0,0,3634,-318,0,958,0,30,317,1,0,75,-6,84523,0
84543,392,-1953,322,-163,-42,-1029,13623,-444,51,-393,-848,35661,-23,33,127,0,0,3605,-274,0,958,0,30,327,1,0,75,-6,84539,0
84553,296,-1995,293,-146,-51,-1012,13436,-405,44,-396,-728,35672,-29,33,127,0,0,3574,-285,0,958,0,30,337,1,0,75,-6,84539,0
84563,304,-1996,289,-125,-55,-996,13262,-381,48,-406,-680,35672,-28,33,127,0,0,3550,-263,0,958,0,30,347,1,0,75,-6,84570,0
84573,289,-1965,322,-97,-46,-984,13094,-375,33,-434,-656,35667,-10,33,127,0,0,3522,-252,0,958,0,30,357,1,0,75,-6,84570,0
84583,277,-1958,281,-88,-56,-999,12931,-353,15,-419,-632,35660,-16,33,127,0,0,3491,-274,0,958,0,30,367,1,0,75,-6,84570,0
84593,323,-1947,292,-75,-38,-1024,12771,-345,15,-424,-600,35674,-27,33,127,0,0,3462,-274,0,958,0,30,377,1,0,75,-6,84570,0
84603,351,-1973,332,-71,-22,-1025,12618,-330,16,-442,-568,35676,-38,33,127,0,0,3429,-329,0,958,0,30,387,1,0,75,-6,84601,0
84613,359,-1973,375,-73,-51,-1022,12467,-328,15,-469,-576,35673,-30,33,127,0,0,3401,-296,0,958,0,30,397,1,0,75,-6,84601,0
84623,354,-1977,364,-76,-59,-1005,12316,-342,0,-456,-568,35664,-16,33,127,0,0,3375,-274,0,958,0,30,407,1,0,75,-6,84617,0
84633,291,-1973,315,-60,-57,-1012,12170,-321,8,-440,-584,35667,-14,33,127,0,0,3344,-329,0,958,0,30,417,1,0,75,-6,84617,0
84643,292,-1952,271,-45,-55,-1038,12018,-326,5,-475,-576,35673,-8,33,127,0,0,3320,-252,0,958,0,30,427,1,0,75,-6,84648,0
84653,285,-1975,266,-19,-50,-1058,11869,-333,-5,-503,-608,35669,-10,33,127,0,0,3287,-274,0,958,0,30,437,1,0,75,-6,84648,0
84663,296,-1987,310,-14,-47,-1056,11717,-337,-5,-455,-600,35666,-37,33,127,0,0,3254,-351,0,958,0,30,447,1,0,75,-6,84648,0
84673,341,-2017,418,-40,-42,-1096,11564,-346,-3,-512,-616,35666,-47,33,127,0,0,3227,-274,0,958,0,30,457,1,0,75,-6,84679,0
84683,318,-2028,452,-58,-43,-1112,11410,-338,-2,-494,-624,35665,-22,33,127,0,0,3194,-318,0,958,0,30,467,1,0,75,-6,84679,0
84693,386,-2011,494,-79,-79,-1125,11248,-350,-16,-459,-592,35654,6,33,127,0,0,3166,-274,0,958,0,30,477,1,0,75,-6,84679,0
84703,390,-2016,518,-105,-99,-1113,11093,-338,2,-492,-584,35655,-4,33,127,0,0,3133,-329,0,958,0,30,487,1,0,75,-6,84679,0
84713,371,-2017,487,-151,-122,-1088,10944,-339,23,-515,-576,35667,-41,33,127,0,0,3100,-318,0,958,0,30,497,1,0,75,-6,84711,0
84723,356,-2001,463,-169,-139,-1087,10797,-331,7,-537,-640,35676,-45,33,127,0,0,3069,-318,0,958,0,30,507,1,0,75,-6,84711,0
84733,358,-2017,454,-212,-148,-1130,10648,-315,-1,-534,-616,35673,-23,33,127,0,0,3041,-296,0,958,0,30,517,1,0,75,-6,84789,0
84743,337,-2009,469,-225,-173,-1141,10503,-331,11,-557,-592,35655,6,33,127,0,0,3008,-351,0,958,0,30,527,1,0,75,-6,84789,0
84753,272,-2027,429,-277,-203,-1186,10353,-340,-11,-544,-624,35653,-21,34,127,0,0,2979,-318,0,958,0,30,537,1,0,75,-6,84804,0
84763,232,-2038,428,-332,-208,-1244,10212,-302,5,-584,-640,35666,-44,33,127,0,0,2950,-274,0,958,0,30,547,1,0,75,-6,84804,0
84773,208,-2035,406,-332,-215,-1389,10072,-298,21,-589,-664,35660,-42,33,127,0,0,2920,-329,0,958,0,30,557,1,0,75,-6,84804,0
84783,203,-1966,403,-364,-234,-1476,9921,-345,-20,-529,-648,35654,-13,33,127,0,0,2885,-351,0,958,0,30,567,1,0,75,-6,84804,0
84793,112,-2060,530,-408,-287,-1576,9769,-351,-28,-554,-664,35651,-2,33,127,0,0,2854,-329,0,958,0,30,577,1,0,75,-6,84804,0
84803,88,-2087,610,-455,-309,-1671,9610,-354,-14,-563,-664,35667,-19,33,127,0,0,2821,-340,0,958,0,30,587,1,0,75,-6,84804,0
84813,191,-2100,684,-524,-435,-1888,9455,-335,-1,-543,-680,35671,-21,33,127,0,0,2786,-351,0,958,0,30,597,1,0,75,-6,84804,0
84823,392,-2249,794,-500,-672,-2037,9299,-330,5,-537,-680,35665,-17,33,127,0,0,2748,-362,0,958,0,30,607,1,0,75,-6,84820,0
84833,139,-2249,846,-568,-936,-2043,9138,-364,-7,-517,-728,35665,-3,33,127,0,0,2720,-274,0,958,0,30,617,1,0,75,-6,84820,0
84843,85,-2233,742,-746,-1123,-2187,8983,-346,-1,-501,-568,35676,0,33,127,0,0,2698,-252,0,958,0,30,627,1,0,75,-6,84851,0
84853,-159,-2450,547,-924,-982,-2372,8840,-290,31,-465,-496,35684,-13,33,127,0,0,2678,-175,0,958,0,30,637,1,0,75,-6,84851,0
84863,-169,-2305,322,-957,-917,-2668,8720,-238,72,-510,-400,35679,-27,33,127,0,0,2658,-230,0,958,0,30,647,1,0,75,-6,84851,0
84873,-20,-2296,150,-983,-904,-2993,8615,-238,70,-531,-440,35670,-43,33,127,0,0,2638,-208,0,958,0,30,657,1,0,75,-6,84851,0
84883,8,-2334,236,-982,-968,-3162,8512,-212,23,-467,-384,35679,-52,33,127,0,0,2619,-208,0,958,0,30,667,1,0,75,-6,84882,0
84893,126,-2412,458,-985,-1049,-3422,8416,-216,18,-509,-368,35682,-39,33,127,0,0,2601,-164,0,958,0,30,677,1,0,75,-6,84882,0
84903,234,-2490,486,-1057,-1069,-3584,8322,-187,22,-451,-328,35677,-17,33,127,0,0,2586,-153,0,958,0,30,687,1,0,75,-6,84882,0
84913,127,-2466,534,-1165,-1198,-3636,8252,-161,54,-541,-288,35665,18,33,127,0,0,2577,-98,0,958,0,30,697,1,0,75,-6,84929,0
84923,130,-2345,481,-1174,-1229,-3658,8179,-152,35,-352,-168,35665,-4,33,127,0,0,2583,54,0,958,0,30,707,1,0,4,0,84945,0
84933,108,-2454,501,-1207,-1223,-3952,8168,63,130,-98,8,35677,-31,33,127,0,0,2597,131,0,958,0,30,717,1,0,9,0,84945,0
84943,5,-2853,465,-1368,-1389,-3857,8199,26,212,39,104,35674,-26,34,127,0,0,2614,208,0,958,0,30,727,1,0,11,0,84945,0
84953,236,-3011,730,-1412,-1427,-4021,8234,120,52,479,320,35663,-25,33,127,0,0,2652,373,0,958,0,30,737,1,0,14,0,84945,0
84963,352,-2946,381,-1432,-1534,-4282,8346,289,184,468,552,35674,-30,33,127,0,0,2698,461,0,958,0,30,747,1,0,15,0,84945,0
84973,176,-2900,159,-1380,-1662,-4414,8509,365,242,393,664,35699,-50,34,127,0,0,2750,516,0,958,0,30,757,1,0,18,0,84992,0
84983,59,-3203,312,-1415,-1987,-4327,8691,407,116,452,992,35708,-33,33,127,0,0,2832,823,0,958,0,30,767,1,0,21,0,84992,0
84993,-352,-3642,918,-1357,-2267,-4245,8923,551,127,665,1472,35688,-25,33,127,0,0,2939,1131,0,958,0,30,777,1,0,24,0,85007,0
85003,-222,-3278,984,-1408,-2326,-4588,9247,789,281,844,2184,35663,-28,33,127,0,0,3089,1505,0,958,0,30,787,1,0,27,0,85007,0
85013,-504,-3347,595,-1480,-2598,-4876,9696,1063,441,805,2784,35659,-19,33,127,0,0,3240,1560,0,958,0,30,797,1,0,31,0,85007,0
85023,-206,-3462,247,-1299,-2783,-5127,10256,1316,457,901,3504,35662,11,33,127,0,0,3412,1702,0,958,0,30,807,1,0,35,0,85007,0
85033,130,-3673,61,-871,-2526,-5675,10939,1554,447,629,3744,35670,33,33,127,0,0,3566,1538,0,958,0,30,817,1,0,40,0,85023,0
85043,761,-3774,267,-703,-2584,-6079,11667,1622,303,517,3816,35661,55,33,127,0,0,3704,1340,0,958,0,30,827,1,0,44,0,85070,0
85053,1092,-3508,852,-838,-2950,-6096,12389,1568,58,416,3656,35674,28,33,127,0,0,3821,1153,0,958,0,30,837,1,0,50,0,85070,0
85063,1022,-3238,1101,-1080,-3278,-5613,13068,1454,-179,408,3576,35673,8,33,127,0,0,3941,1241,0,958,0,30,847,1,0,54,0,85070,0
85073,528,-2678,1003,-1358,-3501,-4744,13717,1430,-60,554,3584,35676,9,33,127,0,0,4073,1329,0,958,0,30,857,1,0,60,0,85070,0
85083,281,-2181,824,-1424,-3520,-4354,14375,1460,-30,590,3664,35667,24,33,127,0,0,4214,1439,0,958,0,30,867,1,0,65,0,85086,0
85093,20,-814,826,-1225,-3463,-3509,15058,1509,72,578,3736,35653,26,33,127,0,0,4346,1340,0,958,0,30,877,1,0,72,0,85086,0
85103,2536,-901,-18,-1141,-2426,-3686,15762,1573,89,504,3472,35657,24,33,127,0,0,4409,439,0,958,0,30,887,1,0,77,0,85086,0
85113,1174,-784,-440,-1466,-1594,-2847,16392,1266,-84,-27,1656,35664,22,34,127,0,0,4343,-714,0,958,0,30,897,0,0,84,0,85101,0
85123,769,-848,-282,-1045,-1146,-1856,16796,706,-579,-491,-32,35671,0,33,127,0,0,4262,-791,0,958,0,30,907,0,0,89,0,85117,0
85133,151,-607,-350,-635,-689,-1289,16745,-369,-1311,-890,-800,35675,-13,33,127,0,0,4177,-867,0,958,0,30,917,0,0,96,79,85117,0
85143,-248,-469,-38,-380,-336,-1065,16510,-582,-1261,-608,-1544,35679,-46,34,127,0,0,4064,-1120,0,958,0,30,927,0,0,101,76,85132,0
85153,267,-532,36,-248,273,-400,16210,-792,-506,-636,-2040,35677,-22,33,127,0,0,3948,-1153,0,958,0,30,937,0,0,108,71,85148,0
85163,406,-520,-26,-139,685,319,15795,-965,-365,-595,-2368,35665,-4,33,127,0,0,3843,-1065,0,958,0,30,947,0,0,113,68,85148,0
85173,276,-284,-148,62,1252,1280,15327,-1052,-260,-485,-2464,35659,3,34,127,0,0,3748,-922,0,958,0,30,957,0,0,120,63,85148,0
85183,209,-198,-222,198,1579,1814,14846,-1064,-113,-441,-2432,35667,-8,33,127,0,0,3660,-889,0,958,0,30,967,0,0,125,59,85211,0
85193,327,-190,-197,361,1971,2581,14370,-1043,-3,-486,-2512,35670,-16,33,127,0,0,3572,-856,0,958,0,30,977,0,0,132,54,85211,0
85203,409,-203,-185,473,2189,3158,13900,-1023,19,-396,-2416,35663,-10,33,127,0,0,3487,-845,0,958,0,30,987,0,0,137,51,85211,0
85213,411,-304,-166,638,2410,4065,13442,-999,36,-382,-2240,35659,7,33,127,0,0,3407,-812,0,958,0,30,997,0,0,144,46,85211,0
85223,383,-348,-185,760,2448,4628,13002,-964,57,-390,-2160,35658,-7,33,127,0,0,3339,-659,0,958,0,30,1007,0,0,148,42,85211,0
85233,400,-431,-102,913,2416,5366,12578,-915,56,-317,-1984,35672,-11,33,127,0,0,3276,-626,0,958,0,30,1017,0,0,155,38,85226,0
85243,475,-500,-103,953,2340,5844,12181,-855,90,-369,-1824,35671,-4,33,127,0,0,3218,-549,0,958,0,30,1027,0,0,160,34,85242,0
85253,490,-711,-50,1029,2161,6560,11808,-799,97,-344,-1632,35672,-8,33,127,0,0,3170,-483,0,958,0,30,1037,0,0,167,30,85242,0
85263,485,-853,-63,1092,1947,7044,11472,-710,120,-319,-1400,35670,-10,33,127,0,0,3128,-384,0,958,0,30,1047,0,0,171,27,85242,0
85273,595,-1100,-18,1212,1554,7694,11172,-629,144,-251,-1040,35674,-27,33,127,0,0,3109,-186,0,958,0,30,1057,0,0,178,23,85273,0
85283,693,-1262,23,1299,1321,8078,10932,-488,190,-243,-616,35667,-6,33,127,0,0,3104,-54,0,958,0,30,1067,0,0,183,20,85273,0
85293,889,-1472,106,1427,1018,8593,10759,-347,242,-242,-336,35657,3,33,127,0,0,3102,-43,0,958,0,30,1077,0,0,189,17,85273,0
85303,983,-1636,138,1511,829,8886,10657,-165,257,-154,-24,35664,1,33,127,0,0,3104,10,0,958,0,30,1087,0,0,194,15,85289,0
85313,916,-1911,153,1625,550,9202,10657,33,338,-326,-88,35665,-3,34,127,0,0,3106,10,0,958,0,30,1097,0,0,201,12,85304,0
85323,651,-2150,103,1716,353,9383,10667,4,185,-329,-96,35677,-7,33,127,0,0,3113,109,0,958,0,30,1107,0,0,205,10,85304,0
85333,755,-2430,12,1838,236,9524,10681,65,11,107,144,35667,-5,33,127,0,0,3148,340,0,958,0,30,1117,0,0,212,7,85351,0
85343,742,-2592,-6,1946,276,9518,10769,250,168,390,392,35664,8,33,127,0,0,3188,395,0,958,0,30,1127,0,0,216,6,85351,0
85353,775,-2767,-31,2101,538,9250,10903,310,236,396,544,35666,7,33,127,0,0,3225,351,0,958,0,30,1137,0,0,222,4,85351,0
85363,802,-2858,-24,2218,773,9053,11067,355,130,317,480,35670,-16,33,127,0,0,3251,252,0,958,0,30,1147,0,0,227,3,85351,0
85373,691,-2900,14,2361,1166,8799,11228,341,32,279,320,35663,-50,33,127,0,0,3265,87,0,958,0,30,1157,0,0,233,2,85351,0
85383,628,-2864,33,2442,1420,8629,11357,267,-78,202,184,35667,-40,33,127,0,0,3273,76,0,958,0,30,1167,0,0,237,1,85382,0
85393,534,-2822,43,2517,1812,8280,11437,126,-163,216,144,35670,-52,33,127,0,0,3278,32,0,958,0,30,1177,0,0,242,0,85382,0
85403,504,-2860,75,2553,2053,8089,11478,83,-175,113,32,35674,-42,33,127,0,0,3280,10,0,958,0,30,1187,0,0,246,0,85398,0
85413,515,-2805,165,2585,2366,7865,11476,-26,-150,165,24,35665,-21,34,127,0,0,3280,10,0,958,0,30,1197,0,0,251,0,85398,0
85423,435,-2789,235,2608,2497,7700,11479,4,-68,142,-16,35662,8,33,127,0,0,3278,-10,0,958,0,30,1207,0,0,255,-1,85414,0
85433,458,-2788,286,2592,2584,7387,11477,-3,2,128,64,35653,26,33,127,0,0,3280,54,0,958,0,30,1217,0,0,260,-1,85429,0
85443,426,-2809,324,2569,2567,7180,11482,-3,8,159,8,35659,-6,33,127,0,0,3280,32,0,958,0,30,1227,0,0,263,-1,85429,0
85453,500,-2828,399,2477,2358,6984,11482,19,7,319,200,35664,-9,33,127,0,0,3295,175,0,958,0,30,1237,0,0,267,-2,85523,0
85463,363,-2748,425,2351,2140,6753,11527,140,90,555,376,35660,-8,33,127,0,0,3328,318,0,958,0,30,1247,0,0,270,-2,85523,0
85473,444,-2756,474,2065,1710,6266,11639,275,220,518,568,35656,1,33,127,0,0,3372,428,0,958,0,30,1257,0,0,273,-2,85523,0
85483,497,-2807,468,1870,1375,5797,11797,385,211,487,720,35656,-18,33,127,0,0,3414,439,0,958,0,30,1267,0,0,275,-2,85523,0
85493,553,-2806,411,1611,900,4922,11980,419,137,408,752,35660,-37,33,127,0,0,3456,373,0,958,0,30,1277,0,0,278,-2,85523,0
85503,591,-2645,333,1406,584,4230,12174,430,65,345,720,35650,-45,33,127,0,0,3480,208,0,958,0,30,1287,0,0,280,-2,85539,0
85513,640,-2458,294,1080,95,3109,12360,409,5,342,584,35645,-26,33,127,0,0,3506,197,0,958,0,30,1297,0,0,281,-2,85539,0
85523,714,-2407,261,857,-219,2339,12534,375,-33,265,440,35653,-23,33,127,0,0,3524,175,0,958,0,30,1307,0,0,281,-2,85539,0
85533,692,-2291,274,500,-608,1187,12683,309,-73,195,224,35661,-34,33,127,0,0,3537,120,0,958,0,30,1317,0,0,281,-2,85539,0
85543,658,-2238,318,243,-827,459,12788,189,-139,192,136,35659,-48,33,127,0,0,3544,98,0,958,0,30,1327,0,0,281,-2,85539,0
85553,586,-2211,387,-127,-1004,-546,12844,100,-184,154,72,35654,-41,33,127,0,0,3548,32,0,958,0,30,1337,0,0,281,-2,85539,0
85563,581,-2195,360,-328,-1056,-1121,12861,8,-164,248,88,35663,-38,33,127,0,0,3552,21,0,958,0,30,1347,0,0,281,-2,85601,0
85573,545,-2143,323,-509,-1053,-1872,12864,11,-94,407,192,35676,-38,33,127,0,0,3563,98,0,958,0,30,1357,0,0,281,-2,85601,0
85583,533,-2062,328,-560,-1001,-2279,12888,66,25,460,208,35676,-15,33,127,0,0,3570,76,0,958,0,30,1367,0,0,281,-2,85601,0
85593,534,-1941,350,-600,-875,-2712,12944,130,110,347,240,35663,-22,33,127,0,0,3585,164,0,958,0,30,1377,0,0,281,-2,85617,0
85603,431,-2076,310,-622,-687,-2906,13000,134,58,441,296,35649,-14,33,127,0,0,3607,241,0,958,0,30,1387,0,0,281,-2,85617,0
85613,-355,-3659,58,-702,-119,-2973,13085,222,58,549,696,35655,-34,33,127,0,0,3638,318,0,1313,317,31,9,1,1,281,-2,85617,0
85623,-1189,-5782,916,-893,776,-2079,13275,551,278,1605,2480,35659,6,33,127,0,0,3763,1384,0,1313,317,31,19,1,1,281,-2,85617,0
85633,-1443,-1014,1745,315,1056,-2991,13781,1327,862,1554,3984,35650,49,33,127,0,0,3871,1021,0,1313,317,31,29,1,1,281,-2,85617,0
85643,-371,-1394,426,-265,640,-2926,14516,1693,1057,906,4520,35651,69,33,127,0,0,3959,878,0,1313,317,31,39,1,1,281,-2,85648,0
85653,-43,-860,-946,-1023,794,-2208,15366,1946,599,892,5008,35649,83,33,127,0,0,4073,1153,0,1313,317,31,49,1,1,281,-2,85648,0
85663,-578,-1608,-1115,-1300,891,-2012,16327,2181,426,962,5568,35647,77,33,127,0,0,4198,1296,0,1313,317,31,59,1,1,281,-2,85648,0
85673,-598,-2317,-1134,-782,1130,-2449,17379,2375,384,994,5984,35627,109,33,127,0,0,4324,1241,0,1313,317,31,69,1,1,281,-2,85664,0
85683,165,-1996,-746,-543,1019,-2649,18485,2461,268,767,6088,35611,126,33,127,0,0,4431,1043,0,1313,317,31,79,1,1,281,-2,85679,0
85693,791,-1904,-387,-435,506,-2354,19596,2387,99,300,5136,35617,104,33,127,0,0,4524,944,0,1313,317,31,89,1,1,281,-2,85679,0
85703,690,-2272,-58,-451,39,-2101,20561,1987,-322,62,4064,35647,41,33,127,0,0,4603,802,0,1313,317,31,99,1,1,281,-2,85695,0
85713,445,-2658,154,-281,-686,-2126,21335,1590,-680,74,3288,35655,5,33,127,0,0,4677,714,0,1313,317,31,109,1,1,281,-2,85695,0
85723,297,-2404,128,-373,-1074,-2276,21951,1254,-662,159,2568,35664,-10,33,127,0,0,4719,406,0,1313,317,31,119,1,1,281,-2,85710,0
85733,131,-2314,50,-334,-1312,-2275,22437,985,-543,177,1936,35669,-15,33,127,0,0,4739,186,0,1313,317,31,129,1,1,281,-2,85742,0
85743,-6,-2466,218,-157,-1093,-2301,22804,731,-469,183,1232,35676,-38,33,127,0,0,4746,32,0,1313,317,31,139,1,1,281,-2,85742,0
85753,-286,-2161,594,69,-527,-2382,23067,515,-419,191,680,35679,-21,34,127,0,0,4739,-43,0,1313,317,31,149,1,1,281,-2,85742,0
85763,-331,-2105,586,109,-80,-2740,23242,333,-364,145,96,35674,-3,33,127,0,0,4715,-285,0,1313,317,31,159,1,1,281,-2,85742,0
85773,368,-1869,657,81,39,-2664,23247,-155,-511,-453,-328,35676,-11,33,127,0,0,4673,-395,0,1313,317,31,169,1,1,281,-2,85773,0
85783,436,-1922,611,-36,-147,-2388,23113,-319,-616,-364,-552,35680,-21,34,127,0,0,4636,-373,0,1313,317,31,179,1,1,281,-2,85773,0
85793,414,-2218,594,-160,-395,-2051,22955,-372,-261,-380,-592,35685,-30,33,127,0,0,4598,-329,540,1313,317,31,189,1,1,281,-2,85773,0
85803,-214,-2058,532,-115,-151,-2300,22842,-132,60,358,120,35673,-21,33,127,0,0,4541,-615,740,1313,317,31,199,1,1,281,-2,85804,0
85813,-268,-1941,452,-71,68,-2194,22894,175,454,422,336,35669,-51,33,127,0,0,4475,-659,940,1313,317,31,209,1,1,281,-2,85804,0
85823,1473,-1707,510,-128,-226,-1533,22938,26,259,675,136,35677,-53,33,127,0,0,4464,-32,1140,1313,317,31,219,1,1,281,-2,85898,0
85833,96,-2152,667,-169,-758,-1309,22844,-292,-337,717,-40,35685,-67,33,127,0,0,4442,-186,1340,1313,317,31,229,1,1,281,-2,85898,0
85843,-508,-2134,260,-211,-376,-1536,22627,-555,-500,713,-216,35676,-58,33,127,0,0,4405,-395,1500,1313,317,31,239,1,1,281,-2,85898,0
85853,-465,-1907,-193,-11,306,-2112,22322,-715,-399,723,-272,35673,-55,33,127,0,0,4348,-615,1500,1313,317,31,249,1,1,281,-2,85913,0
85863,-43,-1910,-41,148,359,-2094,21971,-789,-238,816,-352,35669,-82,33,127,0,0,4275,-725,1500,1313,317,31,259,1,1,281,-2,85913,0
85873,-160,-1947,569,194,111,-1814,21623,-739,-67,869,-160,35681,-79,33,127,0,0,4205,-681,1500,1313,317,31,269,1,1,281,-2,85913,0
85883,-203,-1981,759,92,-19,-1601,21373,-443,220,1117,80,35679,-65,33,127,0,0,4159,-450,1500,1313,317,31,279,1,1,281,-2,85913,0
85893,310,-2082,716,-93,-278,-1305,21249,-240,446,961,72,35673,-59,33,127,0,0,4133,-241,1500,1313,317,31,289,1,1,281,-2,85913,0
85903,415,-2060,554,-131,-391,-1186,21128,-302,202,869,0,35670,-57,34,127,0,0,4113,-219,1500,1313,317,31,299,1,1,281,-2,85913,0
85913,-187,-2068,376,-81,-113,-1330,20933,-481,-170,802,-104,35676,-86,33,127,0,0,4080,-340,1500,1313,317,31,309,1,1,281,-2,85913,0
85923,-178,-2042,316,-25,137,-1531,20670,-606,-271,740,-128,35682,-68,33,127,0,0,4027,-505,1500,1313,317,31,319,1,1,281,-2,85929,0
85933,174,-2001,428,-7,222,-1526,20390,-617,-150,850,-128,35694,-72,33,127,0,0,3977,-549,1500,1313,317,31,329,1,1,281,-2,85929,0
85943,184,-1948,572,-22,33,-1324,20149,-470,61,1006,0,35701,-61,33,127,0,0,3930,-439,1500,1313,317,31,339,1,1,281,-2,85929,0
85953,235,-1918,416,-117,-185,-1001,19994,-287,266,978,80,35715,-57,33,127,0,0,3900,-318,1500,1313,317,31,349,1,1,281,-2,85945,0
85963,205,-1931,282,-112,-212,-917,19887,-222,249,904,96,35716,-36,33,127,0,0,3882,-230,1500,1313,317,31,359,1,1,281,-2,85960,0
85973,370,-1937,161,-73,-97,-916,19789,-235,87,895,56,35702,-27,33,127,0,0,3864,-186,1500,1313,317,31,369,1,1,281,-2,85960,0
85983,191,-1973,238,-32,-40,-940,19649,-335,-76,844,0,35700,-78,34,127,0,0,3838,-274,1500,1313,317,31,379,1,1,281,-2,85976,0
85993,136,-2037,379,-12,35,-976,19472,-401,-154,861,-8,35693,-85,33,127,0,0,3807,-318,1500,1313,317,31,389,1,1,281,-2,85992,0
86003,226,-2056,443,-21,46,-942,19300,-360,-47,873,40,35697,-83,33,127,0,0,3777,-307,1500,1313,317,31,399,1,1,281,-2,85992,0
86013,287,-2011,531,-42,-65,-771,19179,-233,124,925,120,35687,-48,33,127,0,0,3752,-219,1500,1313,317,31,409,1,1,281,-2,86007,0
86023,323,-1995,537,-68,-185,-682,19085,-198,154,893,104,35678,-9,33,127,0,0,3735,-164,1500,1313,317,31,419,1,1,281,-2,86007,0
86033,144,-1985,393,-89,-135,-721,18993,-227,41,891,64,35676,-34,33,127,0,0,3719,-175,1500,1313,317,31,429,1,1,281,-2,86023,0
86043,26,-1954,291,-87,-59,-781,18876,-274,-62,857,64,35683,-56,33,127,0,0,3697,-197,1500,1313,317,31,439,1,1,281,-2,86023,0
86053,299,-1949,249,-71,2,-856,18742,-304,-79,869,40,35683,-73,33,127,0,0,3671,-252,1500,1313,317,31,449,1,1,281,-2,86054,0
86063,251,-1960,279,-74,-11,-825,18597,-318,-30,875,32,35682,-56,33,127,0,0,3645,-274,1500,1313,317,31,459,1,1,281,-2,86054,0
86073,77,-2015,300,-61,-39,-780,18460,-266,-20,878,88,35678,-44,33,127,0,0,3616,-274,1500,1313,317,31,469,1,1,281,-2,86054,0
86083,310,-2017,351,-45,-72,-749,18354,-221,81,891,128,35695,-58,33,127,0,0,3594,-230,1500,1313,317,31,479,1,1,281,-2,86085,0
86093,252,-2005,407,-42,-106,-701,18264,-195,88,902,88,35695,-27,33,127,0,0,3579,-164,1550,1313,317,31,489,1,1,281,-2,86085,0
86103,302,-2035,402,-43,-111,-742,18157,-250,-5,926,56,35685,-45,33,127,0,0,3563,-186,1630,1313,317,31,499,1,1,281,-2,86085,0
86113,235,-2016,392,-61,-23,-825,18035,-257,-66,984,80,35671,-43,33,127,0,0,3537,-241,1720,1313,317,31,509,1,1,281,-2,86117,0
86123,170,-1991,425,-70,-18,-818,17916,-251,-14,1043,88,35667,-62,33,127,0,0,3515,-252,1820,1313,317,31,519,1,1,281,-2,86117,0
86133,284,-2003,504,-122,-101,-767,17808,-235,38,1111,80,35676,-46,33,127,0,0,3493,-186,1910,1313,317,31,529,1,1,281,-2,86132,0
86143,172,-2002,513,-168,-149,-774,17705,-220,25,1152,136,35676,-14,33,127,0,0,3471,-208,2010,1313,317,31,539,1,1,281,-2,86132,0
86153,180,-1998,429,-207,-168,-817,17613,-209,34,1229,128,35668,-16,34,127,0,0,3454,-175,2120,1313,317,31,549,1,1,281,-2,86132,0
86163,193,-1998,420,-212,-205,-859,17518,-238,-1,1287,112,35685,-33,33,127,0,0,3432,-219,2230,1313,317,31,559,1,1,281,-2,86148,0
86173,184,-2021,458,-230,-174,-1007,17394,-299,-64,1349,72,35697,-72,33,127,0,0,3407,-241,2360,1313,317,31,569,1,1,281,-2,86148,0
86183,39,-2039,473,-249,-149,-1106,17239,-364,-100,1420,64,35695,-95,33,127,0,0,3377,-296,2500,1313,317,31,579,1,1,281,-2,86179,0
86193,126,-2022,480,-316,-175,-1244,17072,-363,-77,1529,72,35685,-79,33,127,0,0,3346,-329,2660,1313,317,31,589,1,1,281,-2,86179,0
86203,114,-1986,510,-396,-234,-1305,16903,-374,-25,1623,80,35674,-72,33,127,0,0,3317,-340,2840,1313,317,31,599,1,1,281,-2,86179,0
86213,49,-1983,583,-531,-328,-1375,16737,-373,-4,1744,64,35681,-64,33,127,0,0,3282,-362,3020,1313,317,31,609,1,1,281,-2,86210,0
86223,95,-1966,514,-576,-334,-1512,16559,-405,-27,1819,72,35679,-56,33,127,0,0,3247,-384,3110,1313,317,31,619,1,1,281,-2,86226,0
86233,10,-1926,427,-646,-275,-1788,16348,-499,-95,1818,8,35673,-59,33,127,0,0,3210,-417,3210,1313,317,31,629,1,1,281,-2,86242,0
86243,46,-1942,422,-665,-247,-2011,16075,-643,-196,1762,-24,35667,-44,33,127,0,0,3153,-582,3310,1313,317,31,639,1,1,281,-2,86257,0
86253,-22,-1970,496,-732,-232,-2292,15750,-734,-223,1932,-64,35676,-81,33,127,0,0,3089,-626,3420,1313,317,31,649,1,1,281,-2,86273,0
86263,-67,-2055,565,-793,-277,-2336,15437,-656,-55,2153,-64,35690,-65,33,127,0,0,3027,-626,3520,1313,317,31,659,1,1,281,-2,86273,0
86273,186,-2206,609,-881,-513,-2351,15177,-528,148,2318,40,35693,-69,33,127,0,0,2972,-494,3630,1313,317,31,669,1,1,281,-2,86273,0
86283,229,-2036,616,-952,-583,-2424,14955,-502,172,2231,40,35683,-54,33,127,0,0,2933,-406,3730,1313,317,31,679,1,1,281,-2,86288,0
86293,250,-2099,484,-1040,-661,-2723,14705,-581,-11,2187,-16,35677,-62,33,127,0,0,2882,-516,3840,1313,317,31,689,1,1,281,-2,86288,0
86303,301,-2030,615,-938,-837,-2954,14415,-654,-138,2254,-32,35691,-79,33,127,0,0,2832,-527,3950,1313,317,31,699,1,1,281,-2,86288,0
86313,461,-2792,674,-906,-1171,-2905,14135,-586,-41,2504,24,35691,-103,33,127,0,0,2777,-494,4060,1313,317,31,709,1,1,281,-2,86320,0
86323,-69,-2633,905,-1102,-1149,-2738,13939,-349,206,2617,232,35689,-90,33,127,0,0,2744,-329,4160,1313,317,31,719,1,1,281,-2,86320,0
86333,-120,-2539,466,-1400,-1032,-2788,13858,-117,398,2542,472,35683,-62,33,127,0,0,2729,-98,4260,1313,317,31,729,1,1,281,-2,86320,0
86343,-10,-2400,203,-1327,-1092,-2733,13857,24,358,2545,680,35672,2,34,127,0,0,2729,21,4370,1313,317,31,739,1,1,281,-2,86335,0
86353,111,-2280,-127,-1214,-1182,-3112,13867,21,154,2697,664,35666,47,33,127,0,0,2726,-10,4500,1313,317,31,749,1,1,281,-2,86335,0
86363,-19,-2423,158,-1158,-1124,-3447,13875,20,5,2762,656,35661,68,33,127,0,0,2731,32,4620,1313,317,31,759,1,1,281,-2,86366,0
86373,80,-2741,700,-1467,-1217,-3392,13885,29,5,2779,784,35649,62,33,127,0,0,2733,43,4760,1313,317,31,769,1,1,281,-2,86366,0
86383,-198,-3087,875,-1466,-1358,-3526,13930,148,80,2695,1336,35642,60,33,127,0,0,2742,109,4900,1313,317,31,779,1,1,281,-2,86382,0
86393,27,-3273,543,-1547,-1310,-3843,14071,404,273,2805,2032,35632,90,33,127,0,0,2770,307,5040,1313,317,31,789,1,1,281,-2,86382,0
86403,225,-3029,510,-1601,-1447,-3913,14334,658,443,3104,2688,35627,105,33,127,0,0,2819,538,5210,1313,317,31,799,1,1,281,-2,86413,0
86413,34,-2972,740,-1655,-1837,-3892,14690,834,403,3238,3072,35603,162,33,127,0,0,2885,648,5380,1313,317,31,809,1,1,281,-2,86413,0
86423,-252,-3058,532,-1476,-1944,-4023,15110,969,288,3296,3376,35591,187,33,127,0,0,2966,823,5600,1313,317,31,819,1,1,281,-2,86413,0
86433,-379,-3241,408,-1461,-2075,-4327,15607,1162,276,3398,3984,35575,252,33,127,0,0,3065,1043,5830,1313,317,31,829,1,1,281,-2,86413,0
86443,-503,-3426,529,-1467,-2251,-4497,16234,1480,414,3582,4816,35561,289,33,127,0,0,3190,1252,6130,1313,317,31,839,1,1,281,-2,86445,0
86453,-549,-3583,519,-1354,-2273,-4539,17028,1858,580,3690,5824,35534,351,33,127,0,0,3342,1549,6320,1313,317,31,849,1,1,281,-2,86445,0
86463,-354,-3012,413,-1254,-2500,-4561,17995,2237,652,3770,6824,35507,456,33,127,0,0,3526,1911,6470,1313,317,31,859,1,1,281,-2,86445,0
86473,-426,-2614,300,-1436,-2930,-4605,19106,2530,605,3870,7472,35472,575,33,127,0,0,3735,2087,6650,1313,317,31,869,1,1,281,-2,86476,0
86483,-1,-3047,72,-1486,-3069,-4827,20309,2665,435,3980,7664,35430,693,33,127,0,0,3957,2208,6830,1313,317,31,879,1,1,281,-2,86476,0
86493,564,-3751,237,-1319,-3087,-5098,21467,2485,47,3976,7328,35404,748,33,127,0,0,4172,2164,6990,1313,317,31,889,1,1,281,-2,86476,0
86503,639,-3460,560,-1316,-3189,-5239,22509,2202,-339,4037,6368,35408,747,33,127,0,0,4376,2021,6480,1313,317,31,899,1,1,281,-2,86507,0
86513,937,-3125,837,-1540,-3349,-5501,23391,1811,-545,3483,4848,35435,673,33,127,0,0,4548,1713,4190,1313,317,31,909,1,1,281,-2,86523,0
86523,787,-2950,833,-1544,-3340,-5777,23988,1060,-888,2134,2264,35483,500,33,127,0,0,4653,1021,2570,1313,317,31,919,1,1,281,-2,86523,0
86533,675,-2577,638,-1421,-3369,-6121,24179,157,-1380,1173,256,35547,289,33,127,0,0,4688,274,1820,1313,317,31,929,1,1,281,-2,86523,0
86543,85,-1775,572,-1316,-3248,-5721,24119,-150,-1224,951,160,35613,84,33,127,0,0,4684,-65,0,1313,317,31,939,1,1,281,-2,86523,0
86553,414,-851,481,-539,-2742,-4061,24017,-392,-474,-1223,-1752,35666,-12,33,127,0,0,4684,76,0,1313,317,31,949,0,1,281,-2,86554,0
86563,1812,-857,-604,-1040,-1495,-3498,23637,-996,-680,-1343,-3256,35673,5,34,127,0,0,4660,-318,0,1313,317,31,959,0,1,281,-2,86570,0
86573,661,-670,-249,-789,-361,-2426,22938,-1818,-1170,-2303,-6032,35640,94,33,127,0,0,4570,-922,0,1313,317,31,969,0,1,281,-2,86601,0
86583,485,-631,-478,-282,-35,-1802,21719,-3040,-1670,-2280,-7584,35574,266,33,127,0,0,4464,-1120,0,1313,317,31,979,0,1,281,-2,86601,0
86593,-183,-543,-155,132,72,-1417,20299,-3052,-1341,171,-5960,35576,221,33,127,0,0,4339,-1285,0,1313,317,31,989,0,1,281,-2,86601,0
86603,130,-529,152,343,130,-868,19027,-2647,65,399,-4456,35600,138,33,127,0,0,4229,-1054,0,1313,317,31,999,0,1,281,-2,86601,0
86613,288,-479,144,452,313,36,18002,-2079,798,470,-3208,35645,-34,33,127,0,0,4144,-856,0,1313,317,31,1009,0,1,281,-2,86601,0
86623,350,-390,38,602,440,676,17206,-1621,912,339,-2192,35666,-92,33,127,0,0,4080,-593,0,1313,317,31,1019,0,1,281,-2,86616,0
86633,413,-252,-158,881,619,1458,16604,-1204,793,235,-1432,35671,-68,33,127,0,0,4025,-538,0,1313,317,31,1029,0,1,281,-2,86616,0
86643,477,-215,-242,1054,790,1905,16165,-869,672,105,-1048,35680,-60,34,127,0,0,3961,-637,0,1313,317,31,1039,0,1,281,-2,86663,0
86653,551,-217,-260,1320,1056,2691,15848,-641,535,-96,-1048,35669,-39,33,127,0,0,3886,-747,0,1313,317,31,1049,0,1,281,-2,86663,0
86663,500,-245,-271,1466,1189,3317,15588,-563,320,-369,-1240,35660,-24,33,127,0,0,3805,-823,0,1313,317,31,1059,0,1,281,-2,86663,0
86673,419,-314,-177,1688,1296,4278,15324,-592,71,-521,-1416,35655,-11,33,127,0,0,3728,-780,0,1313,317,31,1069,0,1,281,-2,86679,0
86683,340,-394,-121,1832,1292,4804,15034,-653,-71,-490,-1440,35658,-15,33,127,0,0,3665,-637,0,1313,317,31,1079,0,1,281,-2,86679,0
86693,308,-503,-70,1948,1229,5496,14741,-644,-53,-462,-1432,35657,-14,33,127,0,0,3603,-637,0,1313,317,31,1089,0,1,281,-2,86679,0
86703,364,-606,-28,2017,1235,5938,14458,-615,17,-457,-1392,35661,-2,33,127,0,0,3546,-582,0,1313,317,31,1099,0,1,281,-2,86695,0
86713,378,-730,-119,2101,1304,6606,14181,-598,32,-440,-1368,35659,-13,33,127,0,0,3484,-626,0,1313,317,31,1109,0,1,281,-2,86695,0
86723,348,-796,-164,2170,1359,7083,13912,-597,30,-439,-1328,35669,-11,33,127,0,0,3427,-604,0,1313,317,31,1119,0,1,281,-2,86726,0
86733,246,-953,-139,2253,1333,7779,13648,-577,19,-437,-1272,35662,-23,33,127,0,0,3379,-483,0,1313,317,31,1129,0,1,281,-2,86726,0
86743,241,-1115,-87,2285,1263,8179,13397,-528,39,-341,-936,35655,-16,33,127,0,0,3357,-252,0,1313,317,31,1139,0,1,281,-2,86726,0
86753,373,-1487,-73,2337,1210,8723,13188,-429,117,-283,-568,35668,-34,33,127,0,0,3348,-43,0,1313,317,31,1149,0,1,281,-2,86741,0
86763,472,-1760,-43,2418,1258,8967,13032,-290,189,-140,-136,35685,-44,34,127,0,0,3346,-43,0,1313,317,31,1159,0,1,281,-2,86757,0
86773,601,-2100,83,2581,1301,9272,12977,-30,310,196,96,35693,-36,33,127,0,0,3348,-10,0,1313,317,31,1169,0,1,281,-2,86773,0
86783,731,-2260,169,2640,1263,9561,13024,118,395,247,160,35683,-30,33,127,0,0,3359,109,0,1313,317,31,1179,0,1,281,-2,86773,0
86793,700,-2431,255,2667,1143,9920,13120,235,259,326,384,35678,-35,34,127,0,0,3390,307,0,1313,317,31,1189,0,1,281,-2,86788,0
86803,659,-2562,197,2703,1058,9976,13236,270,128,563,704,35680,-30,33,127,0,0,3438,505,0,1313,317,31,1199,0,1,281,-2,86804,0
86813,730,-2834,62,2842,1142,9767,13413,412,154,514,1032,35682,-30,33,127,0,0,3484,450,0,1313,317,31,1209,0,1,281,-2,86804,0
86823,731,-3059,10,2957,1340,9633,13632,493,187,460,1120,35671,-35,33,127,0,0,3517,296,0,1313,317,31,1219,0,1,281,-2,86820,0
86833,619,-3204,191,3124,1670,9559,13858,499,81,367,992,35661,-21,33,127,0,0,3546,285,0,1313,317,31,1229,0,1,281,-2,86820,0
86843,560,-3120,292,3162,1857,9461,14083,493,4,381,1008,35663,-29,33,127,0,0,3577,329,0,1313,317,31,1239,0,1,281,-2,86820,0
86853,541,-3125,311,3214,2075,9225,14304,493,-8,385,968,35688,-37,33,127,0,0,3603,263,0,1313,317,31,1249,0,1,281,-2,86866,0
86863,594,-3139,344,3227,2207,9026,14523,474,-4,357,944,35680,-15,33,127,0,0,3627,241,0,1313,317,31,1259,0,1,281,-2,86866,0
86873,477,-3123,432,3206,2398,8650,14738,468,-17,321,824,35675,-2,33,127,0,0,3645,109,0,1313,317,31,1269,0,1,281,-2,86882,0
86883,357,-3236,463,3147,2465,8356,14934,417,-41,311,640,35666,4,33,127,0,0,3654,120,0,1313,317,31,1279,0,1,281,-2,86882,0
86893,400,-3146,437,3013,2495,7835,15108,362,-82,301,536,35665,-33,33,127,0,0,3671,175,0,1313,317,31,1289,0,1,281,-2,86882,0
86903,428,-3084,411,2902,2480,7373,15265,337,-81,296,448,35682,-46,33,127,0,0,3689,197,0,1313,317,31,1299,0,1,281,-2,86882,0
86913,534,-2902,347,2655,2342,6520,15409,326,-48,372,464,35682,-35,33,127,0,0,3706,131,0,1313,317,31,1309,0,1,281,-2,86913,0
86923,578,-2777,327,2495,2146,5904,15551,302,-24,379,464,35682,-3,33,127,0,0,3722,131,0,1313,317,31,1319,0,1,281,-2,86913,0
86933,665,-2628,369,2178,1699,4831,15695,307,-11,336,400,35673,-5,33,127,0,0,3737,142,0,1313,317,31,1329,0,1,281,-2,86929,0
86943,753,-2569,410,1928,1313,4038,15829,297,-15,331,416,35673,-24,33,127,0,0,3755,164,0,1313,317,31,1339,0,1,281,-2,86929,0
86953,835,-2476,429,1437,722,2749,15962,284,-24,392,464,35673,-44,33,127,0,0,3774,186,0,1313,317,31,1349,0,1,281,-2,86944,0
86963,835,-2429,377,1054,387,1827,16096,283,-7,413,512,35666,-42,34,127,0,0,3792,164,0,1313,317,31,1359,0,1,281,-2,86976,0
86973,835,-2403,209,483,16,401,16237,316,16,408,496,35669,-21,33,127,0,0,3810,142,0,1313,317,31,1369,0,1,281,-2,86976,0
86983,879,-2397,133,148,-108,-468,16371,285,1,417,448,35676,-11,34,127,0,0,3821,109,0,1313,317,31,1379,0,1,281,-2,86976,0
86993,849,-2342,107,-285,-130,-1609,16499,275,-33,393,360,35675,-13,33,127,0,0,3825,32,0,1313,317,31,1389,0,1,281,-2,86976,0
87003,836,-2365,80,-529,-82,-2214,16605,223,-53,338,272,35675,-24,33,127,0,0,3827,21,0,1313,317,31,1399,0,1,281,-2,86991,0
87013,874,-2428,42,-808,126,-2921,16686,156,-93,396,264,35682,-63,34,127,0,0,3829,10,0,1313,317,31,1409,0,1,281,-2,87023,0
87023,-410,-5524,-340,-1141,147,-2786,16750,141,-80,538,464,35682,-68,33,127,0,0,3886,659,0,1313,317,31,1419,0,1,281,-2,87023,0
87033,-389,-3382,2552,-157,1144,-3041,16868,307,89,795,1160,35678,-48,33,127,0,0,4029,1417,0,7942,2315,32,9,1,1,275,-1,87023,0
87043,-190,-918,1632,163,98,-3653,17140,749,435,1281,2224,35657,0,33,127,0,0,4108,692,0,7942,2315,32,19,1,1,275,-1,87023,0
87053,607,-1866,548,-803,-163,-2804,17559,974,593,934,2648,35654,12,33,127,0,0,4181,769,0,7942,2315,32,29,1,1,275,-1,87054,0
87063,-226,-1276,-238,-1302,-493,-2420,18057,1154,337,905,3056,35665,15,34,127,0,0,4262,856,0,7942,2315,32,39,1,1,275,-1,87054,0
87073,-1255,-1783,-1051,-1626,-452,-2247,18635,1339,335,974,3616,35667,15,33,127,0,0,4379,1208,0,7942,2315,32,49,1,1,275,-1,87054,0
87083,-1139,-1920,-1789,-1348,165,-2479,19323,1581,464,903,4056,35654,47,33,127,0,0,4502,1263,0,7942,2315,32,59,1,1,275,-1,87069,0
87093,-585,-1831,-1514,-786,371,-2664,20085,1714,362,820,4208,35647,77,33,127,0,0,4603,977,0,7942,2315,32,69,1,1,275,-1,87069,0
87103,98,-2085,-778,-498,221,-2434,20859,1687,168,685,4304,35658,99,33,127,0,0,4702,1010,0,7942,2315,32,79,1,1,275,-1,87101,0
87113,423,-2557,482,-257,-178,-2314,21619,1631,-9,482,3864,35665,69,33,127,0,0,4787,878,0,7942,2315,32,89,1,1,275,-1,87101,0
87123,536,-2534,822,-429,-525,-2444,22305,1448,-177,353,3384,35655,36,33,127,0,0,4853,637,0,7942,2315,32,99,1,1,275,-1,87101,0
87133,801,-2567,425,-706,-996,-2547,22907,1257,-313,242,2640,35657,8,33,127,0,0,4891,318,0,7942,2315,32,109,1,1,275,-1,87132,0
87143,661,-2455,119,-597,-1065,-2536,23400,1001,-369,144,1840,35661,-8,33,127,0,0,4897,54,0,7942,2315,32,119,1,1,275,-1,87132,0
87153,148,-2194,208,-298,-879,-2359,23733,719,-454,95,1008,35664,-36,34,127,0,0,4893,-32,0,7942,2315,32,129,1,1,275,-1,87132,0
87163,-407,-2082,428,-101,-458,-2549,23988,491,-487,107,312,35664,-43,33,127,0,0,4866,-241,0,7942,2315,32,139,1,1,275,-1,87163,0
87173,113,-1912,578,14,-39,-2620,24085,50,-547,-587,-280,35658,-40,33,127,0,0,4836,-274,0,7942,2315,32,149,1,1,275,-1,87179,0
87183,201,-1906,850,-70,-102,-2462,23981,-293,-710,-365,-544,35661,-29,33,127,0,0,4794,-417,0,7942,2315,32,159,1,1,275,-1,87179,0
87193,629,-2170,1024,-319,-117,-2324,23825,-349,-439,-390,-616,35667,-29,33,127,0,0,4750,-461,0,7942,2315,32,169,1,1,275,-1,87179,0
87203,-155,-1979,822,-430,-106,-2328,23679,-248,-45,233,56,35670,-21,34,127,0,0,4693,-593,700,7942,2315,32,179,1,1,275,-1,87179,0
87213,-261,-1903,447,-469,9,-2279,23687,112,358,412,288,35679,-24,33,127,0,0,4634,-571,900,7942,2315,32,189,1,1,275,-1,87210,0
87223,-560,-1432,472,-469,-549,-1406,23747,69,383,626,184,35674,-35,33,127,0,0,4612,-87,1100,7942,2315,32,199,1,1,275,-1,87210,0
87233,66,-2124,516,-408,-813,-1389,23684,-240,-215,714,0,35668,-47,33,127,0,0,4603,-87,1300,7942,2315,32,209,1,1,275,-1,87210,0
87243,-488,-2060,201,-383,-325,-1670,23469,-575,-547,624,-200,35676,-61,33,127,0,0,4568,-362,1500,7942,2315,32,219,1,1,275,-1,87241,0
87253,-469,-2100,-202,-164,386,-2351,23121,-830,-545,674,-456,35671,-55,33,127,0,0,4504,-659,1500,7942,2315,32,229,1,1,275,-1,87241,0
87263,-128,-1833,-38,-8,464,-2391,22705,-942,-362,804,-560,35672,-91,33,127,0,0,4416,-889,1500,7942,2315,32,239,1,1,275,-1,87241,0
87273,-193,-1930,438,90,170,-2054,22286,-898,-113,824,-376,35672,-69,33,127,0,0,4330,-834,1500,7942,2315,32,249,1,1,275,-1,87273,0
87283,-262,-1990,691,25,45,-1828,21953,-626,194,1067,-96,35679,-81,33,127,0,0,4267,-626,1500,7942,2315,32,259,1,1,275,-1,87273,0
87293,374,-1968,797,-197,-201,-1392,21798,-249,542,1094,64,35671,-69,33,127,0,0,4238,-274,1500,7942,2315,32,269,1,1,275,-1,87288,0
87303,614,-2034,688,-283,-478,-1322,21666,-343,354,867,0,35670,-61,33,127,0,0,4214,-208,1500,7942,2315,32,279,1,1,275,-1,87288,0
87313,-287,-2112,411,-297,-126,-1501,21429,-595,-216,703,-192,35674,-63,33,127,0,0,4170,-472,1500,7942,2315,32,289,1,1,275,-1,87304,0
