state_time,accelx,accely,accelz,gyrox,gyroy,gyroz,mot_ang,mot_vel,mot_acc,mot_cur,mot_volt,batt_volt,batt_curr,temperature,status_mn,status_ex,status_re,ank_ang,ank_vel,ank_torque,peak_ank_torque,step_energy,step_count,step_time,gait_state,movement,speed,incline,sys_time,eventFlags
360863,48,-2089,217,-171,46,128,10377,8,1,427,104,35435,-42,34,127,0,0,3067,-21,0,11281,4266,168,36459,-4,0,78,9,360869,0
360873,58,-2100,208,-172,47,134,10375,0,2,409,112,35441,-54,34,127,0,0,3067,10,0,11281,4266,168,36469,-4,0,78,9,360869,0
360883,74,-2118,205,-168,40,141,10377,4,0,422,104,35450,-60,34,127,0,0,3069,21,0,11281,4266,168,36479,-4,0,78,9,360869,0
360893,74,-2134,209,-162,44,153,10378,7,0,428,104,35448,-64,34,127,0,0,3067,-10,0,11281,4266,168,36489,-4,0,78,9,360869,0
360903,57,-2116,209,-154,51,161,10377,1,0,416,128,35450,-69,34,127,0,0,3069,21,0,11281,4266,168,36499,-4,0,78,9,360884,0
360914,57,-2112,197,-154,50,175,10383,16,13,424,96,35450,-81,34,127,0,0,3067,-32,0,11281,4266,168,36510,-4,0,78,9,360900,0
360924,63,-2107,197,-153,44,190,10385,11,1,384,112,35456,-90,34,127,0,0,3069,5,0,11281,4266,168,36520,-4,0,78,9,360915,0
360934,54,-2098,200,-143,34,205,10393,19,4,400,112,35453,-85,34,127,0,0,3075,49,0,11281,4266,168,36530,-4,0,78,9,360915,0
360944,34,-2102,200,-134,32,203,10412,38,29,365,96,35448,-77,34,127,0,0,3080,60,0,11281,4266,168,36540,-4,0,78,9,360915,0
360954,23,-2081,197,-127,31,197,10423,10,15,397,120,35452,-69,34,127,0,0,3078,16,0,11281,4266,168,36550,-4,0,78,9,360947,0
360964,-4,-2055,197,-130,26,176,10424,7,-31,474,136,35458,-57,34,127,0,0,3087,54,0,11281,4266,168,36560,-4,0,78,9,360962,0
360974,11,-2052,178,-125,40,158,10431,8,-7,489,144,35456,-56,34,127,0,0,3086,60,0,11281,4266,168,36570,-4,0,78,9,360962,0
360984,12,-2044,185,-121,43,143,10440,19,10,461,168,35449,-53,34,127,0,0,3080,5,0,11281,4266,168,36580,-4,0,78,9,360978,0
360994,9,-2062,198,-118,33,129,10455,44,19,372,96,35443,-56,34,127,0,0,3089,32,0,11281,4266,168,36590,-4,0,78,9,360978,0
361004,2,-2066,210,-113,32,120,10483,55,36,246,88,35444,-66,34,127,0,0,3087,60,0,11281,4266,168,36600,-4,0,78,9,360978,0
361014,27,-2077,209,-114,28,100,10485,-7,-24,276,80,35453,-79,34,127,0,0,3083,-5,0,11281,4266,168,36610,-4,0,78,9,361009,0
361024,39,-2088,195,-113,34,95,10485,0,-56,249,80,35462,-82,34,127,0,0,3087,16,0,11281,4266,168,36620,-4,0,78,9,361009,0
361034,44,-2077,174,-102,31,90,10486,3,0,267,56,35467,-71,34,127,0,0,3088,27,0,11281,4266,168,36630,-4,0,78,9,361009,0
361044,34,-2093,173,-95,28,93,10485,-2,-1,232,40,35461,-63,34,127,0,0,3086,-5,0,11281,4266,168,36640,-4,0,78,9,361009,0
361054,58,-2098,182,-88,35,105,10485,12,2,235,56,35457,-56,34,127,0,0,3088,32,0,11281,4266,168,36650,-4,0,78,9,361025,0
361064,49,-2084,193,-83,40,116,10485,1,0,266,80,35457,-71,34,127,0,0,3083,10,0,11281,4266,168,36660,-4,0,78,9,361040,0
361074,82,-2086,188,-72,39,115,10483,-11,-5,219,64,35460,-78,34,127,0,0,3084,21,0,11281,4266,168,36670,-4,0,78,9,361056,0
361084,93,-2077,181,-70,41,121,10484,-10,-1,180,80,35461,-88,34,127,0,0,3083,38,0,11281,4266,168,36680,-4,0,78,9,361056,0
361094,76,-2084,201,-66,39,132,10486,-3,3,217,80,35455,-83,34,127,0,0,3083,5,0,11281,4266,168,36690,-4,0,78,9,361072,0
361104,45,-2094,198,-64,37,136,10485,0,1,225,80,35456,-73,34,127,0,0,3083,5,0,11281,4266,168,36700,-4,0,78,9,361087,0
361114,28,-2093,192,-59,39,129,10488,11,2,270,72,35453,-53,34,127,0,0,3087,-32,0,11281,4266,168,36710,-4,0,78,9,361087,0
361124,13,-2091,192,-55,41,133,10487,13,3,314,80,35461,-71,34,127,0,0,3083,-49,0,11281,4266,168,36720,-4,0,78,9,361103,0
361134,-1,-2097,191,-51,42,123,10486,5,-1,301,80,35466,-66,34,127,0,0,3087,-38,0,11281,4266,168,36730,-4,0,78,9,361103,0
361144,20,-2087,201,-44,37,125,10486,-9,-6,294,80,35459,-76,34,127,0,0,3080,-54,0,11281,4266,168,36740,-4,0,78,9,361118,0
361155,13,-2076,214,-50,44,112,10486,4,-6,250,88,35459,-82,34,127,0,0,3087,10,0,11281,4266,168,36751,-4,0,78,9,361118,0
361165,30,-2070,211,-60,26,106,10486,-3,2,278,80,35458,-70,34,127,0,0,3087,21,0,11281,4266,168,36761,-4,0,78,9,361165,0
361175,23,-2079,203,-58,28,108,10487,-4,6,297,80,35471,-81,34,127,0,0,3089,32,0,11281,4266,168,36771,-4,0,78,9,361165,0
361185,34,-2069,198,-51,41,91,10486,-2,5,319,80,35474,-70,34,127,0,0,3087,0,0,11281,4266,168,36781,-4,0,78,9,361165,0
361195,24,-2082,198,-53,37,89,10485,2,1,279,88,35467,-73,34,127,0,0,3087,21,0,11281,4266,168,36791,-4,0,78,9,361165,0
361205,53,-2067,207,-51,34,79,10487,-1,-5,306,80,35460,-71,34,127,0,0,3087,0,0,11281,4266,168,36801,-4,0,78,9,361181,0
361215,40,-2081,211,-53,33,84,10485,-3,-4,255,88,35465,-84,34,127,0,0,3087,21,0,11281,4266,168,36811,-4,0,78,9,361181,0
361225,36,-2069,216,-58,30,82,10486,3,5,278,48,35466,-73,34,127,0,0,3084,-43,0,11281,4266,168,36821,-4,0,78,9,361212,0
361235,21,-2079,211,-57,33,82,10485,12,-5,244,80,35472,-71,34,127,0,0,3087,21,0,11281,4266,168,36831,-4,0,78,9,361212,0
361245,49,-2076,217,-69,31,84,10487,-10,3,293,80,35463,-44,34,127,0,0,3087,0,0,11281,4266,168,36841,-4,0,78,9,361212,0
361255,60,-2079,222,-70,37,90,10487,-9,0,268,56,35470,-69,34,127,0,0,3084,-10,0,11281,4266,168,36851,-4,0,78,9,361243,0
361265,47,-2088,227,-81,34,95,10487,6,1,249,88,35468,-72,34,127,0,0,3084,-10,0,11281,4266,168,36861,-4,0,78,9,361243,0
361275,63,-2092,221,-80,40,88,10486,-9,1,253,48,35473,-91,34,127,0,0,3084,0,0,11281,4266,168,36871,-4,0,78,9,361243,0
361285,52,-2089,220,-83,38,93,10487,-3,-1,252,88,35474,-59,34,127,0,0,3084,-10,0,11281,4266,168,36881,-4,0,78,9,361259,0
361295,58,-2078,210,-90,33,97,10486,-6,-2,222,56,35466,-46,34,127,0,0,3084,0,0,11281,4266,168,36891,-4,0,78,9,361290,0
361305,67,-2084,218,-95,34,98,10484,-7,-6,165,72,35461,-43,34,127,0,0,3082,10,0,11281,4266,168,36901,-4,0,78,9,361290,0
361315,76,-2092,210,-95,35,106,10486,0,3,165,64,35462,-38,34,127,0,0,3084,10,0,11281,4266,168,36911,-4,0,78,9,361306,0
361325,74,-2081,214,-97,46,118,10485,-8,-3,176,40,35454,-72,34,127,0,0,3080,-10,0,11281,4266,168,36921,-4,0,78,9,361322,0
361335,84,-2085,206,-99,42,121,10484,2,0,156,0,35457,-69,34,127,0,0,3080,-43,0,11281,4266,168,36931,-4,0,78,9,361337,0
361345,52,-2076,216,-105,43,132,10485,12,-3,194,64,35449,-85,34,127,0,0,3084,-21,0,11281,4266,168,36941,-4,0,78,9,361337,0
361355,20,-2075,223,-108,36,143,10483,-4,-1,184,64,35443,-70,34,127,0,0,3080,-21,0,11281,4266,168,36951,-4,0,78,9,361337,0
361365,5,-2076,216,-107,40,144,10486,5,2,168,64,35442,-75,34,127,0,0,3084,-21,0,11281,4266,168,36961,-4,0,78,9,361353,0
361375,-2,-2054,220,-110,42,146,10484,-2,6,152,48,35442,-75,34,127,0,0,3080,-21,0,11281,4266,168,36971,-4,0,78,9,361353,0
361385,43,-2079,204,-112,52,143,10486,6,-4,176,24,35450,-91,34,127,0,0,3080,-54,0,11281,4266,168,36981,-4,0,78,9,361353,0
361395,19,-2077,204,-114,48,145,10485,13,-2,160,40,35459,-84,34,127,0,0,3084,10,0,11281,4266,168,36991,-4,0,78,9,361368,0
361406,40,-2072,189,-113,44,154,10485,-2,8,205,56,35463,-77,34,127,0,0,3084,0,0,11281,4266,168,37002,-4,0,78,9,361368,0
361416,51,-2073,189,-108,49,151,10485,-1,0,228,56,35465,-58,34,127,0,0,3084,-27,0,11281,4266,168,37012,-4,0,78,9,361431,0
361426,38,-2085,189,-102,45,157,10486,1,3,225,56,35470,-54,34,127,0,0,3084,-5,0,11281,4266,168,37022,-4,0,78,9,361431,0
361436,65,-2090,195,-98,45,158,10486,1,-3,231,80,35471,-72,34,127,0,0,3087,21,0,11281,4266,168,37032,-4,0,78,9,361431,0
361446,69,-2093,207,-95,40,186,10486,-1,6,279,80,35459,-81,34,127,0,0,3087,27,0,11281,4266,168,37042,-4,0,78,9,361447,0
361456,68,-2103,209,-96,38,211,10489,3,-3,325,96,35445,-92,34,127,0,0,3089,16,0,11281,4266,168,37052,-4,0,78,9,361447,0
361466,75,-2090,211,-98,34,229,10489,6,2,368,120,35441,-81,34,127,0,0,3094,65,0,11281,4266,168,37062,-4,0,78,9,361447,0
361476,57,-2080,199,-100,32,243,10495,19,12,457,144,35446,-87,34,127,0,0,3095,16,0,11281,4266,168,37072,-4,0,78,9,361447,0
361486,50,-2078,191,-104,39,255,10508,27,20,455,184,35454,-68,34,127,0,0,3102,76,0,11281,4266,168,37082,-4,0,78,9,361462,0
361496,47,-2082,201,-100,36,269,10540,87,44,385,152,35451,-66,34,127,0,0,3104,32,0,11281,4266,168,37092,-4,0,78,9,361478,0
361506,61,-2070,209,-102,23,285,10568,34,33,356,128,35459,-72,34,127,0,0,3112,27,0,11281,4266,168,37102,-4,0,78,9,361478,0
361516,5,-2080,200,-99,29,275,10582,37,-46,456,168,35455,-104,34,127,0,0,3115,43,0,11281,4266,168,37112,-4,0,78,9,361493,0
361526,13,-2090,188,-97,40,275,10621,103,25,327,136,35456,-112,34,127,0,0,3120,54,0,11281,4266,168,37122,-4,0,78,9,361509,0
361536,50,-2079,202,-92,38,272,10646,29,27,307,104,35455,-97,34,127,0,0,3128,98,0,11281,4266,168,37132,-4,0,78,9,361509,0
361546,-8,-2093,209,-95,33,263,10671,61,-37,347,120,35447,-89,34,127,0,0,3132,65,0,11281,4266,168,37142,-4,0,78,9,361509,0
361556,23,-2079,213,-94,31,259,10694,26,1,320,136,35453,-81,34,127,0,0,3132,38,0,11281,4266,168,37152,-4,0,78,9,361540,0
361566,-8,-2077,207,-101,27,239,10700,5,-41,380,120,35457,-81,34,127,0,0,3135,16,0,11281,4266,168,37162,-4,0,78,9,361540,0
361576,-4,-2062,203,-106,34,226,10709,35,-25,421,144,35457,-67,34,127,0,0,3139,21,0,11281,4266,168,37172,-4,0,78,9,361587,0
361586,-15,-2065,211,-112,34,218,10747,105,62,291,96,35456,-41,34,127,0,0,3145,21,0,11281,4266,168,37182,-4,0,78,9,361587,0
361596,19,-2057,220,-110,19,212,10764,-2,22,275,72,35445,-57,34,127,0,0,3147,32,0,11281,4266,168,37192,-4,0,78,9,361587,0
361606,-62,-2085,207,-121,30,184,10764,8,-90,342,96,35446,-64,34,127,0,0,3146,16,0,11281,4266,168,37202,-4,0,78,9,361587,0
361616,-29,-2085,195,-111,36,159,10765,-1,-29,372,144,35437,-85,34,127,0,0,3144,27,0,11281,4266,168,37212,-4,0,78,9,361587,0
361626,0,-2090,190,-114,34,126,10773,21,16,396,128,35434,-79,34,127,0,0,3150,-16,0,11281,4266,168,37222,-4,0,78,9,361603,0
361636,-9,-2096,196,-109,31,125,10785,35,27,370,96,35447,-77,34,127,0,0,3150,10,0,11281,4266,168,37232,-4,0,78,9,361634,0
361646,-7,-2094,195,-111,29,104,10801,25,19,270,72,35461,-90,34,127,0,0,3150,0,0,11281,4266,168,37242,-4,0,78,9,361634,0
361656,-9,-2084,198,-112,31,99,10799,-3,-31,276,48,35459,-97,34,127,0,0,3151,-5,0,11281,4266,168,37252,-4,0,78,9,361634,0
361667,-7,-2073,199,-110,37,90,10800,-6,-24,270,72,35445,-100,34,127,0,0,3150,10,0,11281,4266,168,37263,-4,0,78,9,361634,0
361677,17,-2078,198,-112,17,85,10800,-6,-2,281,72,35437,-115,34,127,0,0,3153,32,0,11281,4266,168,37273,-4,0,78,9,361728,0
361687,20,-2091,207,-114,32,88,10800,0,1,287,96,35447,-117,34,127,0,0,3150,0,0,11281,4266,168,37283,-4,0,78,9,361728,0
361697,12,-2084,203,-114,32,78,10800,3,-5,279,56,35454,-117,34,127,0,0,3150,-10,0,11281,4266,168,37293,-4,0,78,9,361728,0
361707,12,-2089,205,-115,31,79,10801,0,-3,267,64,35452,-111,34,127,0,0,3150,0,0,11281,4266,168,37303,-4,0,78,9,361728,0
361717,24,-2085,205,-121,24,86,10801,5,0,288,56,35445,-103,34,127,0,0,3150,-10,0,11281,4266,168,37313,-4,0,78,9,361728,0
361727,14,-2090,200,-117,25,86,10800,-5,-3,252,80,35437,-103,34,127,0,0,3150,10,0,11281,4266,168,37323,-4,0,78,9,361743,0
361737,28,-2090,200,-123,22,86,10801,0,-3,265,64,35437,-109,34,127,0,0,3148,-21,0,11281,4266,168,37333,-4,0,78,9,361743,0
361747,22,-2071,193,-120,27,83,10800,0,-1,275,24,35438,-95,34,127,0,0,3148,-32,0,11281,4266,168,37343,-4,0,78,9,361743,0
361757,12,-2070,185,-116,29,88,10799,-1,-4,236,48,35438,-104,34,127,0,0,3148,0,0,11281,4266,168,37353,-4,0,78,9,361743,0
361767,27,-2071,190,-112,29,95,10801,0,1,244,64,35439,-110,34,127,0,0,3148,0,0,11281,4266,168,37363,-4,0,78,9,361743,0
361777,17,-2072,190,-112,32,93,10799,-8,2,279,56,35456,-111,34,127,0,0,3148,-32,0,11281,4266,168,37373,-4,0,78,9,361743,0
361787,26,-2075,201,-109,33,96,10799,-8,-6,233,80,35468,-102,34,127,0,0,3150,21,0,11281,4266,168,37383,-4,0,78,9,361775,0
361797,41,-2075,189,-109,32,99,10800,-12,-2,216,48,35473,-86,34,127,0,0,3146,-21,0,11281,4266,168,37393,-4,0,78,9,361775,0
361807,55,-2080,188,-113,32,98,10800,4,1,170,56,35459,-84,34,127,0,0,3146,-32,0,11281,4266,168,37403,-4,0,78,9,361775,0
361817,12,-2083,185,-109,35,113,10800,4,-2,195,48,35444,-94,34,127,0,0,3148,-21,0,11281,4266,168,37413,-4,0,78,9,361790,0
361827,15,-2078,187,-107,29,111,10800,1,3,218,16,35442,-104,34,127,0,0,3148,0,0,11281,4266,168,37423,-4,0,78,9,361806,0
361837,22,-2096,190,-108,34,110,10802,4,-4,218,72,35451,-103,34,127,0,0,3148,10,0,11281,4266,168,37433,-4,0,78,9,361821,0
361847,26,-2084,188,-106,37,104,10799,-13,-3,177,72,35452,-107,34,127,0,0,3150,43,0,11281,4266,168,37443,-4,0,78,9,361821,0
361857,39,-2087,196,-101,34,105,10802,16,6,184,56,35455,-114,34,127,0,0,3146,-10,0,11281,4266,168,37453,-4,0,78,9,361837,0
361867,29,-2092,190,-108,28,104,10800,7,0,190,16,35454,-106,34,127,0,0,3148,0,0,11281,4266,168,37463,-4,0,78,9,361837,0
361877,36,-2076,181,-102,33,98,10799,-2,-10,178,16,35464,-107,34,127,0,0,3146,10,0,11281,4266,168,37473,-4,0,78,9,361853,0
361887,25,-2086,185,-100,32,98,10798,-6,-1,106,72,35463,-94,34,127,0,0,3148,32,0,11281,4266,168,37483,-4,0,78,9,361884,0
361897,49,-2081,182,-95,37,100,10798,-4,6,97,8,35459,-98,34,127,0,0,3144,10,0,11281,4266,168,37493,-4,0,78,9,361884,0
361907,26,-2083,185,-95,40,108,10796,0,-5,104,32,35450,-104,34,127,0,0,3144,-10,0,11281,4266,168,37503,-4,0,78,9,361884,0
361918,-7,-2081,195,-93,33,104,10798,4,-2,120,32,35447,-102,34,127,0,0,3143,-54,0,11281,4266,168,37514,-4,0,78,9,361915,0
361928,37,-2080,202,-95,33,107,10796,-10,-5,55,16,35461,-102,34,127,0,0,3147,32,0,11281,4266,168,37524,-4,0,78,9,361915,0
361938,45,-2084,194,-94,28,110,10798,-1,-2,87,32,35469,-96,34,127,0,0,3143,10,0,11281,4266,168,37534,-4,0,78,9,361915,0
361948,33,-2094,189,-99,29,104,10797,-7,2,71,8,35476,-97,34,127,0,0,3144,-5,0,11281,4266,168,37544,-4,0,78,9,361915,0
361958,14,-2074,192,-98,28,95,10797,-3,-6,48,8,35473,-92,34,127,0,0,3144,0,0,11281,4266,168,37554,-4,0,78,9,361931,0
361968,11,-2084,192,-97,34,90,10798,3,-3,69,8,35472,-98,34,127,0,0,3144,-16,0,11281,4266,168,37564,-4,0,78,9,361962,0
361978,10,-2078,186,-96,32,93,10797,4,2,51,8,35469,-87,34,127,0,0,3144,0,0,11281,4266,168,37574,-4,0,78,9,361962,0
361988,18,-2076,192,-96,39,89,10797,0,2,46,-8,35460,-88,34,127,0,0,3145,-5,0,11281,4266,168,37584,-4,0,78,9,361962,0
361998,27,-2081,192,-94,32,87,10796,0,-1,16,16,35449,-92,34,127,0,0,3144,38,0,11281,4266,168,37594,-4,0,78,9,361978,0
362008,7,-2083,193,-97,38,88,10795,0,3,-61,-32,35455,-96,34,127,0,0,3139,0,0,11281,4266,168,37604,-4,0,78,9,361978,0
362018,16,-2082,190,-98,43,83,10790,7,-6,-33,-16,35466,-104,34,127,0,0,3136,-32,0,11281,4266,168,37614,-4,0,78,9,362009,0
362028,56,-2085,190,-96,39,88,10789,-5,4,-116,-40,35471,-103,34,127,0,0,3140,5,0,11281,4266,168,37624,-4,0,78,9,362009,0
362038,54,-2087,190,-97,37,98,10785,-9,-5,-111,-32,35459,-101,34,127,0,0,3134,5,0,11281,4266,168,37634,-4,0,78,9,362009,0
362048,38,-2085,182,-89,35,101,10782,-10,-2,-142,0,35451,-101,34,127,0,0,3133,-10,0,11281,4266,168,37644,-4,0,78,9,362134,0
362058,47,-2081,189,-92,40,94,10781,-14,-2,-172,-24,35451,-99,34,127,0,0,3137,38,0,11281,4266,168,37654,-4,0,78,9,362134,0
362068,27,-2089,183,-89,41,109,10781,6,4,-105,-40,35454,-106,34,127,0,0,3135,-5,0,11281,4266,168,37664,-4,0,78,9,362134,0
362078,38,-2079,191,-90,40,114,10775,-14,-3,-103,-8,35452,-113,34,127,0,0,3137,21,0,11281,4266,168,37674,-4,0,78,9,362134,0
362088,36,-2088,186,-87,37,122,10775,-12,0,-134,-32,35442,-108,34,127,0,0,3135,27,0,11281,4266,168,37684,-4,0,78,9,362134,0
362098,45,-2085,189,-87,39,122,10771,-12,-8,-99,-48,35447,-103,34,127,0,0,3130,-43,0,11281,4266,168,37694,-4,0,78,9,362150,0
362108,60,-2086,186,-85,43,119,10762,-19,-14,-97,-8,35446,-97,34,127,0,0,3128,-54,0,11281,4266,168,37704,-4,0,78,9,362150,0
362118,23,-2078,188,-85,42,126,10758,-2,-1,-75,0,35448,-105,34,127,0,0,3128,-38,0,11281,4266,168,37714,-4,0,78,9,362150,0
362128,60,-2078,187,-81,43,128,10760,2,15,-43,-40,35444,-95,34,127,0,0,3134,-65,0,11281,4266,168,37724,-4,0,78,9,362150,0
362138,14,-2080,188,-83,43,145,10758,2,6,-25,-40,35448,-87,34,127,0,0,3134,-10,0,11281,4266,168,37734,-4,0,78,9,362150,0
362148,5,-2077,191,-85,49,135,10759,4,-1,-16,-24,35447,-79,34,127,0,0,3130,-76,0,11281,4266,168,37744,-4,0,78,9,362150,0
362158,15,-2088,189,-83,44,140,10758,4,1,-43,0,35448,-91,34,127,0,0,3132,-10,0,11281,4266,168,37754,-4,0,78,9,362150,0
362169,33,-2086,188,-87,46,148,10758,-1,3,-14,0,35460,-76,34,127,0,0,3133,-10,0,11281,4266,168,37765,-4,0,78,9,362150,0
362179,35,-2079,190,-82,43,146,10759,0,1,-38,8,35469,-68,34,127,0,0,3133,-21,0,11281,4266,168,37775,-4,0,78,9,362150,0
362189,34,-2078,187,-83,46,149,10757,-11,-5,-48,8,35486,-71,34,127,0,0,3135,43,0,11281,4266,168,37785,-4,0,78,9,362181,0
362199,41,-2084,187,-84,38,153,10758,-4,4,0,0,35481,-73,34,127,0,0,3135,0,0,11281,4266,168,37795,-4,0,78,9,362181,0
362209,14,-2089,195,-85,45,157,10758,5,-2,-22,-24,35468,-75,34,127,0,0,3135,10,0,11281,4266,168,37805,-4,0,78,9,362196,0
362219,9,-2082,186,-81,39,155,10758,-4,-2,-1,0,35451,-90,34,127,0,0,3135,21,0,11281,4266,168,37815,-4,0,78,9,362196,0
362229,8,-2082,182,-80,42,148,10759,0,3,0,0,35456,-86,34,127,0,0,3135,0,0,11281,4266,168,37825,-4,0,78,9,362196,0
362239,12,-2075,185,-81,40,141,10759,11,6,50,-8,35466,-92,34,127,0,0,3135,-21,0,11281,4266,168,37835,-4,0,78,9,362228,0
362249,13,-2081,191,-80,39,136,10759,-12,-6,33,32,35471,-87,34,127,0,0,3137,32,0,11281,4266,168,37845,-4,0,78,9,362228,0
362259,17,-2087,195,-84,40,143,10760,-7,3,31,0,35464,-97,34,127,0,0,3137,21,0,11281,4266,168,37855,-4,0,78,9,362228,0
362269,29,-2084,190,-85,38,131,10761,18,3,66,24,35466,-79,34,127,0,0,3139,32,0,11281,4266,168,37865,-4,0,78,9,362259,0
362279,1,-2094,190,-90,37,126,10761,0,0,96,16,35470,-77,34,127,0,0,3137,0,0,11281,4266,168,37875,-4,0,78,9,362259,0
362289,10,-2083,183,-88,44,128,10761,3,-1,85,16,35467,-74,34,127,0,0,3137,0,0,11281,4266,168,37885,-4,0,78,9,362259,0
362299,14,-2083,183,-86,36,115,10761,1,-1,92,16,35454,-86,34,127,0,0,3139,32,0,11281,4266,168,37895,-4,0,78,9,362274,0
362309,35,-2082,179,-87,37,115,10762,1,4,139,8,35456,-79,34,127,0,0,3137,-10,0,11281,4266,168,37905,-4,0,78,9,362290,0
362319,15,-2085,184,-90,34,112,10760,0,-4,108,8,35467,-92,34,127,0,0,3137,-10,0,11281,4266,168,37915,-4,0,78,9,362290,0
362329,-10,-2089,189,-91,36,122,10762,1,-2,92,16,35464,-88,34,127,0,0,3137,-10,0,11281,4266,168,37925,-4,0,78,9,362306,0
362339,24,-2083,194,-87,35,116,10763,0,5,114,16,35458,-101,34,127,0,0,3137,-10,0,11281,4266,168,37935,-4,0,78,9,362321,0
362349,30,-2092,183,-84,35,110,10763,7,3,123,48,35451,-105,34,127,0,0,3139,0,0,11281,4266,168,37945,-4,0,78,9,362321,0
362359,16,-2084,186,-84,37,114,10763,8,-3,140,0,35459,-98,34,127,0,0,3139,-10,0,11281,4266,168,37955,-4,0,78,9,362337,0
362369,38,-2082,186,-94,34,117,10761,0,-2,128,8,35458,-102,34,127,0,0,3137,-10,0,11281,4266,168,37965,-4,0,78,9,362353,0
362379,15,-2079,187,-85,35,113,10762,6,4,125,40,35456,-92,34,127,0,0,3139,0,0,11281,4266,168,37975,-4,0,78,9,362353,0
362389,19,-2084,178,-76,39,123,10764,3,6,155,32,35451,-94,34,127,0,0,3137,-32,0,11281,4266,168,37985,-4,0,78,9,362368,0
362399,21,-2079,183,-80,38,113,10761,-1,-5,63,16,35449,-85,34,127,0,0,3137,10,0,11281,4266,168,37995,-4,0,78,9,362384,0
362409,11,-2072,183,-83,36,131,10762,1,2,92,0,35449,-90,34,127,0,0,3139,21,0,11281,4266,168,38005,-4,0,78,9,362384,0
362420,1,-2083,194,-80,36,131,10760,-17,1,78,16,35451,-85,34,127,0,0,3140,60,0,11281,4266,168,38016,-4,0,78,9,362446,0
362430,27,-2087,192,-79,36,114,10765,11,2,143,32,35450,-85,34,127,0,0,3139,0,0,11281,4266,168,38026,-4,0,78,9,362462,0
362440,18,-2088,188,-79,44,117,10764,5,8,173,32,35447,-87,34,127,0,0,3139,-5,0,11281,4266,168,38036,-4,0,78,9,362462,0
362450,14,-2078,188,-78,37,124,10763,-11,-12,130,16,35442,-99,34,127,0,0,3140,10,0,11281,4266,168,38046,-4,0,78,9,362462,0
362460,6,-2082,174,-74,41,121,10765,7,6,131,8,35440,-115,34,127,0,0,3140,0,0,11281,4266,168,38056,-4,0,78,9,362462,0
362470,26,-2087,181,-68,46,125,10764,2,5,138,16,35442,-109,34,127,0,0,3137,-32,0,11281,4266,168,38066,-4,0,78,9,362478,0
362480,10,-2078,182,-70,39,126,10763,10,2,89,16,35441,-111,34,127,0,0,3140,16,0,11281,4266,168,38076,-4,0,78,9,362478,0
362490,29,-2085,183,-72,36,130,10763,-2,6,106,16,35444,-112,34,127,0,0,3137,-16,0,11281,4266,168,38086,-4,0,78,9,362478,0
362500,24,-2089,195,-75,41,126,10765,14,1,124,40,35450,-113,34,127,0,0,3139,-10,0,11281,4266,168,38096,-4,0,78,9,362478,0
362510,17,-2088,192,-74,36,132,10765,0,5,158,32,35462,-106,34,127,0,0,3136,-32,0,11281,4266,168,38106,-4,0,78,9,362493,0
362520,32,-2082,187,-75,39,130,10764,-1,-2,163,16,35462,-101,34,127,0,0,3144,5,0,11281,4266,168,38116,-4,0,78,9,362509,0
362530,8,-2089,196,-72,41,136,10764,-13,1,154,32,35461,-100,34,127,0,0,3139,10,0,11281,4266,168,38126,-4,0,78,9,362509,0
362540,9,-2083,201,-75,39,136,10766,1,-2,153,8,35463,-91,34,127,0,0,3140,-5,0,11281,4266,168,38136,-4,0,78,9,362509,0
362550,0,-2084,196,-79,47,132,10766,7,1,152,56,35459,-79,34,127,0,0,3142,38,0,11281,4266,168,38146,-4,0,78,9,362540,0
362560,21,-2088,195,-85,45,134,10767,-9,-1,153,48,35453,-77,34,127,0,0,3138,-10,0,11281,4266,168,38156,-4,0,78,9,362540,0
362570,20,-2085,186,-85,36,125,10767,8,0,134,24,35446,-91,34,127,0,0,3143,32,0,11281,4266,168,38166,-4,0,78,9,362540,0
362580,6,-2080,194,-84,35,132,10769,8,7,191,24,35446,-101,34,127,0,0,3146,32,0,11281,4266,168,38176,-4,0,78,9,362571,0
362590,23,-2092,197,-85,42,139,10769,11,8,225,64,35454,-102,34,127,0,0,3140,16,0,11281,4266,168,38186,-4,0,78,9,362587,0
362600,29,-2087,193,-84,38,132,10769,1,4,195,40,35454,-94,34,127,0,0,3138,-32,0,11281,4266,168,38196,-4,0,78,9,362587,0
362610,10,-2081,193,-84,41,135,10767,-10,-5,123,24,35443,-96,34,127,0,0,3143,5,0,11281,4266,168,38206,-4,0,78,9,362587,0
362620,3,-2083,194,-83,42,138,10770,5,-2,167,48,35439,-112,34,127,0,0,3145,49,0,11281,4266,168,38216,-4,0,78,9,362587,0
362630,21,-2088,196,-90,38,136,10771,5,11,207,64,35444,-122,34,127,0,0,3144,49,0,11281,4266,168,38226,-4,0,78,9,362634,0
362640,1,-2093,198,-90,43,138,10772,6,0,210,40,35446,-114,34,127,0,0,3142,5,0,11281,4266,168,38236,-4,0,78,9,362634,0
362650,13,-2079,195,-91,40,132,10772,1,-11,195,64,35441,-115,34,127,0,0,3144,32,0,11281,4266,168,38246,-4,0,78,9,362634,0
362660,26,-2083,193,-96,30,133,10772,-4,5,172,56,35437,-110,34,127,0,0,3144,49,0,11281,4266,168,38256,-4,0,78,9,362634,0
362671,34,-2077,181,-97,33,150,10776,12,4,240,8,35442,-113,34,127,0,0,3146,10,0,11281,4266,168,38267,-4,0,78,9,362649,0
362681,17,-2080,176,-97,37,144,10778,12,7,255,72,35453,-108,34,127,0,0,3146,21,0,11281,4266,168,38277,-4,0,78,9,362665,0
362691,10,-2087,185,-92,31,144,10786,13,4,215,88,35456,-83,34,127,0,0,3146,10,0,11281,4266,168,38287,-4,0,78,9,362665,0
362701,20,-2076,187,-92,28,140,10790,-5,1,154,48,35455,-86,34,127,0,0,3146,10,0,11281,4266,168,38297,-4,0,78,9,362665,0
362711,5,-2089,197,-97,33,139,10788,-2,-17,165,48,35456,-80,34,127,0,0,3146,21,0,11281,4266,168,38307,-4,0,78,9,362738,0
362721,35,-2084,194,-93,37,134,10790,-5,-5,155,24,35454,-100,34,127,0,0,3144,10,0,11281,4266,168,38317,-4,0,78,9,362753,0
362731,26,-2081,202,-97,42,138,10790,-1,-4,159,48,35446,-110,34,127,0,0,3146,21,0,11281,4266,168,38327,-4,0,78,9,362753,0
362741,13,-2075,191,-99,25,137,10792,0,-2,208,32,35436,-124,34,127,0,0,3148,10,0,11281,4266,168,38337,-4,0,78,9,362753,0
362751,-9,-2078,183,-101,32,133,10792,-1,-4,205,40,35436,-116,34,127,0,0,3146,10,0,11281,4266,168,38347,-4,0,78,9,362753,0
362761,-6,-2081,168,-96,41,122,10794,8,5,245,48,35437,-115,34,127,0,0,3146,-21,0,11281,4266,168,38357,-4,0,78,9,362753,0
362771,21,-2088,164,-93,34,114,10796,-3,2,234,48,35436,-107,34,127,0,0,3148,-10,0,11281,4266,168,38367,-4,0,78,9,362753,0
362781,-6,-2090,183,-85,42,116,10796,-6,-12,207,64,35435,-111,34,127,0,0,3148,10,0,11281,4266,168,38377,-4,0,78,9,362753,0
362791,15,-2085,195,-82,34,112,10797,-4,-4,223,88,35448,-117,34,127,0,0,3148,0,0,11281,4266,168,38387,-4,0,78,9,362769,0
362801,-6,-2082,195,-86,34,107,10796,-6,-2,241,80,35455,-109,34,127,0,0,3148,0,0,11281,4266,168,38397,-4,0,78,9,362769,0
362811,12,-2079,194,-91,35,107,10797,-16,-2,200,24,35466,-94,34,127,0,0,3148,32,0,11281,4266,168,38407,-4,0,78,9,362785,0
362821,15,-2084,191,-88,32,103,10799,3,2,248,40,35461,-87,34,127,0,0,3148,-10,0,11281,4266,168,38417,-4,0,78,9,362816,0
362831,1,-2084,188,-83,33,101,10798,0,2,245,40,35453,-95,34,127,0,0,3148,-10,0,11281,4266,168,38427,-4,0,78,9,362816,0
362841,10,-2084,187,-85,38,103,10800,-2,-3,223,16,35448,-94,34,127,0,0,3148,10,0,11281,4266,168,38437,-4,0,78,9,362816,0
362851,12,-2085,187,-89,33,109,10800,0,3,222,48,35441,-100,34,127,0,0,3148,0,0,11281,4266,168,38447,-4,0,78,9,362832,0
362861,22,-2087,186,-90,28,106,10799,-3,2,223,48,35443,-99,34,127,0,0,3148,-10,0,11281,4266,168,38457,-4,0,78,9,362863,0
362871,16,-2084,181,-92,33,101,10799,8,-2,194,16,35451,-110,34,127,0,0,3148,0,0,11281,4266,168,38467,-4,0,78,9,362863,0
362881,43,-2087,182,-85,30,112,10799,2,-1,206,80,35453,-119,34,127,0,0,3148,21,0,11281,4266,168,38477,-4,0,78,9,362863,0
362891,41,-2078,180,-80,35,116,10799,-4,2,216,16,35449,-107,34,127,0,0,3146,-21,0,11281,4266,168,38487,-4,0,78,9,362863,0
362901,9,-2079,176,-85,35,122,10798,12,1,202,48,35442,-98,34,127,0,0,3146,-32,0,11281,4266,168,38497,-4,0,78,9,362878,0
362911,3,-2075,180,-86,35,117,10797,-3,-2,172,56,35450,-82,34,127,0,0,3148,10,0,11281,4266,168,38507,-4,0,78,9,362894,0
362922,-1,-2086,187,-83,37,121,10799,-4,-4,204,48,35458,-72,34,127,0,0,3145,-21,0,11281,4266,168,38518,-4,0,78,9,362894,0
362932,40,-2085,194,-81,33,118,10800,6,7,225,48,35466,-87,34,127,0,0,3145,-65,0,11281,4266,168,38528,-4,0,78,9,362925,0
362942,-30,-2080,195,-84,35,118,10797,-1,-6,172,32,35448,-94,34,127,0,0,3149,5,0,11281,4266,168,38538,-4,0,78,9,362925,0
362952,-2,-2081,191,-79,34,122,10799,-2,5,200,72,35444,-108,34,127,0,0,3150,43,0,11281,4266,168,38548,-4,0,78,9,362925,0
362962,38,-2085,185,-82,42,109,10800,0,14,228,48,35443,-104,34,127,0,0,3145,-32,0,11281,4266,168,38558,-4,0,78,9,362941,0
362972,7,-2082,181,-85,39,112,10800,10,-2,198,72,35454,-111,34,127,0,0,3150,27,0,11281,4266,168,38568,-4,0,78,9,362957,0
362982,20,-2083,181,-84,31,106,10800,-3,2,233,72,35463,-106,34,127,0,0,3147,16,0,11281,4266,168,38578,-4,0,78,9,362957,0
362992,32,-2088,189,-85,31,112,10800,-1,-4,226,72,35455,-107,34,127,0,0,3147,0,0,11281,4266,168,38588,-4,0,78,9,362957,0
363002,-4,-2073,195,-81,36,97,10800,-2,-2,225,72,35455,-110,34,127,0,0,3144,-27,0,11281,4266,168,38598,-4,0,78,9,362988,0
363012,31,-2080,195,-88,37,101,10798,-8,-10,161,48,35458,-123,34,127,0,0,3148,32,0,11281,4266,168,38608,-4,0,78,9,362988,0
363022,15,-2081,199,-87,32,100,10800,-4,6,186,48,35465,-115,34,127,0,0,3148,27,0,11281,4266,168,38618,-4,0,78,9,362988,0
363032,16,-2076,192,-94,36,98,10798,-6,2,162,72,35473,-106,34,127,0,0,3147,49,0,11281,4266,168,38628,-4,0,78,9,363019,0
363042,23,-2076,187,-96,39,93,10801,1,2,212,64,35463,-98,34,127,0,0,3144,-27,0,11281,4266,168,38638,-4,0,78,9,363035,0
363052,36,-2086,186,-92,26,96,10798,-1,-11,151,48,35462,-102,34,127,0,0,3145,0,0,11281,4266,168,38648,-4,0,78,9,363035,0
363062,4,-2079,183,-88,35,96,10799,-10,-11,140,48,35453,-97,34,127,0,0,3145,-21,0,11281,4266,168,38658,-4,0,78,9,363035,0
363072,25,-2080,185,-92,36,98,10798,-9,1,141,32,35455,-94,34,127,0,0,3149,5,0,11281,4266,168,38668,-4,0,78,9,363050,0
363082,39,-2075,190,-95,36,100,10799,2,1,187,48,35465,-75,34,127,0,0,3142,-38,0,11281,4266,168,38678,-4,0,78,9,363066,0
363092,48,-2083,193,-91,31,101,10797,-11,-5,107,32,35465,-83,34,127,0,0,3146,-5,0,11281,4266,168,38688,-4,0,78,9,363066,0
363102,43,-2085,189,-97,34,99,10797,-11,-4,75,8,35472,-92,34,127,0,0,3144,10,0,11281,4266,168,38698,-4,0,78,9,363081,0
363112,16,-2080,182,-100,35,99,10797,15,7,69,32,35465,-106,34,127,0,0,3143,-21,0,11281,4266,168,38708,-4,0,78,9,363081,0
363122,7,-2092,176,-98,30,103,10799,12,3,143,8,35465,-105,34,127,0,0,3147,-43,0,11281,4266,168,38718,-4,0,78,9,363144,0
363132,7,-2080,181,-90,32,97,10796,-2,-8,109,16,35471,-108,34,127,0,0,3147,32,0,11281,4266,168,38728,-4,0,78,9,363144,0
363142,30,-2089,183,-88,36,103,10796,-9,-4,77,16,35460,-106,34,127,0,0,3144,10,0,11281,4266,168,38738,-4,0,78,9,363144,0
363152,16,-2082,186,-90,35,110,10798,5,5,56,32,35461,-113,34,127,0,0,3143,0,0,11281,4266,168,38748,-4,0,78,9,363160,0
363162,22,-2073,188,-88,37,108,10796,-10,-2,56,16,35446,-112,34,127,0,0,3144,0,0,11281,4266,168,38758,-4,0,78,9,363160,0
363172,29,-2087,192,-93,32,111,10796,-6,-6,40,16,35450,-109,34,127,0,0,3144,0,0,11281,4266,168,38768,-4,0,78,9,363191,0
363183,17,-2083,189,-84,33,110,10796,0,2,47,16,35451,-107,34,127,0,0,3144,0,0,11281,4266,168,38779,-4,0,78,9,363191,0
363193,26,-2083,179,-89,33,108,10795,-8,-3,40,16,35456,-95,34,127,0,0,3144,21,0,11281,4266,168,38789,-4,0,78,9,363191,0
363203,25,-2088,179,-90,42,108,10796,-1,0,47,16,35450,-95,34,127,0,0,3144,0,0,11281,4266,168,38799,-4,0,78,9,363191,0
363213,19,-2086,193,-86,37,110,10796,0,-2,50,48,35453,-101,34,127,0,0,3144,0,0,11281,4266,168,38809,-4,0,78,9,363206,0
363223,34,-2085,194,-86,33,105,10795,-4,0,44,16,35453,-98,34,127,0,0,3146,21,0,11281,4266,168,38819,-4,0,78,9,363206,0
363233,46,-2079,191,-88,32,111,10796,-4,-4,54,40,35471,-106,34,127,0,0,3144,21,0,11281,4266,168,38829,-4,0,78,9,363206,0
363243,29,-2079,181,-94,38,108,10797,0,-3,39,16,35474,-106,34,127,0,0,3146,21,0,11281,4266,168,38839,-4,0,78,9,363238,0
363253,34,-2091,173,-90,32,113,10797,-1,-2,75,8,35475,-94,34,127,0,0,3144,0,0,11281,4266,168,38849,-4,0,78,9,363253,0
363263,20,-2086,175,-86,37,109,10796,-4,5,42,8,35468,-96,34,127,0,0,3142,-21,0,11281,4266,168,38859,-4,0,78,9,363253,0
363273,-5,-2085,182,-79,34,112,10796,7,-3,34,24,35461,-98,34,127,0,0,3142,-43,0,11281,4266,168,38869,-4,0,78,9,363253,0
363283,6,-2087,190,-88,33,102,10797,3,-2,33,16,35448,-100,34,127,0,0,3144,-10,0,11281,4266,168,38879,-4,0,78,9,363253,0
363293,12,-2079,182,-81,33,109,10795,1,5,26,24,35451,-101,34,127,0,0,3144,10,0,11281,4266,168,38889,-4,0,78,9,363285,0
363303,20,-2081,183,-78,37,109,10795,-6,3,27,24,35456,-114,34,127,0,0,3144,10,0,11281,4266,168,38899,-4,0,78,9,363285,0
363313,30,-2071,184,-79,30,107,10796,0,0,35,-16,35456,-104,34,127,0,0,3146,21,0,11281,4266,168,38909,-4,0,78,9,363285,0
363323,-1,-2090,188,-84,39,117,10796,-9,-3,19,24,35458,-111,34,127,0,0,3142,21,0,11281,4266,168,38919,-4,0,78,9,363300,0
363333,22,-2082,192,-79,35,102,10796,0,-3,12,-16,35448,-97,34,127,0,0,3142,-10,0,11281,4266,168,38929,-4,0,78,9,363316,0
363343,7,-2082,187,-80,37,109,10796,5,2,27,-16,35455,-115,34,127,0,0,3144,0,0,11281,4266,168,38939,-4,0,78,9,363316,0
363353,25,-2095,186,-85,39,105,10795,-5,2,58,16,35459,-114,34,127,0,0,3144,0,0,11281,4266,168,38949,-4,0,78,9,363347,0
363363,23,-2088,177,-80,38,104,10796,-1,-1,46,16,35457,-108,34,127,0,0,3144,0,0,11281,4266,168,38959,-4,0,78,9,363347,0
363373,15,-2090,195,-83,40,104,10796,3,1,46,16,35451,-103,34,127,0,0,3144,0,0,11281,4266,168,38969,-4,0,78,9,363347,0
363383,24,-2089,184,-79,31,103,10796,4,0,44,-24,35449,-110,34,127,0,0,3142,-21,0,11281,4266,168,38979,-4,0,78,9,363347,0
363393,15,-2079,186,-87,35,102,10795,1,1,43,16,35456,-113,34,127,0,0,3139,-54,0,11281,4266,168,38989,-4,0,78,9,363378,0
363403,24,-2076,187,-78,37,101,10793,-9,-5,0,16,35458,-107,34,127,0,0,3144,21,0,11281,4266,168,38999,-4,0,78,9,363394,0
363413,25,-2076,185,-75,29,95,10794,-13,1,3,-8,35453,-93,34,127,0,0,3144,32,0,11281,4266,168,39009,-4,0,78,9,363394,0
363424,19,-2080,175,-81,38,102,10795,-8,3,10,16,35442,-84,34,127,0,0,3144,49,0,11281,4266,168,39020,-4,0,78,9,363394,0
363434,17,-2083,185,-79,32,100,10796,2,6,32,-8,35449,-90,34,127,0,0,3145,10,0,11281,4266,168,39030,-4,0,78,9,363425,0
363444,3,-2085,182,-86,30,89,10794,-1,-6,53,16,35469,-106,34,127,0,0,3144,0,0,11281,4266,168,39040,-4,0,78,9,363441,0
363454,22,-2080,181,-78,30,83,10795,1,-3,46,16,35469,-102,34,127,0,0,3140,-5,0,11281,4266,168,39050,-4,0,78,9,363441,0
363464,27,-2082,180,-77,35,84,10793,-14,-8,-16,-24,35456,-110,34,127,0,0,3139,-27,0,11281,4266,168,39060,-4,0,78,9,363441,0
363474,12,-2075,181,-71,36,83,10794,3,0,-73,16,35439,-110,34,127,0,0,3137,-16,0,11281,4266,168,39070,-4,0,78,9,363441,0
363484,37,-2084,183,-71,36,86,10791,-10,4,-101,-40,35453,-108,34,127,0,0,3140,21,0,11281,4266,168,39080,-4,0,78,9,363472,0
363494,27,-2078,193,-76,30,83,10790,-2,-5,-120,-40,35465,-104,34,127,0,0,3137,5,0,11281,4266,168,39090,-4,0,78,9,363472,0
363504,29,-2082,190,-77,24,82,10787,-11,-1,-152,-32,35460,-97,34,127,0,0,3134,-32,0,11281,4266,168,39100,-4,0,78,9,363472,0
363514,14,-2082,187,-76,44,76,10783,-6,-6,-131,-32,35449,-107,34,127,0,0,3134,-43,0,11281,4266,168,39110,-4,0,78,9,363503,0
363524,44,-2086,185,-75,27,75,10782,-9,5,-187,-24,35452,-129,34,127,0,0,3134,-5,0,11281,4266,168,39120,-4,0,78,9,363519,0
363534,22,-2085,184,-79,30,76,10780,-5,0,-142,-40,35458,-129,34,127,0,0,3135,-5,0,11281,4266,168,39130,-4,0,78,9,363519,0
363544,26,-2084,195,-71,32,84,10775,-16,-5,-193,-32,35454,-118,34,127,0,0,3132,10,0,11281,4266,168,39140,-4,0,78,9,363534,0
363554,37,-2087,193,-80,38,74,10765,-31,-7,-192,-40,35438,-100,34,127,0,0,3136,49,0,11281,4266,168,39150,-4,0,78,9,363550,0
363564,0,-2089,183,-83,42,80,10761,3,-6,-47,-24,35436,-92,34,127,0,0,3133,10,0,11281,4266,168,39160,-4,0,78,9,363550,0
363574,23,-2079,188,-77,23,80,10758,-8,17,-104,-40,35445,-92,34,127,0,0,3131,-21,0,11281,4266,168,39170,-4,0,78,9,363566,0
363584,29,-2082,176,-75,34,79,10755,-1,-4,-123,-32,35443,-92,34,127,0,0,3131,-10,0,11281,4266,168,39180,-4,0,78,9,363566,0
363594,42,-2087,184,-71,43,83,10753,0,3,-142,-32,35445,-84,34,127,0,0,3127,0,0,11281,4266,168,39190,-4,0,78,9,363566,0
363604,47,-2080,188,-80,43,91,10748,-21,4,-202,-48,35445,-87,34,127,0,0,3125,-21,0,11281,4266,168,39200,-4,0,78,9,363597,0
363614,35,-2084,186,-76,39,86,10748,5,3,-189,-64,35458,-84,34,127,0,0,3130,-16,0,11281,4266,168,39210,-4,0,78,9,363597,0
363624,27,-2072,186,-79,38,97,10747,-5,4,-198,-56,35457,-88,34,127,0,0,3130,38,0,11281,4266,168,39220,-4,0,78,9,363597,0
363634,38,-2084,187,-77,38,99,10746,0,7,-212,-64,35447,-85,34,127,0,0,3126,10,0,11281,4266,168,39230,-4,0,78,9,363597,0
363644,34,-2080,186,-75,37,101,10746,5,1,-222,-56,35440,-95,34,127,0,0,3126,-5,0,11281,4266,168,39240,-4,0,78,9,363628,0
363654,26,-2080,189,-73,36,100,10743,-12,-2,-247,-56,35454,-96,34,127,0,0,3126,16,0,11281,4266,168,39250,-4,0,78,9,363628,0
363665,32,-2081,192,-76,39,103,10744,-3,1,-234,-56,35452,-99,34,127,0,0,3124,-32,0,11281,4266,168,39261,-4,0,78,9,363628,0
363675,27,-2074,188,-78,41,105,10740,-13,-3,-294,-40,35448,-83,34,127,0,0,3126,54,0,11281,4266,168,39271,-4,0,78,9,363659,0
363685,40,-2078,188,-77,37,107,10741,-8,1,-261,-72,35439,-75,34,127,0,0,3126,10,0,11281,4266,168,39281,-4,0,78,9,363659,0
363695,13,-2084,179,-82,38,107,10742,7,1,-235,-80,35451,-84,34,127,0,0,3122,-10,0,11281,4266,168,39291,-4,0,78,9,363675,0
363705,26,-2082,184,-79,34,105,10739,-4,-6,-320,-56,35449,-79,34,127,0,0,3124,32,0,11281,4266,168,39301,-4,0,78,9,363691,0
363715,47,-2087,191,-74,32,111,10739,-1,1,-296,-56,35454,-88,34,127,0,0,3122,0,0,11281,4266,168,39311,-4,0,78,9,363691,0
363725,33,-2074,186,-77,33,102,10737,-6,5,-352,-80,35447,-80,34,127,0,0,3124,32,0,11281,4266,168,39321,-4,0,78,9,363706,0
363735,21,-2087,190,-78,37,104,10738,6,1,-292,-56,35446,-82,34,127,0,0,3124,10,0,11281,4266,168,39331,-4,0,78,9,363722,0
363745,25,-2086,192,-77,42,106,10738,-3,3,-269,-88,35443,-88,34,127,0,0,3124,10,0,11281,4266,168,39341,-4,0,78,9,363722,0
363755,2,-2088,186,-78,36,110,10739,12,-2,-277,-88,35450,-92,34,127,0,0,3122,-32,0,11281,4266,168,39351,-4,0,78,9,363738,0
363765,20,-2087,191,-81,37,97,10736,2,-1,-314,-80,35450,-100,34,127,0,0,3120,-32,0,11281,4266,168,39361,-4,0,78,9,363753,0
363775,32,-2073,183,-80,41,90,10735,1,-1,-341,-72,35454,-89,34,127,0,0,3120,-43,0,11281,4266,168,39371,-4,0,78,9,363753,0
363785,19,-2079,188,-79,38,94,10733,-11,6,-393,-96,35449,-75,34,127,0,0,3120,0,0,11281,4266,168,39381,-4,0,78,9,363753,0
363795,29,-2084,184,-74,40,95,10733,-6,1,-381,-96,35451,-69,34,127,0,0,3122,43,0,11281,4266,168,39391,-4,0,78,9,363784,0
363805,48,-2087,197,-79,37,83,10733,-5,3,-366,-64,35444,-72,34,127,0,0,3120,21,0,11281,4266,168,39401,-4,0,78,9,363784,0
363815,37,-2082,186,-84,38,86,10734,2,1,-364,-96,35449,-73,34,127,0,0,3120,0,0,11281,4266,168,39411,-4,0,78,9,363800,0
363825,31,-2081,185,-84,34,91,10731,-4,-6,-404,-144,35447,-83,34,127,0,0,3117,0,0,11281,4266,168,39421,-4,0,78,9,363800,0
363835,28,-2091,182,-82,34,94,10730,-1,-7,-437,-136,35450,-79,34,127,0,0,3117,32,0,11281,4266,168,39431,-4,0,78,9,363831,0
363845,33,-2081,185,-79,25,95,10729,4,-2,-398,-112,35453,-74,34,127,0,0,3117,0,0,11281,4266,168,39441,-4,0,78,9,363831,0
363855,31,-2084,189,-79,32,95,10727,-6,4,-422,-128,35452,-70,34,127,0,0,3115,-21,0,11281,4266,168,39451,-4,0,78,9,363831,0
363865,36,-2090,190,-81,32,97,10724,-7,-4,-447,-120,35451,-75,34,127,0,0,3113,-21,0,11281,4266,168,39461,-4,0,78,9,363831,0
363875,48,-2091,191,-83,37,89,10721,-3,-7,-429,-112,35452,-82,34,127,0,0,3115,21,0,11281,4266,168,39471,-4,0,78,9,363863,0
363885,46,-2085,180,-84,32,104,10720,-3,11,-418,-72,35460,-69,34,127,0,0,3115,10,0,11281,4266,168,39481,-4,0,78,9,363863,0
363895,40,-2080,182,-83,32,104,10719,-5,3,-444,-128,35458,-68,34,127,0,0,3113,10,0,11281,4266,168,39491,-4,0,78,9,363863,0
363905,21,-2088,189,-74,40,106,10714,-11,-8,-415,-120,35450,-75,34,127,0,0,3115,0,0,11281,4266,168,39501,-4,0,78,9,363878,0
363916,28,-2078,183,-80,29,112,10701,-38,-19,-364,-120,35439,-93,34,127,0,0,3114,32,0,11281,4266,168,39512,-4,0,78,9,363909,0
363926,44,-2079,183,-77,39,108,10677,-57,-34,-222,-24,35446,-92,34,127,0,0,3109,21,0,11281,4266,168,39522,-4,0,78,9,363925,0
363936,60,-2080,185,-80,35,113,10674,5,23,-223,-40,35441,-81,34,127,0,0,3110,0,0,11281,4266,168,39532,-4,0,78,9,363925,0
363946,17,-2076,197,-75,34,116,10676,7,50,-150,-24,35442,-89,34,127,0,0,3109,-76,0,11281,4266,168,39542,-4,0,78,9,363925,0
363956,23,-2084,187,-80,29,122,10674,-5,-4,-201,-64,35434,-83,34,127,0,0,3114,-10,0,11281,4266,168,39552,-4,0,78,9,363925,0
363966,35,-2081,184,-82,39,125,10675,6,1,-195,-24,35452,-87,34,127,0,0,3112,21,0,11281,4266,168,39562,-4,0,78,9,364003,0
363976,48,-2087,180,-81,36,124,10675,-2,5,-197,-40,35455,-88,34,127,0,0,3110,-38,0,11281,4266,168,39572,-4,0,78,9,364003,0
363986,43,-2082,185,-80,40,119,10676,9,-5,-213,-24,35458,-93,34,127,0,0,3112,27,0,11281,4266,168,39582,-4,0,78,9,364003,0
363996,34,-2093,188,-78,36,125,10674,-8,-5,-191,-40,35454,-88,34,127,0,0,3110,-5,0,11281,4266,168,39592,-4,0,78,9,364003,0
364006,14,-2085,187,-78,33,118,10675,0,-2,-217,-24,35445,-81,34,127,0,0,3112,16,0,11281,4266,168,39602,-4,0,78,9,364003,0
364016,45,-2087,185,-79,30,118,10675,-8,0,-180,-24,35444,-80,34,127,0,0,3109,-16,0,11281,4266,168,39612,-4,0,78,9,364003,0
364026,8,-2077,189,-73,43,108,10674,-14,-11,-188,-64,35440,-93,34,127,0,0,3117,27,0,11281,4266,168,39622,-4,0,78,9,364003,0
364036,12,-2079,193,-74,36,108,10674,-11,-3,-174,-64,35449,-96,34,127,0,0,3114,32,0,11281,4266,168,39632,-4,0,78,9,364019,0
364046,43,-2085,192,-82,40,112,10674,0,2,-197,-24,35461,-93,34,127,0,0,3112,38,0,11281,4266,168,39642,-4,0,78,9,364019,0
364056,53,-2085,187,-78,39,120,10673,-9,3,-204,-64,35473,-93,34,127,0,0,3117,49,0,11281,4266,168,39652,-4,0,78,9,364034,0
364066,77,-2087,187,-82,35,116,10676,0,-1,-158,-64,35477,-72,34,127,0,0,3114,27,0,11281,4266,168,39662,-4,0,78,9,364034,0
364076,42,-2091,181,-77,40,112,10674,-1,-1,-198,-64,35472,-75,34,127,0,0,3111,-16,0,11281,4266,168,39672,-4,0,78,9,364050,0
364086,37,-2080,194,-75,34,117,10674,2,0,-195,-40,35467,-67,34,127,0,0,3116,49,0,11281,4266,168,39682,-4,0,78,9,364081,0
364096,32,-2091,191,-81,31,122,10673,-5,2,-178,-40,35465,-72,34,127,0,0,3110,10,0,11281,4266,168,39692,-4,0,78,9,364081,0
364106,50,-2077,177,-79,43,112,10676,3,-2,-176,-48,35462,-88,34,127,0,0,3116,32,0,11281,4266,168,39702,-4,0,78,9,364081,0
364116,11,-2076,190,-78,36,120,10675,-1,-5,-174,-24,35457,-90,34,127,0,0,3112,38,0,11281,4266,168,39712,-4,0,78,9,364081,0
364126,71,-2081,193,-80,43,114,10674,-8,-1,-218,-40,35455,-96,34,127,0,0,3113,21,0,11281,4266,168,39722,-4,0,78,9,364112,0
364136,53,-2079,188,-82,43,126,10676,7,5,-174,-64,35464,-89,34,127,0,0,3111,-49,0,11281,4266,168,39732,-4,0,78,9,364112,0
364146,31,-2090,188,-77,37,135,10673,5,-6,-201,-16,35459,-89,34,127,0,0,3109,5,0,11281,4266,168,39742,-4,0,78,9,364128,0
364156,78,-2076,193,-76,41,132,10675,-5,-1,-178,-24,35451,-92,34,127,0,0,3112,-16,0,11281,4266,168,39752,-4,0,78,9,364128,0
364166,42,-2082,201,-86,33,126,10675,0,5,-207,-64,35450,-92,34,127,0,0,3111,-10,0,11281,4266,168,39762,-4,0,78,9,364144,0
364177,41,-2076,192,-78,40,136,10675,8,0,-196,0,35463,-87,34,127,0,0,3111,-10,0,11281,4266,168,39773,-4,0,78,9,364175,0
364187,62,-2081,193,-85,38,120,10673,-3,4,-208,-32,35469,-71,34,127,0,0,3115,21,0,11281,4266,168,39783,-4,0,78,9,364175,0
364197,44,-2081,190,-85,40,131,10676,3,-3,-180,-16,35460,-81,34,127,0,0,3111,-10,0,11281,4266,168,39793,-4,0,78,9,364175,0
364207,45,-2082,188,-87,46,124,10674,5,2,-204,-8,35453,-78,34,127,0,0,3113,10,0,11281,4266,168,39803,-4,0,78,9,364175,0
364217,5,-2071,190,-85,40,126,10673,-8,-3,-192,-8,35451,-80,34,127,0,0,3115,21,0,11281,4266,168,39813,-4,0,78,9,364206,0
364227,23,-2079,195,-86,36,126,10675,-6,5,-176,0,35468,-71,34,127,0,0,3111,-10,0,11281,4266,168,39823,-4,0,78,9,364206,0
364237,33,-2073,195,-81,51,122,10674,0,-3,-199,-8,35463,-66,34,127,0,0,3113,43,0,11281,4266,168,39833,-4,0,78,9,364206,0
364247,68,-2087,193,-82,41,125,10675,-14,-2,-134,-24,35459,-84,34,127,0,0,3113,10,0,11281,4266,168,39843,-4,0,78,9,364222,0
364257,-9,-2072,190,-87,36,129,10676,0,-3,-130,-24,35457,-77,34,127,0,0,3115,0,0,11281,4266,168,39853,-4,0,78,9,364316,0
364267,24,-2072,194,-85,39,136,10673,-16,-6,-152,-8,35462,-66,34,127,0,0,3113,32,0,11281,4266,168,39863,-4,0,78,9,364316,0
364277,29,-2080,199,-86,34,123,10674,-19,-6,-189,0,35463,-69,34,127,0,0,3115,43,0,11281,4266,168,39873,-4,0,78,9,364316,0
364287,56,-2077,188,-86,49,130,10675,-4,3,-146,-16,35460,-80,34,127,0,0,3115,32,0,11281,4266,168,39883,-4,0,78,9,364316,0
364297,52,-2073,196,-84,41,126,10676,2,-7,-108,-88,35452,-73,34,127,0,0,3113,-43,0,11281,4266,168,39893,-4,0,78,9,364316,0
364307,-8,-2083,186,-88,35,133,10676,20,-8,-110,-24,35451,-67,34,127,0,0,3117,10,0,11281,4266,168,39903,-4,0,78,9,364331,0
364317,25,-2094,186,-87,41,139,10675,-6,5,-95,-24,35442,-63,34,127,0,0,3115,-10,0,11281,4266,168,39913,-4,0,78,9,364331,0
364327,20,-2079,191,-87,42,126,10678,11,6,-96,-32,35436,-77,34,127,0,0,3115,0,0,11281,4266,168,39923,-4,0,78,9,364331,0
364337,38,-2085,185,-88,45,130,10673,-11,-3,-154,-8,35442,-77,34,127,0,0,3115,54,0,11281,4266,168,39933,-4,0,78,9,364331,0
364347,53,-2091,186,-87,40,134,10678,-5,1,-107,-56,35446,-77,34,127,0,0,3115,0,0,11281,4266,168,39943,-4,0,78,9,364331,0
364357,58,-2091,188,-83,46,131,10677,8,1,-136,-16,35445,-72,34,127,0,0,3115,54,0,11281,4266,168,39953,-4,0,78,9,364331,0
364367,46,-2088,192,-83,42,130,10677,1,0,-103,-24,35452,-62,34,127,0,0,3117,32,0,11281,4266,168,39963,-4,0,78,9,364331,0
364377,59,-2081,197,-86,38,134,10677,-6,5,-86,-24,35474,-63,34,127,0,0,3117,43,0,11281,4266,168,39973,-4,0,78,9,364362,0
364387,23,-2095,182,-92,43,135,10677,1,-1,-74,-32,35491,-66,34,127,0,0,3115,0,0,11281,4266,168,39983,-4,0,78,9,364362,0
364397,18,-2089,188,-83,38,136,10677,15,2,-86,-32,35484,-70,34,127,0,0,3117,0,0,11281,4266,168,39993,-4,0,78,9,364362,0
364407,-1,-2082,190,-80,36,137,10676,1,-3,-71,8,35455,-61,34,127,0,0,3115,0,0,11281,4266,168,40003,-4,0,78,9,364378,0
364418,16,-2079,182,-88,36,129,10676,-2,0,-87,0,35447,-82,34,127,0,0,3114,-10,0,11281,4266,168,40014,-4,0,78,9,364394,0
364428,32,-2086,188,-86,32,130,10678,6,2,-65,-24,35463,-79,34,127,0,0,3119,10,0,11281,4266,168,40024,-4,0,78,9,364409,0
364438,12,-2073,191,-81,41,126,10678,7,3,-5,16,35462,-82,34,127,0,0,3116,5,0,11281,4266,168,40034,-4,0,78,9,364409,0
364448,37,-2071,184,-77,42,126,10678,-3,4,-5,16,35457,-73,34,127,0,0,3116,5,0,11281,4266,168,40044,-4,0,78,9,364425,0
364458,41,-2083,192,-79,39,122,10679,4,-2,-5,-32,35459,-76,34,127,0,0,3119,-5,0,11281,4266,168,40054,-4,0,78,9,364441,0
364468,18,-2080,188,-81,35,126,10679,13,-1,-13,16,35460,-91,34,127,0,0,3116,5,0,11281,4266,168,40064,-4,0,78,9,364441,0
364478,36,-2084,187,-83,36,131,10678,-6,3,-5,-8,35459,-96,34,127,0,0,3121,32,0,11281,4266,168,40074,-4,0,78,9,364456,0
364488,24,-2084,188,-81,40,130,10680,0,-1,12,-8,35444,-89,34,127,0,0,3117,-27,0,11281,4266,168,40084,-4,0,78,9,364472,0
364498,29,-2079,183,-81,36,129,10680,11,0,17,8,35447,-86,34,127,0,0,3116,-16,0,11281,4266,168,40094,-4,0,78,9,364503,0
364508,39,-2081,180,-80,36,126,10678,-3,-5,-18,16,35451,-89,34,127,0,0,3116,5,0,11281,4266,168,40104,-4,0,78,9,364519,0
364518,38,-2080,186,-79,39,126,10682,11,3,26,8,35459,-75,34,127,0,0,3120,-10,0,11281,4266,168,40114,-4,0,78,9,364519,0
364528,27,-2079,186,-79,39,125,10681,-3,1,45,-8,35459,-76,34,127,0,0,3117,-38,0,11281,4266,168,40124,-4,0,78,9,364519,0
364538,9,-2081,191,-72,37,132,10680,10,-4,23,8,35454,-74,34,127,0,0,3120,-10,0,11281,4266,168,40134,-4,0,78,9,364519,0
364548,35,-2076,188,-74,44,125,10680,-1,2,34,-8,35455,-83,34,127,0,0,3121,0,0,11281,4266,168,40144,-4,0,78,9,364519,0
364558,26,-2087,186,-74,38,142,10681,0,4,28,-8,35458,-83,34,127,0,0,3121,10,0,11281,4266,168,40154,-4,0,78,9,364534,0
364568,12,-2081,173,-73,40,139,10683,15,7,77,-16,35462,-74,34,127,0,0,3124,10,0,11281,4266,168,40164,-4,0,78,9,364550,0
364578,16,-2084,183,-66,38,148,10682,2,-5,96,8,35456,-76,34,127,0,0,3120,5,0,11281,4266,168,40174,-4,0,78,9,364566,0
364588,38,-2087,185,-61,36,139,10682,3,2,99,8,35452,-87,34,127,0,0,3123,10,0,11281,4266,168,40184,-4,0,78,9,364566,0
364598,25,-2079,190,-63,40,148,10683,0,3,163,24,35449,-87,34,127,0,0,3119,-54,0,11281,4266,168,40194,-4,0,78,9,364566,0
364608,53,-2086,198,-63,46,140,10686,15,1,139,24,35450,-85,34,127,0,0,3122,-32,0,11281,4266,168,40204,-4,0,78,9,364628,0
364618,29,-2077,205,-63,42,149,10686,0,-1,163,40,35453,-89,34,127,0,0,3124,16,0,11281,4266,168,40214,-4,0,78,9,364628,0
364628,47,-2082,205,-73,40,160,10685,-7,3,136,56,35457,-76,34,127,0,0,3123,27,0,11281,4266,168,40224,-4,0,78,9,364659,0
364638,32,-2097,197,-82,35,173,10690,11,10,173,48,35445,-75,34,127,0,0,3126,10,0,11281,4266,168,40234,-4,0,78,9,364659,0
364648,16,-2079,206,-84,38,177,10689,1,3,234,96,35433,-71,34,127,0,0,3127,60,0,11281,4266,168,40244,-4,0,78,9,364675,0
364658,40,-2084,193,-91,31,181,10700,22,20,256,56,35424,-64,34,127,0,0,3132,27,0,11281,4266,168,40254,-4,0,78,9,364675,0
364669,21,-2080,197,-89,38,181,10717,39,20,194,48,35439,-71,34,127,0,0,3133,21,0,11281,4266,168,40265,-4,0,78,9,364675,0
364679,4,-2077,196,-86,39,179,10741,58,25,80,56,35442,-71,34,127,0,0,3133,10,0,11281,4266,168,40275,-4,0,78,9,364675,0
364689,22,-2076,182,-88,28,177,10746,-14,-11,57,0,35445,-84,34,127,0,0,3135,10,0,11281,4266,168,40285,-4,0,78,9,364675,0
364699,-15,-2088,176,-85,39,173,10747,7,-53,153,48,35434,-66,34,127,0,0,3137,21,0,11281,4266,168,40295,-4,0,78,9,364675,0
364709,2,-2084,183,-89,40,168,10750,2,-2,220,104,35448,-94,34,127,0,0,3137,-21,0,11281,4266,168,40305,-4,0,78,9,364690,0
364719,26,-2079,200,-83,38,158,10748,-2,-14,218,64,35464,-93,34,127,0,0,3142,32,0,11281,4266,168,40315,-4,0,78,9,364690,0
364729,22,-2082,202,-87,36,162,10751,1,3,247,48,35474,-98,34,127,0,0,3144,65,0,11281,4266,168,40325,-4,0,78,9,364737,0
364739,1,-2087,195,-91,36,158,10755,8,6,299,72,35461,-87,34,127,0,0,3142,0,0,11281,4266,168,40335,-4,0,78,9,364737,0
364749,0,-2080,194,-94,30,153,10753,-7,-6,277,80,35445,-96,34,127,0,0,3144,32,0,11281,4266,168,40345,-4,0,78,9,364737,0
364759,-2,-2081,187,-95,35,144,10758,10,1,333,88,35441,-102,34,127,0,0,3144,0,0,11281,4266,168,40355,-4,0,78,9,364737,0
364769,8,-2078,177,-89,34,138,10757,-7,2,297,56,35437,-113,34,127,0,0,3144,32,0,11281,4266,168,40365,-4,0,78,9,364737,0
364779,10,-2085,185,-89,38,133,10760,11,1,331,88,35442,-110,34,127,0,0,3146,0,0,11281,4266,168,40375,-4,0,78,9,364753,0
364789,4,-2083,183,-86,38,133,10763,10,13,363,96,35446,-109,34,127,0,0,3146,0,0,11281,4266,168,40385,-4,0,78,9,364769,0
364799,10,-2092,187,-87,34,129,10762,1,1,352,72,35456,-116,34,127,0,0,3146,0,0,11281,4266,168,40395,-4,0,78,9,364784,0
364809,10,-2080,190,-87,44,124,10763,3,-3,344,112,35458,-99,34,127,0,0,3146,21,0,11281,4266,168,40405,-4,0,78,9,364784,0
364819,12,-2082,182,-80,34,124,10766,5,1,375,80,35462,-79,34,127,0,0,3150,32,0,11281,4266,168,40415,-4,0,78,9,364815,0
364829,16,-2084,189,-82,41,126,10771,13,8,344,80,35451,-69,34,127,0,0,3146,0,0,11281,4266,168,40425,-4,0,78,9,364815,0
364839,7,-2082,185,-79,34,114,10770,-4,-3,324,56,35451,-75,34,127,0,0,3146,0,0,11281,4266,168,40435,-4,0,78,9,364815,0
364849,-1,-2088,188,-82,44,120,10772,16,-7,335,80,35450,-97,34,127,0,0,3146,-21,0,11281,4266,168,40445,-4,0,78,9,364815,0
364859,14,-2074,182,-76,36,111,10773,-5,0,325,112,35456,-89,34,127,0,0,3148,21,0,11281,4266,168,40455,-4,0,78,9,364847,0
364869,-4,-2080,195,-72,38,113,10779,18,7,319,64,35452,-85,34,127,0,0,3146,-32,0,11281,4266,168,40465,-4,0,78,9,364847,0
364879,9,-2085,190,-79,33,115,10783,10,10,268,56,35447,-85,34,127,0,0,3146,0,0,11281,4266,168,40475,-4,0,78,9,364847,0
364889,-1,-2084,188,-76,33,106,10783,0,-8,259,48,35441,-103,34,127,0,0,3146,-10,0,11281,4266,168,40485,-4,0,78,9,364862,0
364899,-2,-2086,186,-74,35,109,10784,-3,-6,246,80,35446,-107,34,127,0,0,3146,-10,0,11281,4266,168,40495,-4,0,78,9,364862,0
364909,7,-2083,189,-74,39,110,10789,2,10,215,48,35445,-100,34,127,0,0,3146,0,0,11281,4266,168,40505,-4,0,78,9,364878,0
364920,11,-2086,192,-74,32,109,10789,8,-3,220,48,35453,-92,34,127,0,0,3146,0,0,11281,4266,168,40516,-4,0,78,9,364909,0
364930,-4,-2082,189,-76,34,111,10790,3,-5,233,48,35459,-105,34,127,0,0,3146,-27,0,11281,4266,168,40526,-4,0,78,9,364909,0
364940,-2,-2086,188,-73,38,108,10790,4,6,223,48,35462,-109,34,127,0,0,3149,32,0,11281,4266,168,40536,-4,0,78,9,364925,0
364950,13,-2086,189,-70,36,101,10792,4,-5,261,64,35444,-112,34,127,0,0,3145,-5,0,11281,4266,168,40546,-4,0,78,9,364925,0
364960,23,-2081,187,-72,31,94,10794,-3,15,204,40,35449,-105,34,127,0,0,3146,-43,0,11281,4266,168,40556,-4,0,78,9,364940,0
364970,-11,-2088,187,-77,27,96,10794,5,-6,181,40,35460,-111,34,127,0,0,3146,-5,0,11281,4266,168,40566,-4,0,78,9,364940,0
364980,28,-2069,183,-72,37,86,10793,-11,-2,186,16,35469,-99,34,127,0,0,3154,43,0,11281,4266,168,40576,-4,0,78,9,364956,0
364990,10,-2085,186,-69,39,97,10792,-8,1,199,40,35467,-96,34,127,0,0,3153,82,0,11281,4266,168,40586,-4,0,78,9,365050,0
365000,4,-2084,193,-64,40,92,10796,4,0,216,32,35452,-94,34,127,0,0,3146,-5,0,11281,4266,168,40596,-4,0,78,9,365050,0
365010,26,-2082,191,-71,35,87,10793,0,-2,145,40,35456,-105,34,127,0,0,3143,-5,0,11281,4266,168,40606,-4,0,78,9,365050,0
365020,41,-2081,188,-65,31,86,10794,0,-5,124,40,35454,-102,34,127,0,0,3146,5,0,11281,4266,168,40616,-4,0,78,9,365050,0
365030,27,-2075,191,-65,35,96,10793,-7,2,135,40,35453,-103,34,127,0,0,3146,5,0,11281,4266,168,40626,-4,0,78,9,365050,0
365040,16,-2081,189,-67,35,108,10794,6,2,109,16,35443,-102,34,127,0,0,3144,10,0,11281,4266,168,40636,-4,0,78,9,365065,0
365050,20,-2082,189,-65,39,106,10794,2,0,114,40,35442,-112,34,127,0,0,3146,10,0,11281,4266,168,40646,-4,0,78,9,365065,0
365060,22,-2077,190,-65,33,111,10793,-3,6,109,16,35449,-110,34,127,0,0,3140,-43,0,11281,4266,168,40656,-4,0,78,9,365065,0
365070,13,-2093,193,-62,38,115,10793,12,-3,96,16,35455,-94,34,127,0,0,3144,-38,0,11281,4266,168,40666,-4,0,78,9,365065,0
365080,25,-2079,192,-64,35,118,10793,0,7,114,40,35448,-82,34,127,0,0,3143,5,0,11281,4266,168,40676,-4,0,78,9,365065,0
365090,41,-2084,199,-65,37,112,10792,-2,3,115,40,35444,-93,34,127,0,0,3146,32,0,11281,4266,168,40686,-4,0,78,9,365065,0
365100,37,-2086,196,-65,33,120,10792,-3,-1,122,24,35456,-101,34,127,0,0,3144,-5,0,11281,4266,168,40696,-4,0,78,9,365065,0
365110,6,-2079,198,-69,41,126,10793,1,-5,132,0,35469,-94,34,127,0,0,3148,-5,0,11281,4266,168,40706,-4,0,78,9,365081,0
365120,-7,-2086,196,-72,39,126,10794,9,-4,147,16,35478,-86,34,127,0,0,3147,38,0,11281,4266,168,40716,-4,0,78,9,365112,0
365130,14,-2087,196,-71,37,122,10791,-14,-2,131,24,35465,-88,34,127,0,0,3144,-16,0,11281,4266,168,40726,-4,0,78,9,365112,0
365140,29,-2083,196,-68,35,122,10794,-2,-3,107,16,35457,-107,34,127,0,0,3147,32,0,11281,4266,168,40736,-4,0,78,9,365112,0
365150,24,-2086,194,-75,33,124,10794,0,4,159,40,35462,-109,34,127,0,0,3143,-32,0,11281,4266,168,40746,-4,0,78,9,365128,0
365160,16,-2086,200,-73,44,123,10793,4,-3,106,16,35465,-118,34,127,0,0,3147,32,0,11281,4266,168,40756,-4,0,78,9,365128,0
365171,39,-2087,203,-75,35,128,10794,0,2,155,8,35472,-100,35,127,0,0,3144,-21,0,11281,4266,168,40767,-4,0,78,9,365159,0
365181,25,-2081,201,-85,48,122,10791,-12,-3,106,56,35471,-101,34,127,0,0,3144,10,0,11281,4266,168,40777,-4,0,78,9,365159,0
365191,49,-2085,199,-84,39,123,10792,-8,-2,110,40,35467,-107,34,127,0,0,3146,10,0,11281,4266,168,40787,-4,0,78,9,365159,0
365201,-11,-2074,200,-84,34,129,10795,7,-4,140,8,35461,-117,34,127,0,0,3146,-10,0,11281,4266,168,40797,-4,0,78,9,365190,0
365211,-27,-2077,196,-86,38,126,10794,9,-4,149,8,35456,-112,34,127,0,0,3144,-32,0,11281,4266,168,40807,-4,0,78,9,365190,0
365221,-8,-2091,187,-80,40,125,10792,1,-4,113,24,35455,-112,34,127,0,0,3146,0,0,11281,4266,168,40817,-4,0,78,9,365190,0
365231,0,-2077,196,-83,33,121,10793,1,5,123,16,35467,-108,34,127,0,0,3146,10,0,11281,4266,168,40827,-4,0,78,9,365222,0
365241,40,-2085,195,-83,45,113,10794,6,2,159,40,35463,-116,34,127,0,0,3144,-32,0,11281,4266,168,40837,-4,0,78,9,365222,0
365251,18,-2079,186,-78,41,113,10791,-4,-2,107,56,35462,-113,34,127,0,0,3144,10,0,11281,4266,168,40847,-4,0,78,9,365237,0
365261,20,-2069,198,-75,31,113,10791,-22,-1,120,8,35450,-108,34,127,0,0,3146,10,0,11281,4266,168,40857,-4,0,78,9,365237,0
365271,-3,-2078,201,-82,40,119,10796,8,1,143,8,35450,-112,34,127,0,0,3144,-32,0,11281,4266,168,40867,-4,0,78,9,365237,0
365281,17,-2082,190,-79,45,117,10791,-4,-3,108,24,35451,-107,34,127,0,0,3144,0,0,11281,4266,168,40877,-4,0,78,9,365268,0
365291,24,-2081,195,-79,48,116,10794,-1,5,138,40,35449,-101,34,127,0,0,3144,-21,0,11281,4266,168,40887,-4,0,78,9,365268,0
365301,11,-2082,198,-84,37,121,10795,0,11,139,40,35446,-103,34,127,0,0,3146,10,0,11281,4266,168,40897,-4,0,78,9,365268,0
365311,3,-2085,199,-82,40,117,10794,9,-1,127,16,35457,-106,34,127,0,0,3144,-10,0,11281,4266,168,40907,-4,0,78,9,365300,0
365321,29,-2094,193,-78,38,120,10793,0,2,148,8,35462,-112,34,127,0,0,3146,0,0,11281,4266,168,40917,-4,0,78,9,365300,0
365331,5,-2090,191,-87,33,123,10793,-3,3,136,16,35464,-104,34,127,0,0,3144,-21,0,11281,4266,168,40927,-4,0,78,9,365315,0
365341,24,-2081,191,-85,41,113,10794,8,1,113,16,35450,-90,34,127,0,0,3146,21,0,11281,4266,168,40937,-4,0,78,9,365315,0
365351,-7,-2086,191,-81,35,114,10792,8,4,137,48,35460,-97,34,127,0,0,3146,10,0,11281,4266,168,40947,-4,0,78,9,365393,0
365361,20,-2085,202,-85,33,113,10793,-5,2,128,16,35463,-104,34,127,0,0,3144,-21,0,11281,4266,168,40957,-4,0,78,9,365393,0
365371,26,-2086,199,-85,36,111,10794,7,2,133,8,35465,-100,34,127,0,0,3146,10,0,11281,4266,168,40967,-4,0,78,9,365409,0
365381,12,-2083,194,-83,38,112,10792,-3,1,142,40,35446,-100,34,127,0,0,3146,10,0,11281,4266,168,40977,-4,0,78,9,365409,0
365391,16,-2076,199,-82,33,111,10790,-14,2,108,16,35436,-110,34,127,0,0,3146,21,0,11281,4266,168,40987,-4,0,78,9,365409,0
365401,15,-2085,200,-91,40,109,10795,7,5,145,8,35438,-110,34,127,0,0,3144,-32,0,11281,4266,168,40997,-4,0,78,9,365409,0
365411,-2,-2086,191,-88,29,114,10794,15,-4,132,8,35438,-112,34,127,0,0,3144,-10,0,11281,4266,168,41007,-4,0,78,9,365409,0
365421,6,-2083,193,-87,36,111,10792,-4,-5,118,8,35433,-114,34,127,0,0,3146,21,0,11281,4266,168,41017,-4,0,78,9,365409,0
365431,11,-2082,199,-82,31,113,10792,-13,2,111,16,35433,-114,34,127,0,0,3146,21,0,11281,4266,168,41027,-4,0,78,9,365409,0
365442,50,-2085,196,-91,39,112,10795,10,5,132,32,35444,-109,34,127,0,0,3143,0,0,11281,4266,168,41038,-4,0,78,9,365409,0
365452,28,-2087,196,-89,33,112,10793,3,-3,115,24,35460,-95,34,127,0,0,3147,16,0,11281,4266,168,41048,-4,0,78,9,365440,0
365462,25,-2085,196,-96,33,117,10793,-8,-8,98,40,35465,-93,34,127,0,0,3143,16,0,11281,4266,168,41058,-4,0,78,9,365440,0
365472,33,-2082,189,-89,37,113,10794,9,7,138,32,35458,-98,34,127,0,0,3146,-10,0,11281,4266,168,41068,-4,0,78,9,365456,0
365482,7,-2085,191,-91,28,117,10793,-5,-5,118,40,35450,-100,34,127,0,0,3146,21,0,11281,4266,168,41078,-4,0,78,9,365456,0
365492,24,-2079,187,-82,33,121,10793,-6,-5,88,40,35440,-112,34,127,0,0,3146,49,0,11281,4266,168,41088,-4,0,78,9,365487,0
365502,32,-2078,198,-91,36,111,10794,5,10,130,16,35444,-109,34,127,0,0,3147,10,0,11281,4266,168,41098,-4,0,78,9,365487,0
365512,2,-2090,199,-93,43,110,10792,0,0,161,-8,35438,-98,34,127,0,0,3145,-43,0,11281,4266,168,41108,-4,0,78,9,365487,0
365522,-1,-2077,193,-91,40,114,10792,13,-11,106,24,35439,-98,34,127,0,0,3144,0,0,11281,4266,168,41118,-4,0,78,9,365487,0
365532,24,-2084,198,-90,33,112,10793,1,8,134,16,35444,-114,34,127,0,0,3144,-43,0,11281,4266,168,41128,-4,0,78,9,365518,0
365542,8,-2087,186,-91,38,117,10794,14,2,124,16,35454,-114,34,127,0,0,3144,-5,0,11281,4266,168,41138,-4,0,78,9,365518,0
365552,24,-2074,190,-90,38,111,10791,-12,-5,100,24,35449,-116,34,127,0,0,3144,0,0,11281,4266,168,41148,-4,0,78,9,365534,0
365562,23,-2090,195,-83,32,106,10792,-12,-6,83,24,35441,-105,34,127,0,0,3144,0,0,11281,4266,168,41158,-4,0,78,9,365534,0
365572,23,-2081,185,-91,40,115,10793,11,4,124,16,35449,-107,34,127,0,0,3147,0,0,11281,4266,168,41168,-4,0,78,9,365550,0
365582,13,-2089,197,-84,26,112,10791,-14,-8,78,0,35460,-116,34,127,0,0,3145,27,0,11281,4266,168,41178,-4,0,78,9,365565,0
365592,6,-2093,192,-89,35,112,10793,8,4,105,32,35454,-107,34,127,0,0,3143,5,0,11281,4266,168,41188,-4,0,78,9,365565,0
365602,9,-2086,191,-94,35,109,10793,3,6,110,40,35442,-119,34,127,0,0,3146,10,0,11281,4266,168,41198,-4,0,78,9,365581,0
365612,34,-2084,195,-88,35,117,10793,-7,-12,105,24,35433,-118,34,127,0,0,3144,10,0,11281,4266,168,41208,-4,0,78,9,365581,0
365622,24,-2075,196,-87,34,115,10794,3,4,112,40,35441,-118,34,127,0,0,3146,32,0,11281,4266,168,41218,-4,0,78,9,365597,0
365632,26,-2080,192,-87,39,115,10791,-16,-1,114,0,35456,-100,34,127,0,0,3148,10,0,11281,4266,168,41228,-4,0,78,9,365628,0
365642,28,-2082,194,-93,35,124,10795,14,-4,133,-8,35457,-92,34,127,0,0,3145,-10,0,11281,4266,168,41238,-4,0,78,9,365628,0
365652,7,-2082,192,-90,43,122,10791,1,-3,93,24,35459,-95,34,127,0,0,3144,27,0,11281,4266,168,41248,-4,0,78,9,365628,0
365662,30,-2085,202,-93,33,124,10791,-13,-1,89,40,35451,-116,34,127,0,0,3146,54,0,11281,4266,168,41258,-4,0,78,9,365643,0
365673,34,-2080,198,-92,29,130,10792,-13,1,84,24,35458,-121,34,127,0,0,3144,0,0,11281,4266,168,41269,-4,0,78,9,365643,0
365683,18,-2088,194,-94,46,134,10793,7,4,110,48,35452,-108,34,127,0,0,3144,10,0,11281,4266,168,41279,-4,0,78,9,365659,0
365693,-2,-2081,187,-99,38,133,10793,1,-8,118,24,35454,-101,34,127,0,0,3144,-10,0,11281,4266,168,41289,-4,0,78,9,365675,0
365703,16,-2083,187,-96,32,136,10794,-9,-2,99,16,35453,-104,34,127,0,0,3144,0,0,11281,4266,168,41299,-4,0,78,9,365690,0
365713,23,-2076,183,-92,32,131,10793,6,-2,106,16,35448,-97,34,127,0,0,3146,21,0,11281,4266,168,41309,-4,0,78,9,365690,0
365723,-7,-2084,187,-85,41,135,10793,0,3,122,48,35448,-94,34,127,0,0,3144,10,0,11281,4266,168,41319,-4,0,78,9,365690,0
365733,3,-2081,193,-91,46,126,10793,-5,-3,140,40,35441,-91,34,127,0,0,3144,-21,0,11281,4266,168,41329,-4,0,78,9,365784,0
365743,25,-2073,192,-87,41,126,10793,0,-1,133,40,35449,-102,34,127,0,0,3146,10,0,11281,4266,168,41339,-4,0,78,9,365784,0
365753,-3,-2089,195,-92,38,133,10794,-3,-1,151,40,35456,-120,34,127,0,0,3146,-10,0,11281,4266,168,41349,-4,0,78,9,365784,0
365763,-10,-2083,199,-89,42,125,10792,1,-1,131,40,35445,-113,34,127,0,0,3146,10,0,11281,4266,168,41359,-4,0,78,9,365784,0
365773,2,-2084,194,-87,39,123,10794,5,-2,146,8,35439,-114,34,127,0,0,3144,-21,0,11281,4266,168,41369,-4,0,78,9,365800,0
365783,15,-2083,195,-97,41,121,10794,9,4,125,48,35443,-99,34,127,0,0,3146,10,0,11281,4266,168,41379,-4,0,78,9,365800,0
365793,14,-2082,188,-94,36,115,10793,-4,-3,158,40,35442,-91,34,127,0,0,3144,-21,0,11281,4266,168,41389,-4,0,78,9,365800,0
365803,22,-2078,187,-95,40,119,10792,-7,-8,123,40,35440,-98,34,127,0,0,3146,21,0,11281,4266,168,41399,-4,0,78,9,365800,0
365813,13,-2075,188,-87,34,117,10792,-12,2,139,40,35431,-101,34,127,0,0,3146,21,0,11281,4266,168,41409,-4,0,78,9,365800,0
365823,22,-2076,187,-88,40,114,10794,1,1,151,40,35437,-109,34,127,0,0,3144,-21,0,11281,4266,168,41419,-4,0,78,9,365800,0
365833,-8,-2080,192,-92,37,109,10792,0,-2,140,40,35455,-103,34,127,0,0,3144,-21,0,11281,4266,168,41429,-4,0,78,9,365800,0
365843,15,-2083,190,-86,42,106,10792,-9,-3,127,40,35477,-99,34,127,0,0,3146,21,0,11281,4266,168,41439,-4,0,78,9,365831,0
365853,10,-2081,195,-86,29,113,10793,-6,6,154,40,35482,-92,34,127,0,0,3144,-21,0,11281,4266,168,41449,-4,0,78,9,365831,0
365863,24,-2074,193,-92,31,108,10793,-1,-6,123,72,35472,-99,34,127,0,0,3144,0,0,11281,4266,168,41459,-4,0,78,9,365831,0
365873,-2,-2081,199,-86,31,106,10791,-18,-5,108,8,35457,-103,34,127,0,0,3144,-10,0,11281,4266,168,41469,-4,0,78,9,365862,0
365883,1,-2079,195,-85,35,107,10795,12,2,118,48,35454,-109,34,127,0,0,3144,-10,0,11281,4266,168,41479,-4,0,78,9,365862,0
365893,34,-2081,186,-87,43,105,10791,-11,2,97,24,35449,-100,34,127,0,0,3146,21,0,11281,4266,168,41489,-4,0,78,9,365878,0
365903,19,-2082,191,-87,40,105,10794,11,-2,112,48,35450,-99,34,127,0,0,3144,-10,0,11281,4266,168,41499,-4,0,78,9,365878,0
365914,11,-2082,187,-90,36,105,10792,-4,3,103,40,35451,-104,34,127,0,0,3146,10,0,11281,4266,168,41510,-4,0,78,9,365925,0
365924,13,-2077,192,-85,33,116,10793,-6,-1,114,40,35463,-118,34,127,0,0,3143,10,0,11281,4266,168,41520,-4,0,78,9,365925,0
365934,6,-2071,192,-90,39,110,10794,-2,5,92,16,35459,-109,34,127,0,0,3144,-27,0,11281,4266,168,41530,-4,0,78,9,365925,0
365944,4,-2087,193,-82,32,114,10794,15,3,126,16,35447,-94,34,127,0,0,3144,-16,0,11281,4266,168,41540,-4,0,78,9,365940,0
365954,-5,-2083,188,-90,36,112,10792,10,2,107,40,35435,-96,34,127,0,0,3143,5,0,11281,4266,168,41550,-4,0,78,9,365940,0
365964,28,-2078,192,-83,30,110,10793,-9,-1,115,40,35441,-107,34,127,0,0,3146,-5,0,11281,4266,168,41560,-4,0,78,9,365940,0
365974,53,-2086,192,-86,35,110,10792,-8,1,101,40,35459,-106,34,127,0,0,3143,38,0,11281,4266,168,41570,-4,0,78,9,365956,0
365984,70,-2085,189,-90,42,106,10792,-11,-12,90,40,35472,-99,34,127,0,0,3143,5,0,11281,4266,168,41580,-4,0,78,9,365956,0
365994,18,-2084,194,-88,36,121,10792,-10,3,95,40,35470,-105,34,127,0,0,3143,-21,0,11281,4266,168,41590,-4,0,78,9,365971,0
366004,25,-2085,192,-90,39,120,10794,10,-1,129,40,35463,-121,34,127,0,0,3146,16,0,11281,4266,168,41600,-4,0,78,9,365987,0
366014,6,-2087,178,-84,39,122,10790,-19,-5,99,24,35461,-128,34,127,0,0,3144,21,0,11281,4266,168,41610,-4,0,78,9,365987,0
366024,30,-2087,177,-85,47,112,10794,-1,-5,83,16,35455,-109,34,127,0,0,3144,0,0,11281,4266,168,41620,-4,0,78,9,365987,0
366034,17,-2082,199,-82,38,120,10793,2,4,123,16,35459,-103,34,127,0,0,3144,-5,0,11281,4266,168,41630,-4,0,78,9,366018,0
366044,27,-2075,197,-84,39,116,10790,-15,-10,69,24,35452,-98,34,127,0,0,3140,-16,0,11281,4266,168,41640,-4,0,78,9,366018,0
366054,5,-2080,191,-85,39,110,10795,5,-2,96,16,35457,-105,34,127,0,0,3144,-27,0,11281,4266,168,41650,-4,0,78,9,366034,0
366064,-11,-2075,189,-86,43,113,10791,-6,1,73,40,35457,-104,34,127,0,0,3139,5,0,11281,4266,168,41660,-4,0,78,9,366034,0
366074,57,-2079,189,-81,39,104,10791,-13,-3,46,40,35463,-94,34,127,0,0,3143,21,0,11281,4266,168,41670,-4,0,78,9,366050,0
366084,48,-2084,191,-83,37,111,10792,-7,7,74,24,35476,-108,34,127,0,0,3144,0,0,11281,4266,168,41680,-4,0,78,9,366065,0
366094,17,-2090,190,-86,37,111,10793,-7,-2,83,16,35474,-106,34,127,0,0,3144,0,0,11281,4266,168,41690,-4,0,78,9,366081,0
366104,7,-2084,182,-82,34,109,10795,14,0,107,16,35463,-103,34,127,0,0,3147,5,0,11281,4266,168,41700,-4,0,78,9,366081,0
366114,33,-2091,190,-81,31,107,10793,0,-4,117,0,35448,-94,34,127,0,0,3145,5,0,11281,4266,168,41710,-4,0,78,9,366096,0
366124,19,-2079,183,-77,35,107,10793,0,-1,113,16,35451,-92,34,127,0,0,3144,0,0,11281,4266,168,41720,-4,0,78,9,366112,0
366134,9,-2089,190,-77,34,110,10791,-1,1,96,24,35449,-102,34,127,0,0,3147,32,0,11281,4266,168,41730,-4,0,78,9,366112,0
366144,9,-2082,190,-77,36,113,10793,-2,-1,120,16,35456,-97,34,127,0,0,3144,-5,0,11281,4266,168,41740,-4,0,78,9,366112,0
366154,30,-2089,198,-84,32,115,10793,-1,6,87,16,35452,-88,34,127,0,0,3144,16,0,11281,4266,168,41750,-4,0,78,9,366159,0
366164,40,-2087,198,-78,37,111,10793,0,6,114,16,35453,-88,34,127,0,0,3144,-27,0,11281,4266,168,41760,-4,0,78,9,366159,0
366174,22,-2083,192,-85,32,114,10795,14,-1,148,16,35454,-90,34,127,0,0,3144,-49,0,11281,4266,168,41770,-4,0,78,9,366159,0
366184,0,-2087,190,-82,31,111,10793,9,-6,92,16,35451,-92,34,127,0,0,3144,-10,0,11281,4266,168,41780,-4,0,78,9,366159,0
366195,36,-2087,189,-82,36,110,10792,-14,2,96,8,35445,-89,34,127,0,0,3144,10,0,11281,4266,168,41791,-4,0,78,9,366175,0
366205,-5,-2084,195,-80,34,126,10793,0,2,89,56,35456,-103,34,127,0,0,3142,-32,0,11281,4266,168,41801,-4,0,78,9,366175,0
366215,40,-2083,190,-81,31,119,10793,0,-1,83,24,35467,-118,34,127,0,0,3144,0,0,11281,4266,168,41811,-4,0,78,9,366206,0
366225,12,-2079,190,-79,30,120,10791,-14,-2,86,-8,35481,-121,34,127,0,0,3144,-10,0,11281,4266,168,41821,-4,0,78,9,366206,0
366235,1,-2082,190,-81,37,122,10795,17,-2,97,16,35466,-113,34,127,0,0,3144,-10,0,11281,4266,168,41831,-4,0,78,9,366206,0
366245,2,-2085,186,-80,42,125,10792,-2,-5,116,48,35456,-100,34,127,0,0,3144,-10,0,11281,4266,168,41841,-4,0,78,9,366237,0
366255,22,-2073,195,-81,30,118,10791,-16,-5,86,24,35458,-102,34,127,0,0,3144,10,0,11281,4266,168,41851,-4,0,78,9,366237,0
366265,23,-2079,187,-84,40,119,10794,0,8,108,16,35468,-110,34,127,0,0,3146,0,0,11281,4266,168,41861,-4,0,78,9,366237,0
366275,-4,-2087,188,-80,41,123,10793,4,0,78,32,35467,-111,34,127,0,0,3144,0,0,11281,4266,168,41871,-4,0,78,9,366253,0
366285,16,-2084,192,-81,35,116,10794,15,0,96,16,35459,-102,34,127,0,0,3144,10,0,11281,4266,168,41881,-4,0,78,9,366253,0
366295,20,-2083,187,-84,30,117,10794,-3,1,128,8,35454,-109,34,127,0,0,3144,-10,0,11281,4266,168,41891,-4,0,78,9,366284,0
366305,-4,-2090,192,-80,39,122,10792,-7,-1,81,32,35458,-114,34,127,0,0,3144,21,0,11281,4266,168,41901,-4,0,78,9,366284,0
366315,31,-2081,192,-86,36,118,10794,3,8,104,16,35455,-124,34,127,0,0,3142,-21,0,11281,4266,168,41911,-4,0,78,9,366284,0
366325,1,-2086,187,-82,40,117,10792,4,-1,49,0,35449,-108,34,127,0,0,3144,10,0,11281,4266,168,41921,-4,0,78,9,366315,0
366335,9,-2088,186,-83,32,123,10794,7,7,117,16,35459,-107,34,127,0,0,3144,-21,0,11281,4266,168,41931,-4,0,78,9,366331,0
366345,14,-2087,182,-85,47,120,10793,5,-2,79,32,35465,-99,34,127,0,0,3144,10,0,11281,4266,168,41941,-4,0,78,9,366331,0
366355,27,-2092,184,-81,38,115,10793,-2,3,133,8,35466,-95,34,127,0,0,3144,0,0,11281,4266,168,41951,-4,0,78,9,366331,0
366365,20,-2086,189,-79,41,117,10793,-1,4,123,48,35448,-88,34,127,0,0,3144,0,0,11281,4266,168,41961,-4,0,78,9,366331,0
366375,29,-2088,187,-77,36,116,10792,-8,-5,90,56,35449,-91,34,127,0,0,3144,0,0,11281,4266,168,41971,-4,0,78,9,366362,0
366385,8,-2080,195,-79,35,116,10791,-11,-4,64,16,35461,-104,34,127,0,0,3144,32,0,11281,4266,168,41981,-4,0,78,9,366362,0
366395,41,-2075,197,-81,39,117,10793,-11,5,88,16,35473,-108,34,127,0,0,3146,32,0,11281,4266,168,41991,-4,0,78,9,366382,0
366405,46,-2085,191,-87,33,115,10794,-3,1,108,16,35466,-94,34,127,0,0,3144,0,0,11281,4266,168,42001,-4,0,78,9,366382,0
366415,8,-2087,196,-82,41,115,10791,5,-4,114,16,35455,-87,34,127,0,0,3144,10,0,11281,4266,168,42011,-4,0,78,9,366382,0
366426,19,-2084,188,-86,36,112,10792,-8,-2,87,24,35448,-102,34,127,0,0,3144,0,0,11281,4266,168,42022,-4,0,78,9,366397,0
366436,32,-2087,186,-79,27,114,10792,-6,-4,92,24,35450,-112,34,127,0,0,3144,-5,0,11281,4266,168,42032,-4,0,78,9,366429,0
366446,10,-2077,194,-85,37,113,10793,-3,0,106,16,35465,-111,34,127,0,0,3144,0,0,11281,4266,168,42042,-4,0,78,9,366429,0
366456,19,-2083,196,-82,40,116,10794,-2,-10,93,24,35462,-99,34,127,0,0,3140,-32,0,11281,4266,168,42052,-4,0,78,9,366429,0
366466,8,-2076,196,-84,48,115,10793,6,5,100,16,35458,-85,34,127,0,0,3144,-27,0,11281,4266,168,42062,-4,0,78,9,366444,0
366476,8,-2073,199,-84,31,116,10791,-12,-1,95,0,35449,-97,34,127,0,0,3142,-38,0,11281,4266,168,42072,-4,0,78,9,366476,0
366486,-16,-2082,187,-76,35,122,10794,16,6,94,16,35452,-91,34,127,0,0,3147,-5,0,11281,4266,168,42082,-4,0,78,9,366476,0
366496,-13,-2087,188,-83,32,122,10793,-1,1,122,24,35453,-97,34,127,0,0,3144,10,0,11281,4266,168,42092,-4,0,78,9,366491,0
366506,4,-2092,188,-73,43,108,10792,-6,2,105,16,35438,-94,34,127,0,0,3144,-27,0,11281,4266,168,42102,-4,0,78,9,366491,0
366516,14,-2091,184,-82,34,116,10794,5,2,114,40,35443,-105,34,127,0,0,3143,5,0,11281,4266,168,42112,-4,0,78,9,366491,0
366526,36,-2081,187,-79,35,108,10794,0,-1,130,24,35452,-95,34,127,0,0,3147,10,0,11281,4266,168,42122,-4,0,78,9,366491,0
366536,18,-2089,194,-83,42,112,10794,-1,-8,121,24,35456,-98,34,127,0,0,3144,10,0,11281,4266,168,42132,-4,0,78,9,366554,0
366546,18,-2075,191,-78,37,118,10794,11,2,122,16,35458,-105,34,127,0,0,3144,-5,0,11281,4266,168,42142,-4,0,78,9,366554,0
366556,25,-2075,186,-79,37,116,10792,-1,-1,122,40,35450,-106,34,127,0,0,3143,-27,0,11281,4266,168,42152,-4,0,78,9,366554,0
366566,19,-2075,185,-77,37,116,10792,-14,-6,79,24,35452,-97,34,127,0,0,3144,0,0,11281,4266,168,42162,-4,0,78,9,366569,0
366576,33,-2077,185,-82,33,112,10793,-5,7,93,16,35440,-94,34,127,0,0,3144,-27,0,11281,4266,168,42172,-4,0,78,9,366569,0
366586,14,-2087,190,-79,35,113,10794,15,-1,111,16,35441,-88,34,127,0,0,3144,-27,0,11281,4266,168,42182,-4,0,78,9,366569,0
366596,19,-2080,196,-78,33,114,10793,0,-6,106,24,35442,-108,34,127,0,0,3144,-16,0,11281,4266,168,42192,-4,0,78,9,366569,0
366606,7,-2087,197,-82,29,113,10792,-5,4,94,24,35446,-104,34,127,0,0,3140,-32,0,11281,4266,168,42202,-4,0,78,9,366569,0
366616,25,-2080,198,-75,36,105,10792,2,4,95,16,35450,-104,34,127,0,0,3144,-16,0,11281,4266,168,42212,-4,0,78,9,366601,0
366626,-4,-2084,194,-77,32,110,10792,-1,0,95,16,35451,-93,34,127,0,0,3144,0,0,11281,4266,168,42222,-4,0,78,9,366616,0
366636,14,-2083,195,-78,41,111,10795,3,2,134,-8,35454,-94,34,127,0,0,3145,-49,0,11281,4266,168,42232,-4,0,78,9,366616,0
366646,-1,-2092,187,-82,35,115,10793,14,5,92,16,35449,-106,34,127,0,0,3147,49,0,11281,4266,168,42242,-4,0,78,9,366616,0
366657,7,-2083,182,-79,31,108,10793,-1,0,103,24,35449,-111,34,127,0,0,3142,-32,0,11281,4266,168,42253,-4,0,78,9,366632,0
366667,13,-2082,190,-78,37,106,10792,9,-4,52,56,35447,-105,34,127,0,0,3144,21,0,11281,4266,168,42263,-4,0,78,9,366663,0
366677,-2,-2077,192,-85,38,111,10792,-14,-2,68,-8,35451,-94,34,127,0,0,3144,10,0,11281,4266,168,42273,-4,0,78,9,366663,0
366687,14,-2083,202,-86,32,119,10793,-3,-4,93,16,35453,-105,34,127,0,0,3142,-21,0,11281,4266,168,42283,-4,0,78,9,366663,0
366697,8,-2078,190,-77,35,108,10794,5,1,87,-8,35443,-104,34,127,0,0,3144,0,0,11281,4266,168,42293,-4,0,78,9,366663,0
366707,-11,-2083,194,-81,33,109,10793,9,-1,114,-16,35440,-120,34,127,0,0,3142,-32,0,11281,4266,168,42303,-4,0,78,9,366710,0
366717,5,-2090,188,-85,31,110,10792,1,2,98,-24,35443,-112,34,127,0,0,3144,-21,0,11281,4266,168,42313,-4,0,78,9,366710,0
366727,-22,-2091,193,-78,38,109,10793,5,1,101,16,35450,-130,34,127,0,0,3142,-32,0,11281,4266,168,42323,-4,0,78,9,366710,0
366737,-3,-2088,190,-82,38,114,10791,-3,1,75,24,35454,-111,34,127,0,0,3142,-32,0,11281,4266,168,42333,-4,0,78,9,366710,0
366747,10,-2077,191,-82,27,107,10792,-6,5,46,-8,35441,-107,34,127,0,0,3142,0,0,11281,4266,168,42343,-4,0,78,9,366741,0
366757,0,-2081,190,-79,44,116,10794,14,3,100,16,35445,-94,34,127,0,0,3144,-21,0,11281,4266,168,42353,-4,0,78,9,366741,0
366767,2,-2082,194,-77,31,114,10793,6,7,81,32,35446,-111,34,127,0,0,3144,10,0,11281,4266,168,42363,-4,0,78,9,366741,0
366777,31,-2084,186,-78,31,105,10793,1,-2,109,16,35453,-113,34,127,0,0,3142,-10,0,11281,4266,168,42373,-4,0,78,9,366772,0
366787,52,-2080,190,-79,31,106,10792,-1,-1,94,56,35448,-112,34,127,0,0,3144,-10,0,11281,4266,168,42383,-4,0,78,9,366772,0
366797,-21,-2080,195,-77,33,119,10793,-1,-3,82,16,35447,-97,34,127,0,0,3144,-10,0,11281,4266,168,42393,-4,0,78,9,366788,0
366807,-12,-2072,198,-83,36,114,10791,1,0,90,24,35445,-100,34,127,0,0,3144,-10,0,11281,4266,168,42403,-4,0,78,9,366788,0
366817,11,-2089,191,-84,30,118,10791,4,7,64,0,35445,-126,34,127,0,0,3142,-21,0,11281,4266,168,42413,-4,0,78,9,366788,0
366827,8,-2085,193,-81,34,109,10793,11,3,71,16,35451,-126,34,127,0,0,3144,0,0,11281,4266,168,42423,-4,0,78,9,366866,0
366837,6,-2082,190,-83,31,104,10792,-2,4,105,24,35448,-124,34,127,0,0,3144,0,0,11281,4266,168,42433,-4,0,78,9,366866,0
366847,33,-2088,188,-79,36,105,10791,-19,-1,91,24,35448,-109,34,127,0,0,3139,-43,0,11281,4266,168,42443,-4,0,78,9,366866,0
366857,-5,-2079,199,-78,34,98,10791,-6,-4,59,24,35442,-103,34,127,0,0,3144,-10,0,11281,4266,168,42453,-4,0,78,9,366882,0
366867,4,-2074,196,-74,40,103,10792,-2,0,73,32,35445,-88,34,127,0,0,3144,10,0,11281,4266,168,42463,-4,0,78,9,366882,0
366877,28,-2091,191,-76,36,96,10796,13,2,112,16,35435,-92,34,127,0,0,3144,0,0,11281,4266,168,42473,-4,0,78,9,366882,0
366887,16,-2085,183,-84,39,94,10792,-1,-3,97,-8,35433,-86,34,127,0,0,3142,-21,0,11281,4266,168,42483,-4,0,78,9,366882,0
366897,24,-2087,186,-75,35,98,10791,-4,-5,31,0,35433,-95,34,127,0,0,3142,10,0,11281,4266,168,42493,-4,0,78,9,366882,0
366908,31,-2087,194,-75,42,98,10792,3,4,5,0,35455,-94,34,127,0,0,3142,0,0,11281,4266,168,42504,-4,0,78,9,366882,0
366918,22,-2084,200,-83,38,95,10790,4,-1,-21,-16,35472,-100,34,127,0,0,3143,10,0,11281,4266,168,42514,-4,0,78,9,366897,0
366928,25,-2079,193,-80,42,94,10792,10,5,38,0,35473,-96,34,127,0,0,3142,-27,0,11281,4266,168,42524,-4,0,78,9,366897,0
366938,24,-2081,182,-83,38,98,10788,-6,-2,-13,-16,35480,-99,34,127,0,0,3143,38,0,11281,4266,168,42534,-4,0,78,9,366929,0
366948,19,-2086,188,-79,36,96,10789,-10,-3,-25,-16,35467,-108,34,127,0,0,3143,43,0,11281,4266,168,42544,-4,0,78,9,366929,0
366958,30,-2085,192,-78,40,100,10789,-4,5,-17,-16,35450,-126,34,127,0,0,3139,-10,0,11281,4266,168,42554,-4,0,78,9,366929,0
366968,30,-2086,191,-82,38,99,10790,8,-5,-19,-16,35451,-113,34,127,0,0,3139,-16,0,11281,4266,168,42564,-4,0,78,9,366960,0
366978,5,-2083,197,-79,37,108,10789,6,-1,-36,-56,35452,-100,34,127,0,0,3145,21,0,11281,4266,168,42574,-4,0,78,9,366960,0
366988,-7,-2069,195,-85,36,100,10789,10,-3,-15,-16,35462,-102,34,127,0,0,3139,10,0,11281,4266,168,42584,-4,0,78,9,366960,0
366998,16,-2082,185,-80,39,104,10786,-14,6,-95,-32,35453,-103,34,127,0,0,3140,21,0,11281,4266,168,42594,-4,0,78,9,366975,0
367008,6,-2082,197,-74,30,103,10783,-6,-1,-99,-8,35445,-105,34,127,0,0,3136,27,0,11281,4266,168,42604,-4,0,78,9,366991,0
367018,39,-2086,194,-84,32,102,10784,-7,3,-121,-24,35445,-102,34,127,0,0,3140,43,0,11281,4266,168,42614,-4,0,78,9,366991,0
367028,14,-2090,194,-87,35,107,10784,-1,0,-71,-8,35462,-111,34,127,0,0,3136,10,0,11281,4266,168,42624,-4,0,78,9,367054,0
367038,36,-2082,194,-83,29,104,10781,-16,-5,-139,0,35454,-115,34,127,0,0,3133,10,0,11281,4266,168,42634,-4,0,78,9,367054,0
367048,66,-2094,196,-84,35,103,10782,-2,-8,-136,-48,35455,-113,34,127,0,0,3135,-43,0,11281,4266,168,42644,-4,0,78,9,367069,0
367058,7,-2082,188,-81,38,111,10782,6,-2,-58,-24,35450,-120,34,127,0,0,3137,-27,0,11281,4266,168,42654,-4,0,78,9,367069,0
367068,25,-2085,196,-83,32,114,10782,-1,0,-42,-48,35462,-116,34,127,0,0,3142,10,0,11281,4266,168,42664,-4,0,78,9,367069,0
367078,9,-2079,197,-81,29,111,10778,-9,-3,-82,-16,35468,-105,34,127,0,0,3134,16,0,11281,4266,168,42674,-4,0,78,9,367069,0
367088,43,-2078,188,-78,33,102,10779,0,3,-136,-40,35457,-86,34,127,0,0,3138,5,0,11281,4266,168,42684,-4,0,78,9,367069,0
367098,4,-2083,189,-79,37,110,10777,3,-2,-62,-16,35455,-85,34,127,0,0,3131,-49,0,11281,4266,168,42694,-4,0,78,9,367069,0
367108,55,-2075,186,-79,29,104,10773,-22,-4,-148,-24,35454,-66,34,127,0,0,3135,-10,0,11281,4266,168,42704,-4,0,78,9,367085,0
367118,26,-2083,194,-82,33,102,10770,-8,-10,-79,-24,35463,-84,34,127,0,0,3138,60,0,11281,4266,168,42714,-4,0,78,9,367116,0
367128,24,-2081,191,-83,39,101,10771,0,12,-27,-24,35460,-75,34,127,0,0,3138,27,0,11281,4266,168,42724,-4,0,78,9,367132,0
367138,46,-2084,196,-77,39,107,10768,-15,-3,-87,-16,35456,-87,34,127,0,0,3135,54,0,11281,4266,168,42734,-4,0,78,9,367132,0
367148,32,-2075,190,-82,31,106,10767,-2,-8,-52,-16,35445,-84,34,127,0,0,3135,21,0,11281,4266,168,42744,-4,0,78,9,367132,0
367158,36,-2074,189,-83,33,94,10767,-6,3,-64,-16,35447,-83,34,127,0,0,3135,27,0,11281,4266,168,42754,-4,0,78,9,367132,0
367169,10,-2080,196,-75,42,102,10766,-1,-3,-65,-16,35452,-101,34,127,0,0,3133,-32,0,11281,4266,168,42765,-4,0,78,9,367132,0
367179,23,-2076,196,-79,29,96,10762,-21,-8,-122,-24,35455,-112,34,127,0,0,3133,0,0,11281,4266,168,42775,-4,0,78,9,367194,0
367189,16,-2082,193,-82,36,99,10761,12,-6,-41,-24,35455,-115,34,127,0,0,3133,-10,0,11281,4266,168,42785,-4,0,78,9,367225,0
367199,35,-2084,195,-81,31,104,10758,-8,6,-48,8,35456,-107,34,127,0,0,3131,-21,0,11281,4266,168,42795,-4,0,78,9,367241,0
367209,10,-2085,201,-83,28,97,10759,1,0,-106,-8,35449,-90,34,127,0,0,3133,0,0,11281,4266,168,42805,-4,0,78,9,367241,0
367219,27,-2093,193,-90,36,106,10758,-9,2,-76,-56,35446,-73,34,127,0,0,3131,0,0,11281,4266,168,42815,-4,0,78,9,367241,0
367229,21,-2080,192,-90,28,101,10757,5,-1,-61,-16,35449,-83,34,127,0,0,3128,-54,0,11281,4266,168,42825,-4,0,78,9,367241,0
367239,41,-2072,194,-86,40,102,10753,-13,-10,-117,-8,35447,-91,34,127,0,0,3131,0,0,11281,4266,168,42835,-4,0,78,9,367241,0
367249,42,-2073,198,-81,27,104,10751,-24,0,-126,-32,35447,-86,34,127,0,0,3133,43,0,11281,4266,168,42845,-4,0,78,9,367241,0
367259,25,-2083,193,-81,36,116,10753,1,8,-126,-48,35439,-76,34,127,0,0,3131,0,0,11281,4266,168,42855,-4,0,78,9,367241,0
367269,35,-2083,186,-91,40,117,10751,16,-4,-52,-32,35440,-70,34,127,0,0,3128,-43,0,11281,4266,168,42865,-4,0,78,9,367241,0
367279,4,-2088,193,-85,30,114,10746,-12,-2,-158,-40,35457,-85,34,127,0,0,3131,32,0,11281,4266,168,42875,-4,0,78,9,367257,0
367289,73,-2078,182,-87,33,117,10748,-5,4,-123,-8,35481,-93,34,127,0,0,3128,0,0,11281,4266,168,42885,-4,0,78,9,367288,0
367299,53,-2083,186,-90,44,114,10749,8,14,-91,-32,35483,-96,34,127,0,0,3128,-43,0,11281,4266,168,42895,-4,0,78,9,367288,0
367309,-8,-2077,201,-86,40,122,10747,-9,-13,-121,-48,35474,-90,34,127,0,0,3128,-10,0,11281,4266,168,42905,-4,0,78,9,367288,0
367319,18,-2074,204,-91,38,126,10746,-8,2,-164,-8,35452,-93,34,127,0,0,3128,0,0,11281,4266,168,42915,-4,0,78,9,367288,0
367329,-7,-2080,198,-83,32,122,10749,7,15,-102,-56,35463,-105,34,127,0,0,3131,0,0,11281,4266,168,42925,-4,0,78,9,367319,0
367339,-15,-2077,198,-87,39,126,10749,1,3,-35,-24,35459,-102,34,127,0,0,3133,21,0,11281,4266,168,42935,-4,0,78,9,367319,0
367349,28,-2082,188,-89,31,117,10748,-7,-5,-72,24,35460,-90,34,127,0,0,3131,10,0,11281,4266,168,42945,-4,0,78,9,367335,0
367359,56,-2086,185,-92,38,111,10749,-3,1,-92,16,35447,-75,34,127,0,0,3133,21,0,11281,4266,168,42955,-4,0,78,9,367335,0
367369,27,-2080,192,-88,34,118,10750,10,0,-59,-24,35456,-90,34,127,0,0,3133,32,0,11281,4266,168,42965,-4,0,78,9,367350,0
367379,21,-2078,188,-90,33,119,10751,1,1,25,-48,35465,-84,34,127,0,0,3131,-32,0,11281,4266,168,42975,-4,0,78,9,367366,0
367389,14,-2084,182,-88,33,107,10750,2,-1,-15,-32,35457,-76,34,127,0,0,3131,-32,0,11281,4266,168,42985,-4,0,78,9,367366,0
367399,14,-2085,185,-82,27,110,10749,0,-7,-65,-16,35448,-67,34,127,0,0,3131,21,0,11281,4266,168,42995,-4,0,78,9,367366,0
367410,44,-2082,194,-86,32,104,10748,-7,1,-69,-40,35446,-70,34,127,0,0,3132,21,0,11281,4266,168,43006,-4,0,78,9,367382,0
367420,22,-2081,193,-87,39,101,10750,9,4,-48,-24,35465,-65,34,127,0,0,3127,-32,0,11281,4266,168,43016,-4,0,78,9,367413,0
367430,27,-2077,186,-83,46,99,10748,1,-7,-124,-40,35465,-70,34,127,0,0,3128,-16,0,11281,4266,168,43026,-4,0,78,9,367413,0
367440,32,-2083,192,-89,31,100,10748,8,3,-101,-24,35456,-66,34,127,0,0,3127,-38,0,11281,4266,168,43036,-4,0,78,9,367413,0
367450,38,-2073,189,-80,39,106,10746,0,-4,-139,-40,35446,-84,34,127,0,0,3128,10,0,11281,4266,168,43046,-4,0,78,9,367429,0
367460,44,-2078,197,-79,33,107,10746,-3,-4,-188,-56,35455,-96,34,127,0,0,3130,10,0,11281,4266,168,43056,-4,0,78,9,367444,0
367470,40,-2081,197,-84,37,114,10746,1,3,-191,-56,35455,-91,34,127,0,0,3126,-5,0,11281,4266,168,43066,-4,0,78,9,367444,0
367480,26,-2076,188,-85,38,113,10746,5,3,-209,-64,35452,-89,34,127,0,0,3126,-27,0,11281,4266,168,43076,-4,0,78,9,367444,0
367490,18,-2089,179,-84,36,121,10746,8,-2,-197,-64,35446,-73,34,127,0,0,3130,-10,0,11281,4266,168,43086,-4,0,78,9,367475,0
367500,-7,-2087,190,-80,38,126,10748,10,1,-149,-16,35450,-81,34,127,0,0,3124,-16,0,11281,4266,168,43096,-4,0,78,9,367491,0
367510,-12,-2091,193,-77,39,118,10747,-5,-3,-126,-56,35450,-91,34,127,0,0,3126,-87,0,11281,4266,168,43106,-4,0,78,9,367491,0
367520,-16,-2069,195,-78,41,114,10746,3,-7,-172,-32,35451,-83,34,127,0,0,3128,-10,0,11281,4266,168,43116,-4,0,78,9,367491,0
367530,45,-2084,185,-85,38,112,10744,-10,1,-208,-8,35445,-83,34,127,0,0,3127,54,0,11281,4266,168,43126,-4,0,78,9,367522,0
367540,45,-2088,190,-88,40,124,10747,-5,15,-119,-64,35448,-91,34,127,0,0,3126,-76,0,11281,4266,168,43136,-4,0,78,9,367522,0
367550,-12,-2098,189,-87,40,128,10746,17,-5,-148,-56,35448,-88,34,127,0,0,3126,-43,0,11281,4266,168,43146,-4,0,78,9,367522,0
367560,9,-2087,198,-78,40,121,10744,1,-8,-165,-56,35441,-90,34,127,0,0,3126,-32,0,11281,4266,168,43156,-4,0,78,9,367538,0
367570,3,-2083,198,-80,41,123,10743,-7,10,-165,-32,35448,-91,34,127,0,0,3132,21,0,11281,4266,168,43166,-4,0,78,9,367538,0
367580,23,-2083,196,-83,40,128,10745,-6,3,-128,-32,35462,-97,34,127,0,0,3128,10,0,11281,4266,168,43176,-4,0,78,9,367569,0
367590,28,-2087,197,-84,44,126,10746,0,0,-151,-40,35463,-83,34,127,0,0,3125,-27,0,11281,4266,168,43186,-4,0,78,9,367585,0
367600,16,-2089,197,-84,42,122,10746,13,4,-158,-40,35446,-60,34,127,0,0,3125,-38,0,11281,4266,168,43196,-4,0,78,9,367585,0
367610,24,-2085,191,-83,43,118,10745,11,-2,-167,-56,35440,-60,34,127,0,0,3126,-21,0,11281,4266,168,43206,-4,0,78,9,367600,0
367620,2,-2076,196,-83,35,113,10744,4,-3,-157,-56,35435,-91,34,127,0,0,3130,-16,0,11281,4266,168,43216,-4,0,78,9,367600,0
367630,-6,-2084,186,-79,38,121,10745,0,0,-151,-32,35452,-94,34,127,0,0,3128,0,0,11281,4266,168,43226,-4,0,78,9,367600,0
367640,15,-2076,187,-88,36,117,10744,-5,8,-155,-40,35461,-93,34,127,0,0,3128,0,0,11281,4266,168,43236,-4,0,78,9,367647,0
367650,31,-2087,186,-78,31,109,10745,-6,5,-153,-40,35462,-75,34,127,0,0,3128,0,0,11281,4266,168,43246,-4,0,78,9,367647,0
367660,17,-2089,193,-83,29,111,10744,0,-3,-166,-32,35457,-72,34,127,0,0,3125,5,0,11281,4266,168,43256,-4,0,78,9,367647,0
367670,10,-2071,201,-78,36,102,10743,-4,-8,-196,-8,35447,-87,34,127,0,0,3127,27,0,11281,4266,168,43266,-4,0,78,9,367647,0
367680,25,-2082,193,-83,31,110,10744,-15,1,-181,-56,35441,-85,34,127,0,0,3126,-32,0,11281,4266,168,43276,-4,0,78,9,367663,0
367691,29,-2076,188,-82,43,107,10744,9,1,-201,-24,35451,-85,34,127,0,0,3126,-10,0,11281,4266,168,43287,-4,0,78,9,367663,0
367701,1,-2085,193,-79,40,110,10743,-3,2,-175,8,35460,-91,34,127,0,0,3126,-10,0,11281,4266,168,43297,-4,0,78,9,367678,0
367711,51,-2073,196,-77,39,105,10742,-22,-7,-212,-16,35462,-102,34,127,0,0,3126,0,0,11281,4266,168,43307,-4,0,78,9,367694,0
367721,-5,-2075,195,-78,34,112,10745,12,3,-160,-32,35456,-100,34,127,0,0,3126,-32,0,11281,4266,168,43317,-4,0,78,9,367694,0
367731,2,-2077,194,-81,40,110,10743,4,0,-178,-56,35455,-95,34,127,0,0,3126,-10,0,11281,4266,168,43327,-4,0,78,9,367725,0
367741,42,-2091,194,-78,42,110,10743,-12,-7,-177,-24,35451,-77,34,127,0,0,3126,-21,0,11281,4266,168,43337,-4,0,78,9,367725,0
367751,43,-2086,187,-79,35,104,10743,3,-5,-188,-64,35445,-79,34,127,0,0,3126,-10,0,11281,4266,168,43347,-4,0,78,9,367725,0
367761,23,-2078,185,-76,42,105,10742,-13,0,-203,-64,35443,-74,34,127,0,0,3126,21,0,11281,4266,168,43357,-4,0,78,9,367725,0
367771,36,-2084,187,-73,37,107,10743,-13,-3,-202,-56,35447,-72,34,127,0,0,3124,-10,0,11281,4266,168,43367,-4,0,78,9,367757,0
367781,41,-2082,197,-78,43,103,10743,0,0,-225,-56,35456,-82,34,127,0,0,3126,-10,0,11281,4266,168,43377,-4,0,78,9,367757,0
367791,31,-2082,193,-83,32,107,10745,21,3,-179,-64,35452,-99,34,127,0,0,3126,-32,0,11281,4266,168,43387,-4,0,78,9,367757,0
367801,15,-2085,189,-79,40,113,10741,-14,-8,-208,-48,35449,-111,34,127,0,0,3122,-54,0,11281,4266,168,43397,-4,0,78,9,367788,0
367811,39,-2068,192,-70,34,109,10741,-4,-7,-255,-48,35443,-106,34,127,0,0,3126,0,0,11281,4266,168,43407,-4,0,78,9,367788,0
367821,17,-2087,199,-72,42,108,10743,-5,7,-187,-64,35451,-83,34,127,0,0,3126,-21,0,11281,4266,168,43417,-4,0,78,9,367850,0
367831,-1,-2072,203,-72,37,111,10741,-3,-2,-239,-80,35468,-91,34,127,0,0,3126,-10,0,11281,4266,168,43427,-4,0,78,9,367850,0
367841,51,-2091,193,-75,39,118,10741,0,-3,-276,-72,35460,-95,34,127,0,0,3126,21,0,11281,4266,168,43437,-4,0,78,9,367850,0
367851,35,-2090,191,-71,40,122,10742,0,2,-269,-72,35454,-100,34,127,0,0,3126,21,0,11281,4266,168,43447,-4,0,78,9,367866,0
367861,33,-2084,189,-82,35,125,10742,5,4,-229,-48,35442,-80,34,127,0,0,3124,-32,0,11281,4266,168,43457,-4,0,78,9,367866,0
367871,14,-2087,191,-72,38,121,10740,3,-11,-258,-80,35439,-87,34,127,0,0,3126,0,0,11281,4266,168,43467,-4,0,78,9,367866,0
367881,2,-2080,191,-78,36,120,10743,12,-1,-186,-96,35436,-85,34,127,0,0,3126,-21,0,11281,4266,168,43477,-4,0,78,9,367866,0
367891,-16,-2080,197,-78,35,130,10741,-1,2,-231,-40,35435,-91,34,127,0,0,3124,-10,0,11281,4266,168,43487,-4,0,78,9,367866,0
367901,18,-2079,189,-74,39,116,10740,-5,-2,-228,-48,35453,-90,34,127,0,0,3126,0,0,11281,4266,168,43497,-4,0,78,9,367882,0
367912,25,-2077,197,-76,39,120,10741,-1,0,-230,-48,35455,-71,34,127,0,0,3126,16,0,11281,4266,168,43508,-4,0,78,9,367882,0
367922,45,-2076,196,-76,39,117,10741,-13,-7,-256,-72,35468,-89,34,127,0,0,3124,-16,0,11281,4266,168,43518,-4,0,78,9,367913,0
367932,30,-2078,196,-86,38,118,10744,22,-3,-207,-96,35459,-83,34,127,0,0,3128,-38,0,11281,4266,168,43528,-4,0,78,9,367944,0
367942,9,-2093,194,-84,35,125,10741,-3,-10,-198,-48,35462,-86,34,127,0,0,3126,10,0,11281,4266,168,43538,-4,0,78,9,367960,0
367952,58,-2080,196,-85,34,115,10740,-17,-3,-226,-48,35454,-74,34,127,0,0,3126,0,0,11281,4266,168,43548,-4,0,78,9,367960,0
367962,15,-2087,195,-84,32,117,10741,-1,1,-219,-48,35451,-76,34,127,0,0,3126,0,0,11281,4266,168,43558,-4,0,78,9,367960,0
367972,7,-2088,196,-84,36,121,10742,2,-4,-231,-48,35445,-84,34,127,0,0,3126,16,0,11281,4266,168,43568,-4,0,78,9,367960,0
367982,36,-2082,192,-81,42,109,10741,2,-3,-254,-48,35444,-78,34,127,0,0,3126,32,0,11281,4266,168,43578,-4,0,78,9,367960,0
367992,15,-2086,199,-83,32,114,10743,14,6,-184,-56,35440,-68,34,127,0,0,3126,-16,0,11281,4266,168,43588,-4,0,78,9,367960,0
368002,-14,-2076,196,-82,35,120,10742,8,-1,-174,-48,35451,-80,34,127,0,0,3126,-27,0,11281,4266,168,43598,-4,0,78,9,367991,0
368012,8,-2074,196,-87,29,111,10742,9,-1,-194,-48,35475,-100,34,127,0,0,3126,-21,0,11281,4266,168,43608,-4,0,78,9,368006,0
368022,35,-2093,187,-86,32,121,10741,5,5,-254,-48,35474,-94,34,127,0,0,3126,27,0,11281,4266,168,43618,-4,0,78,9,368006,0
368032,17,-2094,191,-81,33,122,10741,-1,6,-237,-48,35457,-83,34,127,0,0,3126,16,0,11281,4266,168,43628,-4,0,78,9,368006,0
368042,25,-2084,195,-85,28,106,10740,-5,3,-246,-48,35445,-79,34,127,0,0,3123,10,0,11281,4266,168,43638,-4,0,78,9,368038,0
368052,44,-2084,195,-86,35,102,10741,-3,-2,-263,-48,35465,-90,34,127,0,0,3126,21,0,11281,4266,168,43648,-4,0,78,9,368038,0
368062,43,-2073,188,-84,36,110,10741,-10,5,-192,-72,35472,-97,34,127,0,0,3124,-43,0,11281,4266,168,43658,-4,0,78,9,368038,0
368072,30,-2074,187,-83,35,99,10739,-9,-3,-246,-64,35468,-88,34,127,0,0,3124,-32,0,11281,4266,168,43668,-4,0,78,9,368038,0
368082,13,-2082,192,-75,34,104,10740,0,-6,-264,-64,35460,-90,34,127,0,0,3124,-27,0,11281,4266,168,43678,-4,0,78,9,368069,0
368092,26,-2083,197,-85,34,107,10741,1,-5,-262,-48,35466,-96,34,127,0,0,3123,-10,0,11281,4266,168,43688,-4,0,78,9,368069,0
368102,20,-2086,199,-85,46,107,10741,6,-2,-242,-72,35469,-104,34,127,0,0,3124,-21,0,11281,4266,168,43698,-4,0,78,9,368069,0
368112,37,-2074,195,-86,34,103,10740,-1,-3,-253,-64,35470,-87,34,127,0,0,3124,-16,0,11281,4266,168,43708,-4,0,78,9,368100,0
368122,21,-2082,187,-86,33,106,10742,16,3,-232,-72,35459,-86,34,127,0,0,3131,16,0,11281,4266,168,43718,-4,0,78,9,368100,0
368132,-5,-2076,193,-80,32,117,10741,-5,5,-223,-72,35459,-83,34,127,0,0,3124,-5,0,11281,4266,168,43728,-4,0,78,9,368100,0
368142,21,-2092,186,-88,39,115,10741,9,1,-252,-72,35461,-89,34,127,0,0,3124,-27,0,11281,4266,168,43738,-4,0,78,9,368131,0
368152,9,-2088,190,-81,35,114,10740,5,3,-248,-48,35458,-80,34,127,0,0,3120,-32,0,11281,4266,168,43748,-4,0,78,9,368131,0
368163,-7,-2079,185,-88,34,104,10740,4,2,-238,-64,35458,-75,34,127,0,0,3122,-43,0,11281,4266,168,43759,-4,0,78,9,368131,0
368173,15,-2082,191,-85,38,105,10739,-2,0,-284,-64,35456,-63,34,127,0,0,3122,-21,0,11281,4266,168,43769,-4,0,78,9,368163,0
368183,24,-2079,197,-81,33,101,10738,-11,2,-283,-64,35450,-69,34,127,0,0,3124,0,0,11281,4266,168,43779,-4,0,78,9,368163,0
368193,22,-2076,196,-77,35,113,10740,-6,2,-259,-64,35449,-73,34,127,0,0,3124,-21,0,11281,4266,168,43789,-4,0,78,9,368163,0
368203,17,-2080,189,-79,41,107,10741,6,1,-268,-64,35445,-69,34,127,0,0,3124,0,0,11281,4266,168,43799,-4,0,78,9,368178,0
368213,14,-2087,191,-78,44,106,10740,2,5,-281,-72,35450,-74,34,127,0,0,3124,-21,0,11281,4266,168,43809,-4,0,78,9,368194,0
368223,14,-2077,193,-78,32,108,10741,16,-1,-303,-64,35452,-75,34,127,0,0,3122,0,0,11281,4266,168,43819,-4,0,78,9,368225,0
368233,18,-2081,196,-83,35,105,10738,-7,1,-285,-64,35460,-79,34,127,0,0,3124,-21,0,11281,4266,168,43829,-4,0,78,9,368225,0
368243,14,-2077,196,-85,37,103,10741,11,-5,-278,-64,35448,-69,34,127,0,0,3124,0,0,11281,4266,168,43839,-4,0,78,9,368225,0
368253,24,-2086,194,-79,35,111,10738,-14,-2,-295,-120,35450,-78,34,127,0,0,3120,-43,0,11281,4266,168,43849,-4,0,78,9,368225,0
368263,31,-2082,192,-79,43,108,10739,13,-5,-317,-56,35446,-81,34,127,0,0,3124,-10,0,11281,4266,168,43859,-4,0,78,9,368241,0
368273,25,-2077,191,-80,33,116,10737,-1,0,-313,-48,35463,-89,34,127,0,0,3120,-21,0,11281,4266,168,43869,-4,0,78,9,368256,0
368283,40,-2084,200,-81,36,111,10735,-11,0,-364,-80,35471,-91,34,127,0,0,3122,21,0,11281,4266,168,43879,-4,0,78,9,368272,0
368293,20,-2083,196,-78,36,115,10737,-3,3,-321,-88,35465,-90,34,127,0,0,3122,-21,0,11281,4266,168,43889,-4,0,78,9,368272,0
368303,19,-2084,193,-83,41,114,10736,-2,-1,-335,-48,35454,-85,34,127,0,0,3122,0,0,11281,4266,168,43899,-4,0,78,9,368303,0
368313,10,-2089,193,-78,35,123,10737,0,-2,-332,-40,35444,-79,34,127,0,0,3122,-10,0,11281,4266,168,43909,-4,0,78,9,368319,0
368323,43,-2084,191,-81,44,115,10736,-5,-1,-345,-104,35449,-82,34,127,0,0,3122,-21,0,11281,4266,168,43919,-4,0,78,9,368335,0
368333,52,-2097,191,-80,41,117,10735,2,2,-373,-40,35450,-82,34,127,0,0,3120,0,0,11281,4266,168,43929,-4,0,78,9,368335,0
368343,55,-2078,193,-83,41,112,10736,0,-2,-354,-120,35456,-76,34,127,0,0,3122,0,0,11281,4266,168,43939,-4,0,78,9,368335,0
368353,25,-2088,193,-81,24,126,10735,3,-4,-344,-112,35457,-76,34,127,0,0,3122,10,0,11281,4266,168,43949,-4,0,78,9,368335,0
368363,14,-2087,192,-78,39,126,10735,3,3,-352,-104,35464,-75,34,127,0,0,3122,0,0,11281,4266,168,43959,-4,0,78,9,368335,0
368373,39,-2089,191,-81,38,123,10733,-1,-1,-364,-104,35465,-83,34,127,0,0,3122,21,0,11281,4266,168,43969,-4,0,78,9,368381,0
368383,22,-2092,194,-81,37,125,10734,1,5,-344,-104,35477,-80,34,127,0,0,3122,10,0,11281,4266,168,43979,-4,0,78,9,368397,0
368393,55,-2082,190,-86,39,121,10734,1,2,-352,-104,35468,-81,34,127,0,0,3122,21,0,11281,4266,168,43989,-4,0,78,9,368397,0
368403,18,-2083,192,-81,37,123,10736,14,3,-315,-112,35460,-82,34,127,0,0,3120,-21,0,11281,4266,168,43999,-4,0,78,9,368397,0
368413,9,-2087,190,-81,39,121,10735,11,-2,-313,-72,35437,-81,34,127,0,0,3122,0,0,11281,4266,168,44009,-4,0,78,9,368397,0
368423,25,-2076,194,-77,34,116,10733,-5,-1,-333,-64,35440,-84,34,127,0,0,3122,0,0,11281,4266,168,44019,-4,0,78,9,368397,0
368434,40,-2075,198,-78,38,116,10732,-5,1,-351,-104,35438,-82,34,127,0,0,3120,-5,0,11281,4266,168,44030,-4,0,78,9,368413,0
368444,6,-2078,200,-87,34,125,10734,0,3,-341,-72,35445,-74,34,127,0,0,3122,32,0,11281,4266,168,44040,-4,0,78,9,368428,0
368454,38,-2076,192,-84,40,116,10732,-5,-5,-353,-72,35456,-81,34,127,0,0,3119,16,0,11281,4266,168,44050,-4,0,78,9,368428,0
368464,47,-2092,191,-84,45,117,10734,4,-1,-349,-96,35463,-75,34,127,0,0,3116,-49,0,11281,4266,168,44060,-4,0,78,9,368444,0
368474,23,-2081,190,-83,37,124,10732,6,-12,-374,-72,35463,-74,34,127,0,0,3122,54,0,11281,4266,168,44070,-4,0,78,9,368491,0
368484,36,-2081,193,-85,34,126,10734,0,0,-333,-96,35446,-70,34,127,0,0,3120,-5,0,11281,4266,168,44080,-4,0,78,9,368491,0
368494,14,-2080,192,-89,39,123,10735,9,-5,-340,-96,35444,-65,34,127,0,0,3120,0,0,11281,4266,168,44090,-4,0,78,9,368491,0
368504,10,-2088,194,-84,39,122,10732,3,1,-315,-96,35442,-69,34,127,0,0,3120,-32,0,11281,4266,168,44100,-4,0,78,9,368491,0
368514,18,-2081,198,-80,37,123,10732,-4,-6,-363,-96,35439,-71,34,127,0,0,3123,49,0,11281,4266,168,44110,-4,0,78,9,368506,0
368524,19,-2085,194,-90,38,122,10733,0,3,-315,-80,35435,-84,34,127,0,0,3122,5,0,11281,4266,168,44120,-4,0,78,9,368506,0
368534,40,-2090,190,-83,40,118,10732,-5,3,-344,-96,35439,-87,34,127,0,0,3123,49,0,11281,4266,168,44130,-4,0,78,9,368506,0
368544,9,-2093,196,-84,35,126,10732,-9,-5,-351,-72,35443,-90,34,127,0,0,3119,32,0,11281,4266,168,44140,-4,0,78,9,368538,0
368554,49,-2083,197,-83,38,115,10732,-3,4,-352,-96,35444,-76,34,127,0,0,3120,0,0,11281,4266,168,44150,-4,0,78,9,368538,0
368564,31,-2086,196,-85,44,117,10731,-3,-7,-375,-96,35448,-83,34,127,0,0,3120,43,0,11281,4266,168,44160,-4,0,78,9,368538,0
368574,18,-2083,198,-89,30,108,10733,-1,-4,-326,-72,35452,-80,34,127,0,0,3119,-10,0,11281,4266,168,44170,-4,0,78,9,368553,0
368584,17,-2089,183,-84,33,109,10732,4,-5,-358,-96,35451,-72,34,127,0,0,3123,43,0,11281,4266,168,44180,-4,0,78,9,368569,0
368594,31,-2069,192,-85,36,100,10732,-5,1,-337,-72,35451,-61,34,127,0,0,3122,49,0,11281,4266,168,44190,-4,0,78,9,368569,0
368604,29,-2079,187,-84,29,109,10732,-4,0,-330,-96,35448,-67,34,127,0,0,3123,16,0,11281,4266,168,44200,-4,0,78,9,368584,0
368614,54,-2066,182,-82,38,106,10732,0,-1,-321,-96,35454,-80,34,127,0,0,3120,5,0,11281,4266,168,44210,-4,0,78,9,368584,0
368624,42,-2069,189,-82,34,108,10732,-2,-2,-329,-96,35452,-91,34,127,0,0,3116,-32,0,11281,4266,168,44220,-4,0,78,9,368631,0
368634,31,-2074,191,-75,38,120,10731,-2,-1,-359,-96,35456,-96,34,127,0,0,3120,-10,0,11281,4266,168,44230,-4,0,78,9,368631,0
368644,35,-2083,194,-79,42,124,10732,0,7,-310,-96,35441,-84,34,127,0,0,3123,-10,0,11281,4266,168,44240,-4,0,78,9,368631,0
368654,56,-2089,179,-68,50,134,10732,-4,2,-339,-72,35444,-98,34,127,0,0,3115,-10,0,11281,4266,168,44250,-4,0,78,9,368631,0
368665,38,-2093,184,-63,30,137,10733,3,-2,-355,-96,35435,-100,34,127,0,0,3122,21,0,11281,4266,168,44261,-4,0,78,9,368631,0
368675,32,-2110,187,-65,39,149,10732,0,1,-303,-72,35439,-98,34,127,0,0,3120,0,0,11281,4266,168,44271,-4,0,78,9,368663,0
368685,54,-2108,194,-63,46,149,10731,-13,-2,-336,-104,35444,-85,34,127,0,0,3122,32,0,11281,4266,168,44281,-4,0,78,9,368678,0
368695,43,-2103,203,-66,47,166,10732,-8,0,-337,-64,35447,-73,34,127,0,0,3122,32,0,11281,4266,168,44291,-4,0,78,9,368678,0
368705,56,-2095,204,-68,52,177,10733,-1,4,-278,-88,35447,-65,34,127,0,0,3122,-10,0,11281,4266,168,44301,-4,0,78,9,368694,0
368715,31,-2086,201,-63,41,189,10732,-1,-4,-309,-96,35436,-67,34,127,0,0,3124,43,0,11281,4266,168,44311,-4,0,78,9,368694,0
368725,31,-2077,204,-65,34,203,10736,5,7,-194,-72,35435,-57,34,127,0,0,3124,-32,0,11281,4266,168,44321,-4,0,78,9,368694,0
368735,0,-2061,200,-62,34,208,10737,13,4,-166,-8,35438,-67,34,127,0,0,3128,32,0,11281,4266,168,44331,-4,0,78,9,368709,0
368745,40,-2070,199,-63,23,215,10741,0,3,-38,-8,35447,-83,34,127,0,0,3133,43,0,11281,4266,168,44341,-4,0,78,9,368741,0
368755,-3,-2078,195,-69,30,214,10743,14,7,40,40,35452,-89,34,127,0,0,3135,32,0,11281,4266,168,44351,-4,0,78,9,368741,0
368765,8,-2072,191,-66,30,202,10748,2,4,100,24,35453,-93,34,127,0,0,3137,32,0,11281,4266,168,44361,-4,0,78,9,368756,0
368775,-20,-2068,191,-72,30,190,10751,10,-2,219,16,35445,-88,34,127,0,0,3142,32,0,11281,4266,168,44371,-4,0,78,9,368756,0
368785,-6,-2074,191,-62,36,181,10754,6,-6,251,40,35441,-82,34,127,0,0,3142,32,0,11281,4266,168,44381,-4,0,78,9,368756,0
368795,-21,-2067,186,-72,31,170,10758,9,3,296,88,35444,-87,34,127,0,0,3144,21,0,11281,4266,168,44391,-4,0,78,9,368788,0
368805,-15,-2058,195,-69,39,145,10763,11,-1,325,96,35449,-88,34,127,0,0,3144,-32,0,11281,4266,168,44401,-4,0,78,9,368788,0
368815,-6,-2058,199,-67,37,134,10767,1,1,280,104,35446,-88,34,127,0,0,3146,21,0,11281,4266,168,44411,-4,0,78,9,368788,0
368825,-20,-2065,202,-72,39,121,10767,2,-12,318,88,35452,-110,34,127,0,0,3146,0,0,11281,4266,168,44421,-4,0,78,9,368788,0
368835,-14,-2076,203,-74,41,115,10771,0,-5,302,80,35461,-108,34,127,0,0,3146,10,0,11281,4266,168,44431,-4,0,78,9,368819,0
368845,-6,-2079,202,-77,32,103,10771,0,2,269,96,35464,-111,34,127,0,0,3144,0,0,11281,4266,168,44441,-4,0,78,9,368819,0
368855,7,-2079,201,-77,34,85,10771,-1,-4,280,80,35461,-96,34,127,0,0,3144,-10,0,11281,4266,168,44451,-4,0,78,9,368834,0
368865,-11,-2092,205,-87,32,87,10774,8,-3,279,80,35449,-88,34,127,0,0,3146,-10,0,11281,4266,168,44461,-4,0,78,9,368834,0
368875,6,-2107,202,-86,32,88,10776,9,2,273,40,35455,-97,34,127,0,0,3146,-10,0,11281,4266,168,44471,-4,0,78,9,368850,0
368885,0,-2131,199,-86,22,85,10776,3,-1,245,88,35462,-102,34,127,0,0,3146,21,0,11281,4266,168,44481,-4,0,78,9,368866,0
368895,11,-2135,195,-90,28,82,10777,0,-4,252,72,35463,-107,34,127,0,0,3144,0,0,11281,4266,168,44491,-4,0,78,9,368866,0
368906,24,-2124,192,-80,33,69,10777,-9,1,226,48,35456,-100,34,127,0,0,3144,-5,0,11281,4266,168,44502,-4,0,78,9,368881,0
368916,21,-2111,191,-84,34,66,10778,-6,-10,222,48,35457,-92,34,127,0,0,3140,-32,0,11281,4266,168,44512,-4,0,78,9,368913,0
368926,13,-2087,188,-72,34,54,10777,1,-7,160,32,35457,-91,34,127,0,0,3142,-43,0,11281,4266,168,44522,-4,0,78,9,368913,0
368936,6,-2078,177,-72,36,46,10775,-1,-7,102,8,35454,-94,34,127,0,0,3136,-49,0,11281,4266,168,44532,-4,0,78,9,368913,0
368946,-4,-2061,179,-62,44,32,10770,-9,-10,46,0,35445,-94,34,127,0,0,3137,-16,0,11281,4266,168,44542,-4,0,78,9,368913,0
368956,8,-2054,183,-54,41,37,10766,-17,-1,-4,-16,35448,-92,34,127,0,0,3135,10,0,11281,4266,168,44552,-4,0,78,9,368944,0
368966,15,-2054,186,-59,33,29,10761,-12,0,-16,0,35447,-104,34,127,0,0,3135,27,0,11281,4266,168,44562,-4,0,78,9,368944,0
368976,11,-2058,192,-59,43,26,10760,-5,7,-48,-40,35450,-79,34,127,0,0,3127,-76,0,11281,4266,168,44572,-4,0,78,9,368944,0
368986,21,-2071,198,-48,45,9,10749,-29,-13,-135,-40,35450,-77,34,127,0,0,3125,-65,0,11281,4266,168,44582,-4,0,78,9,368959,0
368996,25,-2075,199,-52,45,19,10744,-14,-12,-230,-72,35444,-65,34,127,0,0,3127,21,0,11281,4266,168,44592,-4,0,78,9,368991,0
369006,38,-2074,213,-54,41,27,10742,-2,12,-301,-112,35455,-73,34,127,0,0,3120,-43,0,11281,4266,168,44602,-4,0,78,9,368991,0
369016,42,-2065,210,-57,40,20,10734,-10,-4,-360,-96,35452,-68,34,127,0,0,3116,-60,0,11281,4266,168,44612,-4,0,78,9,368991,0
369026,41,-2071,203,-64,45,30,10732,-1,-4,-407,-112,35457,-72,34,127,0,0,3114,-32,0,11281,4266,168,44622,-4,0,78,9,368991,0
369036,50,-2068,203,-70,42,46,10728,-12,10,-444,-128,35436,-65,34,127,0,0,3115,-5,0,11281,4266,168,44632,-4,0,78,9,369069,0
369046,53,-2076,209,-75,34,53,10721,-23,-8,-522,-160,35448,-66,34,127,0,0,3111,21,0,11281,4266,168,44642,-4,0,78,9,369084,0
369056,42,-2083,206,-77,37,55,10697,-63,-41,-388,-128,35449,-61,34,127,0,0,3109,-49,0,11281,4266,168,44652,-4,0,78,9,369084,0
369066,20,-2093,216,-86,45,45,10666,-54,-48,-223,-112,35457,-62,34,127,0,0,3104,-76,0,11281,4266,168,44662,-4,0,78,9,369116,0
369076,31,-2043,250,-86,42,54,10660,-5,27,-350,-96,35454,-75,34,127,0,0,3104,0,0,11281,4266,168,44672,-4,0,78,9,369116,0
369086,81,-2073,214,-106,41,75,10659,-3,60,-350,-96,35456,-80,34,127,0,0,3101,-32,0,11281,4266,168,44682,-4,0,78,9,369116,0
369096,73,-2105,198,-104,31,94,10657,-9,8,-400,-112,35461,-76,34,127,0,0,3099,-38,0,11281,4266,168,44692,-4,0,78,9,369116,0
369106,33,-2100,191,-102,37,110,10649,-20,-15,-385,-120,35454,-73,34,127,0,0,3100,-27,0,11281,4266,168,44702,-4,0,78,9,369116,0
369116,37,-2098,202,-102,38,108,10635,-30,-24,-286,-88,35450,-72,34,127,0,0,3103,16,0,11281,4266,168,44712,-4,0,78,9,369116,0
369126,53,-2106,210,-107,43,118,10618,-28,-19,-173,-40,35457,-89,34,127,0,0,3099,27,0,11281,4266,168,44722,-4,0,78,9,369116,0
369136,82,-2106,194,-111,43,128,10620,13,35,-179,-16,35460,-102,34,127,0,0,3101,0,0,11281,4266,168,44732,-4,0,78,9,369116,0
369146,69,-2113,195,-107,40,136,10617,-16,33,-169,-56,35460,-93,34,127,0,0,3100,5,0,11281,4266,168,44742,-4,0,78,9,369131,0
369157,16,-2101,207,-111,41,145,10618,2,-13,-204,-88,35446,-92,34,127,0,0,3100,0,0,11281,4266,168,44753,-4,0,78,9,369131,0
369167,31,-2088,208,-109,43,142,10617,-2,-2,-201,-56,35460,-95,34,127,0,0,3100,0,0,11281,4266,168,44763,-4,0,78,9,369162,0
369177,17,-2089,208,-118,42,139,10617,3,3,-202,-24,35472,-96,34,127,0,0,3100,0,0,11281,4266,168,44773,-4,0,78,9,369162,0
369187,5,-2080,209,-114,34,128,10616,-9,-4,-199,-24,35477,-94,34,127,0,0,3100,0,0,11281,4266,168,44783,-4,0,78,9,369162,0
369197,-15,-2054,198,-112,37,108,10616,-2,-2,-198,8,35462,-80,34,127,0,0,3100,0,0,11281,4266,168,44793,-4,0,78,9,369162,0
369207,21,-2056,192,-116,37,99,10616,-8,-5,-221,-48,35454,-104,34,127,0,0,3100,10,0,11281,4266,168,44803,-4,0,78,9,369178,0
369217,32,-2054,190,-114,39,101,10618,0,-3,-200,-56,35467,-116,34,127,0,0,3102,21,0,11281,4266,168,44813,-4,0,78,9,369194,0
369227,22,-2062,184,-116,37,102,10617,0,-1,-177,-56,35466,-110,34,127,0,0,3100,0,0,11281,4266,168,44823,-4,0,78,9,369194,0
369237,42,-2058,186,-109,32,101,10615,3,-5,-201,-56,35469,-94,34,127,0,0,3100,0,0,11281,4266,168,44833,-4,0,78,9,369209,0
369247,39,-2061,182,-110,35,106,10615,-9,-6,-200,-48,35456,-91,34,127,0,0,3100,0,0,11281,4266,168,44843,-4,0,78,9,369209,0
369257,46,-2078,185,-106,42,109,10616,1,2,-201,-56,35454,-102,34,127,0,0,3100,-21,0,11281,4266,168,44853,-4,0,78,9,369256,0
369267,40,-2070,183,-99,46,125,10615,4,-4,-212,-16,35449,-108,34,127,0,0,3100,32,0,11281,4266,168,44863,-4,0,78,9,369256,0
369277,48,-2074,197,-102,39,132,10615,-18,3,-171,-56,35446,-102,34,127,0,0,3100,-21,0,11281,4266,168,44873,-4,0,78,9,369256,0
369287,63,-2066,194,-102,42,146,10616,8,0,-216,-40,35448,-93,34,127,0,0,3098,-10,0,11281,4266,168,44883,-4,0,78,9,369272,0
369297,49,-2082,201,-104,42,160,10615,6,3,-201,-48,35442,-89,34,127,0,0,3098,-21,0,11281,4266,168,44893,-4,0,78,9,369272,0
369307,51,-2085,195,-98,47,160,10614,0,-5,-213,-80,35459,-109,34,127,0,0,3100,0,0,11281,4266,168,44903,-4,0,78,9,369287,0
369317,48,-2097,181,-93,44,178,10615,-8,1,-191,-8,35469,-125,34,127,0,0,3100,10,0,11281,4266,168,44913,-4,0,78,9,369287,0
369327,35,-2116,174,-83,38,184,10614,-4,0,-189,-16,35477,-124,34,127,0,0,3102,21,0,11281,4266,168,44923,-4,0,78,9,369303,0
369337,26,-2101,174,-69,40,190,10619,9,-1,-83,-16,35465,-113,34,127,0,0,3104,-10,0,11281,4266,168,44933,-4,0,78,9,369303,0
369347,20,-2099,176,-67,37,180,10619,8,-3,-60,-16,35456,-108,34,127,0,0,3104,10,0,11281,4266,168,44943,-4,0,78,9,369334,0
369357,30,-2082,159,-64,36,176,10619,-1,-5,-23,-24,35453,-105,34,127,0,0,3109,43,0,11281,4266,168,44953,-4,0,78,9,369334,0
369367,-1,-2077,160,-49,43,170,10621,9,12,60,16,35448,-95,34,127,0,0,3109,10,0,11281,4266,168,44963,-4,0,78,9,369334,0
369377,6,-2085,178,-43,45,172,10621,0,2,49,32,35451,-99,34,127,0,0,3111,32,0,11281,4266,168,44973,-4,0,78,9,369350,0
369387,18,-2092,181,-38,40,171,10625,11,0,140,32,35443,-102,34,127,0,0,3113,21,0,11281,4266,168,44983,-4,0,78,9,369366,0
369397,20,-2092,207,-32,42,171,10628,9,11,185,56,35449,-95,34,127,0,0,3113,0,0,11281,4266,168,44993,-4,0,78,9,369366,0
369408,21,-2097,213,-35,39,167,10630,9,-5,236,48,35455,-81,34,127,0,0,3116,21,0,11281,4266,168,45004,-4,0,78,9,369412,0
369418,43,-2098,216,-40,39,164,10634,1,4,257,80,35456,-88,34,127,0,0,3114,0,0,11281,4266,168,45014,-4,0,78,9,369428,0
369428,46,-2086,201,-46,38,170,10646,27,15,234,56,35455,-104,34,127,0,0,3117,-38,0,11281,4266,168,45024,-4,0,78,9,369428,0
369438,39,-2075,199,-51,29,176,10659,36,12,188,56,35445,-110,34,127,0,0,3120,32,0,11281,4266,168,45034,-4,0,78,9,369428,0
369448,47,-2071,202,-48,34,194,10677,22,13,80,40,35442,-95,34,127,0,0,3125,71,0,11281,4266,168,45044,-4,0,78,9,369428,0
369458,6,-2065,202,-48,32,209,10680,5,-26,232,72,35439,-93,34,127,0,0,3123,0,0,11281,4266,168,45054,-4,0,78,9,369428,0
369468,36,-2063,206,-48,34,213,10684,6,-27,258,88,35439,-91,34,127,0,0,3125,-16,0,11281,4266,168,45064,-4,0,78,9,369475,0
369478,42,-2068,206,-56,32,210,10688,0,0,288,104,35440,-79,34,127,0,0,3131,43,0,11281,4266,168,45074,-4,0,78,9,369475,0
369488,24,-2080,214,-58,36,212,10698,18,4,342,128,35443,-70,34,127,0,0,3135,27,0,11281,4266,168,45084,-4,0,78,9,369475,0
369498,9,-2085,227,-70,40,208,10721,65,32,311,112,35438,-68,34,127,0,0,3137,38,0,11281,4266,168,45094,-4,0,78,9,369475,0
369508,14,-2085,220,-76,30,226,10759,60,59,112,48,35444,-67,34,127,0,0,3143,71,0,11281,4266,168,45104,-4,0,78,9,369491,0
369518,-26,-2083,203,-82,26,207,10758,-11,-55,275,88,35452,-70,34,127,0,0,3144,38,0,11281,4266,168,45114,-4,0,78,9,369491,0
369528,-17,-2080,198,-85,35,211,10761,6,-68,310,104,35460,-72,34,127,0,0,3146,32,0,11281,4266,168,45124,-4,0,78,9,369522,0
369538,9,-2086,195,-89,48,198,10763,12,6,350,96,35457,-85,34,127,0,0,3149,32,0,11281,4266,168,45134,-4,0,78,9,369522,0
369548,7,-2078,208,-86,37,192,10767,11,-2,389,136,35448,-96,34,127,0,0,3147,32,0,11281,4266,168,45144,-4,0,78,9,369522,0
369558,-2,-2091,203,-88,43,184,10781,36,20,378,136,35436,-116,34,127,0,0,3153,38,0,11281,4266,168,45154,-4,0,78,9,369537,0
369568,-6,-2089,197,-90,35,182,10806,53,50,292,120,35447,-109,34,127,0,0,3154,38,0,11281,4266,168,45164,-4,0,78,9,369553,0
369578,-2,-2078,206,-90,34,165,10811,-20,-18,318,112,35452,-128,34,127,0,0,3157,38,0,11281,4266,168,45174,-4,0,78,9,369553,0
369588,-37,-2092,203,-96,36,152,10814,11,-49,372,104,35451,-130,34,127,0,0,3157,0,0,11281,4266,168,45184,-4,0,78,9,369569,0
369598,-19,-2083,196,-99,38,133,10814,15,-6,410,104,35448,-135,34,127,0,0,3157,-16,0,11281,4266,168,45194,-4,0,78,9,369569,0
369608,-20,-2085,207,-100,38,116,10813,-2,-8,401,112,35441,-123,34,127,0,0,3157,-5,0,11281,4266,168,45204,-4,0,78,9,369600,0
369618,-38,-2073,207,-101,32,98,10812,-10,-2,390,112,35448,-123,34,127,0,0,3160,32,0,11281,4266,168,45214,-4,0,78,9,369600,0
369628,-37,-2072,202,-105,33,93,10815,7,1,419,104,35452,-106,34,127,0,0,3160,38,0,11281,4266,168,45224,-4,0,78,9,369600,0
369638,-16,-2074,202,-106,23,78,10814,2,1,433,120,35455,-94,34,127,0,0,3156,-16,0,11281,4266,168,45234,-4,0,78,9,369615,0
369648,2,-2070,202,-105,31,74,10814,0,-1,393,104,35448,-85,34,127,0,0,3157,-5,0,11281,4266,168,45244,-4,0,78,9,369615,0
369659,15,-2065,211,-106,32,62,10813,-2,-1,378,104,35451,-104,34,127,0,0,3157,-10,0,11281,4266,168,45255,-4,0,78,9,369647,0
369669,13,-2069,202,-112,34,63,10812,-3,1,363,72,35443,-103,34,127,0,0,3157,10,0,11281,4266,168,45265,-4,0,78,9,369647,0
369679,5,-2077,201,-114,36,66,10814,2,5,325,96,35437,-116,34,127,0,0,3155,10,0,11281,4266,168,45275,-4,0,78,9,369647,0
369689,30,-2097,197,-109,32,61,10813,1,5,304,56,35435,-103,34,127,0,0,3153,0,0,11281,4266,168,45285,-4,0,78,9,369662,0
369699,13,-2097,200,-116,16,61,10813,10,4,296,56,35439,-114,34,127,0,0,3150,-32,0,11281,4266,168,45295,-4,0,78,9,369662,0
369709,15,-2077,193,-110,22,53,10810,-13,-6,199,48,35436,-105,34,127,0,0,3150,21,0,11281,4266,168,45305,-4,0,78,9,369694,0
369719,4,-2083,182,-108,29,51,10811,5,0,180,56,35439,-125,34,127,0,0,3148,-32,0,11281,4266,168,45315,-4,0,78,9,369694,0
369729,5,-2090,177,-100,25,47,10807,2,5,82,8,35442,-112,34,127,0,0,3144,-21,0,11281,4266,168,45325,-4,0,78,9,369694,0
369739,4,-2088,183,-93,30,40,10805,-6,0,39,-16,35442,-108,34,127,0,0,3144,-32,0,11281,4266,168,45335,-4,0,78,9,369709,0
369749,10,-2091,204,-93,31,41,10805,1,7,7,-8,35445,-93,34,127,0,0,3144,0,0,11281,4266,168,45345,-4,0,78,9,369725,0
369759,24,-2087,216,-90,29,45,10802,-10,-1,-26,0,35445,-99,34,127,0,0,3139,-43,0,11281,4266,168,45355,-4,0,78,9,369756,0
369769,37,-2085,207,-104,32,43,10799,-8,-4,-85,-48,35445,-114,34,127,0,0,3137,-54,0,11281,4266,168,45365,-4,0,78,9,369772,0
369779,69,-2089,202,-106,33,57,10796,-15,-2,-145,-64,35445,-99,34,127,0,0,3135,-54,0,11281,4266,168,45375,-4,0,78,9,369772,0
369789,43,-2062,193,-101,26,76,10791,-12,-2,-198,-72,35440,-94,34,127,0,0,3135,-21,0,11281,4266,168,45385,-4,0,78,9,369787,0
369799,59,-2071,197,-106,28,93,10790,-8,4,-194,-40,35437,-90,34,127,0,0,3135,-10,0,11281,4266,168,45395,-4,0,78,9,369787,0
369809,45,-2062,185,-99,28,119,10789,-8,4,-234,-56,35432,-96,34,127,0,0,3135,10,0,11281,4266,168,45405,-4,0,78,9,369803,0
369819,64,-2073,180,-98,26,128,10787,-8,-1,-230,-56,35439,-95,34,127,0,0,3135,-10,0,11281,4266,168,45415,-4,0,78,9,369803,0
369829,18,-2077,180,-92,41,149,10787,3,-2,-199,-56,35451,-89,34,127,0,0,3135,-32,0,11281,4266,168,45425,-4,0,78,9,369819,0
369839,29,-2089,186,-92,44,144,10785,5,-1,-160,-64,35450,-88,34,127,0,0,3137,-10,0,11281,4266,168,45435,-4,0,78,9,369819,0
369849,62,-2092,178,-85,38,177,10787,4,5,-121,-32,35448,-111,34,127,0,0,3135,-32,0,11281,4266,168,45445,-4,0,78,9,369819,0
369859,53,-2080,193,-82,45,182,10786,0,-5,-152,-32,35436,-96,34,127,0,0,3135,-21,0,11281,4266,168,45455,-4,0,78,9,369850,0
369869,49,-2087,193,-76,35,203,10787,-1,-2,-121,-48,35436,-111,34,127,0,0,3139,21,0,11281,4266,168,45465,-4,0,78,9,369865,0
369879,35,-2085,191,-77,32,236,10790,13,7,-47,-16,35439,-107,34,127,0,0,3142,32,0,11281,4266,168,45475,-4,0,78,9,369865,0
369889,11,-2087,182,-73,21,246,10793,14,4,66,16,35436,-109,34,127,0,0,3146,32,0,11281,4266,168,45485,-4,0,78,9,369865,0
369899,13,-2087,192,-71,24,248,10801,8,6,125,56,35438,-116,34,127,0,0,3150,65,0,11281,4266,168,45495,-4,0,78,9,369865,0
369910,-7,-2095,196,-70,23,239,10804,3,-2,250,80,35445,-123,34,127,0,0,3156,65,0,11281,4266,168,45506,-4,0,78,9,369897,0
369920,-24,-2082,204,-73,33,223,10811,13,5,368,112,35452,-121,34,127,0,0,3157,32,0,11281,4266,168,45516,-4,0,78,9,369897,0
369930,-28,-2084,191,-76,35,196,10815,18,-5,438,144,35450,-120,34,127,0,0,3161,21,0,11281,4266,168,45526,-4,0,78,9,369897,0
369940,-29,-2089,190,-75,32,187,10819,10,0,473,176,35448,-112,34,127,0,0,3159,27,0,11281,4266,168,45536,-4,0,78,9,369912,0
369950,-24,-2079,192,-72,33,151,10823,10,4,509,168,35455,-108,34,127,0,0,3169,65,0,11281,4266,168,45546,-4,0,78,9,369928,0
369960,-49,-2087,184,-68,37,141,10832,21,2,536,152,35459,-112,34,127,0,0,3169,43,0,11281,4266,168,45556,-4,0,78,9,369928,0
369970,-55,-2083,197,-67,38,105,10847,40,12,507,144,35460,-100,34,127,0,0,3168,0,0,11281,4266,168,45566,-4,0,78,9,369944,0
369980,-54,-2087,195,-66,37,97,10876,61,39,297,88,35465,-104,34,127,0,0,3168,27,0,11281,4266,168,45576,-4,0,78,9,369975,0
369990,-37,-2089,200,-63,32,64,10882,-3,-11,307,72,35460,-86,34,127,0,0,3165,-32,0,11281,4266,168,45586,-4,0,78,9,369975,0
370000,-25,-2090,193,-65,34,45,10882,9,-63,288,72,35464,-82,34,127,0,0,3171,27,0,11281,4266,168,45596,-4,0,78,9,369975,0
370010,-18,-2078,203,-63,24,37,10881,-1,-3,341,80,35452,-76,34,127,0,0,3165,-21,0,11281,4266,168,45606,-4,0,78,9,369975,0
370020,-5,-2077,205,-74,25,19,10878,-10,-6,221,64,35460,-93,34,127,0,0,3166,5,0,11281,4266,168,45616,-4,0,78,9,370006,0
370030,9,-2072,197,-77,22,-4,10879,1,-2,191,40,35461,-98,34,127,0,0,3164,0,0,11281,4266,168,45626,-4,0,78,9,370006,0
370040,-35,-2071,188,-84,40,-35,10876,-1,2,129,24,35462,-86,34,127,0,0,3158,-43,0,11281,4266,168,45636,-4,0,78,9,370006,0
370050,-16,-2071,201,-76,38,-47,10871,-7,-2,35,-8,35461,-77,34,127,0,0,3157,-32,0,11281,4266,168,45646,-4,0,78,9,370022,0
370060,2,-2073,200,-79,39,-55,10871,2,2,-16,-56,35449,-63,34,127,0,0,3153,-71,0,11281,4266,168,45656,-4,0,78,9,370053,0
370070,7,-2076,198,-80,32,-67,10858,-35,-10,-189,-72,35449,-81,34,127,0,0,3148,-5,0,11281,4266,168,45666,-4,0,78,9,370053,0
370080,-4,-2080,200,-81,41,-62,10837,-52,-35,-198,-72,35450,-91,34,127,0,0,3144,-5,0,11281,4266,168,45676,-4,0,78,9,370053,0
370090,22,-2073,199,-84,43,-82,10798,-81,-46,-41,-32,35460,-114,34,127,0,0,3139,-21,0,11281,4266,168,45686,-4,0,78,9,370053,0
370100,9,-2095,201,-86,40,-68,10792,0,26,-188,-64,35468,-123,34,127,0,0,3135,5,0,11281,4266,168,45696,-4,0,78,9,370100,0
370110,46,-2087,207,-86,31,-56,10788,-18,63,-324,-120,35470,-137,34,127,0,0,3128,-60,0,11281,4266,168,45706,-4,0,78,9,370100,0
370120,33,-2086,212,-89,21,-52,10764,-70,-31,-327,-112,35467,-127,34,127,0,0,3127,5,0,11281,4266,168,45716,-4,0,78,9,370100,0
370130,5,-2085,195,-96,48,-70,10733,-53,-52,-241,-96,35456,-111,34,127,0,0,3116,-71,0,11281,4266,168,45726,-4,0,78,9,370100,0
370140,63,-2081,189,-89,41,-58,10732,8,50,-433,-136,35445,-76,34,127,0,0,3115,-21,0,11281,4266,168,45736,-4,0,78,9,370178,0
370150,64,-2087,208,-94,23,-38,10726,-18,50,-494,-168,35448,-62,34,127,0,0,3111,-27,0,11281,4266,168,45746,-4,0,78,9,370178,0
370160,46,-2082,202,-95,24,-36,10710,-48,-26,-539,-176,35446,-54,34,127,0,0,3103,-54,0,11281,4266,168,45756,-4,0,78,9,370178,0
370170,44,-2079,196,-93,37,-41,10666,-113,-79,-338,-112,35454,-56,34,127,0,0,3101,-32,0,11281,4266,168,45766,-4,0,78,9,370178,0
370180,41,-2100,188,-100,40,-32,10637,-50,-33,-279,-96,35448,-60,34,127,0,0,3093,-98,0,11281,4266,168,45776,-4,0,78,9,370193,0
370190,73,-2070,196,-95,28,-21,10610,-59,34,-237,-88,35448,-81,34,127,0,0,3092,-65,0,11281,4266,168,45786,-4,0,78,9,370193,0
370200,52,-2093,198,-105,29,-1,10606,3,44,-320,-120,35447,-79,34,127,0,0,3094,0,0,11281,4266,168,45796,-4,0,78,9,370193,0
370210,64,-2083,202,-106,29,5,10603,-11,53,-370,-112,35444,-83,34,127,0,0,3088,10,0,11281,4266,168,45806,-4,0,78,9,370193,0
370221,45,-2084,193,-106,30,2,10599,-6,-7,-428,-144,35450,-81,34,127,0,0,3084,-54,0,11281,4266,168,45817,-4,0,78,9,370193,0
370231,52,-2082,195,-101,30,-1,10585,-36,-19,-442,-144,35455,-87,34,127,0,0,3082,-32,0,11281,4266,168,45827,-4,0,78,9,370193,0
370241,61,-2073,201,-102,33,8,10555,-92,-48,-338,-176,35474,-111,34,127,0,0,3078,-65,0,11281,4266,168,45837,-4,0,78,9,370225,0
370251,30,-2073,191,-106,45,-5,10520,-47,-49,-218,-144,35476,-103,34,127,0,0,3071,-131,0,11281,4266,168,45847,-4,0,78,9,370240,0
370261,61,-2066,201,-107,37,5,10498,-57,32,-318,-104,35473,-97,34,127,0,0,3073,0,0,11281,4266,168,45857,-4,0,78,9,370240,0
370271,19,-2077,198,-109,38,-3,10477,-25,18,-209,-72,35452,-82,34,127,0,0,3069,-32,0,11281,4266,168,45867,-4,0,78,9,370240,0
370281,62,-2084,194,-108,35,13,10476,7,52,-321,-96,35451,-74,34,127,0,0,3062,-76,0,11281,4266,168,45877,-4,0,78,9,370272,0
370291,61,-2088,196,-108,32,9,10470,-14,31,-397,-104,35454,-72,34,127,0,0,3062,-32,0,11281,4266,168,45887,-4,0,78,9,370272,0
370301,73,-2092,198,-105,33,20,10464,-15,-10,-457,-136,35454,-66,34,127,0,0,3060,0,0,11281,4266,168,45897,-4,0,78,9,370272,0
370311,58,-2083,189,-111,31,22,10455,-27,-1,-457,-144,35449,-47,34,127,0,0,3056,-32,0,11281,4266,168,45907,-4,0,78,9,370303,0
370321,69,-2096,190,-104,20,25,10430,-73,-36,-410,-136,35447,-40,34,127,0,0,3054,-21,0,11281,4266,168,45917,-4,0,78,9,370303,0
370331,46,-2089,185,-98,36,18,10394,-58,-61,-219,-88,35452,-55,34,127,0,0,3052,-21,0,11281,4266,168,45927,-4,0,78,9,370303,0
370341,82,-2082,193,-103,34,29,10386,-13,44,-272,-120,35458,-59,34,127,0,0,3049,10,0,11281,4266,168,45937,-4,0,78,9,370318,0
370351,80,-2067,193,-100,22,45,10378,-29,61,-296,-88,35450,-51,34,127,0,0,3047,0,0,11281,4266,168,45947,-4,0,78,9,370334,0
370361,53,-2068,185,-98,24,52,10358,-48,-23,-212,-48,35449,-54,34,127,0,0,3047,10,0,11281,4266,168,45957,-4,0,78,9,370334,0
370371,50,-2081,181,-97,36,47,10356,18,8,-160,-72,35448,-50,34,127,0,0,3043,-65,0,11281,4266,168,45967,-4,0,78,9,370334,0
370381,58,-2071,189,-98,33,52,10353,6,34,-222,-88,35460,-71,34,127,0,0,3043,-54,0,11281,4266,168,45977,-4,0,78,9,370412,0
370391,78,-2079,195,-98,27,60,10351,-1,2,-259,-112,35449,-80,34,127,0,0,3041,-32,0,11281,4266,168,45987,-4,0,78,9,370428,0
370401,58,-2074,181,-104,31,69,10348,-3,3,-310,-96,35447,-86,34,127,0,0,3041,-32,0,11281,4266,168,45997,-4,0,78,9,370428,0
370411,63,-2073,183,-99,32,64,10347,-2,0,-349,-80,35443,-99,34,127,0,0,3038,-32,0,11281,4266,168,46007,-4,0,78,9,370428,0
370421,70,-2054,185,-98,25,62,10345,-6,-2,-390,-112,35445,-77,34,127,0,0,3036,-10,0,11281,4266,168,46017,-4,0,78,9,370428,0
370431,82,-2068,190,-96,23,75,10342,-9,-3,-440,-120,35445,-73,34,127,0,0,3034,-10,0,11281,4266,168,46027,-4,0,78,9,370443,0
370441,64,-2065,194,-100,34,83,10341,3,2,-441,-152,35439,-67,34,127,0,0,3034,-43,0,11281,4266,168,46037,-4,0,78,9,370443,0
370451,73,-2068,196,-101,30,88,10337,-3,1,-469,-168,35435,-78,34,127,0,0,3032,-21,0,11281,4266,168,46047,-4,0,78,9,370443,0
370462,80,-2071,196,-108,28,99,10337,-4,-3,-509,-176,35448,-82,34,127,0,0,3033,-5,0,11281,4266,168,46058,-4,0,78,9,370443,0
370472,71,-2083,191,-111,27,96,10335,0,1,-513,-152,35459,-79,34,127,0,0,3032,5,0,11281,4266,168,46068,-4,0,78,9,370443,0
370482,87,-2099,184,-112,33,107,10333,1,-1,-530,-168,35474,-78,34,127,0,0,3026,-38,0,11281,4266,168,46078,-4,0,78,9,370553,0
370492,91,-2101,188,-117,30,114,10329,-3,-3,-541,-184,35475,-92,34,127,0,0,3031,-43,0,11281,4266,168,46088,-4,0,78,9,370553,0
370502,72,-2092,191,-113,34,122,10328,5,-4,-507,-160,35464,-96,34,127,0,0,3030,-16,0,11281,4266,168,46098,-4,0,78,9,370553,0
370512,74,-2097,193,-120,34,126,10328,-2,6,-483,-160,35449,-89,34,127,0,0,3033,10,0,11281,4266,168,46108,-4,0,78,9,370553,0
370522,76,-2084,198,-113,36,140,10327,-7,-1,-498,-160,35439,-91,34,127,0,0,3030,5,0,11281,4266,168,46118,-4,0,78,9,370553,0
370532,83,-2088,193,-124,26,138,10328,-1,1,-488,-160,35439,-93,34,127,0,0,3030,-32,0,11281,4266,168,46128,-4,0,78,9,370568,0
370542,61,-2098,196,-123,39,142,10328,5,-1,-501,-136,35440,-91,34,127,0,0,3032,21,0,11281,4266,168,46138,-4,0,78,9,370568,0
370552,58,-2089,198,-119,29,149,10327,-10,1,-505,-136,35439,-70,34,127,0,0,3028,16,0,11281,4266,168,46148,-4,0,78,9,370568,0
370562,72,-2085,180,-125,40,137,10328,1,0,-505,-160,35436,-82,34,127,0,0,3033,16,0,11281,4266,168,46158,-4,0,78,9,370568,0
370572,43,-2081,176,-125,36,138,10326,-8,-1,-497,-160,35443,-76,34,127,0,0,3030,10,0,11281,4266,168,46168,-4,0,78,9,370568,0
370582,49,-2073,169,-120,40,137,10328,1,-1,-502,-136,35443,-94,34,127,0,0,3028,-21,0,11281,4266,168,46178,-4,0,78,9,370568,0
370592,55,-2077,176,-115,38,139,10328,-5,0,-503,-160,35454,-79,34,127,0,0,3030,-32,0,11281,4266,168,46188,-4,0,78,9,370568,0
370602,39,-2061,188,-112,40,131,10327,0,3,-501,-136,35457,-82,34,127,0,0,3032,10,0,11281,4266,168,46198,-4,0,78,9,370568,0
370612,46,-2067,195,-114,38,126,10326,-7,-2,-460,-136,35468,-73,34,127,0,0,3028,-32,0,11281,4266,168,46208,-4,0,78,9,370615,0
370622,55,-2068,184,-124,34,122,10328,9,0,-477,-160,35461,-74,34,127,0,0,3023,-87,0,11281,4266,168,46218,-4,0,78,9,370615,0
370632,72,-2060,176,-123,32,111,10325,5,-7,-508,-152,35451,-72,34,127,0,0,3030,-65,0,11281,4266,168,46228,-4,0,78,9,370615,0
370642,40,-2070,168,-120,30,124,10328,10,4,-452,-152,35436,-79,34,127,0,0,3030,-49,0,11281,4266,168,46238,-4,0,78,9,370631,0
370652,60,-2060,175,-122,26,114,10325,4,1,-471,-152,35433,-85,34,127,0,0,3030,-32,0,11281,4266,168,46248,-4,0,78,9,370631,0
370663,57,-2082,178,-115,28,116,10325,1,-2,-506,-152,35440,-90,34,127,0,0,3032,21,0,11281,4266,168,46259,-4,0,78,9,370631,0
