state_time,accelx,accely,accelz,gyrox,gyroy,gyroz,mot_ang,mot_vel,mot_acc,mot_cur,mot_volt,batt_volt,batt_curr,temperature,status_mn,status_ex,status_re,ank_ang,ank_vel,ank_torque,peak_ank_torque,step_energy,step_count,step_time,gait_state,movement,speed,incline,sys_time,eventFlags
434300,234,-2036,209,-41,-3,-56,7240,1,0,-424,-112,35543,-74,34,127,0,0,2376,-32,0,9019,-336,188,38452,-4,0,104,12,434318,0
434310,204,-2033,229,-39,-6,-54,7238,0,-4,-418,-112,35539,-80,34,127,0,0,2382,21,0,9019,-336,188,38462,-4,0,104,12,434318,0
434320,200,-2037,225,-44,-9,-51,7240,-3,-2,-407,-112,35543,-76,34,127,0,0,2382,0,0,9019,-336,188,38472,-4,0,104,12,434318,0
434330,228,-2028,221,-44,-2,-54,7238,-9,-4,-424,-112,35553,-92,34,127,0,0,2379,38,0,9019,-336,188,38482,-4,0,104,12,434318,0
434340,219,-2030,214,-45,-4,-52,7238,-8,-4,-441,-112,35552,-79,34,127,0,0,2373,-49,0,9019,-336,188,38492,-4,0,104,12,434318,0
434350,199,-2024,227,-43,-4,-47,7238,5,-1,-466,-128,35547,-75,34,127,0,0,2384,27,0,9019,-336,188,38502,-4,0,104,12,434318,0
434360,197,-2038,211,-45,-8,-41,7238,4,3,-402,-112,35548,-82,34,127,0,0,2376,-21,0,9019,-336,188,38512,-4,0,104,12,434397,0
434370,191,-2037,216,-37,-5,-49,7237,-5,0,-435,-104,35560,-100,34,127,0,0,2379,5,0,9019,-336,188,38522,-4,0,104,12,434397,0
434380,215,-2038,210,-38,-6,-45,7237,-1,-5,-415,-112,35556,-101,34,127,0,0,2376,-43,0,9019,-336,188,38532,-4,0,104,12,434397,0
434390,208,-2034,223,-40,-7,-43,7236,2,0,-414,-104,35544,-79,34,127,0,0,2379,-10,0,9019,-336,188,38542,-4,0,104,12,434397,0
434400,209,-2031,225,-30,-5,-45,7238,3,-1,-398,-104,35536,-87,34,127,0,0,2379,0,0,9019,-336,188,38552,-4,0,104,12,434397,0
434410,225,-2029,219,-40,-8,-46,7236,1,0,-444,-88,35540,-88,34,127,0,0,2378,38,0,9019,-336,188,38562,-4,0,104,12,434412,0
434420,217,-2028,219,-38,3,-39,7237,2,5,-406,-104,35535,-81,34,127,0,0,2379,0,0,9019,-336,188,38572,-4,0,104,12,434412,0
434430,222,-2026,222,-37,-2,-40,7235,-10,-3,-443,-104,35533,-80,34,127,0,0,2379,32,0,9019,-336,188,38582,-4,0,104,12,434428,0
434440,217,-2034,222,-38,-9,-36,7235,-7,-4,-446,-96,35545,-86,34,127,0,0,2379,43,0,9019,-336,188,38592,-4,0,104,12,434475,0
434450,202,-2027,223,-39,-10,-40,7236,2,6,-405,-104,35555,-92,34,127,0,0,2379,0,0,9019,-336,188,38602,-4,0,104,12,434475,0
434460,205,-2033,220,-33,-1,-40,7234,-3,-2,-401,-104,35560,-85,34,127,0,0,2379,0,0,9019,-336,188,38612,-4,0,104,12,434475,0
434470,192,-2036,214,-41,-4,-46,7237,2,1,-379,-104,35538,-64,34,127,0,0,2379,-43,0,9019,-336,188,38622,-4,0,104,12,434475,0
434480,204,-2043,227,-35,-12,-50,7235,-3,-5,-394,-104,35530,-96,34,127,0,0,2379,0,0,9019,-336,188,38632,-4,0,104,12,434475,0
434490,213,-2028,220,-41,-5,-47,7236,1,0,-424,-104,35535,-84,34,127,0,0,2379,5,0,9019,-336,188,38642,-4,0,104,12,434475,0
434500,200,-2039,219,-41,-7,-46,7236,3,2,-407,-104,35547,-94,34,127,0,0,2379,0,0,9019,-336,188,38652,-4,0,104,12,434475,0
434510,208,-2035,213,-43,-4,-40,7236,0,5,-400,-120,35551,-85,34,127,0,0,2384,27,0,9019,-336,188,38662,-4,0,104,12,434490,0
434520,192,-2027,224,-40,-9,-42,7235,4,-1,-388,-128,35556,-103,34,127,0,0,2380,5,0,9019,-336,188,38672,-4,0,104,12,434506,0
434530,204,-2043,224,-46,-8,-46,7233,-1,0,-404,-96,35556,-120,34,127,0,0,2379,27,0,9019,-336,188,38682,-4,0,104,12,434522,0
434540,206,-2030,225,-45,-17,-47,7234,-3,-3,-414,-104,35559,-121,34,127,0,0,2379,16,0,9019,-336,188,38692,-4,0,104,12,434522,0
434550,205,-2029,222,-49,-7,-48,7233,0,2,-407,-120,35552,-87,34,127,0,0,2377,-38,0,9019,-336,188,38702,-4,0,104,12,434522,0
434560,205,-2033,222,-45,-6,-52,7233,1,-4,-410,-96,35546,-90,34,127,0,0,2379,-10,0,9019,-336,188,38712,-4,0,104,12,434553,0
434570,220,-2031,219,-42,-13,-44,7234,-2,0,-399,-104,35539,-101,34,127,0,0,2379,0,0,9019,-336,188,38722,-4,0,104,12,434553,0
434580,205,-2040,221,-46,-9,-45,7232,-3,-1,-408,-96,35543,-112,34,127,0,0,2382,49,0,9019,-336,188,38732,-4,0,104,12,434553,0
434590,218,-2021,215,-44,0,-52,7234,-4,2,-390,-104,35541,-86,34,127,0,0,2376,-21,0,9019,-336,188,38742,-4,0,104,12,434584,0
434600,213,-2032,208,-44,-5,-50,7233,6,1,-416,-96,35541,-82,34,127,0,0,2379,-5,0,9019,-336,188,38752,-4,0,104,12,434584,0
434610,259,-2031,195,-37,3,-37,7233,-1,0,-409,-104,35536,-82,34,127,0,0,2382,49,0,9019,-336,188,38762,-4,0,104,12,434584,0
434620,255,-2027,196,-25,8,-22,7233,1,4,-405,-104,35536,-85,34,127,0,0,2379,16,0,9019,-336,188,38772,-4,0,104,12,434600,0
434630,263,-2031,194,-7,14,-1,7233,5,-3,-385,-96,35535,-88,34,127,0,0,2379,-16,0,9019,-336,188,38782,-4,0,104,12,434615,0
434640,245,-2028,199,3,16,16,7233,-5,-2,-394,-96,35526,-69,34,127,0,0,2379,0,0,9019,-336,188,38792,-4,0,104,12,434615,0
434650,226,-2043,204,15,28,30,7234,5,1,-357,-80,35526,-81,34,127,0,0,2381,5,0,9019,-336,188,38802,-4,0,104,12,434615,0
434660,222,-2042,201,31,34,35,7234,-5,7,-333,-64,35538,-88,34,127,0,0,2380,5,0,9019,-336,188,38812,-4,0,104,12,434647,0
434670,215,-2035,217,32,27,51,7233,-5,-6,-348,-80,35541,-102,34,127,0,0,2381,5,0,9019,-336,188,38822,-4,0,104,12,434647,0
434680,205,-2037,226,35,29,59,7238,22,11,-261,-72,35544,-100,34,127,0,0,2387,-5,0,9019,-336,188,38832,-4,0,104,12,434647,0
434690,239,-2014,244,33,3,92,7241,7,11,-153,-16,35536,-80,34,127,0,0,2390,38,0,9019,-336,188,38842,-4,0,104,12,434678,0
434700,197,-2035,246,12,-3,95,7247,9,5,-77,8,35541,-100,34,127,0,0,2391,16,0,9019,-336,188,38852,-4,0,104,12,434678,0
434710,167,-2020,235,15,-6,78,7251,11,-1,-3,0,35545,-87,34,127,0,0,2401,27,0,9019,-336,188,38862,-4,0,104,12,434678,0
434720,151,-2022,233,8,5,58,7257,19,-6,118,32,35545,-74,34,127,0,0,2402,60,0,9019,-336,188,38872,-4,0,104,12,434709,0
434730,171,-2032,232,12,11,34,7262,15,4,160,40,35539,-66,34,127,0,0,2404,32,0,9019,-336,188,38882,-4,0,104,12,434709,0
434740,160,-2032,243,8,2,13,7267,19,-1,248,72,35532,-71,34,127,0,0,2406,-5,0,9019,-336,188,38892,-4,0,104,12,434725,0
434750,159,-2028,253,-6,5,-3,7276,29,8,297,80,35545,-90,34,127,0,0,2408,-10,0,9019,-336,188,38902,-4,0,104,12,434725,0
434760,157,-2032,254,-18,-1,-21,7282,20,2,259,64,35546,-75,34,127,0,0,2408,0,0,9019,-336,188,38912,-4,0,104,12,434756,0
434770,141,-2022,253,-27,-2,-41,7285,13,-7,297,80,35538,-55,34,127,0,0,2410,-10,0,9019,-336,188,38922,-4,0,104,12,434756,0
434780,161,-2026,255,-30,-5,-57,7299,37,20,174,48,35526,-45,34,127,0,0,2410,5,0,9019,-336,188,38932,-4,0,104,12,434756,0
434790,193,-2038,243,-45,-13,-66,7310,17,12,112,32,35529,-45,34,127,0,0,2410,0,0,9019,-336,188,38942,-4,0,104,12,434772,0
434800,190,-2029,241,-52,-18,-66,7310,-10,-31,47,32,35536,-45,34,127,0,0,2407,-10,0,9019,-336,188,38952,-4,0,104,12,434772,0
434810,204,-2040,230,-51,-9,-76,7309,-3,-24,8,32,35530,-36,34,127,0,0,2410,38,0,9019,-336,188,38962,-4,0,104,12,434803,0
434820,205,-2032,215,-50,-9,-75,7313,9,6,59,0,35532,-40,34,127,0,0,2404,-65,0,9019,-336,188,38972,-4,0,104,12,434818,0
434830,207,-2038,228,-42,-13,-67,7310,7,-8,25,8,35536,-37,34,127,0,0,2408,-27,0,9019,-336,188,38982,-4,0,104,12,434818,0
434840,210,-2022,227,-40,-17,-60,7310,-12,-2,9,8,35533,-34,34,127,0,0,2408,0,0,9019,-336,188,38992,-4,0,104,12,434818,0
434850,202,-2027,229,-46,-12,-54,7311,-3,3,32,8,35529,-26,34,127,0,0,2408,-5,0,9019,-336,188,39002,-4,0,104,12,434818,0
434860,207,-2033,230,-37,-9,-56,7311,-2,4,8,8,35533,-5,34,127,0,0,2411,32,0,9019,-336,188,39012,-4,0,104,12,434834,0
434870,226,-2034,235,-44,-10,-50,7310,-7,-5,53,32,35541,-12,34,127,0,0,2407,10,0,9019,-336,188,39022,-4,0,104,12,434850,0
434880,218,-2025,229,-42,0,-52,7309,-7,-10,7,8,35543,-18,34,127,0,0,2408,0,0,9019,-336,188,39032,-4,0,104,12,434896,0
434890,196,-2039,222,-40,-6,-51,7311,5,-2,21,8,35538,-21,34,127,0,0,2408,-27,0,9019,-336,188,39042,-4,0,104,12,434896,0
434900,200,-2035,228,-43,-13,-57,7311,8,2,2,-16,35533,-14,34,127,0,0,2409,-5,0,9019,-336,188,39052,-4,0,104,12,434896,0
434910,193,-2038,236,-38,-17,-56,7312,2,1,40,8,35544,-16,34,127,0,0,2408,-5,0,9019,-336,188,39062,-4,0,104,12,434896,0
434920,200,-2029,235,-36,-6,-65,7311,-7,-4,42,8,35545,-25,34,127,0,0,2404,-49,0,9019,-336,188,39072,-4,0,104,12,434912,0
434930,196,-2033,238,-46,-12,-56,7310,-9,-3,-16,-8,35544,-31,34,127,0,0,2409,10,0,9019,-336,188,39082,-4,0,104,12,434912,0
434940,195,-2018,245,-43,-6,-60,7310,-3,0,-9,32,35544,-16,34,127,0,0,2407,32,0,9019,-336,188,39092,-4,0,104,12,434912,0
434950,211,-2024,230,-41,-9,-54,7310,-5,3,0,8,35548,-20,34,127,0,0,2408,0,0,9019,-336,188,39102,-4,0,104,12,434943,0
434960,192,-2029,240,-44,-13,-56,7311,4,-3,9,32,35550,-22,34,127,0,0,2410,38,0,9019,-336,188,39112,-4,0,104,12,434943,0
434970,221,-2027,239,-46,-2,-61,7313,-9,5,25,8,35549,-30,34,127,0,0,2408,-5,0,9019,-336,188,39122,-4,0,104,12,434943,0
434980,199,-2028,229,-49,-4,-61,7312,6,-2,29,8,35536,-31,34,127,0,0,2408,-16,0,9019,-336,188,39132,-4,0,104,12,434975,0
434990,197,-2035,231,-43,-4,-54,7311,3,1,14,8,35537,-39,34,127,0,0,2408,0,0,9019,-336,188,39142,-4,0,104,12,434975,0
435000,193,-2038,236,-46,-9,-59,7311,-1,0,0,8,35539,-42,34,127,0,0,2408,0,0,9019,-336,188,39152,-4,0,104,12,434975,0
435010,196,-2029,233,-48,-3,-62,7312,3,4,34,24,35550,-40,34,127,0,0,2407,-10,0,9019,-336,188,39162,-4,0,104,12,434975,0
435020,214,-2029,230,-51,-11,-61,7312,-7,-2,11,0,35553,-33,34,127,0,0,2411,32,0,9019,-336,188,39172,-4,0,104,12,435006,0
435030,225,-2025,226,-49,-11,-52,7313,0,1,30,0,35550,-24,34,127,0,0,2408,5,0,9019,-336,188,39182,-4,0,104,12,435006,0
435040,205,-2036,238,-47,-8,-58,7311,0,-6,-14,24,35550,-34,34,127,0,0,2407,10,0,9019,-336,188,39192,-4,0,104,12,435006,0
435050,231,-2036,220,-47,-8,-56,7313,-1,2,-2,8,35547,-33,34,127,0,0,2408,0,0,9019,-336,188,39202,-4,0,104,12,435037,0
435060,218,-2029,222,-42,2,-53,7310,-8,-4,0,8,35542,-32,34,127,0,0,2411,32,0,9019,-336,188,39212,-4,0,104,12,435053,0
435070,234,-2027,226,-38,-9,-42,7312,2,-5,-1,-16,35541,-17,34,127,0,0,2412,43,0,9019,-336,188,39222,-4,0,104,12,435053,0
435080,187,-2044,223,-36,-3,-35,7312,8,-3,33,8,35541,-29,34,127,0,0,2408,32,0,9019,-336,188,39232,-4,0,104,12,435053,0
435090,184,-2031,236,-34,-10,-37,7310,-12,-2,14,8,35541,-21,34,127,0,0,2408,0,0,9019,-336,188,39242,-4,0,104,12,435084,0
435100,206,-2027,236,-29,-3,-30,7312,1,-7,16,8,35552,-27,34,127,0,0,2408,21,0,9019,-336,188,39252,-4,0,104,12,435084,0
435110,160,-2044,229,-34,-12,-34,7310,-7,-3,11,8,35543,-14,34,127,0,0,2408,0,0,9019,-336,188,39262,-4,0,104,12,435084,0
435120,175,-2041,234,-35,-3,-43,7311,-4,1,0,8,35550,-19,34,127,0,0,2408,0,0,9019,-336,188,39272,-4,0,104,12,435100,0
435130,199,-2027,237,-27,1,-49,7313,7,1,27,8,35555,-10,34,127,0,0,2408,-16,0,9019,-336,188,39282,-4,0,104,12,435115,0
435140,204,-2026,242,-27,0,-42,7311,-4,1,11,8,35569,-33,34,127,0,0,2408,0,0,9019,-336,188,39292,-4,0,104,12,435115,0
435150,205,-2025,238,-35,-6,-43,7311,3,-2,-1,-16,35562,-32,34,127,0,0,2406,-38,0,9019,-336,188,39302,-4,0,104,12,435115,0
435160,174,-2021,244,-38,-11,-46,7312,6,7,-11,8,35557,-37,34,127,0,0,2408,-10,0,9019,-336,188,39312,-4,0,104,12,435209,0
435170,180,-2041,234,-37,2,-46,7312,0,-3,29,0,35544,-32,34,127,0,0,2408,-27,0,9019,-336,188,39322,-4,0,104,12,435209,0
435180,199,-2027,226,-35,-3,-42,7311,-3,-2,0,8,35547,-43,34,127,0,0,2411,32,0,9019,-336,188,39332,-4,0,104,12,435225,0
435190,238,-2021,222,-30,-3,-48,7312,2,-4,16,0,35544,-38,34,127,0,0,2408,21,0,9019,-336,188,39342,-4,0,104,12,435225,0
435200,204,-2031,230,-28,0,-37,7312,-5,1,-32,8,35540,-24,34,127,0,0,2411,54,0,9019,-336,188,39352,-4,0,104,12,435225,0
435210,238,-2033,222,-30,-2,-36,7312,3,0,-22,24,35539,-34,34,127,0,0,2407,49,0,9019,-336,188,39362,-4,0,104,12,435225,0
435220,193,-2039,231,-33,-1,-39,7312,1,3,-37,8,35543,-39,34,127,0,0,2411,87,0,9019,-336,188,39372,-4,0,104,12,435225,0
435230,197,-2036,236,-21,-3,-44,7312,-3,0,17,0,35546,-38,34,127,0,0,2411,43,0,9019,-336,188,39382,-4,0,104,12,435225,0
435240,188,-2048,236,-23,-4,-49,7311,-9,-6,6,-16,35547,-42,34,127,0,0,2409,21,0,9019,-336,188,39392,-4,0,104,12,435225,0
435250,177,-2045,243,-29,-10,-46,7311,0,-6,-17,8,35548,-41,34,127,0,0,2408,16,0,9019,-336,188,39402,-4,0,104,12,435240,0
435260,207,-2045,235,-22,-10,-50,7311,1,-2,-2,8,35562,-50,34,127,0,0,2408,0,0,9019,-336,188,39412,-4,0,104,12,435240,0
435270,206,-2026,228,-22,-1,-41,7312,0,1,2,8,35591,-51,34,127,0,0,2411,32,0,9019,-336,188,39422,-4,0,104,12,435240,0
435280,200,-2038,231,-30,-1,-39,7312,3,-3,9,8,35583,-43,34,127,0,0,2408,10,0,9019,-336,188,39432,-4,0,104,12,435271,0
435290,186,-2034,240,-24,-3,-37,7311,-8,-5,0,8,35567,-50,34,127,0,0,2408,0,0,9019,-336,188,39442,-4,0,104,12,435271,0
435300,195,-2043,239,-22,-2,-39,7311,0,-3,0,-16,35549,-35,34,127,0,0,2412,27,0,9019,-336,188,39452,-4,0,104,12,435271,0
435310,202,-2031,242,-31,-4,-40,7311,-4,0,20,0,35552,-34,34,127,0,0,2408,10,0,9019,-336,188,39462,-4,0,104,12,435303,0
435320,192,-2035,243,-35,-6,-46,7312,0,0,0,8,35549,-23,34,127,0,0,2408,0,0,9019,-336,188,39472,-4,0,104,12,435303,0
435330,186,-2022,244,-38,-10,-50,7311,-4,-3,-24,8,35541,-13,34,127,0,0,2408,5,0,9019,-336,188,39482,-4,0,104,12,435303,0
435340,200,-2026,239,-40,-6,-50,7313,-3,5,37,8,35547,-35,34,127,0,0,2408,-21,0,9019,-336,188,39492,-4,0,104,12,435318,0
435350,187,-2026,239,-45,-20,-46,7310,-12,-11,17,8,35541,-23,34,127,0,0,2408,0,0,9019,-336,188,39502,-4,0,104,12,435334,0
435360,197,-2024,237,-48,-20,-43,7313,0,1,-3,-16,35541,-25,34,127,0,0,2409,-5,0,9019,-336,188,39512,-4,0,104,12,435349,0
435370,185,-2038,237,-44,-10,-52,7310,-6,-2,-42,8,35530,-13,34,127,0,0,2408,49,0,9019,-336,188,39522,-4,0,104,12,435349,0
435380,197,-2044,242,-47,-3,-51,7311,-11,-1,-41,8,35539,-19,34,127,0,0,2404,0,0,9019,-336,188,39532,-4,0,104,12,435369,0
435390,199,-2036,249,-46,-7,-54,7311,4,-5,-39,8,35536,-25,34,127,0,0,2408,32,0,9019,-336,188,39542,-4,0,104,12,435369,0
435400,209,-2027,237,-48,-11,-48,7311,-5,2,-2,-16,35539,-19,34,127,0,0,2409,-5,0,9019,-336,188,39552,-4,0,104,12,435369,0
435410,202,-2037,243,-43,-7,-44,7312,2,-4,-6,8,35538,-29,34,127,0,0,2408,0,0,9019,-336,188,39562,-4,0,104,12,435401,0
435420,208,-2037,238,-50,-12,-40,7312,0,0,0,-16,35537,-17,34,127,0,0,2412,27,0,9019,-336,188,39572,-4,0,104,12,435416,0
435430,213,-2034,228,-51,-10,-35,7312,1,3,17,0,35538,-24,34,127,0,0,2408,10,0,9019,-336,188,39582,-4,0,104,12,435416,0
435440,198,-2024,235,-55,-11,-41,7313,13,0,2,8,35544,-30,34,127,0,0,2408,0,0,9019,-336,188,39592,-4,0,104,12,435416,0
435450,177,-2037,235,-52,-6,-37,7311,0,1,28,24,35544,-28,34,127,0,0,2407,-21,0,9019,-336,188,39602,-4,0,104,12,435432,0
435460,206,-2036,230,-45,-7,-49,7314,6,4,16,0,35546,-47,34,127,0,0,2408,-27,0,9019,-336,188,39612,-4,0,104,12,435447,0
435470,186,-2030,246,-52,-13,-44,7311,-4,-3,2,24,35544,-40,34,127,0,0,2407,5,0,9019,-336,188,39622,-4,0,104,12,435447,0
435480,211,-2030,241,-50,-8,-46,7313,0,1,0,8,35540,-41,34,127,0,0,2408,0,0,9019,-336,188,39632,-4,0,104,12,435463,0
435490,199,-2031,243,-65,-15,-47,7311,0,-3,-19,8,35528,-39,34,127,0,0,2411,49,0,9019,-336,188,39642,-4,0,104,12,435463,0
435500,214,-2031,243,-55,-13,-43,7313,0,5,20,24,35524,-18,34,127,0,0,2407,16,0,9019,-336,188,39652,-4,0,104,12,435479,0
435510,185,-2021,242,-55,-11,-43,7313,4,0,-10,8,35539,-27,34,127,0,0,2408,0,0,9019,-336,188,39662,-4,0,104,12,435572,0
435520,188,-2036,244,-57,-7,-44,7312,0,-3,3,0,35537,-16,34,127,0,0,2411,32,0,9019,-336,188,39672,-4,0,104,12,435572,0
435530,204,-2030,234,-56,-3,-44,7314,1,5,37,0,35536,-31,34,127,0,0,2408,-32,0,9019,-336,188,39682,-4,0,104,12,435572,0
435540,189,-2051,234,-59,-8,-47,7312,6,-5,23,8,35530,-32,34,127,0,0,2411,54,0,9019,-336,188,39692,-4,0,104,12,435572,0
435550,188,-2030,249,-57,-8,-53,7313,-3,-1,20,8,35534,-35,34,127,0,0,2408,10,0,9019,-336,188,39702,-4,0,104,12,435572,0
435560,199,-2039,248,-65,-11,-59,7314,11,4,20,0,35538,-41,34,127,0,0,2411,16,0,9019,-336,188,39712,-4,0,104,12,435588,0
435570,210,-2035,240,-64,-14,-61,7310,-11,-4,-4,8,35537,-34,34,127,0,0,2408,38,0,9019,-336,188,39722,-4,0,104,12,435588,0
435580,218,-2022,241,-70,-6,-64,7312,0,-2,10,0,35524,-30,34,127,0,0,2404,-21,0,9019,-336,188,39732,-4,0,104,12,435588,0
435590,165,-2027,244,-57,-20,-56,7314,9,6,12,0,35523,-34,34,127,0,0,2408,-38,0,9019,-336,188,39742,-4,0,104,12,435588,0
435600,188,-2031,235,-61,-16,-59,7311,-7,-2,-15,8,35526,-32,34,127,0,0,2408,16,0,9019,-336,188,39752,-4,0,104,12,435588,0
435610,179,-2028,247,-66,-20,-64,7314,18,5,19,0,35530,-25,34,127,0,0,2408,-16,0,9019,-336,188,39762,-4,0,104,12,435588,0
435620,168,-2031,246,-60,-28,-70,7313,4,0,-19,-16,35532,-17,34,127,0,0,2409,0,0,9019,-336,188,39772,-4,0,104,12,435588,0
435630,207,-2038,217,-63,-9,-69,7313,7,5,-7,0,35543,-11,34,127,0,0,2408,0,0,9019,-336,188,39782,-4,0,104,12,435651,0
435640,209,-2039,232,-64,-12,-62,7311,-1,4,1,-16,35546,-12,34,127,0,0,2409,32,0,9019,-336,188,39792,-4,0,104,12,435666,0
435650,202,-2030,234,-58,-19,-64,7312,0,-6,-13,-16,35544,-19,34,127,0,0,2406,-10,0,9019,-336,188,39802,-4,0,104,12,435666,0
435660,200,-2028,239,-56,-15,-67,7314,6,-5,-9,8,35525,-35,34,127,0,0,2408,-10,0,9019,-336,188,39812,-4,0,104,12,435666,0
435670,215,-2032,223,-60,-11,-55,7312,-2,2,-29,8,35518,-22,34,127,0,0,2404,0,0,9019,-336,188,39822,-4,0,104,12,435666,0
435680,236,-2035,227,-57,-6,-55,7312,3,2,-62,-16,35520,-36,34,127,0,0,2406,0,0,9019,-336,188,39832,-4,0,104,12,435666,0
435690,200,-2027,240,-52,-6,-54,7312,5,5,-54,-16,35526,-35,34,127,0,0,2406,0,0,9019,-336,188,39842,-4,0,104,12,435666,0
435700,201,-2033,242,-58,-9,-56,7311,6,1,-52,-16,35529,-39,34,127,0,0,2406,0,0,9019,-336,188,39852,-4,0,104,12,435666,0
435710,200,-2035,230,-52,-14,-49,7312,0,2,-52,-16,35537,-36,34,127,0,0,2406,0,0,9019,-336,188,39862,-4,0,104,12,435697,0
435720,197,-2026,230,-52,-17,-54,7311,0,1,-51,-16,35536,-46,34,127,0,0,2409,32,0,9019,-336,188,39872,-4,0,104,12,435697,0
435730,202,-2025,229,-52,-9,-54,7312,-1,2,-52,-16,35542,-59,34,127,0,0,2402,-21,0,9019,-336,188,39882,-4,0,104,12,435697,0
435740,206,-2029,236,-53,-13,-54,7308,-13,-4,-111,-8,35547,-50,34,127,0,0,2402,0,0,9019,-336,188,39892,-4,0,104,12,435713,0
435750,195,-2029,238,-45,-9,-55,7312,3,2,-68,-16,35539,-29,34,127,0,0,2402,-43,0,9019,-336,188,39902,-4,0,104,12,435760,0
435760,212,-2033,243,-46,-14,-61,7308,-1,-5,-95,-8,35542,-33,34,127,0,0,2409,49,0,9019,-336,188,39912,-4,0,104,12,435760,0
435770,222,-2033,235,-55,-16,-59,7309,-16,-4,-127,8,35544,-24,34,127,0,0,2401,32,0,9019,-336,188,39922,-4,0,104,12,435776,0
435780,235,-2030,237,-54,-3,-53,7309,4,0,-172,-32,35555,-41,34,127,0,0,2407,32,0,9019,-336,188,39932,-4,0,104,12,435776,0
435790,216,-2030,233,-57,-16,-49,7310,11,3,-87,-32,35554,-34,34,127,0,0,2403,-21,0,9019,-336,188,39942,-4,0,104,12,435776,0
435800,209,-2020,236,-56,-7,-57,7307,-11,-5,-139,-24,35546,-31,34,127,0,0,2403,0,0,9019,-336,188,39952,-4,0,104,12,435776,0
435810,194,-2039,231,-55,-16,-64,7309,0,-4,-122,-8,35549,-41,34,127,0,0,2402,-10,0,9019,-336,188,39962,-4,0,104,12,435776,0
435820,197,-2036,233,-51,-16,-58,7308,0,0,-121,-8,35555,-47,34,127,0,0,2406,21,0,9019,-336,188,39972,-4,0,104,12,435807,0
435830,221,-2035,235,-53,-11,-60,7308,-10,-2,-143,-32,35554,-42,34,127,0,0,2403,10,0,9019,-336,188,39982,-4,0,104,12,435807,0
435840,199,-2032,238,-60,-11,-62,7308,8,-4,-145,-32,35541,-36,34,127,0,0,2407,32,0,9019,-336,188,39992,-4,0,104,12,435807,0
435850,204,-2036,226,-53,-11,-66,7308,2,4,-131,-32,35532,-26,34,127,0,0,2403,10,0,9019,-336,188,40002,-4,0,104,12,435822,0
435860,195,-2032,236,-50,-6,-69,7309,4,0,-138,-32,35532,-21,34,127,0,0,2403,0,0,9019,-336,188,40012,-4,0,104,12,435854,0
435870,198,-2035,238,-54,-13,-76,7307,6,-4,-139,-24,35544,-16,34,127,0,0,2403,0,0,9019,-336,188,40022,-4,0,104,12,435854,0
435880,207,-2034,238,-53,-11,-73,7305,-6,-4,-190,-24,35542,-31,34,127,0,0,2400,27,0,9019,-336,188,40032,-4,0,104,12,435854,0
435890,204,-2028,229,-50,-11,-71,7307,2,4,-159,-64,35546,-31,34,127,0,0,2406,-5,0,9019,-336,188,40042,-4,0,104,12,435947,0
435900,187,-2032,241,-52,-6,-64,7304,-11,-4,-200,-64,35541,-30,34,127,0,0,2399,0,0,9019,-336,188,40052,-4,0,104,12,435947,0
435910,190,-2031,235,-49,-9,-72,7303,0,-6,-240,-56,35547,-27,34,127,0,0,2399,0,0,9019,-336,188,40062,-4,0,104,12,435947,0
435920,199,-2030,237,-55,-17,-63,7300,-6,0,-273,-72,35538,-39,34,127,0,0,2397,5,0,9019,-336,188,40072,-4,0,104,12,435947,0
435930,199,-2033,233,-50,-12,-67,7298,-8,2,-258,-72,35532,-54,34,127,0,0,2397,-5,0,9019,-336,188,40082,-4,0,104,12,435963,0
435940,210,-2028,235,-52,-10,-68,7298,-5,2,-301,-72,35532,-43,34,127,0,0,2397,5,0,9019,-336,188,40092,-4,0,104,12,435963,0
435950,192,-2042,240,-51,-17,-68,7296,3,5,-260,-64,35538,-46,34,127,0,0,2397,-27,0,9019,-336,188,40102,-4,0,104,12,435963,0
435960,198,-2030,238,-54,-9,-72,7293,-19,-2,-298,-64,35540,-47,34,127,0,0,2397,43,0,9019,-336,188,40112,-4,0,104,12,435963,0
435970,212,-2032,235,-56,-10,-75,7291,-7,-5,-302,-56,35537,-37,34,127,0,0,2393,16,0,9019,-336,188,40122,-4,0,104,12,435963,0
435980,210,-2033,235,-51,-13,-77,7286,-15,2,-273,-48,35539,-51,34,127,0,0,2393,32,0,9019,-336,188,40132,-4,0,104,12,435963,0
435990,200,-2026,239,-57,-8,-77,7282,-5,3,-216,-80,35544,-47,34,127,0,0,2396,-5,0,9019,-336,188,40142,-4,0,104,12,435963,0
436000,216,-2030,235,-55,-14,-77,7277,-9,7,-247,-72,35551,-46,34,127,0,0,2392,-5,0,9019,-336,188,40152,-4,0,104,12,435994,0
436010,203,-2018,232,-56,-9,-73,7267,-17,-14,-203,-48,35550,-34,34,127,0,0,2396,32,0,9019,-336,188,40162,-4,0,104,12,435994,0
436020,184,-2040,234,-54,-16,-69,7266,-7,13,-209,-48,35548,-46,34,127,0,0,2389,-5,0,9019,-336,188,40172,-4,0,104,12,435994,0
436030,197,-2035,238,-62,-12,-77,7263,-13,8,-284,-64,35552,-63,34,127,0,0,2393,38,0,9019,-336,188,40182,-4,0,104,12,436010,0
436040,186,-2040,230,-57,-10,-79,7261,3,0,-276,-56,35556,-72,34,127,0,0,2390,32,0,9019,-336,188,40192,-4,0,104,12,436025,0
436050,219,-2034,228,-59,-6,-85,7261,2,13,-266,-56,35552,-76,34,127,0,0,2387,0,0,9019,-336,188,40202,-4,0,104,12,436025,0
436060,210,-2034,233,-63,-15,-78,7259,-5,2,-325,-72,35559,-72,34,127,0,0,2381,-38,0,9019,-336,188,40212,-4,0,104,12,436041,0
436070,211,-2035,235,-58,-9,-87,7253,-10,-8,-356,-80,35559,-60,34,127,0,0,2386,21,0,9019,-336,188,40222,-4,0,104,12,436057,0
436080,204,-2036,233,-56,-10,-84,7253,-3,7,-356,-96,35572,-76,34,127,0,0,2384,5,0,9019,-336,188,40232,-4,0,104,12,436072,0
436090,207,-2030,245,-65,-19,-85,7252,0,6,-379,-96,35560,-63,34,127,0,0,2384,0,0,9019,-336,188,40242,-4,0,104,12,436072,0
436100,204,-2038,240,-64,-9,-81,7249,-6,-6,-406,-88,35547,-93,34,127,0,0,2380,16,0,9019,-336,188,40252,-4,0,104,12,436072,0
436110,219,-2030,231,-57,-9,-81,7249,-4,6,-389,-88,35542,-51,34,127,0,0,2380,0,0,9019,-336,188,40262,-4,0,104,12,436088,0
436120,232,-2032,229,-60,-14,-75,7248,-4,2,-416,-128,35544,-49,34,127,0,0,2379,-10,0,9019,-336,188,40272,-4,0,104,12,436088,0
436130,210,-2029,237,-64,-14,-69,7244,-3,-5,-439,-128,35545,-44,34,127,0,0,2379,-27,0,9019,-336,188,40282,-4,0,104,12,436119,0
436140,211,-2032,232,-63,-9,-71,7244,1,3,-449,-120,35540,-69,34,127,0,0,2379,0,0,9019,-336,188,40292,-4,0,104,12,436119,0
436150,216,-2028,234,-51,-11,-69,7240,-17,-5,-492,-112,35541,-93,34,127,0,0,2379,49,0,9019,-336,188,40302,-4,0,104,12,436119,0
436160,221,-2026,220,-57,-10,-65,7240,5,4,-413,-112,35557,-90,34,127,0,0,2379,0,0,9019,-336,188,40312,-4,0,104,12,436135,0
436170,223,-2027,229,-54,-12,-55,7236,-11,-6,-432,-128,35560,-85,34,127,0,0,2377,-10,0,9019,-336,188,40322,-4,0,104,12,436135,0
436180,206,-2023,232,-53,-11,-56,7236,-6,-10,-441,-104,35564,-80,34,127,0,0,2376,0,0,9019,-336,188,40332,-4,0,104,12,436166,0
436190,203,-2036,236,-48,-10,-57,7235,-5,4,-467,-128,35560,-88,34,127,0,0,2377,0,0,9019,-336,188,40342,-4,0,104,12,436166,0
436200,214,-2032,234,-49,-5,-51,7231,-14,-10,-466,-136,35557,-97,34,127,0,0,2378,21,0,9019,-336,188,40352,-4,0,104,12,436182,0
436210,219,-2031,236,-43,-7,-50,7227,-10,-11,-410,-104,35556,-85,34,127,0,0,2377,16,0,9019,-336,188,40362,-4,0,104,12,436197,0
436220,219,-2034,229,-47,-9,-50,7225,-7,2,-390,-104,35540,-80,34,127,0,0,2374,-54,0,9019,-336,188,40372,-4,0,104,12,436197,0
436230,219,-2029,225,-44,-9,-40,7219,-20,-1,-379,-96,35538,-80,34,127,0,0,2377,-5,0,9019,-336,188,40382,-4,0,104,12,436213,0
436240,228,-2034,217,-39,-1,-34,7210,-15,-16,-292,-72,35547,-89,34,127,0,0,2377,0,0,9019,-336,188,40392,-4,0,104,12,436229,0
436250,238,-2031,222,-32,-1,-26,7202,-17,-2,-254,-40,35558,-98,34,127,0,0,2376,21,0,9019,-336,188,40402,-4,0,104,12,436229,0
436260,240,-2032,227,-33,5,-27,7202,-2,22,-237,-56,35552,-94,34,127,0,0,2377,0,0,9019,-336,188,40412,-4,0,104,12,436229,0
436270,195,-2039,231,-28,-1,-19,7201,-2,13,-243,-32,35558,-100,34,127,0,0,2376,-5,0,9019,-336,188,40422,-4,0,104,12,436244,0
436280,226,-2045,227,-29,5,-21,7200,-10,0,-242,-56,35552,-82,34,127,0,0,2380,32,0,9019,-336,188,40432,-4,0,104,12,436260,0
436290,218,-2031,227,-30,-2,-26,7202,-1,2,-222,-56,35558,-94,34,127,0,0,2374,-21,0,9019,-336,188,40442,-4,0,104,12,436307,0
436300,215,-2034,239,-32,-2,-25,7201,4,-2,-204,-32,35555,-104,34,127,0,0,2376,-38,0,9019,-336,188,40452,-4,0,104,12,436322,0
436310,190,-2040,245,-35,-3,-25,7201,0,3,-219,-56,35541,-104,34,127,0,0,2380,16,0,9019,-336,188,40462,-4,0,104,12,436322,0
436320,184,-2031,241,-31,1,-30,7202,3,2,-197,-32,35539,-116,34,127,0,0,2373,-49,0,9019,-336,188,40472,-4,0,104,12,436322,0
436330,191,-2034,240,-40,1,-34,7201,9,4,-180,-48,35539,-109,34,127,0,0,2380,-5,0,9019,-336,188,40482,-4,0,104,12,436322,0
436340,191,-2020,256,-36,-3,-33,7200,-8,0,-187,-32,35538,-103,34,127,0,0,2379,43,0,9019,-336,188,40492,-4,0,104,12,436322,0
436350,197,-2036,239,-40,0,-36,7199,-2,-1,-228,-72,35541,-87,34,127,0,0,2378,-21,0,9019,-336,188,40502,-4,0,104,12,436322,0
436360,185,-2033,243,-46,3,-48,7200,7,6,-182,-16,35548,-74,34,127,0,0,2378,21,0,9019,-336,188,40512,-4,0,104,12,436338,0
436370,211,-2017,245,-43,-4,-44,7199,-14,-4,-193,-56,35565,-85,34,127,0,0,2377,-38,0,9019,-336,188,40522,-4,0,104,12,436385,0
436380,206,-2021,247,-46,2,-43,7199,3,-7,-206,-32,35565,-83,34,127,0,0,2379,5,0,9019,-336,188,40532,-4,0,104,12,436385,0
436390,211,-2030,240,-51,-10,-45,7200,-7,4,-223,-32,35549,-99,34,127,0,0,2376,16,0,9019,-336,188,40542,-4,0,104,12,436385,0
436400,222,-2034,235,-45,-8,-47,7199,2,-5,-223,-56,35533,-97,34,127,0,0,2380,5,0,9019,-336,188,40552,-4,0,104,12,436385,0
436410,222,-2030,228,-43,-5,-45,7199,-8,3,-192,-48,35533,-96,34,127,0,0,2377,-38,0,9019,-336,188,40562,-4,0,104,12,436400,0
436420,207,-2030,230,-44,-1,-47,7199,5,-7,-187,-32,35536,-84,34,127,0,0,2376,-16,0,9019,-336,188,40572,-4,0,104,12,436400,0
436430,205,-2028,233,-38,-9,-41,7198,-3,-1,-196,-32,35545,-79,34,127,0,0,2379,5,0,9019,-336,188,40582,-4,0,104,12,436400,0
436440,219,-2030,236,-35,-6,-43,7199,0,-1,-214,-48,35550,-90,34,127,0,0,2377,5,0,9019,-336,188,40592,-4,0,104,12,436432,0
436450,185,-2035,236,-40,-9,-42,7198,2,0,-221,-32,35556,-90,34,127,0,0,2376,-10,0,9019,-336,188,40602,-4,0,104,12,436432,0
436460,203,-2032,242,-39,-8,-45,7198,-8,2,-230,-32,35551,-87,34,127,0,0,2379,38,0,9019,-336,188,40612,-4,0,104,12,436432,0
436470,221,-2040,241,-40,-3,-44,7199,-2,-2,-203,-32,35544,-92,34,127,0,0,2379,27,0,9019,-336,188,40622,-4,0,104,12,436447,0
436480,201,-2033,241,-43,-11,-40,7199,1,-3,-228,-32,35547,-97,34,127,0,0,2379,49,0,9019,-336,188,40632,-4,0,104,12,436478,0
436490,215,-2032,231,-44,-4,-43,7199,1,-1,-190,-32,35548,-106,34,127,0,0,2376,-32,0,9019,-336,188,40642,-4,0,104,12,436478,0
436500,201,-2036,231,-38,-3,-46,7199,9,-1,-234,-48,35552,-96,34,127,0,0,2377,0,0,9019,-336,188,40652,-4,0,104,12,436478,0
436510,206,-2030,244,-43,-7,-43,7198,-7,-2,-232,-32,35548,-89,34,127,0,0,2376,5,0,9019,-336,188,40662,-4,0,104,12,436478,0
436520,215,-2023,237,-45,-3,-45,7199,3,0,-183,-48,35542,-100,34,127,0,0,2380,-16,0,9019,-336,188,40672,-4,0,104,12,436510,0
436530,210,-2042,226,-40,-7,-42,7199,3,3,-196,-32,35541,-101,34,127,0,0,2376,-10,0,9019,-336,188,40682,-4,0,104,12,436510,0
436540,237,-2031,233,-41,-2,-45,7197,-7,-4,-199,-24,35542,-115,34,127,0,0,2379,32,0,9019,-336,188,40692,-4,0,104,12,436525,0
436550,199,-2029,245,-41,-16,-45,7198,-17,0,-206,-32,35540,-103,34,127,0,0,2379,32,0,9019,-336,188,40702,-4,0,104,12,436525,0
436560,190,-2028,232,-42,-14,-46,7199,-9,-2,-229,-24,35531,-88,34,127,0,0,2376,16,0,9019,-336,188,40712,-4,0,104,12,436557,0
436570,191,-2022,241,-40,-6,-44,7199,8,-3,-213,-32,35536,-90,34,127,0,0,2379,10,0,9019,-336,188,40722,-4,0,104,12,436572,0
436580,195,-2029,238,-39,-11,-47,7200,3,5,-188,-32,35539,-93,34,127,0,0,2379,16,0,9019,-336,188,40732,-4,0,104,12,436572,0
436590,202,-2036,238,-41,-2,-47,7198,-2,-1,-209,-32,35538,-96,34,127,0,0,2379,32,0,9019,-336,188,40742,-4,0,104,12,436572,0
436600,202,-2029,240,-36,-9,-53,7198,1,-7,-209,-32,35531,-96,34,127,0,0,2379,32,0,9019,-336,188,40752,-4,0,104,12,436572,0
436610,224,-2028,237,-42,-5,-45,7199,0,1,-191,-32,35532,-92,34,127,0,0,2379,27,0,9019,-336,188,40762,-4,0,104,12,436588,0
436620,201,-2039,242,-42,-8,-47,7198,0,-5,-199,-48,35539,-110,34,127,0,0,2377,-21,0,9019,-336,188,40772,-4,0,104,12,436588,0
436630,194,-2025,247,-45,-6,-49,7199,4,-2,-209,-48,35544,-107,34,127,0,0,2380,10,0,9019,-336,188,40782,-4,0,104,12,436682,0
436640,175,-2029,250,-39,-7,-40,7198,-12,-3,-207,-24,35540,-121,34,127,0,0,2376,-10,0,9019,-336,188,40792,-4,0,104,12,436682,0
436650,187,-2025,240,-45,-3,-49,7200,13,3,-193,-32,35528,-109,34,127,0,0,2376,-43,0,9019,-336,188,40802,-4,0,104,12,436682,0
436660,199,-2031,239,-43,-8,-46,7198,0,0,-198,-32,35528,-120,34,127,0,0,2379,5,0,9019,-336,188,40812,-4,0,104,12,436697,0
436670,225,-2017,238,-41,-1,-39,7198,-7,-1,-183,-32,35526,-113,34,127,0,0,2376,-5,0,9019,-336,188,40822,-4,0,104,12,436697,0
436680,223,-2027,237,-43,-4,-42,7199,-1,-3,-197,-32,35531,-103,34,127,0,0,2376,-16,0,9019,-336,188,40832,-4,0,104,12,436697,0
436690,197,-2035,242,-39,-5,-43,7197,-11,-2,-229,-24,35529,-107,34,127,0,0,2376,5,0,9019,-336,188,40842,-4,0,104,12,436697,0
436700,221,-2038,250,-44,0,-45,7198,-11,1,-219,-32,35528,-101,34,127,0,0,2376,-21,0,9019,-336,188,40852,-4,0,104,12,436697,0
436710,196,-2035,245,-49,-8,-42,7198,8,1,-214,-32,35531,-112,34,127,0,0,2376,-21,0,9019,-336,188,40862,-4,0,104,12,436697,0
436720,208,-2034,241,-51,-4,-46,7198,-1,3,-187,-48,35534,-100,34,127,0,0,2377,-49,0,9019,-336,188,40872,-4,0,104,12,436697,0
436730,198,-2034,234,-48,-11,-42,7197,-7,-8,-216,-48,35535,-91,34,127,0,0,2380,16,0,9019,-336,188,40882,-4,0,104,12,436697,0
436740,202,-2034,236,-41,-13,-42,7199,3,4,-181,-32,35545,-94,34,127,0,0,2376,-32,0,9019,-336,188,40892,-4,0,104,12,436728,0
436750,185,-2040,246,-44,-7,-37,7199,10,3,-172,-32,35549,-80,34,127,0,0,2379,-32,0,9019,-336,188,40902,-4,0,104,12,436728,0
436760,194,-2032,233,-50,-8,-32,7199,4,-4,-154,-32,35548,-87,34,127,0,0,2382,54,0,9019,-336,188,40912,-4,0,104,12,436744,0
436770,216,-2022,237,-44,-17,-34,7198,-22,-2,-184,-32,35538,-92,34,127,0,0,2379,43,0,9019,-336,188,40922,-4,0,104,12,436744,0
436780,194,-2036,243,-46,-12,-39,7200,7,-4,-182,-32,35541,-101,34,127,0,0,2382,32,0,9019,-336,188,40932,-4,0,104,12,436760,0
436790,199,-2044,241,-46,-6,-39,7201,10,8,-64,-32,35556,-102,34,127,0,0,2379,-38,0,9019,-336,188,40942,-4,0,104,12,436775,0
436800,176,-2030,251,-44,-7,-53,7198,-5,-17,-132,-32,35562,-100,34,127,0,0,2379,-5,0,9019,-336,188,40952,-4,0,104,12,436791,0
436810,196,-2023,245,-55,-15,-57,7198,-8,0,-192,-32,35550,-88,34,127,0,0,2376,-32,0,9019,-336,188,40962,-4,0,104,12,436791,0
436820,209,-2031,239,-49,-10,-54,7199,10,10,-139,-32,35541,-93,34,127,0,0,2379,-5,0,9019,-336,188,40972,-4,0,104,12,436791,0
436830,181,-2044,246,-53,-13,-51,7200,4,2,-111,-56,35550,-103,34,127,0,0,2377,-82,0,9019,-336,188,40982,-4,0,104,12,436807,0
436840,183,-2037,240,-51,-17,-54,7198,1,-6,-168,-8,35553,-108,34,127,0,0,2378,10,0,9019,-336,188,40992,-4,0,104,12,436822,0
436850,191,-2022,241,-54,-8,-55,7198,-12,4,-191,-32,35551,-89,34,127,0,0,2379,16,0,9019,-336,188,41002,-4,0,104,12,436822,0
436860,194,-2034,232,-60,-9,-57,7199,5,1,-189,-32,35543,-85,34,127,0,0,2376,-32,0,9019,-336,188,41012,-4,0,104,12,436838,0
436870,203,-2037,237,-56,0,-54,7199,6,2,-175,-32,35546,-88,34,127,0,0,2379,16,0,9019,-336,188,41022,-4,0,104,12,436838,0
436880,207,-2024,247,-53,-7,-51,7197,-12,-2,-185,-48,35555,-101,34,127,0,0,2377,-10,0,9019,-336,188,41032,-4,0,104,12,436869,0
436890,207,-2037,246,-58,-16,-51,7196,-2,-4,-218,-24,35543,-98,34,127,0,0,2382,65,0,9019,-336,188,41042,-4,0,104,12,436869,0
436900,201,-2035,243,-60,-18,-55,7199,-8,4,-185,-32,35530,-98,34,127,0,0,2379,43,0,9019,-336,188,41052,-4,0,104,12,436885,0
436910,197,-2024,241,-60,-15,-61,7197,-1,-11,-208,-24,35533,-104,34,127,0,0,2379,43,0,9019,-336,188,41062,-4,0,104,12,436885,0
436920,202,-2033,241,-57,-9,-67,7199,-1,6,-199,-48,35541,-99,34,127,0,0,2380,0,0,9019,-336,188,41072,-4,0,104,12,436900,0
436930,231,-2040,237,-64,-11,-68,7198,0,-4,-185,-32,35549,-100,34,127,0,0,2379,43,0,9019,-336,188,41082,-4,0,104,12,436947,0
436940,230,-2030,240,-62,-12,-69,7197,-14,1,-177,-24,35542,-111,34,127,0,0,2376,-16,0,9019,-336,188,41092,-4,0,104,12,436947,0
436950,210,-2023,240,-52,-14,-54,7199,-10,-1,-186,-32,35537,-104,34,127,0,0,2379,-10,0,9019,-336,188,41102,-4,0,104,12,436947,0
436960,217,-2027,239,-56,-12,-47,7198,0,-3,-204,-8,35537,-120,34,127,0,0,2381,82,0,9019,-336,188,41112,-4,0,104,12,436947,0
436970,247,-2018,231,-52,-15,-51,7199,-8,-1,-174,-56,35535,-110,34,127,0,0,2377,-10,0,9019,-336,188,41122,-4,0,104,12,436947,0
436980,206,-2030,233,-51,-5,-48,7198,3,-3,-182,-24,35536,-101,34,127,0,0,2376,-38,0,9019,-336,188,41132,-4,0,104,12,436947,0
436990,206,-2029,239,-52,-2,-42,7197,-4,-4,-186,-24,35548,-93,34,127,0,0,2379,-5,0,9019,-336,188,41142,-4,0,104,12,437010,0
437000,207,-2036,241,-49,-4,-41,7196,-15,-5,-190,-32,35556,-93,34,127,0,0,2376,10,0,9019,-336,188,41152,-4,0,104,12,437025,0
437010,196,-2026,246,-46,-10,-49,7198,4,0,-192,-24,35567,-108,34,127,0,0,2379,32,0,9019,-336,188,41162,-4,0,104,12,437025,0
437020,210,-2032,247,-51,-14,-50,7197,-5,-2,-175,-8,35559,-101,34,127,0,0,2378,32,0,9019,-336,188,41172,-4,0,104,12,437025,0
437030,214,-2022,246,-52,-12,-54,7197,-18,-4,-187,-32,35542,-98,34,127,0,0,2376,-16,0,9019,-336,188,41182,-4,0,104,12,437025,0
437040,204,-2033,241,-51,-7,-54,7201,18,3,-184,-32,35534,-95,34,127,0,0,2376,-16,0,9019,-336,188,41192,-4,0,104,12,437041,0
437050,185,-2034,241,-49,-7,-50,7197,-2,0,-193,-48,35546,-94,34,127,0,0,2384,21,0,9019,-336,188,41202,-4,0,104,12,437041,0
437060,192,-2031,240,-56,-12,-51,7198,0,-5,-184,-48,35561,-91,34,127,0,0,2377,-5,0,9019,-336,188,41212,-4,0,104,12,437041,0
437070,197,-2027,237,-53,-11,-54,7196,6,-1,-173,-48,35563,-83,34,127,0,0,2380,10,0,9019,-336,188,41222,-4,0,104,12,437041,0
437080,196,-2023,239,-46,-14,-47,7195,-12,-6,-154,-32,35564,-83,34,127,0,0,2376,-5,0,9019,-336,188,41232,-4,0,104,12,437088,0
437090,198,-2032,243,-42,0,-43,7195,-9,-4,-189,-48,35562,-82,34,127,0,0,2380,27,0,9019,-336,188,41242,-4,0,104,12,437088,0
437100,195,-2038,244,-48,-11,-47,7198,-2,5,-167,-32,35560,-88,34,127,0,0,2379,5,0,9019,-336,188,41252,-4,0,104,12,437088,0
437110,215,-2039,240,-48,0,-50,7198,11,-2,-173,-8,35550,-100,34,127,0,0,2375,5,0,9019,-336,188,41262,-4,0,104,12,437103,0
437120,218,-2031,241,-53,1,-51,7195,-12,-7,-197,-48,35539,-99,34,127,0,0,2380,27,0,9019,-336,188,41272,-4,0,104,12,437103,0
437130,217,-2027,239,-53,-9,-58,7200,9,7,-168,-48,35547,-129,34,127,0,0,2380,21,0,9019,-336,188,41282,-4,0,104,12,437103,0
437140,203,-2029,247,-48,-1,-54,7199,10,12,-155,-24,35553,-104,34,127,0,0,2376,-5,0,9019,-336,188,41292,-4,0,104,12,437135,0
437150,193,-2032,239,-52,-16,-49,7198,-5,1,-177,-48,35548,-95,34,127,0,0,2377,-43,0,9019,-336,188,41302,-4,0,104,12,437135,0
437160,194,-2039,225,-54,-16,-46,7199,18,6,-184,-24,35542,-74,34,127,0,0,2376,-10,0,9019,-336,188,41312,-4,0,104,12,437135,0
437170,192,-2033,230,-55,-13,-52,7196,-15,0,-173,-24,35545,-94,34,127,0,0,2379,16,0,9019,-336,188,41322,-4,0,104,12,437150,0
437180,200,-2030,238,-43,-10,-48,7196,-10,-8,-180,-24,35554,-91,34,127,0,0,2379,43,0,9019,-336,188,41332,-4,0,104,12,437166,0
437190,194,-2023,252,-54,-11,-53,7198,-4,3,-140,-48,35560,-95,34,127,0,0,2380,-21,0,9019,-336,188,41342,-4,0,104,12,437166,0
437200,160,-2030,254,-48,-12,-56,7196,4,-4,-171,-48,35555,-90,34,127,0,0,2380,38,0,9019,-336,188,41352,-4,0,104,12,437181,0
437210,212,-2024,240,-57,-5,-60,7198,-7,10,-175,-32,35553,-107,34,127,0,0,2376,-27,0,9019,-336,188,41362,-4,0,104,12,437197,0
437220,212,-2033,239,-53,-6,-55,7198,8,5,-161,-24,35555,-81,34,127,0,0,2379,5,0,9019,-336,188,41372,-4,0,104,12,437197,0
437230,204,-2025,244,-54,-17,-60,7195,-13,-7,-203,-24,35558,-83,34,127,0,0,2373,-16,0,9019,-336,188,41382,-4,0,104,12,437197,0
437240,227,-2025,241,-59,-13,-63,7198,1,2,-196,-48,35547,-73,34,127,0,0,2380,0,0,9019,-336,188,41392,-4,0,104,12,437228,0
437250,218,-2034,233,-56,-15,-56,7196,-4,1,-163,-24,35537,-84,34,127,0,0,2379,43,0,9019,-336,188,41402,-4,0,104,12,437228,0
437260,236,-2027,235,-53,-2,-58,7197,-6,-3,-175,-32,35539,-97,34,127,0,0,2376,-5,0,9019,-336,188,41412,-4,0,104,12,437228,0
437270,204,-2032,239,-47,-11,-52,7195,-6,-11,-228,-24,35555,-103,34,127,0,0,2379,38,0,9019,-336,188,41422,-4,0,104,12,437260,0
437280,233,-2032,245,-51,-11,-49,7197,0,-2,-202,-48,35547,-101,34,127,0,0,2377,21,0,9019,-336,188,41432,-4,0,104,12,437260,0
437290,183,-2039,242,-55,-14,-49,7199,12,5,-152,-32,35548,-90,34,127,0,0,2379,-10,0,9019,-336,188,41442,-4,0,104,12,437291,0
437300,209,-2032,243,-51,-18,-53,7196,-4,-6,-174,-24,35546,-106,34,127,0,0,2376,0,0,9019,-336,188,41452,-4,0,104,12,437291,0
437310,196,-2017,244,-48,-14,-55,7196,-10,-1,-228,-48,35549,-113,34,127,0,0,2377,0,0,9019,-336,188,41462,-4,0,104,12,437291,0
437320,193,-2025,246,-53,-12,-61,7198,7,8,-216,-24,35549,-96,34,127,0,0,2379,38,0,9019,-336,188,41472,-4,0,104,12,437291,0
437330,227,-2024,238,-57,-7,-67,7197,-3,4,-180,-8,35546,-99,34,127,0,0,2375,5,0,9019,-336,188,41482,-4,0,104,12,437322,0
437340,223,-2026,231,-55,-9,-61,7196,-13,-12,-232,-48,35544,-95,34,127,0,0,2377,0,0,9019,-336,188,41492,-4,0,104,12,437322,0
437350,198,-2035,240,-58,-16,-59,7198,12,2,-195,-48,35549,-109,34,127,0,0,2380,5,0,9019,-336,188,41502,-4,0,104,12,437322,0
437360,194,-2039,227,-56,-10,-59,7195,-7,1,-163,-48,35549,-79,34,127,0,0,2377,5,0,9019,-336,188,41512,-4,0,104,12,437431,0
437370,200,-2030,237,-54,-20,-60,7195,-5,-12,-222,-24,35536,-74,34,127,0,0,2376,5,0,9019,-336,188,41522,-4,0,104,12,437431,0
437380,219,-2044,237,-57,-18,-60,7196,-7,1,-234,-48,35535,-84,34,127,0,0,2374,-5,0,9019,-336,188,41532,-4,0,104,12,437431,0
437390,195,-2038,236,-53,-18,-64,7198,18,12,-232,-48,35538,-94,34,127,0,0,2374,-27,0,9019,-336,188,41542,-4,0,104,12,437431,0
437400,197,-2031,239,-55,-28,-64,7196,6,0,-231,-40,35539,-101,34,127,0,0,2377,-5,0,9019,-336,188,41552,-4,0,104,12,437431,0
437410,226,-2031,231,-55,-8,-62,7195,-7,-3,-243,-64,35533,-101,34,127,0,0,2378,27,0,9019,-336,188,41562,-4,0,104,12,437447,0
437420,205,-2032,239,-51,-10,-59,7195,-3,1,-234,-24,35534,-101,34,127,0,0,2376,10,0,9019,-336,188,41572,-4,0,104,12,437447,0
437430,230,-2022,244,-57,-2,-58,7196,-1,-1,-227,-48,35537,-111,34,127,0,0,2377,27,0,9019,-336,188,41582,-4,0,104,12,437447,0
437440,200,-2030,246,-55,-7,-55,7194,-7,-7,-258,-64,35539,-111,34,127,0,0,2378,43,0,9019,-336,188,41592,-4,0,104,12,437447,0
437450,215,-2027,243,-54,-5,-55,7195,-1,-1,-241,-48,35532,-103,34,127,0,0,2374,0,0,9019,-336,188,41602,-4,0,104,12,437447,0
437460,199,-2037,236,-59,-16,-60,7194,-2,-2,-251,-24,35529,-96,34,127,0,0,2376,16,0,9019,-336,188,41612,-4,0,104,12,437447,0
437470,207,-2026,242,-56,-9,-65,7197,0,2,-174,-64,35535,-101,34,127,0,0,2381,-5,0,9019,-336,188,41622,-4,0,104,12,437447,0
437480,185,-2027,242,-59,-10,-68,7198,16,0,-171,-48,35557,-115,34,127,0,0,2377,-5,0,9019,-336,188,41632,-4,0,104,12,437463,0
437490,208,-2027,230,-59,-15,-63,7197,5,3,-181,-48,35550,-112,34,127,0,0,2374,-60,0,9019,-336,188,41642,-4,0,104,12,437463,0
437500,220,-2017,228,-57,-15,-68,7197,2,2,-249,-24,35543,-120,34,127,0,0,2373,-16,0,9019,-336,188,41652,-4,0,104,12,437478,0
437510,210,-2029,228,-59,-1,-74,7193,-16,-5,-269,-64,35532,-123,34,127,0,0,2378,71,0,9019,-336,188,41662,-4,0,104,12,437509,0
437520,206,-2032,222,-65,-10,-75,7194,-8,2,-267,-64,35550,-133,34,127,0,0,2371,-21,0,9019,-336,188,41672,-4,0,104,12,437509,0
437530,206,-2028,241,-52,-4,-79,7194,2,1,-301,-56,35556,-128,34,127,0,0,2371,-10,0,9019,-336,188,41682,-4,0,104,12,437509,0
437540,214,-2032,245,-53,-4,-72,7191,-8,-6,-323,-56,35546,-104,34,127,0,0,2368,-27,0,9019,-336,188,41692,-4,0,104,12,437509,0
437550,217,-2021,242,-52,-11,-71,7192,3,4,-313,-80,35553,-102,34,127,0,0,2373,-27,0,9019,-336,188,41702,-4,0,104,12,437525,0
437560,225,-2024,231,-53,-12,-66,7190,-3,-1,-323,-88,35557,-81,34,127,0,0,2370,-10,0,9019,-336,188,41712,-4,0,104,12,437588,0
437570,208,-2024,239,-48,-9,-62,7190,-3,-4,-361,-88,35558,-88,34,127,0,0,2370,-27,0,9019,-336,188,41722,-4,0,104,12,437588,0
437580,206,-2025,234,-50,-21,-53,7189,-10,3,-368,-72,35544,-76,34,127,0,0,2373,38,0,9019,-336,188,41732,-4,0,104,12,437588,0
437590,224,-2016,232,-51,-13,-61,7189,-9,3,-373,-88,35529,-85,34,127,0,0,2370,38,0,9019,-336,188,41742,-4,0,104,12,437603,0
437600,194,-2020,232,-52,-12,-61,7189,-1,-2,-365,-112,35527,-99,34,127,0,0,2371,21,0,9019,-336,188,41752,-4,0,104,12,437603,0
437610,197,-2016,222,-47,-26,-72,7189,-3,-3,-364,-112,35529,-93,34,127,0,0,2368,-32,0,9019,-336,188,41762,-4,0,104,12,437603,0
437620,193,-2021,211,-37,-27,-76,7189,3,-1,-376,-112,35527,-95,34,127,0,0,2368,-43,0,9019,-336,188,41772,-4,0,104,12,437603,0
437630,195,-2039,220,-28,-21,-82,7187,-4,-2,-429,-128,35533,-87,34,127,0,0,2366,-5,0,9019,-336,188,41782,-4,0,104,12,437619,0
437640,208,-2035,240,-27,-21,-86,7185,-5,-1,-452,-120,35541,-100,34,127,0,0,2366,5,0,9019,-336,188,41792,-4,0,104,12,437619,0
437650,252,-2046,219,-27,-44,-70,7184,-4,8,-494,-120,35561,-105,34,127,0,0,2366,0,0,9019,-336,188,41802,-4,0,104,12,437619,0
437660,227,-2042,193,-16,-35,-58,7182,3,-1,-471,-152,35567,-101,34,127,0,0,2365,-21,0,9019,-336,188,41812,-4,0,104,12,437666,0
437670,223,-2069,251,-13,-18,-57,7182,11,-4,-438,-152,35552,-88,34,127,0,0,2362,-43,0,9019,-336,188,41822,-4,0,104,12,437666,0
437680,222,-2052,316,-33,-10,-55,7179,-1,0,-461,-144,35537,-88,34,127,0,0,2362,-49,0,9019,-336,188,41832,-4,0,104,12,437666,0
437690,257,-2049,344,-88,-18,-28,7180,7,0,-454,-152,35528,-93,34,127,0,0,2365,-43,0,9019,-336,188,41842,-4,0,104,12,437666,0
437700,231,-2037,332,-113,-33,-18,7180,6,3,-482,-152,35530,-97,34,127,0,0,2365,0,0,9019,-336,188,41852,-4,0,104,12,437681,0
437710,201,-2051,328,-174,-46,-20,7177,4,-1,-468,-128,35530,-79,34,127,0,0,2360,-32,0,9019,-336,188,41862,-4,0,104,12,437791,0
437720,180,-2048,319,-192,-37,-37,7177,-2,2,-490,-128,35532,-76,34,127,0,0,2370,82,0,9019,-336,188,41872,-4,0,104,12,437791,0
437730,206,-2019,296,-223,-45,-52,7178,0,4,-479,-144,35535,-77,34,127,0,0,2365,32,0,9019,-336,188,41882,-4,0,104,12,437791,0
437740,161,-2018,289,-253,-63,-65,7175,-2,-5,-526,-104,35537,-95,34,127,0,0,2363,54,0,9019,-336,188,41892,-4,0,104,12,437791,0
437750,158,-2018,266,-270,-64,-84,7175,14,5,-455,-136,35531,-106,34,127,0,0,2365,-49,0,9019,-336,188,41902,-4,0,104,12,437791,0
437760,127,-2021,240,-285,-84,-98,7171,-6,3,-460,-112,35529,-95,34,127,0,0,2364,27,0,9019,-336,188,41912,-4,0,104,12,437791,0
437770,163,-2002,207,-294,-68,-128,7172,-6,0,-504,-112,35531,-106,34,127,0,0,2364,5,0,9019,-336,188,41922,-4,0,104,12,437791,0
437780,171,-2013,204,-292,-74,-135,7172,2,7,-481,-112,35532,-98,34,127,0,0,2360,-10,0,9019,-336,188,41932,-4,0,104,12,437791,0
437790,165,-1989,200,-270,-39,-222,7170,-7,1,-522,-152,35531,-93,34,127,0,0,2359,-32,0,9019,-336,188,41942,-4,0,104,12,437791,0
437800,145,-2032,187,-273,-30,-192,7158,-44,-27,-565,-184,35533,-88,34,127,0,0,2353,-16,0,9019,-336,188,41952,-4,0,104,12,437791,0
437810,261,-2016,194,-258,-32,-201,7128,-80,-62,-420,-160,35528,-83,34,127,0,0,2352,-21,0,9019,-336,188,41962,-4,0,104,12,437806,0
437820,229,-2034,212,-251,-48,-181,7107,-23,-12,-452,-144,35531,-85,34,127,0,0,2343,-10,0,9019,-336,188,41972,-4,0,104,12,437806,0
437830,273,-2051,209,-249,-55,-152,7099,-15,56,-519,-144,35547,-74,34,127,0,0,2341,-32,0,9019,-336,188,41982,-4,0,104,12,437806,0
437840,283,-2058,180,-240,-46,-137,7089,-29,13,-487,-184,35564,-77,34,127,0,0,2337,-60,0,9019,-336,188,41992,-4,0,104,12,437822,0
437850,309,-2062,155,-212,-42,-92,7061,-71,-48,-374,-128,35574,-74,34,127,0,0,2341,16,0,9019,-336,188,42002,-4,0,104,12,437838,0
437860,297,-2062,138,-189,-31,-63,7048,-9,1,-386,-120,35567,-72,34,127,0,0,2338,38,0,9019,-336,188,42012,-4,0,104,12,437853,0
437870,333,-2037,117,-154,-36,-14,7049,2,60,-429,-104,35553,-61,34,127,0,0,2337,49,0,9019,-336,188,42022,-4,0,104,12,437853,0
437880,284,-2035,126,-130,-22,8,7050,5,20,-376,-128,35536,-56,34,127,0,0,2338,-5,0,9019,-336,188,42032,-4,0,104,12,437853,0
437890,233,-2037,124,-77,-2,20,7047,-4,-5,-398,-80,35542,-44,34,127,0,0,2340,60,0,9019,-336,188,42042,-4,0,104,12,437869,0
437900,259,-2030,138,-58,12,20,7050,4,2,-378,-104,35549,-32,34,127,0,0,2337,-10,0,9019,-336,188,42052,-4,0,104,12,437884,0
437910,226,-2023,161,-40,5,36,7049,11,1,-355,-104,35550,-32,34,127,0,0,2341,5,0,9019,-336,188,42062,-4,0,104,12,437884,0
437920,213,-2024,167,-29,3,37,7049,1,-1,-315,-80,35551,-48,34,127,0,0,2340,0,0,9019,-336,188,42072,-4,0,104,12,437900,0
437930,208,-2022,178,-17,9,63,7049,-3,-1,-300,-64,35541,-46,34,127,0,0,2342,32,0,9019,-336,188,42082,-4,0,104,12,437900,0
437940,230,-2021,188,-12,-3,70,7054,16,5,-167,-32,35550,-64,34,127,0,0,2346,0,0,9019,-336,188,42092,-4,0,104,12,437931,0
437950,225,-2015,203,-1,-9,74,7056,-7,4,-170,-16,35550,-48,34,127,0,0,2352,60,0,9019,-336,188,42102,-4,0,104,12,437931,0
437960,191,-2021,188,-7,-3,72,7061,13,-3,-57,-8,35546,-40,34,127,0,0,2354,32,0,9019,-336,188,42112,-4,0,104,12,437931,0
437970,220,-2021,173,6,0,72,7064,8,6,71,40,35544,-32,34,127,0,0,2357,27,0,9019,-336,188,42122,-4,0,104,12,437947,0
437980,216,-2028,184,14,4,76,7076,28,7,164,64,35543,-31,34,127,0,0,2362,54,0,9019,-336,188,42132,-4,0,104,12,437963,0
437990,214,-2043,204,15,-3,84,7081,12,3,195,48,35548,-34,34,127,0,0,2368,65,0,9019,-336,188,42142,-4,0,104,12,437963,0
438000,192,-2043,207,20,8,79,7093,35,1,268,88,35545,-32,34,127,0,0,2365,0,0,9019,-336,188,42152,-4,0,104,12,437978,0
438010,208,-2048,212,14,4,82,7121,64,44,116,56,35543,-35,34,127,0,0,2374,38,0,9019,-336,188,42162,-4,0,104,12,438009,0
438020,222,-2040,208,17,0,84,7131,1,-12,177,56,35541,-52,34,127,0,0,2375,32,0,9019,-336,188,42172,-4,0,104,12,438009,0
438030,192,-2052,191,22,6,68,7133,8,-56,259,80,35544,-49,34,127,0,0,2380,49,0,9019,-336,188,42182,-4,0,104,12,438009,0
438040,212,-2042,199,29,15,62,7138,1,-4,305,88,35550,-66,34,127,0,0,2382,32,0,9019,-336,188,42192,-4,0,104,12,438009,0
438050,187,-2036,219,25,12,56,7148,36,8,408,136,35543,-71,34,127,0,0,2386,-5,0,9019,-336,188,42202,-4,0,104,12,438041,0
438060,204,-2049,226,18,7,63,7168,51,31,314,112,35546,-65,34,127,0,0,2391,38,0,9019,-336,188,42212,-4,0,104,12,438041,0
438070,202,-2053,229,11,3,64,7198,54,40,247,88,35548,-83,34,127,0,0,2392,21,0,9019,-336,188,42222,-4,0,104,12,438041,0
438080,204,-2029,232,7,5,61,7201,0,-49,391,128,35557,-92,34,127,0,0,2397,21,0,9019,-336,188,42232,-4,0,104,12,438056,0
438090,207,-2031,222,-2,13,62,7204,0,-53,399,136,35555,-104,34,127,0,0,2399,65,0,9019,-336,188,42242,-4,0,104,12,438072,0
438100,209,-2026,207,-6,8,54,7210,19,12,485,144,35553,-93,34,127,0,0,2404,21,0,9019,-336,188,42252,-4,0,104,12,438087,0
438110,195,-2022,222,-4,1,64,7226,38,31,479,160,35551,-102,34,127,0,0,2406,-5,0,9019,-336,188,42262,-4,0,104,12,438103,0
438120,192,-2016,223,-15,0,62,7261,92,54,330,112,35550,-99,34,127,0,0,2408,5,0,9019,-336,188,42272,-4,0,104,12,438103,0
438130,190,-2026,235,-17,1,55,7275,8,-10,351,112,35548,-78,34,127,0,0,2409,-5,0,9019,-336,188,42282,-4,0,104,12,438119,0
438140,160,-2044,231,-20,1,45,7278,6,-71,399,136,35551,-69,34,127,0,0,2414,27,0,9019,-336,188,42292,-4,0,104,12,438119,0
438150,176,-2025,217,-25,17,26,7286,31,-4,449,120,35548,-55,34,127,0,0,2418,10,0,9019,-336,188,42302,-4,0,104,12,438134,0
438160,196,-2023,215,-29,6,23,7311,78,59,347,96,35556,-70,34,127,0,0,2420,16,0,9019,-336,188,42312,-4,0,104,12,438134,0
438170,207,-2030,225,-33,-1,33,7332,23,23,234,88,35554,-54,34,127,0,0,2421,38,0,9019,-336,188,42322,-4,0,104,12,438150,0
438180,157,-2034,224,-34,-7,23,7331,-10,-58,322,72,35551,-48,34,127,0,0,2422,16,0,9019,-336,188,42332,-4,0,104,12,438150,0
438190,146,-2032,242,-55,-3,-1,7335,20,-29,393,120,35553,-48,34,127,0,0,2425,-16,0,9019,-336,188,42342,-4,0,104,12,438212,0
438200,161,-2035,241,-57,2,-17,7341,7,17,369,112,35553,-36,34,127,0,0,2425,0,0,9019,-336,188,42352,-4,0,104,12,438228,0
438210,159,-2043,240,-64,-8,-28,7343,-1,-6,394,112,35557,-40,34,127,0,0,2429,27,0,9019,-336,188,42362,-4,0,104,12,438228,0
438220,162,-2035,227,-73,-5,-39,7347,14,-4,381,96,35548,-38,34,127,0,0,2429,10,0,9019,-336,188,42372,-4,0,104,12,438228,0
438230,191,-2038,202,-71,-1,-48,7358,25,20,355,144,35540,-42,34,127,0,0,2425,-5,0,9019,-336,188,42382,-4,0,104,12,438228,0
438240,193,-2029,205,-73,-14,-49,7383,58,38,188,48,35544,-47,34,127,0,0,2431,-10,0,9019,-336,188,42392,-4,0,104,12,438228,0
438250,158,-2042,213,-77,-14,-58,7385,-23,-26,212,64,35548,-44,34,127,0,0,2426,-16,0,9019,-336,188,42402,-4,0,104,12,438228,0
438260,186,-2043,204,-80,-2,-66,7387,4,-52,175,64,35545,-30,34,127,0,0,2430,16,0,9019,-336,188,42412,-4,0,104,12,438244,0
438270,187,-2029,197,-72,0,-71,7388,9,12,254,80,35554,-19,34,127,0,0,2429,-16,0,9019,-336,188,42422,-4,0,104,12,438244,0
438280,214,-2032,209,-70,1,-72,7387,-4,-3,221,64,35567,-17,34,127,0,0,2433,16,0,9019,-336,188,42432,-4,0,104,12,438259,0
438290,199,-2025,214,-69,-5,-60,7389,3,0,268,40,35585,-17,34,127,0,0,2431,-43,0,9019,-336,188,42442,-4,0,104,12,438259,0
438300,189,-2038,238,-70,-2,-64,7386,1,-3,200,40,35578,-13,34,127,0,0,2431,-5,0,9019,-336,188,42452,-4,0,104,12,438322,0
438310,179,-2037,239,-83,-12,-60,7387,4,1,188,56,35554,-18,34,127,0,0,2426,-27,0,9019,-336,188,42462,-4,0,104,12,438337,0
438320,195,-2043,223,-91,-21,-68,7386,-1,4,188,64,35542,-22,34,127,0,0,2430,-10,0,9019,-336,188,42472,-4,0,104,12,438337,0
438330,165,-2032,219,-94,-16,-75,7386,-8,-1,191,64,35547,-23,34,127,0,0,2430,27,0,9019,-336,188,42482,-4,0,104,12,438337,0
438340,177,-2026,212,-98,-14,-82,7388,-7,-2,192,80,35558,-24,34,127,0,0,2425,0,0,9019,-336,188,42492,-4,0,104,12,438337,0
438350,174,-2026,209,-97,-17,-93,7386,-6,-5,196,64,35556,-14,34,127,0,0,2430,10,0,9019,-336,188,42502,-4,0,104,12,438337,0
438360,182,-2033,200,-96,-22,-92,7386,-4,-1,183,56,35551,-31,34,127,0,0,2426,-27,0,9019,-336,188,42512,-4,0,104,12,438337,0
438370,193,-2037,201,-98,-16,-88,7387,2,5,175,80,35550,-21,34,127,0,0,2425,-21,0,9019,-336,188,42522,-4,0,104,12,438353,0
438380,203,-2042,205,-98,-21,-101,7385,-11,-4,142,40,35555,-9,34,127,0,0,2427,0,0,9019,-336,188,42532,-4,0,104,12,438357,0
438390,192,-2040,216,-101,-28,-92,7389,14,8,178,56,35562,-11,34,127,0,0,2430,5,0,9019,-336,188,42542,-4,0,104,12,438381,0
438400,208,-2033,217,-100,-25,-97,7386,-11,-1,135,40,35556,-7,34,127,0,0,2424,-16,0,9019,-336,188,42552,-4,0,104,12,438397,0
438410,198,-2031,192,-103,-38,-102,7385,2,-11,84,24,35549,-47,34,127,0,0,2429,27,0,9019,-336,188,42562,-4,0,104,12,438397,0
438420,190,-2037,193,-106,-34,-102,7386,0,4,155,40,35541,-43,34,127,0,0,2424,-32,0,9019,-336,188,42572,-4,0,104,12,438397,0
438430,193,-2034,204,-97,-29,-107,7384,-2,-10,63,24,35538,-40,34,127,0,0,2429,32,0,9019,-336,188,42582,-4,0,104,12,438412,0
438440,201,-2034,217,-100,-34,-96,7386,-5,4,100,40,35544,-33,34,127,0,0,2424,0,0,9019,-336,188,42592,-4,0,104,12,438412,0
438450,216,-2036,198,-101,-37,-98,7385,3,-1,68,24,35541,-42,34,127,0,0,2425,0,0,9019,-336,188,42602,-4,0,104,12,438428,0
438460,190,-2032,204,-93,-42,-96,7383,-7,-6,20,48,35556,-45,34,127,0,0,2424,43,0,9019,-336,188,42612,-4,0,104,12,438506,0
438470,205,-2035,208,-94,-25,-105,7383,-10,2,5,0,35551,-36,34,127,0,0,2423,-27,0,9019,-336,188,42622,-4,0,104,12,438506,0
438480,187,-2026,186,-97,-23,-111,7385,19,5,42,-16,35551,-26,34,127,0,0,2427,5,0,9019,-336,188,42632,-4,0,104,12,438522,0
438490,195,-2019,187,-87,-24,-120,7382,-6,-4,44,-32,35545,-35,34,127,0,0,2422,-10,0,9019,-336,188,42642,-4,0,104,12,438522,0
438500,189,-2042,187,-80,-13,-114,7379,-3,-8,-89,-8,35540,-46,34,127,0,0,2418,0,0,9019,-336,188,42652,-4,0,104,12,438522,0
438510,232,-2030,189,-74,-11,-116,7378,-8,5,-138,-24,35535,-41,34,127,0,0,2419,27,0,9019,-336,188,42662,-4,0,104,12,438522,0
438520,228,-2043,200,-71,-7,-102,7376,-11,2,-153,-40,35527,-32,34,127,0,0,2416,5,0,9019,-336,188,42672,-4,0,104,12,438522,0
438530,213,-2032,210,-74,-22,-88,7376,-3,1,-205,-56,35526,-30,34,127,0,0,2418,10,0,9019,-336,188,42682,-4,0,104,12,438522,0
438540,205,-2044,195,-81,-18,-85,7374,0,4,-185,-56,35529,-39,34,127,0,0,2414,-10,0,9019,-336,188,42692,-4,0,104,12,438522,0
438550,193,-2034,177,-69,-16,-90,7372,-7,-1,-239,-80,35535,-38,34,127,0,0,2415,-5,0,9019,-336,188,42702,-4,0,104,12,438522,0
438560,178,-2043,193,-63,-15,-91,7371,7,1,-250,-96,35542,-51,34,127,0,0,2413,-27,0,9019,-336,188,42712,-4,0,104,12,438537,0
438570,197,-2032,185,-56,-7,-98,7368,4,5,-274,-88,35552,-31,34,127,0,0,2410,-65,0,9019,-336,188,42722,-4,0,104,12,438569,0
438580,212,-2041,200,-54,-9,-99,7362,-12,-6,-313,-80,35562,-61,34,127,0,0,2410,-27,0,9019,-336,188,42732,-4,0,104,12,438569,0
438590,213,-2043,197,-48,-7,-88,7358,-12,-6,-324,-88,35555,-47,34,127,0,0,2411,0,0,9019,-336,188,42742,-4,0,104,12,438569,0
438600,205,-2030,191,-47,-7,-91,7350,-14,-3,-262,-72,35540,-50,34,127,0,0,2408,-32,0,9019,-336,188,42752,-4,0,104,12,438569,0
438610,214,-2041,185,-43,-13,-90,7339,-28,-6,-214,-56,35540,-41,34,127,0,0,2408,0,0,9019,-336,188,42762,-4,0,104,12,438615,0
438620,210,-2043,193,-40,-9,-80,7334,-7,-3,-177,-40,35542,-34,34,127,0,0,2404,-32,0,9019,-336,188,42772,-4,0,104,12,438615,0
438630,211,-2039,196,-34,-6,-78,7330,-5,20,-237,-72,35544,-41,34,127,0,0,2407,0,0,9019,-336,188,42782,-4,0,104,12,438615,0
438640,209,-2034,187,-30,-1,-75,7324,-8,3,-226,-40,35540,-35,34,127,0,0,2402,0,0,9019,-336,188,42792,-4,0,104,12,438615,0
438650,245,-2026,175,-26,1,-61,7325,0,11,-245,-64,35528,-32,34,127,0,0,2403,-16,0,9019,-336,188,42802,-4,0,104,12,438615,0
438660,233,-2022,185,-18,-1,-57,7326,2,15,-215,-64,35535,-32,34,127,0,0,2403,-54,0,9019,-336,188,42812,-4,0,104,12,438647,0
438670,232,-2034,188,-14,9,-42,7323,1,6,-217,-64,35544,-25,34,127,0,0,2407,27,0,9019,-336,188,42822,-4,0,104,12,438647,0
438680,232,-2037,202,-10,4,-30,7322,-12,-5,-255,-56,35554,-11,34,127,0,0,2403,27,0,9019,-336,188,42832,-4,0,104,12,438647,0
438690,216,-2028,198,-1,6,-28,7323,6,8,-223,-56,35542,-6,34,127,0,0,2403,-16,0,9019,-336,188,42842,-4,0,104,12,438693,0
438700,190,-2031,192,-5,5,-25,7320,-10,3,-227,-56,35531,-9,34,127,0,0,2403,0,0,9019,-336,188,42852,-4,0,104,12,438693,0
438710,211,-2036,189,6,13,-29,7322,0,-4,-232,-56,35535,-30,34,127,0,0,2403,0,0,9019,-336,188,42862,-4,0,104,12,438693,0
438720,208,-2031,187,10,10,-29,7323,0,3,-217,-56,35531,-30,34,127,0,0,2403,-27,0,9019,-336,188,42872,-4,0,104,12,438693,0
438730,207,-2034,206,12,12,-29,7322,6,-4,-234,-56,35533,-40,34,127,0,0,2403,0,0,9019,-336,188,42882,-4,0,104,12,438709,0
438740,193,-2025,208,18,5,-28,7322,0,6,-230,-56,35539,-32,34,127,0,0,2403,0,0,9019,-336,188,42892,-4,0,104,12,438740,0
438750,180,-2027,209,13,4,-32,7322,0,2,-197,-32,35547,-51,34,127,0,0,2402,-27,0,9019,-336,188,42902,-4,0,104,12,438740,0
438760,204,-2027,211,19,9,-44,7321,-6,0,-222,-16,35553,-49,34,127,0,0,2401,10,0,9019,-336,188,42912,-4,0,104,12,438740,0
438770,196,-2011,202,14,6,-45,7324,0,2,-209,-64,35541,-36,34,127,0,0,2403,-32,0,9019,-336,188,42922,-4,0,104,12,438740,0
438780,189,-2019,209,11,5,-45,7323,5,6,-183,-40,35532,-39,34,127,0,0,2406,0,0,9019,-336,188,42932,-4,0,104,12,438756,0
438790,197,-2039,208,20,7,-44,7321,-8,-7,-175,-16,35543,-38,34,127,0,0,2401,-27,0,9019,-336,188,42942,-4,0,104,12,438787,0
438800,238,-2021,217,11,6,-43,7322,1,-4,-208,-32,35558,-34,34,127,0,0,2402,-16,0,9019,-336,188,42952,-4,0,104,12,438787,0
438810,191,-2034,219,6,-3,-42,7323,6,5,-201,-40,35560,-19,34,127,0,0,2402,-27,0,9019,-336,188,42962,-4,0,104,12,438787,0
438820,213,-2040,235,2,-3,-48,7322,-3,2,-172,-16,35544,-18,34,127,0,0,2404,5,0,9019,-336,188,42972,-4,0,104,12,438787,0
438830,181,-2059,243,-5,-11,-56,7324,-12,3,-197,-40,35539,-34,34,127,0,0,2406,-10,0,9019,-336,188,42982,-4,0,104,12,438818,0
438840,163,-2056,235,-13,-15,-50,7323,0,2,-198,-40,35548,-27,34,127,0,0,2406,16,0,9019,-336,188,42992,-4,0,104,12,438818,0
438850,199,-2043,238,-26,-3,-63,7322,-8,-1,-221,-32,35553,-33,34,127,0,0,2406,49,0,9019,-336,188,43002,-4,0,104,12,438850,0
438860,219,-2040,211,-34,-4,-60,7324,6,4,-168,-40,35544,-36,34,127,0,0,2402,-38,0,9019,-336,188,43012,-4,0,104,12,438850,0
438870,201,-2034,214,-36,-10,-61,7321,-7,-5,-201,-56,35531,-35,34,127,0,0,2403,-21,0,9019,-336,188,43022,-4,0,104,12,438865,0
438880,187,-2020,218,-32,-14,-59,7322,-3,-6,-217,-56,35538,-42,34,127,0,0,2403,-16,0,9019,-336,188,43032,-4,0,104,12,438865,0
438890,188,-2038,233,-41,-7,-66,7322,-3,2,-212,-56,35544,-45,34,127,0,0,2407,27,0,9019,-336,188,43042,-4,0,104,12,438865,0
438900,183,-2031,237,-51,-9,-80,7323,0,4,-208,-56,35543,-40,34,127,0,0,2407,27,0,9019,-336,188,43052,-4,0,104,12,438897,0
438910,180,-2020,235,-63,-24,-93,7322,-1,5,-210,-56,35536,-30,34,127,0,0,2403,-16,0,9019,-336,188,43062,-4,0,104,12,438897,0
438920,189,-1997,231,-69,-16,-147,7323,10,1,-227,-96,35536,-34,34,127,0,0,2402,-60,0,9019,-336,188,43072,-4,0,104,12,438897,0
438930,70,-2050,234,-75,12,-206,7314,-26,-13,-346,-104,35541,-46,34,127,0,0,2393,-49,0,9019,-336,188,43082,-4,0,104,12,438912,0
438940,158,-2001,226,-84,3,-235,7306,-16,-13,-421,-128,35542,-34,34,127,0,0,2389,-49,0,9019,-336,188,43092,-4,0,104,12,438943,0
438950,162,-2017,252,-92,-13,-259,7297,-27,2,-519,-184,35531,-30,34,127,0,0,2384,-65,0,9019,-336,188,43102,-4,0,104,12,438943,0
438960,155,-2029,247,-108,-22,-288,7254,-116,-70,-385,-160,35530,-31,34,127,0,0,2374,-49,0,9019,-336,188,43112,-4,0,104,12,438959,0
438970,134,-2071,233,-127,-13,-345,7213,-93,-61,-420,-168,35535,-65,34,127,0,0,2362,-93,0,9019,-336,188,43122,-4,0,104,12,438959,0
438980,209,-2033,226,-124,-8,-376,7168,-84,-4,-406,-152,35542,-86,34,127,0,0,2356,-54,0,9019,-336,188,43132,-4,0,104,12,438959,0
438990,272,-2031,225,-134,-35,-370,7135,-82,22,-434,-168,35541,-94,34,127,0,0,2344,-104,0,9019,-336,188,43142,-4,0,104,12,438975,0
439000,226,-2041,192,-132,-38,-367,7102,-58,21,-485,-192,35551,-95,34,127,0,0,2336,-120,0,9019,-336,188,43152,-4,0,104,12,438975,0
439010,277,-2028,176,-108,-44,-338,7066,-109,-4,-509,-208,35563,-76,34,127,0,0,2324,-76,0,9019,-336,188,43162,-4,0,104,12,439006,0
439020,234,-2042,143,-99,-28,-328,7020,-93,-36,-426,-192,35572,-53,34,127,0,0,2322,-27,0,9019,-336,188,43172,-4,0,104,12,439006,0
439030,285,-2012,131,-64,-14,-306,6975,-86,-11,-383,-192,35560,-36,34,127,0,0,2314,-54,0,9019,-336,188,43182,-4,0,104,12,439006,0
439040,305,-2043,153,-54,-22,-261,6954,-44,50,-518,-216,35550,-31,34,127,0,0,2304,-49,0,9019,-336,188,43192,-4,0,104,12,439022,0
439050,312,-2028,172,-37,-29,-224,6922,-71,23,-473,-184,35552,-40,34,127,0,0,2300,-27,0,9019,-336,188,43202,-4,0,104,12,439037,0
439060,296,-2050,164,-21,-17,-191,6905,-35,11,-595,-192,35558,-44,34,127,0,0,2296,-32,0,9019,-336,188,43212,-4,0,104,12,439037,0
439070,321,-2034,163,-3,-18,-148,6875,-91,3,-468,-176,35555,-38,34,127,0,0,2291,-27,0,9019,-336,188,43222,-4,0,104,12,439068,0
439080,294,-2017,157,17,-5,-126,6840,-55,-41,-364,-120,35544,-20,34,127,0,0,2286,-65,0,9019,-336,188,43232,-4,0,104,12,439068,0
439090,314,-2017,175,39,-3,-74,6818,-41,33,-328,-72,35540,-10,34,127,0,0,2286,5,0,9019,-336,188,43242,-4,0,104,12,439068,0
439100,302,-2018,179,40,0,-44,6806,-14,44,-282,-72,35547,6,34,127,0,0,2284,-16,0,9019,-336,188,43252,-4,0,104,12,439068,0
439110,283,-2018,198,55,-1,-22,6809,9,44,-280,-72,35547,16,34,127,0,0,2284,-43,0,9019,-336,188,43262,-4,0,104,12,439100,0
439120,274,-2028,210,61,6,-14,6805,-10,6,-314,-88,35540,18,34,127,0,0,2288,5,0,9019,-336,188,43272,-4,0,104,12,439100,0
439130,270,-2047,221,58,12,-4,6808,3,0,-284,-72,35538,24,34,127,0,0,2287,16,0,9019,-336,188,43282,-4,0,104,12,439115,0
439140,256,-2049,225,58,15,-5,6807,-6,-1,-285,-88,35538,31,34,127,0,0,2288,0,0,9019,-336,188,43292,-4,0,104,12,439115,0
439150,244,-2037,215,52,9,-10,6807,4,-2,-281,-88,35550,24,34,127,0,0,2288,21,0,9019,-336,188,43302,-4,0,104,12,439131,0
439160,205,-2043,233,47,13,-20,6807,0,7,-285,-48,35539,23,34,127,0,0,2286,49,0,9019,-336,188,43312,-4,0,104,12,439146,0
439170,218,-2030,231,45,9,-45,6807,-6,3,-263,-72,35539,12,34,127,0,0,2284,-49,0,9019,-336,188,43322,-4,0,104,12,439146,0
439180,184,-2036,250,37,0,-52,6805,-1,-6,-294,-88,35542,29,34,127,0,0,2288,0,0,9019,-336,188,43332,-4,0,104,12,439178,0
439190,203,-2043,246,17,4,-68,6806,0,3,-257,-88,35557,25,34,127,0,0,2288,-32,0,9019,-336,188,43342,-4,0,104,12,439178,0
439200,217,-2036,244,6,6,-80,6806,-4,1,-279,-64,35555,22,34,127,0,0,2287,16,0,9019,-336,188,43352,-4,0,104,12,439178,0
439210,257,-2020,225,-2,-2,-88,6805,-5,-8,-310,-88,35555,26,34,127,0,0,2285,10,0,9019,-336,188,43362,-4,0,104,12,439193,0
439220,250,-2023,215,2,-1,-84,6807,8,6,-298,-64,35552,6,34,127,0,0,2287,-5,0,9019,-336,188,43372,-4,0,104,12,439225,0
439230,282,-2029,222,-1,7,-77,6805,-1,2,-302,-64,35551,15,34,127,0,0,2284,0,0,9019,-336,188,43382,-4,0,104,12,439225,0
439240,283,-2021,222,-2,13,-67,6804,-1,-6,-337,-80,35545,36,34,127,0,0,2285,27,0,9019,-336,188,43392,-4,0,104,12,439225,0
439250,278,-2033,207,11,10,-49,6806,2,6,-313,-88,35537,35,34,127,0,0,2285,-27,0,9019,-336,188,43402,-4,0,104,12,439240,0
439260,276,-2030,193,13,9,-42,6805,11,0,-276,-88,35536,33,34,127,0,0,2285,-49,0,9019,-336,188,43412,-4,0,104,12,439240,0
439270,238,-2038,217,22,7,-30,6802,-6,-6,-323,-104,35550,10,34,127,0,0,2282,-38,0,9019,-336,188,43422,-4,0,104,12,439271,0
439280,238,-2036,232,22,16,-34,6803,1,1,-356,-80,35559,12,34,127,0,0,2285,21,0,9019,-336,188,43432,-4,0,104,12,439271,0
439290,239,-2044,233,15,17,-40,6802,-7,7,-330,-80,35553,11,34,127,0,0,2288,32,0,9019,-336,188,43442,-4,0,104,12,439271,0
439300,219,-2031,245,11,10,-42,6803,-6,0,-293,-80,35552,16,34,127,0,0,2285,5,0,9019,-336,188,43452,-4,0,104,12,439271,0
439310,207,-2023,250,8,5,-53,6803,1,-4,-331,-104,35545,23,34,127,0,0,2286,-5,0,9019,-336,188,43462,-4,0,104,12,439287,0
439320,203,-2034,242,3,-1,-55,6803,1,0,-337,-80,35557,10,34,127,0,0,2285,5,0,9019,-336,188,43472,-4,0,104,12,439318,0
439330,247,-2029,250,-15,10,-68,6803,-1,5,-339,-80,35547,15,34,127,0,0,2285,27,0,9019,-336,188,43482,-4,0,104,12,439318,0
439340,224,-2036,256,-18,0,-72,6802,-3,-2,-331,-96,35546,3,34,127,0,0,2286,-5,0,9019,-336,188,43492,-4,0,104,12,439318,0
439350,245,-2037,243,-30,-1,-77,6803,0,0,-322,-80,35543,17,34,127,0,0,2288,32,0,9019,-336,188,43502,-4,0,104,12,439334,0
439360,240,-2037,242,-37,-5,-75,6803,-3,-1,-301,-80,35549,11,34,127,0,0,2285,-16,0,9019,-336,188,43512,-4,0,104,12,439334,0
439370,252,-2029,218,-37,3,-74,6802,-1,-6,-351,-80,35543,11,34,127,0,0,2281,-27,0,9019,-336,188,43522,-4,0,104,12,439350,0
439380,263,-2024,228,-40,0,-70,6802,0,0,-335,-104,35544,19,34,127,0,0,2286,-16,0,9019,-336,188,43532,-4,0,104,12,439365,0
439390,282,-2023,219,-37,3,-60,6800,-6,-6,-359,-80,35544,8,34,127,0,0,2285,71,0,9019,-336,188,43542,-4,0,104,12,439381,0
439400,270,-2027,221,-31,5,-51,6801,-6,-1,-351,-80,35548,11,34,127,0,0,2285,21,0,9019,-336,188,43552,-4,0,104,12,439381,0
439410,255,-2021,220,-31,0,-55,6802,3,3,-340,-56,35550,18,34,127,0,0,2280,-27,0,9019,-336,188,43562,-4,0,104,12,439381,0
439420,261,-2035,219,-31,4,-65,6802,6,-2,-343,-56,35538,30,34,127,0,0,2287,32,0,9019,-336,188,43572,-4,0,104,12,439412,0
439430,256,-2045,242,-33,-10,-66,6803,-4,4,-285,-80,35545,26,34,127,0,0,2285,-16,0,9019,-336,188,43582,-4,0,104,12,439412,0
439440,233,-2056,228,-31,2,-73,6802,16,1,-320,-80,35550,18,34,127,0,0,2281,-32,0,9019,-336,188,43592,-4,0,104,12,439412,0
439450,235,-2040,215,-32,-11,-76,6801,-2,-4,-330,-72,35542,15,34,127,0,0,2285,-10,0,9019,-336,188,43602,-4,0,104,12,439428,0
439460,244,-2021,211,-27,-4,-79,6801,-1,-1,-347,-96,35539,17,34,127,0,0,2286,-5,0,9019,-336,188,43612,-4,0,104,12,439443,0
439470,232,-2007,214,-25,-5,-84,6802,9,6,-289,-104,35543,16,34,127,0,0,2282,-43,0,9019,-336,188,43622,-4,0,104,12,439443,0
439480,235,-2017,232,-16,-3,-87,6801,9,-2,-273,-80,35552,19,34,127,0,0,2288,0,0,9019,-336,188,43632,-4,0,104,12,439521,0
439490,271,-2013,237,-15,2,-93,6799,-16,-5,-332,-96,35558,36,34,127,0,0,2279,0,0,9019,-336,188,43642,-4,0,104,12,439521,0
439500,257,-2000,222,-12,13,-99,6800,2,4,-336,-96,35544,32,34,127,0,0,2279,-93,0,9019,-336,188,43652,-4,0,104,12,439521,0
439510,258,-2017,218,4,20,-98,6797,-6,3,-394,-112,35540,34,34,127,0,0,2277,-27,0,9019,-336,188,43662,-4,0,104,12,439537,0
439520,288,-1998,211,8,25,-75,6798,4,1,-426,-128,35538,11,34,127,0,0,2278,-27,0,9019,-336,188,43672,-4,0,104,12,439537,0
439530,299,-1998,214,15,8,-39,6798,11,10,-404,-112,35541,14,34,127,0,0,2280,5,0,9019,-336,188,43682,-4,0,104,12,439537,0
439540,297,-2008,218,13,2,-20,6799,3,6,-414,-128,35537,9,34,127,0,0,2281,43,0,9019,-336,188,43692,-4,0,104,12,439537,0
439550,262,-2002,213,24,11,-17,6797,-2,-3,-435,-128,35528,15,34,127,0,0,2278,21,0,9019,-336,188,43702,-4,0,104,12,439537,0
439560,245,-2003,216,29,27,-15,6798,0,1,-449,-152,35531,3,34,127,0,0,2282,5,0,9019,-336,188,43712,-4,0,104,12,439537,0
439570,262,-2030,258,28,18,-14,6796,1,-2,-422,-128,35543,4,34,127,0,0,2278,-5,0,9019,-336,188,43722,-4,0,104,12,439537,0
439580,236,-2035,253,17,16,-11,6795,-3,-3,-420,-128,35557,11,34,127,0,0,2278,0,0,9019,-336,188,43732,-4,0,104,12,439553,0
439590,249,-2063,270,4,9,-23,6797,7,-4,-397,-128,35553,7,34,127,0,0,2281,10,0,9019,-336,188,43742,-4,0,104,12,439584,0
439600,227,-2061,270,13,13,-29,6796,-3,0,-408,-120,35547,9,34,127,0,0,2278,-16,0,9019,-336,188,43752,-4,0,104,12,439584,0
439610,246,-2045,261,-12,9,-33,6797,2,-2,-423,-120,35543,0,34,127,0,0,2278,0,0,9019,-336,188,43762,-4,0,104,12,439600,0
439620,253,-2036,271,-24,3,-29,6795,-8,10,-396,-128,35555,21,34,127,0,0,2281,10,0,9019,-336,188,43772,-4,0,104,12,439600,0
439630,253,-2043,265,-26,2,-36,6794,-6,-3,-415,-104,35550,29,34,127,0,0,2277,16,0,9019,-336,188,43782,-4,0,104,12,439600,0
439640,257,-2036,255,-44,-6,-44,6796,3,5,-417,-128,35551,12,34,127,0,0,2281,27,0,9019,-336,188,43792,-4,0,104,12,439615,0
439650,244,-2030,261,-49,1,-40,6796,-4,-3,-396,-128,35549,20,34,127,0,0,2281,10,0,9019,-336,188,43802,-4,0,104,12,439646,0
439660,252,-2023,255,-53,-2,-44,6797,5,3,-394,-104,35547,30,34,127,0,0,2277,-5,0,9019,-336,188,43812,-4,0,104,12,439662,0
439670,242,-2020,266,-61,-5,-45,6795,-4,-3,-414,-104,35540,39,34,127,0,0,2280,32,0,9019,-336,188,43822,-4,0,104,12,439662,0
439680,246,-2020,274,-77,-4,-40,6796,-5,4,-400,-128,35527,32,34,127,0,0,2278,-10,0,9019,-336,188,43832,-4,0,104,12,439662,0
439690,232,-2015,252,-87,-9,-47,6795,0,-3,-410,-120,35530,6,34,127,0,0,2278,0,0,9019,-336,188,43842,-4,0,104,12,439662,0
439700,227,-2006,248,-85,-10,-48,6796,1,-1,-410,-128,35548,19,34,127,0,0,2281,16,0,9019,-336,188,43852,-4,0,104,12,439693,0
439710,233,-2027,241,-98,-15,-56,6796,-1,-2,-421,-128,35542,34,34,127,0,0,2281,27,0,9019,-336,188,43862,-4,0,104,12,439693,0
439720,202,-2022,249,-93,-12,-63,6796,1,2,-391,-128,35539,38,34,127,0,0,2281,-43,0,9019,-336,188,43872,-4,0,104,12,439693,0
439730,220,-2032,236,-94,-15,-75,6796,7,-1,-403,-128,35535,11,34,127,0,0,2281,16,0,9019,-336,188,43882,-4,0,104,12,439724,0
439740,224,-2024,246,-91,-23,-86,6795,0,-1,-402,-120,35544,-6,34,127,0,0,2278,-10,0,9019,-336,188,43892,-4,0,104,12,439724,0
439750,222,-2028,232,-94,-27,-93,6797,6,7,-409,-128,35545,-1,34,127,0,0,2281,-10,0,9019,-336,188,43902,-4,0,104,12,439724,0
439760,239,-2026,226,-80,-32,-99,6795,1,1,-436,-120,35542,17,34,127,0,0,2281,54,0,9019,-336,188,43912,-4,0,104,12,439740,0
439770,241,-2016,224,-84,-31,-98,6796,-4,7,-406,-104,35544,15,34,127,0,0,2280,21,0,9019,-336,188,43922,-4,0,104,12,439756,0
439780,245,-2026,197,-85,-30,-101,6796,8,-7,-454,-128,35554,5,34,127,0,0,2275,0,0,9019,-336,188,43932,-4,0,104,12,439771,0
439790,256,-2006,186,-62,-4,-138,6795,1,3,-468,-160,35556,3,34,127,0,0,2277,-32,0,9019,-336,188,43942,-4,0,104,12,439771,0
439800,203,-2049,204,-50,-2,-139,6791,-14,-11,-510,-152,35547,18,34,127,0,0,2267,-54,0,9019,-336,188,43952,-4,0,104,12,439771,0
439810,297,-2018,238,-44,-1,-130,6785,-22,-15,-594,-184,35548,5,34,127,0,0,2266,-54,0,9019,-336,188,43962,-4,0,104,12,439803,0
439820,300,-2027,244,-39,-18,-114,6779,-13,-6,-586,-208,35551,16,34,127,0,0,2268,-54,0,9019,-336,188,43972,-4,0,104,12,439803,0
439830,282,-2021,239,-35,-14,-91,6767,-34,-14,-589,-184,35552,18,34,127,0,0,2262,5,0,9019,-336,188,43982,-4,0,104,12,439803,0
439840,270,-2019,227,-35,-11,-82,6739,-66,-46,-395,-128,35542,26,34,127,0,0,2262,-43,0,9019,-336,188,43992,-4,0,104,12,439818,0
439850,278,-2015,213,-29,0,-74,6728,-4,6,-427,-128,35539,22,34,127,0,0,2259,-32,0,9019,-336,188,44002,-4,0,104,12,439834,0
439860,288,-2006,232,-23,-9,-58,6729,5,59,-451,-144,35545,-4,34,127,0,0,2260,-49,0,9019,-336,188,44012,-4,0,104,12,439834,0
439870,263,-2023,252,-29,-13,-37,6724,-10,7,-515,-160,35544,-14,34,127,0,0,2262,16,0,9019,-336,188,44022,-4,0,104,12,439849,0
439880,250,-2024,252,-27,-4,-45,6722,-5,-5,-490,-136,35543,-21,34,127,0,0,2260,16,0,9019,-336,188,44032,-4,0,104,12,439865,0
439890,253,-2033,244,-36,-6,-40,6722,3,5,-459,-136,35539,-8,34,127,0,0,2260,-43,0,9019,-336,188,44042,-4,0,104,12,439881,0
439900,254,-2031,246,-33,-12,-41,6721,-6,3,-464,-112,35541,-22,34,127,0,0,2259,5,0,9019,-336,188,44052,-4,0,104,12,439881,0
439910,254,-2021,242,-33,-10,-39,6722,-5,-4,-486,-136,35550,-25,34,127,0,0,2260,0,0,9019,-336,188,44062,-4,0,104,12,439881,0
439920,250,-2027,247,-43,-4,-35,6722,9,3,-457,-112,35547,-2,34,127,0,0,2259,-10,0,9019,-336,188,44072,-4,0,104,12,439912,0
439930,258,-2027,240,-38,2,-32,6721,0,0,-445,-112,35544,0,34,127,0,0,2259,-10,0,9019,-336,188,44082,-4,0,104,12,439928,0
439940,262,-2030,243,-41,-13,-27,6721,-1,-4,-451,-112,35544,-7,34,127,0,0,2259,-10,0,9019,-336,188,44092,-4,0,104,12,439943,0
439950,234,-2030,257,-51,-10,-36,6721,4,0,-449,-128,35536,-20,34,127,0,0,2260,-43,0,9019,-336,188,44102,-4,0,104,12,439943,0
439960,230,-2037,262,-51,-8,-47,6721,1,-3,-466,-128,35545,-22,34,127,0,0,2260,-10,0,9019,-336,188,44112,-4,0,104,12,439959,0
439970,235,-2038,261,-67,-26,-53,6723,10,1,-412,-136,35533,-16,34,127,0,0,2264,-16,0,9019,-336,188,44122,-4,0,104,12,439974,0
439980,216,-2027,258,-77,-24,-58,6721,0,2,-402,-128,35533,-29,34,127,0,0,2264,-5,0,9019,-336,188,44132,-4,0,104,12,439974,0
439990,231,-2030,254,-79,-14,-66,6720,-6,-6,-438,-112,35544,-26,34,127,0,0,2263,43,0,9019,-336,188,44142,-4,0,104,12,439974,0
440000,251,-2016,249,-83,-12,-73,6723,1,6,-439,-136,35551,-13,34,127,0,0,2260,-32,0,9019,-336,188,44152,-4,0,104,12,439974,0
440010,253,-2027,244,-88,-19,-78,6718,-3,-8,-447,-104,35551,-11,34,127,0,0,2259,5,0,9019,-336,188,44162,-4,0,104,12,439974,0
440020,269,-2022,241,-94,-20,-75,6720,-2,2,-449,-128,35561,2,34,127,0,0,2264,5,0,9019,-336,188,44172,-4,0,104,12,440021,0
440030,276,-2037,240,-99,-28,-78,6720,5,5,-434,-128,35562,-26,34,127,0,0,2264,38,0,9019,-336,188,44182,-4,0,104,12,440021,0
440040,259,-2027,249,-102,-30,-77,6719,-1,-5,-461,-128,35569,-30,34,127,0,0,2260,54,0,9019,-336,188,44192,-4,0,104,12,440021,0
440050,266,-2025,242,-96,-31,-81,6719,0,-6,-446,-128,35554,-24,34,127,0,0,2264,27,0,9019,-336,188,44202,-4,0,104,12,440021,0
440060,243,-2021,241,-100,-34,-79,6719,-9,0,-471,-144,35549,-12,34,127,0,0,2262,27,0,9019,-336,188,44212,-4,0,104,12,440053,0
440070,239,-2006,227,-104,-27,-88,6717,0,-6,-457,-128,35552,0,34,127,0,0,2260,0,0,9019,-336,188,44222,-4,0,104,12,440053,0
440080,251,-2016,225,-105,-21,-92,6716,-7,-1,-470,-144,35557,-16,34,127,0,0,2258,-16,0,9019,-336,188,44232,-4,0,104,12,440053,0
440090,274,-2024,221,-101,-17,-86,6717,-2,2,-472,-144,35554,-8,34,127,0,0,2262,10,0,9019,-336,188,44242,-4,0,104,12,440068,0
440100,278,-2022,226,-97,-21,-77,6715,-15,-2,-500,-160,35547,4,34,127,0,0,2259,21,0,9019,-336,188,44252,-4,0,104,12,440084,0
440110,273,-2031,233,-102,-34,-74,6709,-20,-15,-464,-128,35552,-3,34,127,0,0,2255,-5,0,9019,-336,188,44262,-4,0,104,12,440084,0
440120,264,-2032,233,-106,-23,-73,6706,-7,-5,-443,-120,35554,-9,34,127,0,0,2255,-43,0,9019,-336,188,44272,-4,0,104,12,440099,0
440130,259,-2029,232,-98,-28,-69,6702,-12,6,-434,-136,35561,-31,34,127,0,0,2253,-60,0,9019,-336,188,44282,-4,0,104,12,440162,0
440140,268,-2022,224,-94,-25,-68,6686,-41,-23,-370,-104,35546,-28,34,127,0,0,2256,-10,0,9019,-336,188,44292,-4,0,104,12,440162,0
440150,263,-2024,209,-87,-15,-61,6668,-29,-24,-284,-72,35545,-32,34,127,0,0,2250,-60,0,9019,-336,188,44302,-4,0,104,12,440162,0
440160,268,-2020,212,-84,-15,-57,6668,1,42,-340,-80,35549,-31,34,127,0,0,2254,-10,0,9019,-336,188,44312,-4,0,104,12,440178,0
440170,255,-2027,214,-79,-17,-51,6669,-3,26,-318,-88,35548,-32,34,127,0,0,2251,-60,0,9019,-336,188,44322,-4,0,104,12,440178,0
440180,271,-2029,216,-83,-25,-54,6667,1,-2,-329,-80,35544,-32,34,127,0,0,2254,-27,0,9019,-336,188,44332,-4,0,104,12,440178,0
440190,268,-2026,219,-75,-22,-54,6666,-5,-3,-302,-64,35536,-26,34,127,0,0,2253,-16,0,9019,-336,188,44342,-4,0,104,12,440178,0
440200,269,-2019,224,-72,-19,-55,6666,0,-1,-307,-64,35540,-40,34,127,0,0,2256,16,0,9019,-336,188,44352,-4,0,104,12,440178,0
440210,267,-2021,223,-73,-21,-50,6666,-11,-3,-310,-80,35556,-47,34,127,0,0,2254,5,0,9019,-336,188,44362,-4,0,104,12,440178,0
440220,259,-2017,223,-69,-19,-52,6666,-6,-3,-319,-80,35571,-6,34,127,0,0,2254,10,0,9019,-336,188,44372,-4,0,104,12,440209,0
440230,233,-2020,223,-65,-18,-50,6666,-4,-5,-319,-96,35562,-1,34,127,0,0,2262,43,0,9019,-336,188,44382,-4,0,104,12,440209,0
440240,239,-2029,214,-64,-15,-48,6669,0,7,-276,-64,35554,1,34,127,0,0,2253,-16,0,9019,-336,188,44392,-4,0,104,12,440209,0
440250,251,-2027,216,-59,-13,-59,6667,11,3,-296,-64,35553,-45,34,127,0,0,2253,-16,0,9019,-336,188,44402,-4,0,104,12,440240,0
440260,249,-2025,232,-60,-18,-56,6665,-9,-4,-295,-64,35562,-39,34,127,0,0,2256,16,0,9019,-336,188,44412,-4,0,104,12,440240,0
440270,253,-2035,236,-67,-15,-65,6667,-5,3,-309,-64,35553,-39,34,127,0,0,2256,5,0,9019,-336,188,44422,-4,0,104,12,440240,0
440280,248,-2039,219,-63,-17,-72,6667,0,1,-339,-80,35553,-42,34,127,0,0,2254,16,0,9019,-336,188,44432,-4,0,104,12,440256,0
440290,234,-2021,225,-62,-14,-87,6665,-3,-1,-372,-112,35556,-29,34,127,0,0,2253,-21,0,9019,-336,188,44442,-4,0,104,12,440271,0
440300,232,-2029,224,-58,-2,-102,6662,-2,-7,-381,-112,35564,-17,34,127,0,0,2253,10,0,9019,-336,188,44452,-4,0,104,12,440271,0
440310,253,-2030,234,-57,-12,-114,6661,-1,2,-395,-112,35558,-12,34,127,0,0,2246,-49,0,9019,-336,188,44462,-4,0,104,12,440365,0
440320,252,-2030,230,-55,-10,-119,6659,-3,-2,-420,-128,35547,-6,34,127,0,0,2244,-54,0,9019,-336,188,44472,-4,0,104,12,440365,0
440330,239,-2025,233,-63,-13,-130,6655,-12,-6,-458,-120,35542,-24,34,127,0,0,2247,-5,0,9019,-336,188,44482,-4,0,104,12,440365,0
440340,230,-2013,227,-64,-21,-141,6650,-14,-6,-469,-168,35546,-24,34,127,0,0,2244,-38,0,9019,-336,188,44492,-4,0,104,12,440381,0
440350,229,-2049,224,-57,-17,-158,6632,-56,-31,-503,-152,35549,-24,34,127,0,0,2232,-60,0,9019,-336,188,44502,-4,0,104,12,440381,0
440360,227,-2025,241,-57,-16,-178,6597,-67,-63,-349,-128,35543,-16,34,127,0,0,2231,-93,0,9019,-336,188,44512,-4,0,104,12,440381,0
440370,206,-2032,255,-77,-13,-214,6592,-3,39,-484,-128,35542,-32,34,127,0,0,2232,0,0,9019,-336,188,44522,-4,0,104,12,440381,0
440380,235,-2038,251,-84,-24,-229,6589,-23,60,-563,-160,35542,-43,34,127,0,0,2224,-38,0,9019,-336,188,44532,-4,0,104,12,440381,0
440390,185,-2026,257,-92,-30,-274,6576,-33,-24,-581,-200,35539,-32,34,127,0,0,2218,-87,0,9019,-336,188,44542,-4,0,104,12,440381,0
440400,196,-2047,239,-108,-21,-318,6546,-92,-54,-529,-160,35539,-33,34,127,0,0,2209,-60,0,9019,-336,188,44552,-4,0,104,12,440381,0
440410,178,-2029,224,-103,-28,-373,6514,-65,-41,-570,-216,35547,-30,34,127,0,0,2199,-93,0,9019,-336,188,44562,-4,0,104,12,440381,0
440420,253,-2016,225,-113,-36,-386,6471,-108,-21,-482,-208,35554,-46,34,127,0,0,2190,-120,0,9019,-336,188,44572,-4,0,104,12,440412,0
440430,254,-2038,196,-109,-21,-401,6432,-91,-19,-517,-232,35559,-47,34,127,0,0,2186,-65,0,9019,-336,188,44582,-4,0,104,12,440427,0
440440,339,-1998,159,-96,-5,-406,6387,-83,-1,-503,-216,35549,-71,34,127,0,0,2170,-126,0,9019,-336,188,44592,-4,0,104,12,440427,0
440450,405,-1981,200,-70,-12,-352,6345,-102,-2,-500,-240,35538,-92,34,127,0,0,2166,-93,0,9019,-336,188,44602,-4,0,104,12,440427,0
440460,387,-2015,182,-74,-10,-314,6304,-101,1,-544,-256,35542,-101,34,127,0,0,2158,-38,0,9019,-336,188,44612,-4,0,104,12,440427,0
440470,416,-1986,156,-49,-13,-255,6250,-110,-23,-375,-168,35552,-76,34,127,0,0,2150,-38,0,9019,-336,188,44622,-4,0,104,12,440459,0
440480,420,-2023,167,-39,-9,-202,6205,-83,1,-353,-152,35550,-37,34,127,0,0,2141,-49,0,9019,-336,188,44632,-4,0,104,12,440459,0
440490,410,-2025,155,-3,-6,-123,6198,4,96,-495,-152,35542,-32,34,127,0,0,2142,-49,0,9019,-336,188,44642,-4,0,104,12,440459,0
440500,398,-2000,141,11,-9,-82,6197,-3,82,-527,-192,35539,-50,34,127,0,0,2137,-82,0,9019,-336,188,44652,-4,0,104,12,440490,0
440510,338,-2022,177,39,10,-39,6189,-20,-11,-526,-160,35542,-62,34,127,0,0,2136,-27,0,9019,-336,188,44662,-4,0,104,12,440490,0
440520,354,-2018,168,50,27,-28,6175,-29,-25,-475,-152,35543,-63,34,127,0,0,2137,-38,0,9019,-336,188,44672,-4,0,104,12,440490,0
440530,330,-2029,199,63,29,-7,6165,-5,2,-402,-128,35544,-63,34,127,0,0,2137,-43,0,9019,-336,188,44682,-4,0,104,12,440521,0
440540,305,-2028,229,68,22,-4,6164,6,34,-451,-128,35547,-68,34,127,0,0,2137,0,0,9019,-336,188,44692,-4,0,104,12,440521,0
440550,300,-2033,241,69,32,-7,6165,5,20,-396,-112,35553,-68,34,127,0,0,2136,-43,0,9019,-336,188,44702,-4,0,104,12,440521,0
440560,303,-2035,257,68,32,-11,6162,-9,-4,-441,-104,35560,-47,34,127,0,0,2140,38,0,9019,-336,188,44712,-4,0,104,12,440552,0
440570,273,-2023,248,55,25,-20,6163,-8,-4,-424,-128,35540,-32,34,127,0,0,2137,-16,0,9019,-336,188,44722,-4,0,104,12,440552,0
440580,248,-2030,244,59,26,-27,6162,0,0,-416,-104,35538,-32,34,127,0,0,2140,-5,0,9019,-336,188,44732,-4,0,104,12,440568,0
440590,251,-2024,258,54,26,-55,6163,2,-1,-434,-128,35537,-42,34,127,0,0,2141,43,0,9019,-336,188,44742,-4,0,104,12,440568,0
440600,254,-2032,263,39,27,-69,6163,-2,4,-414,-128,35544,-44,34,127,0,0,2137,-32,0,9019,-336,188,44752,-4,0,104,12,440568,0
440610,297,-2009,225,35,14,-74,6161,1,2,-430,-104,35541,-39,34,127,0,0,2136,5,0,9019,-336,188,44762,-4,0,104,12,440599,0
440620,307,-2020,242,28,-1,-75,6162,-3,-5,-428,-120,35538,-51,34,127,0,0,2141,27,0,9019,-336,188,44772,-4,0,104,12,440599,0
440630,287,-2020,229,27,2,-88,6161,-9,-3,-441,-96,35535,-47,34,127,0,0,2136,43,0,9019,-336,188,44782,-4,0,104,12,440599,0
440640,301,-2024,235,18,4,-96,6161,-10,3,-439,-120,35541,-52,34,127,0,0,2137,-27,0,9019,-336,188,44792,-4,0,104,12,440631,0
440650,279,-1985,251,30,8,-147,6161,-3,-2,-462,-144,35532,-42,34,127,0,0,2132,-38,0,9019,-336,188,44802,-4,0,104,12,440631,0
440660,228,-2030,225,16,19,-159,6154,-24,-11,-558,-192,35531,-41,34,127,0,0,2132,-38,0,9019,-336,188,44812,-4,0,104,12,440631,0
440670,273,-2030,241,29,26,-182,6144,-31,-16,-586,-216,35539,-59,34,127,0,0,2128,10,0,9019,-336,188,44822,-4,0,104,12,440724,0
440680,272,-2018,281,24,22,-194,6130,-36,-14,-583,-208,35545,-61,34,127,0,0,2119,-98,0,9019,-336,188,44832,-4,0,104,12,440724,0
440690,309,-2002,257,11,16,-209,6093,-107,-55,-434,-144,35541,-41,34,127,0,0,2113,-60,0,9019,-336,188,44842,-4,0,104,12,440724,0
440700,267,-2037,245,8,13,-220,6059,-58,-39,-440,-176,35536,-21,34,127,0,0,2106,-93,0,9019,-336,188,44852,-4,0,104,12,440740,0
440710,294,-1998,243,5,13,-240,6028,-60,25,-403,-160,35528,-9,34,127,0,0,2104,-65,0,9019,-336,188,44862,-4,0,104,12,440740,0
440720,279,-2045,243,-5,10,-241,6023,-1,49,-608,-192,35533,-4,34,127,0,0,2100,-5,0,9019,-336,188,44872,-4,0,104,12,440740,0
440730,290,-2033,255,3,3,-259,6020,-17,52,-681,-240,35533,17,34,127,0,0,2093,-87,0,9019,-336,188,44882,-4,0,104,12,440740,0
440740,293,-2005,261,-6,3,-275,6004,-41,-29,-746,-288,35526,22,34,127,0,0,2088,-71,0,9019,-336,188,44892,-4,0,104,12,440740,0
440750,318,-2012,226,-6,10,-278,5962,-111,-78,-516,-264,35524,11,34,127,0,0,2081,-65,0,9019,-336,188,44902,-4,0,104,12,440740,0
440760,327,-2019,204,7,19,-268,5925,-82,-39,-521,-232,35532,-4,34,127,0,0,2074,-21,0,9019,-336,188,44912,-4,0,104,12,440740,0
440770,352,-1998,216,15,21,-252,5883,-84,3,-532,-208,35546,-14,34,127,0,0,2067,-5,0,9019,-336,188,44922,-4,0,104,12,440740,0
440780,380,-1998,236,24,17,-230,5837,-109,-14,-454,-200,35551,-20,34,127,0,0,2055,-76,0,9019,-336,188,44932,-4,0,104,12,440771,0
440790,352,-2031,232,23,14,-203,5806,-54,21,-519,-200,35551,-36,34,127,0,0,2052,-54,0,9019,-336,188,44942,-4,0,104,12,440771,0
440800,366,-2000,256,37,17,-201,5779,-58,33,-501,-184,35549,-35,34,127,0,0,2047,-32,0,9019,-336,188,44952,-4,0,104,12,440771,0
440810,344,-2014,205,31,28,-176,5767,-8,34,-602,-200,35548,-26,34,127,0,0,2046,-21,0,9019,-336,188,44962,-4,0,104,12,440787,0
440820,365,-2000,233,49,24,-164,5757,-28,41,-646,-224,35550,-23,34,127,0,0,2039,-16,0,9019,-336,188,44972,-4,0,104,12,440818,0
440830,316,-1999,236,62,26,-154,5732,-66,-32,-533,-208,35540,-20,34,127,0,0,2037,-21,0,9019,-336,188,44982,-4,0,104,12,440818,0
440840,281,-2000,227,70,36,-163,5703,-49,-35,-497,-192,35543,-48,34,127,0,0,2033,0,0,9019,-336,188,44992,-4,0,104,12,440818,0
440850,329,-2028,246,75,46,-181,5690,-32,29,-564,-208,35538,-66,34,127,0,0,2025,-38,0,9019,-336,188,45002,-4,0,104,12,440818,0
440860,348,-2022,267,84,49,-185,5658,-79,-14,-455,-184,35545,-81,34,127,0,0,2021,-54,0,9019,-336,188,45012,-4,0,104,12,440896,0
440870,359,-2025,240,72,45,-164,5637,-23,-6,-528,-160,35541,-73,34,127,0,0,2015,-27,0,9019,-336,188,45022,-4,0,104,12,440896,0
440880,394,-2014,265,75,26,-149,5632,-27,52,-680,-192,35541,-81,34,127,0,0,2014,-5,0,9019,-336,188,45032,-4,0,104,12,440896,0
440890,320,-2029,281,76,25,-125,5619,-38,-5,-614,-184,35550,-89,34,127,0,0,2009,-21,0,9019,-336,188,45042,-4,0,104,12,440896,0
440900,318,-2038,293,80,25,-132,5594,-54,-39,-463,-176,35561,-79,34,127,0,0,2008,-65,0,9019,-336,188,45052,-4,0,104,12,440896,0
440910,374,-2003,240,80,48,-131,5581,-24,3,-534,-128,35558,-71,34,127,0,0,2007,16,0,9019,-336,188,45062,-4,0,104,12,440896,0
440920,425,-2014,249,80,36,-103,5581,-4,42,-576,-152,35553,-73,34,127,0,0,2008,16,0,9019,-336,188,45072,-4,0,104,12,440896,0
440930,409,-2007,261,84,27,-68,5580,-6,18,-582,-128,35550,-67,34,127,0,0,2010,82,0,9019,-336,188,45082,-4,0,104,12,440912,0
440940,389,-2017,258,79,38,-51,5581,-5,6,-542,-152,35557,-64,34,127,0,0,2005,-32,0,9019,-336,188,45092,-4,0,104,12,440912,0
440950,372,-2012,273,84,43,-43,5577,-7,-8,-589,-160,35564,-34,34,127,0,0,2006,-16,0,9019,-336,188,45102,-4,0,104,12,440943,0
440960,355,-2004,265,86,30,-33,5574,-10,-6,-589,-136,35556,-31,34,127,0,0,2005,5,0,9019,-336,188,45112,-4,0,104,12,440943,0
440970,315,-2023,263,80,33,-37,5573,-5,5,-538,-136,35546,-40,34,127,0,0,2005,-32,0,9019,-336,188,45122,-4,0,104,12,440943,0
440980,291,-2018,284,80,40,-63,5574,3,6,-510,-160,35547,-55,34,127,0,0,2009,-60,0,9019,-336,188,45132,-4,0,104,12,440974,0
440990,332,-2011,289,79,30,-77,5571,-5,-10,-531,-152,35550,-48,34,127,0,0,2006,10,0,9019,-336,188,45142,-4,0,104,12,440974,0
441000,348,-1982,276,72,28,-79,5575,7,7,-511,-112,35549,-39,34,127,0,0,2007,21,0,9019,-336,188,45152,-4,0,104,12,440974,0
441010,326,-2002,305,55,3,-84,5571,-3,2,-529,-160,35544,-58,34,127,0,0,2012,49,0,9019,-336,188,45162,-4,0,104,12,440990,0
441020,293,-2025,302,50,9,-86,5572,3,-1,-489,-136,35546,-69,34,127,0,0,2005,-21,0,9019,-336,188,45172,-4,0,104,12,440990,0
441030,343,-2008,296,39,15,-95,5570,-2,-7,-502,-144,35549,-62,34,127,0,0,2009,-16,0,9019,-336,188,45182,-4,0,104,12,441021,0
441040,349,-1989,298,30,3,-86,5570,6,-3,-528,-152,35545,-49,34,127,0,0,2009,60,0,9019,-336,188,45192,-4,0,104,12,441037,0
441050,347,-2005,288,25,3,-86,5569,0,4,-503,-144,35543,-62,34,127,0,0,2009,0,0,9019,-336,188,45202,-4,0,104,12,441037,0
441060,355,-1996,275,26,11,-86,5569,1,2,-489,-144,35546,-61,34,127,0,0,2009,21,0,9019,-336,188,45212,-4,0,104,12,441052,0
441070,375,-1995,270,31,5,-83,5565,-10,-4,-515,-120,35558,-62,34,127,0,0,2005,43,0,9019,-336,188,45222,-4,0,104,12,441068,0
441080,353,-1984,255,30,20,-90,5561,-4,-6,-437,-128,35557,-52,34,127,0,0,2006,-27,0,9019,-336,188,45232,-4,0,104,12,441068,0
441090,333,-1989,265,32,36,-85,5555,-16,-3,-429,-160,35558,-62,34,127,0,0,2005,-21,0,9019,-336,188,45242,-4,0,104,12,441068,0
441100,337,-2004,288,32,34,-85,5530,-63,-41,-339,-136,35561,-60,34,127,0,0,2002,0,0,9019,-336,188,45252,-4,0,104,12,441068,0
441110,346,-2013,309,28,36,-86,5521,5,1,-349,-112,35560,-51,34,127,0,0,1999,-54,0,9019,-336,188,45262,-4,0,104,12,441115,0
441120,378,-2001,328,12,22,-74,5522,5,54,-375,-128,35558,-46,34,127,0,0,1997,-38,0,9019,-336,188,45272,-4,0,104,12,441130,0
441130,353,-2022,320,-3,1,-67,5517,-9,6,-421,-104,35552,-49,34,127,0,0,1996,5,0,9019,-336,188,45282,-4,0,104,12,441130,0
441140,355,-2012,294,-11,5,-77,5515,-5,-2,-491,-136,35553,-63,34,127,0,0,1998,21,0,9019,-336,188,45292,-4,0,104,12,441130,0
441150,319,-2022,297,-18,11,-95,5506,-17,-6,-448,-144,35546,-51,34,127,0,0,1992,21,0,9019,-336,188,45302,-4,0,104,12,441130,0
441160,322,-2019,290,-18,11,-104,5491,-50,-22,-429,-152,35548,-46,34,127,0,0,1991,21,0,9019,-336,188,45312,-4,0,104,12,441130,0
441170,327,-1992,302,-30,21,-126,5467,-42,-31,-309,-128,35550,-36,34,127,0,0,1986,-54,0,9019,-336,188,45322,-4,0,104,12,441162,0
441180,354,-2011,332,-38,17,-116,5463,2,36,-462,-160,35556,-48,34,127,0,0,1981,-16,0,9019,-336,188,45332,-4,0,104,12,441162,0
441190,368,-1997,329,-55,-6,-112,5457,-12,35,-539,-168,35560,-49,34,127,0,0,1976,-21,0,9019,-336,188,45342,-4,0,104,12,441177,0
441200,315,-2017,311,-64,-15,-118,5450,-15,-7,-589,-200,35552,-39,34,127,0,0,1975,-49,0,9019,-336,188,45352,-4,0,104,12,441177,0
441210,326,-1996,284,-70,-2,-137,5436,-29,-15,-531,-168,35550,-35,34,127,0,0,1972,-32,0,9019,-336,188,45362,-4,0,104,12,441209,0
441220,348,-2011,266,-65,5,-137,5419,-47,-14,-516,-200,35554,-38,34,127,0,0,1968,-65,0,9019,-336,188,45372,-4,0,104,12,441209,0
441230,355,-2008,286,-47,3,-139,5392,-42,-23,-468,-160,35556,-47,34,127,0,0,1963,-21,0,9019,-336,188,45382,-4,0,104,12,441209,0
441240,376,-2004,304,-52,1,-122,5373,-44,10,-540,-152,35553,-48,34,127,0,0,1961,-5,0,9019,-336,188,45392,-4,0,104,12,441209,0
441250,393,-1998,301,-61,-11,-110,5339,-73,-19,-370,-128,35549,-23,34,127,0,0,1959,-16,0,9019,-336,188,45402,-4,0,104,12,441255,0
441260,368,-2002,278,-68,-10,-94,5323,-20,8,-437,-128,35549,-14,34,127,0,0,1958,10,0,9019,-336,188,45412,-4,0,104,12,441255,0
441270,390,-2012,257,-64,-20,-74,5322,-7,64,-473,-120,35549,5,34,127,0,0,1955,10,0,9019,-336,188,45422,-4,0,104,12,441255,0
441280,354,-2013,273,-53,-9,-72,5319,-4,17,-486,-144,35546,0,34,127,0,0,1956,0,0,9019,-336,188,45432,-4,0,104,12,441255,0
441290,345,-2030,287,-58,-12,-80,5311,-16,-10,-413,-144,35551,9,34,127,0,0,1951,-54,0,9019,-336,188,45442,-4,0,104,12,441255,0
441300,360,-2000,303,-55,-6,-92,5298,-36,-16,-405,-120,35558,26,34,127,0,0,1954,16,0,9019,-336,188,45452,-4,0,104,12,441287,0
441310,1158,-1831,-58,-259,36,-643,5288,-11,-3,-330,-96,35563,11,34,127,0,0,1947,-38,0,9019,-336,188,45462,-4,0,104,12,441287,0
441320,860,-1977,-149,-241,33,-601,5276,-49,5,-589,-264,35563,10,34,127,0,0,1921,-236,0,9019,-336,188,45472,-4,0,104,12,441318,0
441330,428,-1774,415,-84,-154,-76,5230,-128,-82,-670,-288,35557,23,34,127,0,0,1917,-38,0,9019,-336,188,45482,-4,0,104,12,441318,0
441340,355,-2091,367,-159,-105,-158,5181,-86,-68,-485,-200,35553,18,34,127,0,0,1918,-16,0,9019,-336,188,45492,-4,0,104,12,441318,0
441350,1026,-1765,-102,-236,58,-643,5147,-64,37,-409,-176,35551,-14,34,127,0,0,1907,-137,0,9019,-336,188,45502,-4,0,104,12,441318,0
441360,1085,-1816,-88,-228,18,-585,5123,-73,43,-689,-296,35562,-39,34,127,0,0,1889,-164,0,9019,-336,188,45512,-4,0,104,12,441333,0
441370,691,-1694,99,-168,-178,-215,5057,-148,-72,-491,-272,35564,-31,34,127,0,0,1881,-104,0,9019,-336,188,45522,-4,0,104,12,441349,0
441380,599,-1909,118,-185,-157,-201,5006,-84,-43,-452,-208,35558,-25,34,127,0,0,1884,-21,0,9019,-336,188,45532,-4,0,104,12,441365,0
441390,766,-1954,91,-169,33,-461,4976,-81,80,-516,-184,35552,-31,34,127,0,0,1869,-54,0,9019,-336,188,45542,-4,0,104,12,441365,0
441400,929,-1782,80,-188,25,-558,4934,-90,4,-510,-248,35550,-55,34,127,0,0,1857,-148,0,9019,-336,188,45552,-4,0,104,12,441380,0
441410,761,-1884,146,-152,-120,-276,4876,-119,-48,-473,-240,35558,-64,34,127,0,0,1846,-65,0,9019,-336,188,45562,-4,0,104,12,441490,0
441420,642,-1822,149,-134,-126,-146,4829,-89,-2,-437,-160,35542,-54,34,127,0,0,1851,32,0,9019,-336,188,45572,-4,0,104,12,441490,0
441430,587,-1915,109,-108,13,-199,4821,2,106,-439,-96,35536,-68,34,127,0,0,1845,-27,0,9019,-336,188,45582,-4,0,104,12,441490,0
441440,779,-1892,198,-105,51,-237,4822,0,82,-480,-120,35540,-58,34,127,0,0,1853,38,0,9019,-336,188,45592,-4,0,104,12,441490,0
441450,706,-1970,440,-187,-105,-204,4822,-8,8,-441,-96,35539,-72,34,127,0,0,1848,16,0,9019,-336,188,45602,-4,0,104,12,441490,0
441460,403,-2096,530,-313,-233,-244,4827,14,3,-346,-80,35536,-74,34,127,0,0,1857,5,0,9019,-336,188,45612,-4,0,104,12,441490,0
441470,70,-2144,549,-434,-297,-551,4832,14,7,-263,-56,35532,-63,34,127,0,0,1862,49,0,9019,-336,188,45622,-4,0,104,12,441490,0
441480,1,-2331,405,-516,-297,-793,4835,5,-1,-199,-40,35535,-82,34,127,0,0,1861,27,0,9019,-336,188,45632,-4,0,104,12,441490,0
441490,105,-2649,762,-359,-247,-1090,4833,-12,-15,-229,-56,35540,-79,34,127,0,0,1858,5,0,9019,-336,188,45642,-4,0,104,12,441490,0
441500,434,-2662,506,-284,-288,-1321,4835,-2,-10,-264,-40,35543,-82,34,127,0,0,1857,5,0,9019,-336,188,45652,-4,0,104,12,441490,0
441510,406,-2385,3,-487,-386,-1308,4834,-4,2,-261,-16,35538,-67,34,127,0,0,1863,76,0,9019,-336,188,45662,-4,0,104,12,441505,0
441520,852,-2438,-133,-643,-521,-949,4848,51,31,77,192,35537,-81,34,127,0,0,1897,411,0,9019,-336,188,45672,-4,0,104,12,441505,0
441530,706,-2339,-309,-408,-620,-949,4916,192,145,421,376,35548,-89,34,127,0,0,1933,422,0,9019,-336,188,45682,-4,0,104,12,441505,0
441540,638,-2332,-376,-315,-465,-973,5024,246,179,491,496,35572,-92,34,127,0,0,1968,357,0,9019,-336,188,45692,-4,0,104,12,441505,0
441550,643,-2273,-166,-265,-243,-948,5160,307,112,475,664,35569,-69,34,127,0,0,2014,450,0,9019,-336,188,45702,-4,0,-42,0,441537,0
441560,632,-2122,4,-267,-166,-934,5322,373,101,444,720,35560,-42,34,127,0,0,2056,494,0,9019,-336,188,45712,-4,0,-42,0,441552,0
441570,805,-1905,17,-286,-171,-768,5489,378,57,487,856,35533,-14,34,127,0,0,2107,527,0,9019,-336,188,45722,-4,0,-43,0,441552,0
441580,740,-1783,-46,-257,-145,-606,5674,424,47,491,952,35536,-11,34,127,0,0,2164,571,0,9019,-336,188,45732,-4,0,-43,0,441552,0
441590,786,-1569,-98,-116,-85,-406,5878,461,27,531,1088,35531,-22,34,127,0,0,2223,631,0,9019,-336,188,45742,-4,0,-43,0,441583,0
441600,937,-1436,-51,2,-105,-370,6097,495,87,510,1160,35529,-18,34,127,0,0,2280,582,0,9019,-336,188,45752,-4,0,-43,0,441583,0
441610,1119,-1182,-176,107,-196,-222,6331,521,110,525,1144,35533,-22,34,127,0,0,2324,422,0,9019,-336,188,45762,-4,0,-44,0,441583,0
441620,971,-1030,-191,106,-123,-104,6566,512,28,468,1064,35531,-16,34,127,0,0,2365,313,0,9019,-336,188,45772,-4,0,-44,0,441615,0
441630,882,-1236,-32,34,18,2,6787,468,-28,424,936,35531,-27,34,127,0,0,2400,291,0,9019,-336,188,45782,-4,0,-45,0,441615,0
441640,922,-1410,21,5,158,92,6990,434,-65,414,776,35528,-19,34,127,0,0,2423,219,0,9019,-336,188,45792,-4,0,-46,0,441615,0
441650,850,-1424,303,26,181,235,7168,370,-76,381,632,35531,-38,34,127,0,0,2447,214,0,9019,-336,188,45802,-4,0,-46,0,441630,0
441660,793,-1511,454,93,62,294,7323,322,-91,433,528,35538,-47,34,127,0,0,2469,263,0,9019,-336,188,45812,-4,0,-47,0,441646,0
441670,688,-1673,573,201,-138,322,7460,278,-79,355,416,35541,-42,34,127,0,0,2484,164,0,9019,-336,188,45822,-4,0,-48,0,441646,0
441680,748,-1805,581,197,-240,276,7576,251,-73,364,344,35539,-36,34,127,0,0,2494,115,0,9019,-336,188,45832,-4,0,-49,0,441662,0
441690,615,-1869,551,124,-333,270,7664,190,-76,371,248,35537,-12,34,127,0,0,2515,131,0,9019,-336,188,45842,-4,0,-50,0,441677,0
441700,496,-1839,449,18,-378,236,7733,162,-97,397,208,35540,-21,34,127,0,0,2520,71,0,9019,-336,188,45852,-4,0,-51,0,441677,0
441710,390,-2000,272,-9,-395,101,7796,128,-46,281,128,35544,-9,34,127,0,0,2521,-5,0,9019,-336,188,45862,-4,0,-52,0,441708,0
441720,396,-2070,224,-10,-382,48,7807,-9,-120,354,80,35541,-24,34,127,0,0,2529,54,0,9019,-336,188,45872,-4,0,-52,0,441708,0
441730,377,-2051,172,-51,-352,-30,7807,12,-120,422,80,35533,-44,34,127,0,0,2525,-21,0,9019,-336,188,45882,-4,0,-53,0,441708,0
441740,368,-2070,149,-98,-310,-64,7807,7,-7,393,104,35542,-56,34,127,0,0,2527,21,0,9019,-336,188,45892,-4,0,-54,0,441708,0
441750,347,-2076,89,-142,-165,-115,7810,19,13,434,96,35552,-53,34,127,0,0,2527,-5,0,9019,-336,188,45902,-4,0,-54,0,441740,0
441760,433,-2055,90,-160,-62,-152,7808,-13,-2,409,120,35552,-32,34,127,0,0,2523,-10,0,9019,-336,188,45912,-4,0,-55,0,441740,0
441770,669,-2044,198,-190,5,-130,7806,-4,-8,390,104,35550,-15,34,127,0,0,2524,-16,0,9019,-336,188,45922,-4,0,-55,0,441740,0
441780,733,-1996,267,-218,-19,-72,7807,1,2,379,80,35550,-24,34,127,0,0,2529,32,0,9019,-336,188,45932,-4,0,-56,0,441833,0
441790,720,-2051,288,-201,-109,-12,7811,11,3,408,96,35547,-46,34,127,0,0,2524,-43,0,9019,-336,188,45942,-4,0,-56,0,441833,0
441800,625,-2062,271,-165,-162,60,7809,6,-3,431,136,35544,-55,34,127,0,0,2529,54,0,9019,-336,188,45952,-4,0,-56,0,441833,0
441810,738,-2119,381,-216,-240,173,7821,49,26,547,240,35539,-44,34,127,0,0,2545,137,0,9019,-336,188,45962,-4,0,-57,0,441833,0
441820,553,-2011,373,-237,-337,250,7869,117,101,467,248,35533,-58,34,127,0,0,2563,197,0,9019,-336,188,45972,-4,0,-57,0,441865,0
441830,434,-2040,261,-245,-348,200,7940,168,106,412,248,35536,-59,34,127,0,0,2575,126,0,9019,-336,188,45982,-4,0,-57,0,441865,0
441840,479,-2081,280,-250,-335,185,8016,168,50,392,256,35532,-58,34,127,0,0,2596,236,0,9019,-336,188,45992,-4,0,-57,0,441865,0
441850,463,-2090,388,-294,-373,146,8091,151,5,436,296,35530,-64,34,127,0,0,2609,214,0,9019,-336,188,46002,-4,0,-58,0,441865,0
441860,480,-2112,367,-330,-430,136,8168,173,-4,396,280,35533,-58,34,127,0,0,2631,230,0,9019,-336,188,46012,-4,0,-58,0,441865,0
441870,490,-2113,294,-381,-547,118,8247,171,3,483,352,35541,-49,34,127,0,0,2652,236,0,9019,-336,188,46022,-4,0,-58,0,441865,0
441880,423,-2059,284,-390,-634,61,8337,225,23,445,376,35547,-24,34,127,0,0,2674,241,0,9019,-336,188,46032,-4,0,-58,0,441865,0
441890,338,-2077,264,-437,-680,-67,8445,220,68,428,360,35539,-5,34,127,0,0,2696,247,0,9019,-336,188,46042,-4,0,-59,0,441865,0
441900,219,-2150,298,-529,-656,-195,8547,230,12,442,360,35544,-16,34,127,0,0,2714,181,0,9019,-336,188,46052,-4,0,-59,0,441865,0
441910,155,-2192,424,-589,-562,-428,8650,216,-1,392,304,35556,-30,34,127,0,0,2730,137,0,9019,-336,188,46062,-4,0,-59,0,441896,0
441920,201,-2131,370,-623,-558,-553,8739,196,-27,314,224,35562,-49,34,127,0,0,2744,142,0,9019,-336,188,46072,-4,0,-59,0,441896,0
441930,360,-2064,264,-651,-698,-657,8819,166,-35,347,232,35558,-65,34,127,0,0,2758,131,0,9019,-336,188,46082,-4,0,-59,0,441927,0
441940,336,-2048,205,-672,-766,-749,8884,122,-46,391,224,35536,-45,34,127,0,0,2771,126,0,9019,-336,188,46092,-4,0,-59,0,441927,0
441950,257,-2159,210,-795,-724,-901,8954,144,-24,322,184,35535,-44,34,127,0,0,2789,159,0,9019,-336,188,46102,-4,0,-59,0,441927,0
441960,264,-2223,214,-857,-655,-1009,9009,86,-27,385,200,35541,-26,34,127,0,0,2799,115,0,9019,-336,188,46112,-4,0,-59,0,441943,0
441970,59,-1968,298,-843,-655,-1073,9052,97,-51,467,232,35544,-35,34,127,0,0,2803,71,0,9019,-336,188,46122,-4,0,-59,0,441943,0
441980,-279,-2069,147,-867,-726,-626,9097,116,-4,407,264,35549,-3,34,127,0,0,2830,357,0,9019,-336,188,46132,-4,0,-59,0,441958,0
441990,1334,-2710,58,-1049,-536,-1914,9188,248,102,526,408,35555,0,34,127,0,0,2846,65,0,9019,-336,188,46142,-4,0,-59,0,441958,0
442000,509,-1752,-50,-1156,-500,-1658,9289,196,110,310,208,35557,0,34,127,0,0,2849,21,0,9019,-336,188,46152,-4,0,-59,0,441990,0
442010,-103,-1977,-27,-1140,-670,-992,9354,132,-71,366,280,35550,-16,34,127,0,0,2881,329,0,9019,-336,188,46162,-4,0,-59,0,441990,0
442020,195,-2775,258,-1034,-350,-1451,9437,196,-21,513,384,35536,-24,34,127,0,0,2901,219,0,9019,-336,188,46172,-4,0,-59,0,442005,0
442030,827,-2662,429,-1208,-187,-1947,9535,231,71,384,328,35537,-37,34,127,0,0,2910,65,0,9019,-336,188,46182,-4,0,-58,0,442005,0
442040,604,-2275,691,-1351,-500,-1852,9630,194,23,342,264,35550,-70,34,127,0,0,2930,148,0,9019,-336,188,46192,-4,0,-58,0,442021,0
442050,168,-2008,398,-1317,-1065,-1704,9707,188,-45,484,424,35557,-71,34,127,0,0,2972,439,0,9019,-336,188,46202,-4,0,-58,0,442052,0
442060,114,-2273,121,-1203,-1222,-1904,9821,264,54,565,672,35553,-65,34,127,0,0,3017,521,0,9019,-336,188,46212,-4,0,-57,0,442052,0
442070,126,-2694,497,-1177,-1098,-2347,9981,370,156,510,760,35546,-42,34,127,0,0,3066,477,0,9019,-336,188,46222,-4,0,-57,-19,442052,0
442080,171,-2762,744,-1332,-1194,-2387,10158,396,111,520,864,35543,-21,34,127,0,0,3109,483,0,9019,-336,188,46232,-4,0,-57,-20,442052,0
442090,174,-2886,525,-1546,-1464,-2394,10356,450,69,471,1048,35555,-29,34,127,0,0,3175,675,0,9019,-336,188,46242,-4,0,-56,-22,442068,0
442100,102,-3036,275,-1549,-1550,-2672,10582,524,101,529,1248,35550,-42,34,127,0,0,3238,686,0,9019,-336,188,46252,-4,0,-56,-23,442099,0
442110,179,-3019,145,-1406,-1690,-3224,10846,609,128,563,1424,35545,-23,34,127,0,0,3304,615,0,9019,-336,188,46262,-4,0,-55,-25,442099,0
442120,300,-3041,315,-1368,-1941,-3332,11137,649,122,541,1576,35545,-29,34,127,0,0,3381,752,0,9019,-336,188,46272,-4,0,-55,-27,442099,0
442130,214,-3316,728,-1401,-2397,-3376,11456,720,98,669,1808,35542,-2,34,127,0,0,3465,873,0,9019,-336,188,46282,-4,0,-54,-30,442099,0
442140,231,-3442,824,-1453,-2649,-3447,11816,821,131,662,2056,35557,7,34,127,0,0,3566,1038,0,9019,-336,188,46292,-4,0,-54,-33,442193,0
442150,160,-3441,810,-1668,-2895,-3702,12216,906,157,682,2312,35550,18,34,127,0,0,3663,1010,0,9019,-336,188,46302,-4,0,-53,-37,442193,0
442160,181,-3482,815,-1779,-2950,-3917,12658,994,157,673,2544,35551,23,34,127,0,0,3763,1038,0,9019,-336,188,46312,-4,0,-52,-40,442193,0
442170,249,-3420,736,-1744,-3211,-4111,13126,1037,130,614,2616,35545,-1,34,127,0,0,3864,983,0,9019,-336,188,46322,-4,0,-51,-45,442208,0
442180,298,-3303,841,-1756,-3478,-4129,13611,1085,80,650,2728,35549,5,34,127,0,0,3966,999,0,9019,-336,188,46332,-4,0,-50,-49,442208,0
442190,83,-3139,984,-1828,-3812,-3995,14114,1122,68,648,2824,35541,23,34,127,0,0,4074,1126,0,9019,-336,188,46342,-4,0,-49,0,442208,0
442200,95,-3172,769,-1876,-4026,-3756,14636,1164,76,652,2960,35539,17,34,127,0,0,4194,1263,0,9019,-336,188,46352,-4,0,-47,0,442208,0
442210,534,-2931,633,-1718,-4158,-3351,15197,1268,114,704,3128,35529,19,34,127,0,0,4324,1318,0,9019,-336,188,46362,-4,0,-46,0,442208,0
442220,468,-2576,629,-1588,-4178,-2936,15797,1361,158,736,3288,35534,32,34,127,0,0,4443,1230,0,9019,-336,188,46372,-4,0,-44,0,442208,0
442230,-244,-1278,513,-1253,-2800,-2018,16420,1378,123,731,3328,35526,47,34,127,0,0,4570,1208,0,9019,-336,188,46382,-4,0,-42,0,442224,0
442240,1399,-982,-683,-1387,-1248,-2538,17051,1383,47,544,3048,35530,31,35,127,0,0,4619,384,0,9019,-336,188,46392,-4,0,-40,0,442224,0
442250,259,-1028,-683,-808,786,-2807,17602,1101,-156,2,1328,35544,11,34,127,0,0,4538,-917,0,9019,-336,188,46402,-4,0,-38,0,442224,0
442260,272,-1175,-446,-315,1916,-2528,17907,389,-688,-1758,-872,35572,11,34,127,0,0,4379,-1614,0,9019,-336,188,46412,-4,0,-36,0,442255,0
442270,-519,-1239,626,-41,2817,-2046,17676,-680,-1566,-966,-2176,35565,22,34,127,0,0,4213,-1697,0,9019,-336,188,46422,-4,0,-33,0,442255,0
442280,-429,-1290,877,100,2906,-1725,17225,-1107,-1381,-954,-2992,35542,37,34,127,0,0,4050,-1582,0,9019,-336,188,46432,-4,0,-31,0,442255,0
442290,161,-1292,398,334,2893,-982,16632,-1380,-646,-659,-3376,35524,24,34,127,0,0,3912,-1362,0,9019,-336,188,46442,-4,0,-28,0,442255,0
442300,329,-1212,93,636,2850,-109,15974,-1466,-369,-421,-3352,35531,22,34,127,0,0,3801,-1065,0,9019,-336,188,46452,-4,0,-26,0,442286,0
442310,222,-823,-186,1141,2863,829,15325,-1390,-72,-251,-3008,35539,15,34,127,0,0,3707,-884,0,9019,-336,188,46462,-4,0,-22,0,442286,0
442320,271,-689,-190,1375,2822,1286,14740,-1252,162,-334,-2880,35538,4,34,127,0,0,3612,-972,0,9019,-336,188,46472,-4,0,-20,0,442302,0
442330,382,-909,-222,1734,2737,2032,14192,-1191,187,-439,-2840,35536,-5,34,127,0,0,3501,-1038,0,9019,-336,188,46482,-4,0,-16,0,442302,0
442340,374,-994,-210,1911,2707,2653,13657,-1175,84,-513,-2896,35543,-14,34,127,0,0,3389,-1126,0,9019,-336,188,46492,-4,0,-14,0,442318,0
442350,206,-1018,-102,2138,2569,3555,13110,-1202,-7,-441,-2880,35551,0,34,127,0,0,3295,-966,0,9019,-336,188,46502,-4,0,-10,0,442333,0
442360,170,-1062,-125,2244,2452,4067,12565,-1197,-13,-382,-2760,35544,6,34,127,0,0,3206,-845,0,9019,-336,188,46512,-4,0,-8,0,442364,0
442370,270,-1354,-145,2394,2311,4746,12034,-1155,32,-360,-2520,35537,10,34,127,0,0,3125,-769,0,9019,-336,188,46522,-4,0,-4,0,442364,0
442380,278,-1493,-144,2521,2293,5191,11538,-1058,96,-321,-2248,35530,-8,34,127,0,0,3047,-719,0,9019,-336,188,46532,-4,0,-1,0,442364,0
442390,243,-1627,-241,2646,2334,5839,11086,-977,153,-329,-2008,35535,-16,34,127,0,0,2987,-620,0,9019,-336,188,46542,-4,0,2,0,442364,0
442400,204,-1716,-279,2706,2310,6211,10683,-858,173,-287,-1680,35534,-12,34,127,0,0,2939,-433,0,9019,-336,188,46552,-4,0,5,0,442396,0
442410,277,-1859,-390,2759,2340,6701,10345,-704,218,-300,-1336,35533,18,34,127,0,0,2911,-274,0,9019,-336,188,46562,-4,0,9,0,442396,0
442420,354,-1954,-463,2794,2407,6992,10074,-553,246,-311,-984,35539,-10,34,127,0,0,2892,-159,0,9019,-336,188,46572,-4,0,12,0,442396,0
442430,482,-2052,-464,2815,2500,7308,9856,-448,226,-301,-688,35540,11,34,127,0,0,2877,-104,0,9019,-336,188,46582,-4,0,17,0,442411,0
442440,519,-2158,-380,2782,2489,7495,9683,-357,185,-356,-480,35542,-20,34,127,0,0,2861,-131,0,9019,-336,188,46592,-4,0,20,0,442411,0
442450,588,-2384,-256,2648,2446,7710,9554,-257,168,-313,-280,35537,-12,34,127,0,0,2861,-21,0,9019,-336,188,46602,-4,0,24,0,442443,0
442460,631,-2518,-277,2552,2482,7753,9477,-130,186,-281,-128,35544,-66,34,127,0,0,2859,-10,0,9019,-336,188,46612,-4,0,27,0,442443,0
442470,662,-2658,-368,2395,2577,7681,9461,-13,220,-298,-80,35538,-86,34,127,0,0,2861,32,0,9019,-336,188,46622,-4,0,32,0,442443,0
442480,735,-2756,-329,2297,2683,7603,9467,14,144,-284,-80,35540,-80,34,127,0,0,2858,-10,0,9019,-336,188,46632,-4,0,35,0,442474,0
442490,839,-2776,-234,2022,2971,7473,9465,0,11,-299,-80,35537,-52,34,127,0,0,2858,-16,0,9019,-336,188,46642,-4,0,39,64,442474,0
442500,946,-2702,-218,1805,3222,7244,9464,2,-7,-338,-120,35536,-53,34,127,0,0,2854,-87,0,9019,-336,188,46652,-4,0,42,59,442474,0
442510,844,-2692,-276,1531,3519,6795,9448,-67,-30,-489,-208,35542,-66,34,127,0,0,2836,-131,0,9019,-336,188,46662,-4,0,47,53,442489,0
442520,923,-2656,-256,1374,3651,6475,9402,-113,-100,-502,-304,35544,-62,34,127,0,0,2816,-236,0,9019,-336,188,46672,-4,0,49,49,442505,0
442530,1096,-2590,-93,1142,3705,6064,9334,-161,-99,-531,-320,35533,-42,34,127,0,0,2801,-159,0,9019,-336,188,46682,-4,0,53,46,442505,0
442540,1117,-2544,-1,943,3692,5755,9261,-165,-51,-556,-304,35535,-39,34,127,0,0,2791,-104,0,9019,-336,188,46692,-4,0,55,44,442536,0
442550,1205,-2424,1,661,3644,5163,9185,-161,-6,-475,-272,35536,-28,34,127,0,0,2775,-142,0,9019,-336,188,46702,-4,0,59,41,442536,0
442560,1310,-2352,-58,498,3527,4759,9117,-131,20,-503,-296,35542,-12,34,127,0,0,2760,-137,0,9019,-336,188,46712,-4,0,61,40,442536,0
442570,1467,-2207,-68,293,3202,4209,9058,-112,43,-511,-264,35542,1,34,127,0,0,2755,-76,0,9019,-336,188,46722,-4,0,64,39,442552,0
442580,1539,-2087,-36,144,2920,3817,9003,-106,24,-401,-176,35536,1,34,127,0,0,2753,-32,0,9019,-336,188,46732,-4,0,65,38,442599,0
442590,1646,-2022,-9,-117,2510,3139,8963,-65,39,-253,-80,35547,-23,34,127,0,0,2753,-43,0,9019,-336,188,46742,-4,0,67,37,442599,0
442600,1682,-1959,-19,-294,2226,2661,8966,8,116,-433,-128,35544,-27,34,127,0,0,2745,-54,0,9019,-336,188,46752,-4,0,67,37,442599,0
442610,1720,-1861,-6,-555,1787,1958,8959,-12,51,-503,-152,35537,-28,34,127,0,0,2747,-5,0,9019,-336,188,46762,-4,0,67,37,442599,0
442620,1702,-1852,-54,-709,1517,1455,8955,-12,0,-559,-152,35520,-25,34,127,0,0,2741,-5,0,9019,-336,188,46772,-4,0,67,37,442599,0
442630,1876,-2744,-284,-874,1117,384,8956,3,13,-554,-144,35527,-48,34,127,0,0,2750,54,0,9019,-336,188,46782,-4,0,67,37,442614,0
442640,3321,-2946,603,-789,490,-926,8979,101,36,77,400,35546,-47,34,127,0,0,2832,961,0,9019,-336,188,46792,-4,0,67,37,442614,0
442650,4023,-2127,388,-874,476,-3465,9119,395,273,606,904,35552,-32,34,127,0,0,2901,637,0,9019,-336,188,46802,-4,0,67,37,442646,0
442660,3187,-1888,-11,-733,583,-4553,9333,464,381,316,656,35549,7,34,127,0,0,2899,-43,0,9019,-336,188,46812,-4,0,67,37,442646,0
442670,1808,-2087,392,-457,430,-4972,9511,321,77,-139,-152,35535,3,34,127,0,0,2825,-823,0,9019,-336,188,46822,-4,0,67,37,442646,0
442680,311,-1852,1036,-484,-475,-4246,9432,-334,-565,-831,-912,35538,-21,34,127,0,0,2748,-758,0,1281,159,189,8,1,0,67,37,442661,0
442690,-923,-2082,772,-893,-1763,-3467,9247,-477,-778,-583,-1136,35544,-42,34,127,0,0,2687,-510,0,1281,159,189,18,1,0,67,37,442693,0
442700,-251,-1727,-20,-1039,-2191,-3059,9014,-507,-268,-390,-840,35536,-25,34,127,0,0,2682,-38,0,1281,159,189,28,1,0,67,37,442693,0
442710,127,-1179,-1029,-818,-1983,-2803,8816,-385,32,-278,-376,35531,-28,34,127,0,0,2696,153,0,1281,159,189,38,1,0,67,37,442693,0
442720,418,-1127,-1071,-614,-1112,-2812,8705,-169,254,-77,-16,35523,-47,34,127,0,0,2698,16,0,1281,159,189,48,1,0,67,37,442693,0
442730,-140,-1202,-648,-585,27,-2433,8714,78,410,-96,48,35535,-66,34,127,0,0,2720,164,0,1281,159,189,58,1,0,67,37,442708,0
442740,-245,-2186,-284,-869,524,-2333,8761,127,291,207,160,35547,-65,34,127,0,0,2745,269,0,1281,159,189,68,1,0,67,37,442729,0
442750,415,-3264,526,-332,777,-2894,8842,200,120,296,184,35543,-52,34,127,0,0,2755,32,0,1281,159,189,78,1,0,67,37,442729,0
442760,1546,-2334,88,-205,521,-3320,8912,127,42,-119,-144,35544,-59,34,127,0,0,2722,-395,0,1281,159,189,88,1,0,67,37,442729,0
442770,1653,-2334,-7,-33,-87,-3278,8860,-214,-287,-689,-672,35543,-44,34,127,0,0,2641,-769,0,1281,159,189,98,1,0,67,37,442760,0
442780,1270,-2050,-147,48,-365,-2984,8699,-399,-452,-694,-1088,35544,-47,34,127,0,0,2568,-758,0,1281,159,189,108,1,0,67,37,442760,0
442790,577,-2041,-122,33,-555,-2619,8483,-492,-286,-605,-1184,35538,-41,34,127,0,0,2511,-626,0,1281,159,189,118,1,0,67,37,442760,0
442800,319,-2163,-140,55,-402,-2485,8244,-533,-138,-609,-1224,35530,-44,34,127,0,0,2456,-543,0,1281,159,189,128,1,0,67,37,442776,0
442810,141,-1941,4,232,30,-2292,7994,-551,-57,-589,-1192,35536,-43,34,127,0,0,2409,-433,0,1281,159,189,138,1,0,67,37,442776,0
442820,245,-1811,215,299,176,-2111,7747,-535,-11,-500,-1144,35544,-27,34,127,0,0,2360,-466,0,1281,159,189,148,1,0,67,37,442807,0
442830,902,-1839,239,284,260,-2025,7508,-522,32,-487,-1096,35540,-17,34,127,0,0,2312,-505,0,1281,159,189,158,1,0,67,37,442807,0
442840,1131,-1905,259,266,174,-1755,7278,-506,26,-527,-1128,35533,-24,34,127,0,0,2260,-505,0,1281,159,189,168,1,0,67,37,442807,0
442850,869,-2116,318,221,-18,-1351,7051,-487,17,-479,-1064,35548,-33,34,127,0,0,2217,-527,0,1281,159,189,178,1,0,67,37,442838,0
442860,506,-2280,378,218,-80,-1237,6831,-471,23,-489,-1000,35558,-46,34,127,0,0,2181,-357,0,1281,159,189,188,1,0,67,37,442838,0
442870,136,-2325,348,238,81,-1253,6626,-438,47,-478,-912,35554,-30,34,127,0,0,2140,-351,0,1281,159,189,198,1,0,67,37,442838,0
442880,191,-2158,311,291,152,-1186,6435,-409,60,-507,-888,35547,-35,34,127,0,0,2107,-351,0,1281,159,189,208,1,0,67,37,442932,0
442890,495,-1964,283,358,173,-1004,6252,-391,42,-465,-784,35546,-34,34,127,0,0,2078,-285,0,1281,159,189,218,1,0,67,37,442932,0
442900,591,-1739,275,314,109,-854,6084,-356,43,-470,-672,35545,-49,34,127,0,0,2051,-258,0,1281,159,189,228,1,0,67,37,442932,0
442910,587,-1733,228,314,63,-644,5934,-306,60,-480,-552,35544,-29,34,127,0,0,2037,-142,0,1281,159,189,238,1,0,67,37,442932,0
442920,516,-1890,96,317,82,-593,5806,-270,84,-472,-456,35529,5,34,127,0,0,2017,-208,0,1281,159,189,248,1,0,67,37,442932,0
442930,322,-2192,285,439,100,-385,5699,-227,83,-515,-384,35532,-8,34,127,0,0,2008,-93,0,1281,159,189,258,1,0,67,37,442948,0
442940,283,-2235,356,446,111,-349,5612,-174,74,-486,-272,35532,-35,34,127,0,0,1995,-49,0,1281,159,189,268,1,0,67,37,442948,0
442950,395,-2298,461,402,157,-338,5554,-108,89,-517,-240,35533,-52,34,127,0,0,1989,-82,0,1281,159,189,278,1,0,67,37,442948,0
442960,522,-2140,403,371,130,-296,5501,-105,66,-385,-176,35528,-53,34,127,0,0,1988,-32,0,1281,159,189,288,1,0,67,37,442948,0
442970,597,-1997,391,343,87,-161,5462,-75,40,-288,-96,35537,-49,34,127,0,0,1985,-5,0,1281,159,189,298,1,0,67,37,442948,0
442980,578,-1900,314,318,64,-84,5462,15,105,-435,-136,35557,-34,34,127,0,0,1984,-32,0,1281,159,189,308,1,0,67,37,442948,0
442990,357,-1882,263,337,72,-14,5460,0,65,-382,-88,35581,-23,34,127,0,0,1988,10,0,1281,159,189,318,1,0,67,37,442979,0
443000,212,-1890,211,386,78,60,5463,-11,-3,-341,-56,35576,-8,34,127,0,0,1996,109,0,1281,159,189,328,1,0,67,37,442979,0
443010,433,-1845,157,457,97,156,5473,44,20,-58,32,35559,-18,34,127,0,0,2007,93,0,1281,159,189,338,1,0,67,37,442979,0
443020,401,-1956,184,469,63,207,5486,31,25,249,104,35559,-31,34,127,0,0,2021,120,0,1281,159,189,348,1,0,67,37,443010,0
443030,355,-1988,244,489,91,137,5521,100,43,361,184,35556,-37,34,127,0,0,2030,93,0,1281,159,189,358,1,0,67,37,443010,0
443040,377,-2030,253,475,110,97,5577,115,83,287,176,35548,-32,34,127,0,0,2041,93,0,1281,159,189,368,1,0,67,37,443010,0
443050,414,-2021,224,474,81,90,5638,115,39,161,112,35536,-40,34,127,0,0,2051,93,0,1281,159,189,378,1,0,67,37,443026,0
443060,373,-1966,298,466,25,112,5675,47,-43,245,112,35544,-61,34,127,0,0,2059,115,0,1281,159,189,388,1,0,67,37,443057,0
443070,295,-1896,310,464,41,100,5683,27,-107,490,192,35558,-65,34,127,0,0,2067,76,0,1281,159,189,398,1,0,67,37,443057,0
443080,371,-1879,303,437,88,99,5719,115,22,474,232,35561,-75,34,127,0,0,2081,109,0,1281,159,189,408,1,0,67,37,443057,0
443090,507,-1869,462,361,75,94,5782,136,112,338,192,35551,-61,34,127,0,0,2090,126,0,1281,159,189,418,1,0,67,37,443073,0
443100,468,-1940,564,294,23,110,5836,110,17,309,160,35546,-69,34,127,0,0,2099,87,0,1281,159,189,428,1,0,67,37,443073,0
443110,386,-2004,608,168,-43,94,5869,44,-64,397,200,35560,-66,34,127,0,0,2106,82,0,1281,159,189,438,1,0,67,37,443104,0
443120,283,-2079,581,101,-29,13,5898,83,-48,459,192,35563,-45,34,127,0,0,2117,27,0,1281,159,189,448,1,0,67,37,443104,0
443130,434,-2016,461,86,34,-82,5939,82,27,395,168,35556,-43,34,127,0,0,2123,82,0,1281,159,189,458,1,0,67,37,443104,0
443140,553,-1966,336,85,38,-80,5980,97,15,289,88,35545,-24,34,127,0,0,2120,5,0,1281,159,189,468,1,0,67,37,443120,0
443150,630,-1879,283,78,-104,21,5994,9,-49,307,112,35553,-21,34,127,0,0,2126,32,0,1281,159,189,478,1,0,67,37,443135,0
443160,407,-1929,305,33,-172,103,6007,50,-56,463,176,35558,5,34,127,0,0,2132,21,0,1281,159,189,488,1,0,67,37,443135,0
443170,242,-1937,388,8,-169,101,6051,101,78,363,160,35556,16,34,127,0,0,2154,159,0,1281,159,189,498,1,0,67,37,443151,0
443180,263,-1953,293,32,-99,28,6086,76,31,450,192,35546,26,34,127,0,0,2158,104,0,1281,159,189,508,1,0,67,37,443151,0
443190,407,-1925,241,35,-88,-78,6119,55,-31,442,184,35558,9,34,127,0,0,2162,71,0,1281,159,189,518,1,0,67,37,443182,0
443200,393,-1904,280,17,-129,-150,6144,69,-24,470,136,35566,-3,34,127,0,0,2165,-5,0,1281,159,189,528,1,0,67,37,443182,0
443210,233,-1990,402,-27,-181,-215,6181,64,20,272,88,35553,-19,34,127,0,0,2170,65,0,1281,159,189,538,1,0,67,37,443182,0
443220,97,-1965,403,-62,-211,-287,6189,11,-40,338,80,35556,-30,34,127,0,0,2163,-21,0,1281,159,189,548,1,0,67,37,443198,0
443230,89,-1963,366,-136,-200,-459,6196,15,-48,288,72,35562,-42,34,127,0,0,2166,-38,0,1281,159,189,558,1,0,67,37,443198,0
443240,197,-1907,418,-187,-261,-593,6202,14,-5,218,56,35571,-50,34,127,0,0,2163,-32,0,1281,159,189,568,1,0,67,37,443291,0
443250,211,-1861,460,-284,-360,-814,6203,-2,-14,85,-24,35571,-44,34,127,0,0,2154,-164,0,1281,159,189,578,1,0,67,37,443291,0
443260,61,-2087,511,-333,-476,-859,6180,-64,-59,-95,-48,35552,-29,34,127,0,0,2144,-120,0,1281,159,189,588,1,0,67,37,443291,0
443270,-69,-2014,492,-398,-575,-1121,6155,-61,-49,-253,-112,35545,-45,34,127,0,0,2137,-82,0,1281,159,189,598,1,0,67,37,443307,0
443280,-154,-2055,458,-520,-640,-1411,6135,-35,7,-429,-200,35545,-46,34,127,0,0,2118,-214,0,1281,159,189,608,1,0,67,37,443323,0
443290,13,-1843,688,-448,-1077,-1865,6084,-152,-49,-436,-240,35547,-37,34,127,0,0,2102,-203,0,1281,159,189,618,1,0,67,37,443338,0
443300,-209,-2116,630,-466,-1333,-2100,6013,-163,-108,-468,-344,35544,-21,34,127,0,0,2076,-296,0,1281,159,189,628,1,0,67,37,443338,0
443310,-302,-2788,997,-670,-1349,-2384,5933,-177,-43,-600,-432,35541,0,34,127,0,0,2046,-258,0,1281,159,189,638,1,0,67,37,443338,0
443320,-406,-2946,975,-835,-1241,-2715,5829,-243,-67,-534,-464,35540,-18,34,127,0,0,2026,-236,0,1281,159,189,648,1,0,67,37,443338,0
443330,-362,-2598,437,-1115,-961,-3129,5723,-220,-50,-510,-400,35547,-15,34,127,0,0,2014,-126,0,1281,159,189,658,1,0,67,37,443338,0
443340,-223,-2574,174,-1172,-850,-3357,5632,-196,34,-509,-376,35542,-46,34,127,0,0,1994,-142,0,1281,159,189,668,1,0,67,37,443338,0
443350,-514,-2531,394,-1312,-827,-3421,5553,-173,47,-557,-352,35542,-67,34,127,0,0,1978,-98,0,1281,159,189,678,1,0,67,37,443338,0
443360,-176,-3236,692,-1396,-1001,-3506,5471,-167,15,-351,-176,35547,-75,34,127,0,0,1990,120,0,1281,159,189,688,1,0,67,37,443338,0
443370,430,-3329,448,-1477,-921,-4464,5460,72,148,28,64,35556,-55,34,127,0,0,2017,208,0,1281,159,189,698,1,0,67,37,443338,0
443380,162,-2595,221,-1518,-1164,-4525,5519,136,289,331,248,35560,-35,34,127,0,0,2050,357,0,1281,159,189,708,1,0,67,37,443354,0
443390,-215,-3146,625,-1339,-1881,-3958,5605,222,156,489,528,35558,-16,34,127,0,0,2108,637,0,1281,159,189,718,1,0,67,37,443385,0
443400,-78,-4114,753,-1459,-1941,-4112,5753,360,186,582,992,35560,-34,34,127,0,0,2196,906,0,1281,159,189,728,1,0,67,37,443385,0
443410,-246,-3826,1004,-1549,-1555,-4998,5968,511,246,666,1440,35546,-19,34,127,0,0,2292,1010,0,1281,159,189,738,1,0,67,37,443401,0
443420,-281,-3685,582,-1506,-1469,-5434,6253,665,252,710,1704,35541,-13,34,127,0,0,2388,933,0,1281,159,189,748,1,0,67,37,443401,0
443430,-595,-3728,256,-1116,-2027,-5146,6588,775,224,803,2144,35528,5,34,127,0,0,2513,1307,0,1281,159,189,758,1,0,67,37,443401,0
443440,-938,-4148,478,-1111,-2600,-4978,7007,996,265,953,2800,35531,19,34,127,0,0,2691,1818,0,1281,159,189,768,1,0,67,37,443448,0
443450,-940,-4815,658,-1203,-2472,-5674,7560,1314,434,1050,3560,35543,15,34,127,0,0,2887,1961,0,1281,159,189,778,1,0,67,37,443448,0
443460,-829,-4873,1035,-1169,-2664,-6071,8255,1622,539,1060,4360,35545,53,34,127,0,0,3127,2466,0,1281,159,189,788,1,0,67,37,443448,0
443470,-549,-3985,903,-1003,-2954,-6248,9104,1972,569,1126,5264,35530,74,34,127,0,0,3379,2543,0,1281,159,189,798,1,0,67,37,443448,0
443480,-131,-4385,1226,-1393,-3405,-6695,10107,2290,595,923,5808,35508,102,34,127,0,0,3628,2455,0,1281,159,189,808,1,0,55,0,443463,0
443490,374,-4932,1679,-1801,-3569,-7481,11221,2496,491,715,6048,35511,101,34,127,0,0,3846,2142,0,1281,159,189,818,1,0,64,0,443463,0
443500,688,-4980,1505,-1995,-3822,-7123,12354,2461,221,576,5944,35518,109,34,127,0,0,4040,1977,0,1281,159,189,828,1,0,71,0,443495,0
443510,-324,-4452,1669,-2190,-4406,-5610,13430,2326,-106,642,5976,35516,101,34,127,0,0,4275,2323,0,1281,159,189,838,1,0,82,0,443495,0
443520,-976,-3630,1545,-2369,-4549,-4541,14522,2477,-66,1082,6656,35504,87,34,127,0,0,4568,2944,0,1281,159,189,848,1,0,90,0,443495,0
443530,-1343,-2707,1165,-2488,-4460,-2950,15783,2916,412,1325,7576,35487,122,34,127,0,0,4906,3449,0,1281,159,189,858,1,0,103,0,443510,0
443540,-176,-1888,909,-2168,-3598,-1773,17254,3393,759,1795,9064,35468,192,34,127,0,0,5331,4339,0,1281,159,189,868,1,0,113,0,443526,0
443550,1320,-813,-264,-2014,258,-3122,18954,3813,843,759,8208,35440,279,34,127,0,0,5563,2136,0,1281,159,189,878,1,0,128,0,443526,0
443560,1625,-187,-1088,-1654,3143,-3465,20445,2823,-78,-2247,2872,35466,182,34,127,0,0,5525,-692,0,1281,159,189,888,1,0,137,95,443541,0
443570,1105,-1123,-553,-969,5731,-3303,20969,472,-2524,-2112,1072,35515,-8,34,127,0,0,5289,-2477,0,1281,159,189,898,0,0,151,89,443541,0
443580,61,-884,454,-404,5868,-2980,21202,545,-2382,249,-472,35561,-126,34,127,0,0,4997,-2944,0,1281,159,189,908,0,0,160,85,443557,0
443590,617,-724,1076,-526,5189,-1394,20996,-823,-1137,-1882,-2840,35572,-112,34,127,0,0,4760,-2334,0,1281,159,189,918,0,0,174,79,443573,0
443600,112,-642,1180,-566,4467,-699,20413,-1464,-1560,-1288,-4104,35524,46,34,127,0,0,4548,-2098,0,1281,159,189,928,0,0,183,75,443573,0
443610,562,-546,475,-349,3097,597,19618,-1821,-1088,-639,-4448,35515,60,34,127,0,0,4391,-1582,0,1281,159,189,938,0,0,196,70,443588,0
443620,863,-369,-117,-128,2283,1514,18788,-1805,-475,-243,-3968,35525,58,34,127,0,0,4286,-999,0,1281,159,189,948,0,0,204,67,443666,0
443630,869,-170,-365,252,1589,2637,18024,-1618,66,-66,-3272,35532,24,34,127,0,0,4208,-758,0,1281,159,189,958,0,0,216,63,443666,0
443640,790,-75,-284,508,1379,3192,17359,-1400,325,-53,-2784,35533,0,34,127,0,0,4115,-933,0,1281,159,189,968,0,0,224,60,443682,0
443650,839,-186,-127,789,1332,4002,16773,-1240,342,-164,-2688,35525,-28,34,127,0,0,4004,-1148,0,1281,159,189,978,0,0,235,56,443682,0
443660,732,-305,-149,902,1231,4653,16221,-1213,227,-455,-2936,35521,-29,34,127,0,0,3874,-1307,0,1281,159,189,988,0,0,242,53,443682,0
443670,431,-413,-30,1131,805,5649,15638,-1312,0,-580,-3088,35522,-3,34,127,0,0,3748,-1208,0,1281,159,189,998,0,0,253,49,443698,0
443680,368,-494,16,1300,468,6135,15038,-1323,-107,-527,-3136,35508,19,34,127,0,0,3641,-1093,0,1281,159,189,1008,0,0,259,47,443698,0
443690,480,-717,14,1555,66,6889,14505,-1292,-14,-459,-3024,35500,7,34,127,0,0,3540,-939,0,1281,159,189,1018,0,0,269,44,443698,0
443700,493,-862,0,1698,-101,7428,13941,-1214,82,-366,-2784,35506,-8,34,127,0,0,3459,-812,0,1281,159,189,1028,0,0,276,41,443698,0
443710,363,-903,11,1940,-246,8066,13421,-1122,144,-332,-2520,35521,2,34,127,0,0,3389,-719,0,1281,159,189,1038,0,0,285,38,443698,0
443720,273,-900,-37,2113,-321,8368,12943,-1024,160,-317,-2272,35532,12,34,127,0,0,3317,-659,0,1281,159,189,1048,0,0,291,36,443698,0
443730,275,-950,-219,2374,-292,8789,12502,-951,152,-366,-2088,35538,16,34,127,0,0,3248,-664,0,1281,159,189,1058,0,0,301,33,443713,0
443740,284,-1026,-279,2537,-238,9107,12089,-898,116,-393,-1904,35546,-20,34,127,0,0,3190,-615,0,1281,159,189,1068,0,0,307,32,443729,0
443750,230,-1158,-287,2753,-128,9462,11707,-816,106,-369,-1632,35541,-23,34,127,0,0,3151,-390,0,1281,159,189,1078,0,0,316,29,443729,0
443760,237,-1322,-304,2856,-16,9595,11369,-709,144,-320,-1320,35534,-9,34,127,0,0,3111,-313,0,1281,159,189,1088,0,0,322,27,443729,0
443770,299,-1666,-322,3029,284,9770,11082,-597,188,-294,-1024,35527,-8,34,127,0,0,3089,-208,0,1281,159,189,1098,0,0,331,25,443760,0
443780,422,-1862,-282,3130,563,9866,10852,-464,210,-308,-712,35532,-12,34,127,0,0,3073,-115,0,1281,159,189,1108,0,0,337,24,443760,0
443790,623,-2100,-10,3089,1112,9957,10672,-355,209,-366,-480,35545,-23,34,127,0,0,3064,-60,0,1281,159,189,1118,0,0,345,22,443776,0
