state_time,accelx,accely,accelz,gyrox,gyroy,gyroz,mot_ang,mot_vel,mot_acc,mot_cur,mot_volt,batt_volt,batt_curr,temperature,status_mn,status_ex,status_re,ank_ang,ank_vel,ank_torque,peak_ank_torque,step_energy,step_count,step_time,gait_state,movement,speed,incline,sys_time,eventFlags
113170,-64,-2076,258,-83,32,131,14610,-4,3,377,112,35473,-77,34,127,0,0,3888,32,0,16390,6293,46,6038,-4,0,266,4,113227,0
113180,-75,-2079,255,-82,36,135,14609,-7,4,403,112,35470,-76,34,127,0,0,3884,10,0,16390,6293,46,6048,-4,0,266,4,113227,0
113190,-66,-2074,260,-84,40,128,14611,-5,6,376,112,35454,-68,34,127,0,0,3888,32,0,16390,6293,46,6058,-4,0,266,4,113227,0
113200,-77,-2079,258,-81,38,131,14612,-3,-1,418,80,35450,-67,34,127,0,0,3885,0,0,16390,6293,46,6068,-4,0,266,4,113227,0
113210,-68,-2072,263,-78,33,132,14612,0,4,377,128,35465,-85,34,127,0,0,3886,38,0,16390,6293,46,6078,-4,0,266,4,113227,0
113220,-67,-2074,262,-82,39,136,14612,-1,0,405,104,35463,-73,34,127,0,0,3888,38,0,16390,6293,46,6088,-4,0,266,4,113227,0
113230,-64,-2075,256,-78,40,135,14615,16,-1,423,104,35469,-68,34,127,0,0,3888,27,0,16390,6293,46,6098,-4,0,266,4,113227,0
113240,-82,-2069,256,-80,39,134,14614,1,2,411,104,35462,-73,34,127,0,0,3891,60,0,16390,6293,46,6108,-4,0,266,4,113227,0
113250,-51,-2071,259,-82,40,140,14616,0,-1,441,120,35461,-60,34,127,0,0,3886,10,0,16390,6293,46,6118,-4,0,266,4,113227,0
113260,-62,-2071,259,-79,38,135,14616,1,1,438,144,35459,-68,34,127,0,0,3889,16,0,16390,6293,46,6128,-4,0,266,4,113259,0
113270,-50,-2074,257,-85,35,141,14618,8,4,443,144,35464,-61,34,127,0,0,3885,16,0,16390,6293,46,6138,-4,0,266,4,113259,0
113280,-61,-2069,264,-80,36,136,14618,-3,-3,440,144,35465,-71,34,127,0,0,3889,10,0,16390,6293,46,6148,-4,0,266,4,113259,0
113290,-64,-2073,260,-85,33,136,14619,0,2,475,136,35463,-76,34,127,0,0,3889,27,0,16390,6293,46,6158,-4,0,266,4,113274,0
113300,-73,-2070,265,-87,35,142,14623,7,-2,496,112,35458,-74,34,127,0,0,3893,27,0,16390,6293,46,6168,-4,0,266,4,113290,0
113310,-69,-2078,255,-85,34,134,14623,-3,-2,477,160,35463,-65,34,127,0,0,3888,27,0,16390,6293,46,6178,-4,0,266,4,113290,0
113320,-73,-2075,253,-90,39,134,14625,-1,-3,467,152,35462,-77,34,127,0,0,3891,21,0,16390,6293,46,6188,-4,0,266,4,113305,0
113330,-53,-2074,263,-88,36,130,14627,-2,2,443,120,35467,-88,34,127,0,0,3885,5,0,16390,6293,46,6198,-4,0,266,4,113305,0
113340,-67,-2080,267,-88,39,128,14630,11,-1,425,144,35462,-102,34,127,0,0,3888,-5,0,16390,6293,46,6208,-4,0,266,4,113321,0
113350,-63,-2078,263,-91,35,129,14630,0,-7,411,96,35464,-100,34,127,0,0,3893,54,0,16390,6293,46,6218,-4,0,266,4,113337,0
113360,-97,-2077,258,-90,37,128,14630,6,4,452,144,35461,-84,34,127,0,0,3888,16,0,16390,6293,46,6228,-4,0,266,4,113337,0
113370,-66,-2080,261,-97,37,125,14631,1,-1,430,136,35462,-72,34,127,0,0,3894,65,0,16390,6293,46,6238,-4,0,266,4,113352,0
113380,-75,-2072,259,-88,37,131,14637,14,4,427,128,35472,-82,34,127,0,0,3891,49,0,16390,6293,46,6248,-4,0,266,4,113368,0
113391,-80,-2080,258,-91,35,128,14655,44,30,331,104,35468,-94,34,127,0,0,3893,43,0,16390,6293,46,6259,-4,0,266,4,113384,0
113401,-58,-2069,263,-92,40,136,14671,21,23,213,72,35457,-106,34,127,0,0,3891,10,0,16390,6293,46,6269,-4,0,266,4,113384,0
113411,-93,-2076,256,-95,40,131,14669,0,-32,248,56,35449,-95,34,127,0,0,3891,0,0,16390,6293,46,6279,-4,0,266,4,113384,0
113421,-74,-2074,258,-93,38,126,14671,0,-27,295,16,35458,-92,34,127,0,0,3891,-32,0,16390,6293,46,6289,-4,0,266,4,113446,0
113431,-102,-2076,259,-89,40,129,14671,4,2,277,48,35456,-91,34,127,0,0,3891,-10,0,16390,6293,46,6299,-4,0,266,4,113446,0
113441,-76,-2072,263,-93,35,122,14671,0,-2,253,88,35456,-85,34,127,0,0,3893,10,0,16390,6293,46,6309,-4,0,266,4,113446,0
113451,-95,-2072,258,-90,43,121,14672,-3,4,246,56,35446,-82,34,127,0,0,3893,32,0,16390,6293,46,6319,-4,0,266,4,113462,0
113461,-52,-2074,258,-95,37,114,14672,-4,0,289,56,35448,-74,34,127,0,0,3891,-21,0,16390,6293,46,6329,-4,0,266,4,113462,0
113471,-56,-2070,256,-92,34,115,14673,9,2,243,48,35452,-90,34,127,0,0,3893,10,0,16390,6293,46,6339,-4,0,266,4,113462,0
113481,-65,-2068,260,-92,32,125,14673,0,0,276,96,35461,-88,34,127,0,0,3891,-21,0,16390,6293,46,6349,-4,0,266,4,113462,0
113491,-60,-2072,254,-88,35,115,14673,1,0,274,8,35458,-79,34,127,0,0,3891,-32,0,16390,6293,46,6359,-4,0,266,4,113493,0
113501,-49,-2072,250,-91,33,126,14672,0,4,250,56,35455,-54,34,127,0,0,3889,-43,0,16390,6293,46,6369,-4,0,266,4,113493,0
113511,-54,-2066,259,-85,30,126,14672,1,-3,203,56,35448,-59,34,127,0,0,3891,0,0,16390,6293,46,6379,-4,0,266,4,113493,0
113521,-70,-2083,252,-88,40,124,14672,0,3,215,96,35449,-39,34,127,0,0,3891,10,0,16390,6293,46,6389,-4,0,266,4,113509,0
113531,-53,-2084,251,-83,37,117,14673,4,-2,270,80,35451,-83,34,127,0,0,3893,10,0,16390,6293,46,6399,-4,0,266,4,113509,0
113541,-75,-2067,255,-82,33,131,14672,-9,-6,216,72,35454,-96,34,127,0,0,3893,43,0,16390,6293,46,6409,-4,0,266,4,113540,0
113551,-76,-2078,250,-85,36,126,14671,-8,1,235,64,35454,-111,34,127,0,0,3893,21,0,16390,6293,46,6419,-4,0,266,4,113540,0
113561,-42,-2071,265,-86,40,123,14674,-1,1,285,24,35454,-106,33,127,0,0,3889,-43,0,16390,6293,46,6429,-4,0,266,4,113540,0
113571,-60,-2080,262,-85,47,124,14672,5,-5,206,56,35458,-92,33,127,0,0,3891,10,0,16390,6293,46,6439,-4,0,266,4,113555,0
113581,-73,-2074,265,-82,36,116,14673,0,-1,274,80,35459,-85,34,127,0,0,3891,0,0,16390,6293,46,6449,-4,0,266,4,113555,0
113591,-75,-2077,260,-84,40,114,14673,-2,-2,234,56,35458,-79,34,127,0,0,3891,0,0,16390,6293,46,6459,-4,0,266,4,113602,0
113601,-72,-2069,257,-86,33,121,14672,-1,-5,212,24,35452,-82,34,127,0,0,3889,-21,0,16390,6293,46,6469,-4,0,266,4,113602,0
113611,-64,-2078,249,-89,35,121,14674,10,3,241,40,35452,-64,34,127,0,0,3891,0,0,16390,6293,46,6479,-4,0,266,4,113618,0
113621,-86,-2074,253,-86,32,123,14673,3,1,234,56,35459,-81,34,127,0,0,3893,32,0,16390,6293,46,6489,-4,0,266,4,113618,0
113631,-73,-2069,259,-84,37,117,14673,1,-2,260,56,35463,-78,34,127,0,0,3891,0,0,16390,6293,46,6499,-4,0,266,4,113618,0
113642,-84,-2076,256,-83,32,124,14672,-1,0,201,80,35465,-82,34,127,0,0,3890,21,0,16390,6293,46,6510,-4,0,266,4,113618,0
113652,-62,-2074,254,-84,36,116,14672,-6,3,258,80,35470,-81,34,127,0,0,3893,5,0,16390,6293,46,6520,-4,0,266,4,113634,0
113662,-87,-2081,251,-79,38,120,14674,0,-2,272,56,35460,-81,34,127,0,0,3894,16,0,16390,6293,46,6530,-4,0,266,4,113634,0
113672,-81,-2076,259,-81,35,121,14673,-1,-1,260,56,35465,-96,34,127,0,0,3894,38,0,16390,6293,46,6540,-4,0,266,4,113649,0
113682,-74,-2073,256,-84,43,121,14674,3,4,272,56,35457,-100,34,127,0,0,3891,-16,0,16390,6293,46,6550,-4,0,266,4,113665,0
113692,-68,-2082,251,-85,36,119,14674,6,-6,199,56,35461,-111,34,127,0,0,3891,16,0,16390,6293,46,6560,-4,0,266,4,113680,0
113702,-88,-2077,256,-87,35,116,14673,0,3,208,32,35458,-102,34,127,0,0,3892,0,0,16390,6293,46,6570,-4,0,266,4,113680,0
113712,-83,-2071,250,-87,38,114,14672,-2,-1,229,80,35450,-99,34,127,0,0,3893,27,0,16390,6293,46,6580,-4,0,266,4,113696,0
113722,-34,-2077,262,-86,35,102,14673,-5,-4,225,80,35451,-103,34,127,0,0,3890,49,0,16390,6293,46,6590,-4,0,266,4,113712,0
113732,-25,-2068,249,-81,32,108,14674,3,-2,201,56,35450,-91,34,127,0,0,3894,65,0,16390,6293,46,6600,-4,0,266,4,113712,0
113742,-78,-2079,254,-78,25,118,14673,-3,0,221,56,35458,-91,34,127,0,0,3891,32,0,16390,6293,46,6610,-4,0,266,4,113758,0
113752,-56,-2071,254,-81,34,112,14672,0,-7,191,32,35465,-90,34,127,0,0,3892,38,0,16390,6293,46,6620,-4,0,266,4,113758,0
113762,-92,-2072,258,-78,37,115,14673,-1,-4,202,32,35461,-100,34,127,0,0,3889,-21,0,16390,6293,46,6630,-4,0,266,4,113758,0
113772,-79,-2081,259,-83,30,115,14672,-2,3,242,56,35462,-100,33,127,0,0,3891,-38,0,16390,6293,46,6640,-4,0,266,4,113758,0
113782,-51,-2067,258,-82,43,111,14673,0,3,212,32,35457,-93,34,127,0,0,3892,32,0,16390,6293,46,6650,-4,0,266,4,113758,0
113792,-71,-2081,258,-87,41,105,14674,11,3,217,32,35470,-93,34,127,0,0,3892,-5,0,16390,6293,46,6660,-4,0,266,4,113774,0
113802,-79,-2064,259,-82,30,117,14674,8,10,238,56,35470,-97,34,127,0,0,3891,-16,0,16390,6293,46,6670,-4,0,266,4,113790,0
113812,-57,-2068,264,-85,31,111,14675,11,4,234,24,35466,-87,34,127,0,0,3892,-10,0,16390,6293,46,6680,-4,0,266,4,113805,0
113822,-93,-2068,263,-88,37,113,14675,7,4,247,24,35459,-76,34,127,0,0,3889,-54,0,16390,6293,46,6690,-4,0,266,4,113805,0
113832,-111,-2065,255,-85,39,108,14673,-1,-2,190,32,35455,-80,34,127,0,0,3892,32,0,16390,6293,46,6700,-4,0,266,4,113821,0
113842,-57,-2068,254,-90,36,106,14672,-4,1,198,56,35455,-76,34,127,0,0,3891,21,0,16390,6293,46,6710,-4,0,266,4,113821,0
113852,-56,-2069,256,-86,35,100,14673,1,6,200,32,35451,-82,34,127,0,0,3889,-5,0,16390,6293,46,6720,-4,0,266,4,113837,0
113862,-79,-2082,251,-87,34,110,14673,1,5,193,32,35448,-73,34,127,0,0,3889,-27,0,16390,6293,46,6730,-4,0,266,4,113837,0
113872,-68,-2073,259,-84,33,106,14671,-4,-6,129,32,35445,-81,34,127,0,0,3889,21,0,16390,6293,46,6740,-4,0,266,4,113852,0
113882,-48,-2074,259,-82,38,108,14672,-2,-5,158,32,35451,-84,34,127,0,0,3885,-27,0,16390,6293,46,6750,-4,0,266,4,113852,0
113893,-75,-2073,251,-84,37,112,14671,0,-2,44,48,35464,-97,34,127,0,0,3889,21,0,16390,6293,46,6761,-4,0,266,4,113883,0
113903,-80,-2078,257,-85,37,110,14670,0,5,121,72,35465,-91,34,127,0,0,3886,0,0,16390,6293,46,6771,-4,0,266,4,113883,0
113913,-83,-2079,255,-83,42,112,14670,-10,-6,65,16,35456,-82,34,127,0,0,3886,10,0,16390,6293,46,6781,-4,0,266,4,113883,0
113923,-49,-2083,260,-80,33,110,14671,-4,-8,64,16,35463,-90,34,127,0,0,3886,0,0,16390,6293,46,6791,-4,0,266,4,113915,0
113933,-59,-2080,248,-80,38,123,14669,-1,3,43,16,35462,-103,34,127,0,0,3886,0,0,16390,6293,46,6801,-4,0,266,4,113915,0
113943,-61,-2073,242,-77,37,126,14670,0,0,46,16,35465,-99,34,127,0,0,3886,0,0,16390,6293,46,6811,-4,0,266,4,113915,0
113953,-51,-2075,243,-65,35,136,14670,0,3,76,48,35468,-59,34,127,0,0,3889,0,0,16390,6293,46,6821,-4,0,266,4,113962,0
113963,-59,-2073,247,-63,39,136,14670,0,-1,115,0,35468,-51,34,127,0,0,3886,-10,0,16390,6293,46,6831,-4,0,266,4,113962,0
113973,-58,-2075,251,-61,45,153,14671,0,-5,76,16,35469,-41,34,127,0,0,3889,0,0,16390,6293,46,6841,-4,0,266,4,113962,0
113983,-71,-2082,252,-53,46,161,14671,-1,5,78,16,35460,-53,34,127,0,0,3889,21,0,16390,6293,46,6851,-4,0,266,4,113962,0
113993,-51,-2090,253,-49,49,155,14670,3,10,119,48,35466,-58,34,127,0,0,3889,10,0,16390,6293,46,6861,-4,0,266,4,113977,0
114003,-37,-2085,256,-45,48,162,14671,-2,0,149,48,35471,-49,34,127,0,0,3886,-21,0,16390,6293,46,6871,-4,0,266,4,113993,0
114013,-73,-2089,260,-45,47,169,14672,12,0,140,24,35469,-47,34,127,0,0,3889,-10,0,16390,6293,46,6881,-4,0,266,4,113993,0
114023,-71,-2093,268,-46,51,181,14671,-1,4,192,72,35462,-45,34,127,0,0,3891,21,0,16390,6293,46,6891,-4,0,266,4,113993,0
114033,-59,-2073,267,-49,31,189,14672,1,-7,198,56,35456,-62,34,127,0,0,3891,32,0,16390,6293,46,6901,-4,0,266,4,114024,0
114043,-65,-2069,271,-51,25,209,14672,1,0,270,48,35466,-89,34,127,0,0,3895,32,0,16390,6293,46,6911,-4,0,266,4,114024,0
114053,-65,-2066,269,-57,29,211,14675,9,1,355,120,35465,-84,34,127,0,0,3897,32,0,16390,6293,46,6921,-4,0,266,4,114024,0
114063,-81,-2075,271,-68,29,211,14680,11,8,399,120,35464,-103,34,127,0,0,3900,21,0,16390,6293,46,6931,-4,0,266,4,114055,0
114073,-102,-2072,272,-66,33,200,14684,25,10,494,152,35460,-88,34,127,0,0,3902,10,0,16390,6293,46,6941,-4,0,266,4,114071,0
114083,-86,-2061,264,-64,32,187,14689,4,-2,498,160,35463,-92,34,127,0,0,3906,54,0,16390,6293,46,6951,-4,0,266,4,114071,0
114093,-94,-2064,267,-63,37,175,14699,23,12,528,168,35457,-90,34,127,0,0,3906,0,0,16390,6293,46,6961,-4,0,266,4,114071,0
114103,-96,-2069,266,-64,37,164,14725,68,35,405,112,35461,-86,34,127,0,0,3908,32,0,16390,6293,46,6971,-4,0,266,4,114087,0
114113,-79,-2060,271,-71,33,167,14747,20,19,306,104,35466,-63,34,127,0,0,3908,10,0,16390,6293,46,6981,-4,0,266,4,114102,0
114123,-99,-2071,269,-75,36,152,14748,4,-56,400,128,35460,-51,34,127,0,0,3908,-10,0,16390,6293,46,6991,-4,0,266,4,114102,0
114133,-81,-2066,265,-81,43,147,14748,1,-42,396,96,35454,-49,34,127,0,0,3911,21,0,16390,6293,46,7001,-4,0,266,4,114118,0
114144,-81,-2074,273,-79,42,150,14748,2,3,448,112,35460,-66,33,127,0,0,3911,0,0,16390,6293,46,7012,-4,0,266,4,114211,0
114154,-80,-2066,259,-83,32,155,14749,-5,-1,421,112,35462,-69,33,127,0,0,3911,-10,0,16390,6293,46,7022,-4,0,266,4,114211,0
114164,-77,-2072,266,-84,28,155,14749,4,-1,432,136,35462,-68,34,127,0,0,3910,-10,0,16390,6293,46,7032,-4,0,266,4,114211,0
114174,-87,-2082,270,-85,44,149,14751,9,2,484,112,35453,-72,34,127,0,0,3917,0,0,16390,6293,46,7042,-4,0,266,4,114211,0
114184,-84,-2080,271,-86,45,152,14753,0,3,472,152,35454,-68,34,127,0,0,3915,49,0,16390,6293,46,7052,-4,0,266,4,114227,0
114194,-67,-2077,272,-89,32,160,14754,-1,-3,464,152,35453,-68,34,127,0,0,3912,16,0,16390,6293,46,7062,-4,0,266,4,114227,0
114204,-70,-2077,268,-91,30,166,14759,10,3,494,184,35459,-55,34,127,0,0,3913,-5,0,16390,6293,46,7072,-4,0,266,4,114227,0
114214,-71,-2075,261,-90,36,168,14768,12,11,442,144,35457,-52,34,127,0,0,3921,60,0,16390,6293,46,7082,-4,0,266,4,114227,0
114224,-89,-2077,249,-90,35,161,14796,77,43,343,88,35455,-56,34,127,0,0,3921,16,0,16390,6293,46,7092,-4,0,266,4,114227,0
114234,-68,-2073,263,-85,27,171,14818,24,31,250,72,35450,-58,34,127,0,0,3923,32,0,16390,6293,46,7102,-4,0,266,4,114227,0
114244,-118,-2075,263,-87,40,168,14818,6,-62,354,96,35455,-49,34,127,0,0,3925,10,0,16390,6293,46,7112,-4,0,266,4,114227,0
114254,-91,-2065,262,-81,33,164,14820,6,-32,401,88,35473,-27,34,127,0,0,3922,-38,0,16390,6293,46,7122,-4,0,266,4,114227,0
114264,-89,-2074,266,-84,44,157,14819,0,2,383,120,35481,-14,34,127,0,0,3924,-10,0,16390,6293,46,7132,-4,0,266,4,114258,0
114274,-87,-2072,262,-88,32,160,14818,0,-2,393,120,35481,-23,34,127,0,0,3924,0,0,16390,6293,46,7142,-4,0,266,4,114258,0
114284,-94,-2073,266,-86,31,161,14819,5,0,392,112,35465,-31,34,127,0,0,3927,32,0,16390,6293,46,7152,-4,0,266,4,114258,0
114294,-95,-2072,264,-90,37,152,14819,5,3,414,136,35453,-58,34,127,0,0,3926,43,0,16390,6293,46,7162,-4,0,266,4,114274,0
114304,-89,-2071,267,-84,31,150,14822,10,12,460,176,35462,-54,34,127,0,0,3924,5,0,16390,6293,46,7172,-4,0,266,4,114290,0
114314,-92,-2079,262,-88,34,147,14828,8,8,420,168,35475,-58,34,127,0,0,3930,49,0,16390,6293,46,7182,-4,0,266,4,114305,0
114324,-106,-2071,261,-84,35,144,14835,20,6,490,128,35472,-43,34,127,0,0,3925,-65,0,16390,6293,46,7192,-4,0,266,4,114305,0
114334,-93,-2074,258,-85,37,133,14843,9,3,399,112,35474,-38,34,127,0,0,3928,-32,0,16390,6293,46,7202,-4,0,266,4,114321,0
114344,-80,-2077,258,-83,36,133,14855,20,0,334,120,35465,-38,34,127,0,0,3930,32,0,16390,6293,46,7212,-4,0,266,4,114321,0
114354,-89,-2075,269,-87,32,132,14866,17,6,316,96,35464,-40,34,127,0,0,3930,0,0,16390,6293,46,7222,-4,0,266,4,114336,0
114364,-80,-2077,271,-88,30,132,14868,5,-15,314,112,35459,-44,34,127,0,0,3929,0,0,16390,6293,46,7232,-4,0,266,4,114352,0
114374,-95,-2072,263,-87,36,126,14869,1,-18,312,88,35454,-41,34,127,0,0,3930,-5,0,16390,6293,46,7242,-4,0,266,4,114352,0
114385,-90,-2071,262,-88,30,126,14869,-2,-3,306,88,35454,-38,34,127,0,0,3930,10,0,16390,6293,46,7253,-4,0,266,4,114368,0
114395,-86,-2073,262,-84,32,121,14870,-1,0,347,104,35465,-40,34,127,0,0,3933,0,0,16390,6293,46,7263,-4,0,266,4,114399,0
114405,-98,-2069,273,-91,34,121,14869,-5,1,359,144,35477,-40,34,127,0,0,3933,0,0,16390,6293,46,7273,-4,0,266,4,114399,0
114415,-81,-2069,274,-90,34,110,14872,8,4,376,136,35481,-56,33,127,0,0,3935,0,0,16390,6293,46,7283,-4,0,266,4,114399,0
114425,-89,-2069,259,-92,32,115,14873,7,2,387,88,35466,-49,34,127,0,0,3933,0,0,16390,6293,46,7293,-4,0,266,4,114399,0
114435,-80,-2072,262,-94,29,115,14873,0,-3,390,88,35461,-48,34,127,0,0,3930,-32,0,16390,6293,46,7303,-4,0,266,4,114430,0
114445,-108,-2067,261,-90,32,113,14873,2,-4,340,96,35463,-42,34,127,0,0,3935,10,0,16390,6293,46,7313,-4,0,266,4,114430,0
114455,-120,-2071,260,-94,38,110,14872,-1,0,358,136,35463,-36,34,127,0,0,3933,10,0,16390,6293,46,7323,-4,0,266,4,114430,0
114465,-99,-2078,264,-90,40,108,14874,2,7,375,96,35457,-41,34,127,0,0,3930,-43,0,16390,6293,46,7333,-4,0,266,4,114461,0
114475,-78,-2073,258,-94,41,102,14873,-2,1,327,96,35457,-15,34,127,0,0,3930,-21,0,16390,6293,46,7343,-4,0,266,4,114461,0
114485,-89,-2069,257,-91,32,110,14874,-3,0,355,120,35457,-30,34,127,0,0,3933,-10,0,16390,6293,46,7353,-4,0,266,4,114461,0
114495,-98,-2071,256,-96,34,105,14876,9,-2,356,96,35459,-26,34,127,0,0,3933,-10,0,16390,6293,46,7363,-4,0,266,4,114493,0
114505,-67,-2072,265,-90,33,110,14875,5,1,307,96,35459,-41,34,127,0,0,3930,-10,0,16390,6293,46,7373,-4,0,266,4,114493,0
114515,-87,-2076,267,-91,35,112,14874,0,-2,243,88,35461,-37,34,127,0,0,3930,10,0,16390,6293,46,7383,-4,0,266,4,114508,0
114525,-85,-2080,257,-89,38,116,14873,0,5,298,64,35467,-36,34,127,0,0,3930,-10,0,16390,6293,46,7393,-4,0,266,4,114524,0
114535,-96,-2072,266,-89,35,119,14874,0,7,264,72,35465,-40,34,127,0,0,3930,0,0,16390,6293,46,7403,-4,0,266,4,114540,0
114545,-92,-2067,260,-84,40,117,14873,-6,-2,250,88,35462,-41,34,127,0,0,3930,10,0,16390,6293,46,7413,-4,0,266,4,114540,0
114555,-66,-2065,266,-85,34,119,14872,-13,-4,236,80,35457,-34,33,127,0,0,3928,21,0,16390,6293,46,7423,-4,0,266,4,114555,0
114565,-123,-2076,264,-89,33,126,14873,-1,4,256,40,35456,-43,34,127,0,0,3928,-32,0,16390,6293,46,7433,-4,0,266,4,114555,0
114575,-121,-2080,260,-90,40,125,14873,6,3,221,56,35459,-53,34,127,0,0,3930,10,0,16390,6293,46,7443,-4,0,266,4,114555,0
114585,-50,-2074,262,-90,40,119,14872,-10,3,256,88,35462,-55,34,127,0,0,3930,10,0,16390,6293,46,7453,-4,0,266,4,114571,0
114595,-55,-2076,266,-84,44,117,14874,3,-2,297,80,35465,-64,34,127,0,0,3928,-21,0,16390,6293,46,7463,-4,0,266,4,114602,0
114605,-107,-2076,263,-94,34,126,14873,5,-1,192,64,35464,-46,34,127,0,0,3926,0,0,16390,6293,46,7473,-4,0,266,4,114602,0
114615,-63,-2074,263,-86,31,115,14873,5,-3,216,56,35459,-41,34,127,0,0,3926,-54,0,16390,6293,46,7483,-4,0,266,4,114602,0
114625,-107,-2065,261,-87,38,122,14873,8,4,202,40,35456,-39,34,127,0,0,3930,21,0,16390,6293,46,7493,-4,0,266,4,114618,0
114636,-103,-2067,255,-85,36,129,14873,0,-4,238,56,35456,-45,34,127,0,0,3928,-16,0,16390,6293,46,7504,-4,0,266,4,114618,0
114646,-73,-2077,257,-81,43,115,14872,-1,-3,186,80,35466,-62,34,127,0,0,3924,0,0,16390,6293,46,7514,-4,0,266,4,114633,0
114656,-56,-2079,266,-79,32,116,14872,2,-1,182,32,35474,-72,34,127,0,0,3929,-16,0,16390,6293,46,7524,-4,0,266,4,114633,0
114666,-81,-2075,261,-85,36,124,14872,1,1,171,32,35473,-61,34,127,0,0,3926,5,0,16390,6293,46,7534,-4,0,266,4,114649,0
114676,-85,-2078,254,-81,35,119,14871,-2,1,190,80,35467,-55,34,127,0,0,3924,-38,0,16390,6293,46,7544,-4,0,266,4,114665,0
114686,-96,-2076,254,-85,38,119,14872,-3,-2,170,56,35462,-44,34,127,0,0,3928,5,0,16390,6293,46,7554,-4,0,266,4,114665,0
114696,-86,-2079,260,-77,41,117,14872,0,2,189,32,35462,-49,34,127,0,0,3933,32,0,16390,6293,46,7564,-4,0,266,4,114711,0
114706,-50,-2069,265,-80,37,115,14873,-3,3,225,56,35465,-56,34,127,0,0,3928,10,0,16390,6293,46,7574,-4,0,266,4,114711,0
114716,-68,-2068,263,-82,37,115,14873,1,-1,201,32,35463,-56,34,127,0,0,3929,-5,0,16390,6293,46,7584,-4,0,266,4,114711,0
114726,-98,-2073,263,-77,39,124,14872,0,-1,217,80,35461,-46,34,127,0,0,3927,-16,0,16390,6293,46,7594,-4,0,266,4,114711,0
114736,-74,-2063,263,-81,33,119,14872,-4,1,195,32,35455,-39,34,127,0,0,3933,27,0,16390,6293,46,7604,-4,0,266,4,114711,0
114746,-84,-2068,262,-76,37,115,14872,-1,0,247,56,35466,-54,34,127,0,0,3928,5,0,16390,6293,46,7614,-4,0,266,4,114727,0
114756,-77,-2073,259,-81,42,108,14872,2,-2,186,56,35479,-42,34,127,0,0,3925,-5,0,16390,6293,46,7624,-4,0,266,4,114743,0
114766,-104,-2072,258,-75,40,121,14872,5,-2,157,56,35488,-50,34,127,0,0,3932,65,0,16390,6293,46,7634,-4,0,266,4,114743,0
114776,-95,-2076,269,-75,39,114,14873,-3,4,243,80,35478,-35,34,127,0,0,3927,0,0,16390,6293,46,7644,-4,0,266,4,114774,0
114786,-84,-2072,266,-73,41,112,14873,14,0,221,80,35467,-37,34,127,0,0,3927,-10,0,16390,6293,46,7654,-4,0,266,4,114774,0
114796,-92,-2078,267,-74,38,117,14873,4,3,191,56,35458,-39,34,127,0,0,3928,5,0,16390,6293,46,7664,-4,0,266,4,114774,0
114806,-71,-2068,261,-76,37,117,14873,0,2,236,80,35457,-29,34,127,0,0,3924,-60,0,16390,6293,46,7674,-4,0,266,4,114789,0
114816,-59,-2068,256,-72,34,111,14873,3,-3,229,80,35467,-42,34,127,0,0,3927,-27,0,16390,6293,46,7684,-4,0,266,4,114805,0
114826,-118,-2072,266,-72,33,120,14872,-2,-2,204,56,35474,-54,34,127,0,0,3932,32,0,16390,6293,46,7694,-4,0,266,4,114821,0
114836,-108,-2068,267,-69,35,113,14873,5,0,265,56,35475,-56,34,127,0,0,3932,10,0,16390,6293,46,7704,-4,0,266,4,114821,0
114846,-83,-2075,263,-69,39,107,14873,1,4,244,32,35471,-51,34,127,0,0,3933,43,0,16390,6293,46,7714,-4,0,266,4,114836,0
114856,-95,-2078,261,-70,38,112,14872,1,1,238,80,35469,-39,34,127,0,0,3927,10,0,16390,6293,46,7724,-4,0,266,4,114836,0
114866,-106,-2083,269,-71,40,120,14872,1,1,204,32,35469,-34,34,127,0,0,3933,5,0,16390,6293,46,7734,-4,0,266,4,114852,0
114876,-111,-2077,264,-74,36,117,14873,3,7,246,32,35474,-46,34,127,0,0,3926,-54,0,16390,6293,46,7744,-4,0,266,4,114852,0
114887,-78,-2078,267,-74,31,111,14871,-3,-2,166,24,35474,-43,34,127,0,0,3926,-21,0,16390,6293,46,7755,-4,0,266,4,114946,0
114897,-95,-2065,270,-78,31,112,14871,9,-2,153,24,35485,-40,34,127,0,0,3926,0,0,16390,6293,46,7765,-4,0,266,4,114946,0
114907,-88,-2076,261,-79,31,105,14870,-3,1,154,32,35480,-35,34,127,0,0,3926,10,0,16390,6293,46,7775,-4,0,266,4,114946,0
114917,-96,-2078,262,-76,35,100,14873,5,-3,155,32,35473,-43,34,127,0,0,3928,32,0,16390,6293,46,7785,-4,0,266,4,114961,0
114927,-85,-2067,266,-76,28,103,14871,5,1,216,8,35467,-42,34,127,0,0,3926,-21,0,16390,6293,46,7795,-4,0,266,4,114961,0
114937,-87,-2076,268,-73,33,100,14872,6,3,162,32,35463,-33,34,127,0,0,3926,-21,0,16390,6293,46,7805,-4,0,266,4,114961,0
114947,-82,-2066,275,-78,40,97,14872,0,0,136,40,35465,-33,34,127,0,0,3926,-21,0,16390,6293,46,7815,-4,0,266,4,114961,0
114957,-70,-2066,273,-71,37,103,14871,6,2,125,0,35469,-32,34,127,0,0,3924,-32,0,16390,6293,46,7825,-4,0,266,4,114961,0
114967,-85,-2071,259,-81,37,101,14870,4,3,77,16,35470,-24,34,127,0,0,3924,-32,0,16390,6293,46,7835,-4,0,266,4,114961,0
114977,-79,-2068,263,-75,35,104,14869,3,1,39,16,35470,-27,34,127,0,0,3924,21,0,16390,6293,46,7845,-4,0,266,4,114961,0
114987,-88,-2075,270,-72,34,103,14869,-5,0,50,16,35468,-51,34,127,0,0,3926,10,0,16390,6293,46,7855,-4,0,266,4,114961,0
114997,-67,-2075,268,-72,37,109,14869,-3,8,56,24,35491,-61,34,127,0,0,3919,-32,0,16390,6293,46,7865,-4,0,266,4,114993,0
115007,-45,-2069,272,-80,36,105,14866,-6,-4,-22,-40,35497,-70,34,127,0,0,3922,-10,0,16390,6293,46,7875,-4,0,266,4,114993,0
115017,-89,-2074,259,-77,36,109,14866,6,-10,14,-48,35495,-49,34,127,0,0,3917,-54,0,16390,6293,46,7885,-4,0,266,4,114993,0
115027,-72,-2075,268,-73,36,115,14863,-18,-3,-79,-24,35483,-43,34,127,0,0,3922,54,0,16390,6293,46,7895,-4,0,266,4,115055,0
115037,-65,-2073,269,-73,37,103,14862,-11,-2,-3,-8,35477,-25,34,127,0,0,3919,0,0,16390,6293,46,7905,-4,0,266,4,115055,0
115047,-83,-2079,271,-76,38,104,14862,-7,8,-44,-32,35476,-25,34,127,0,0,3917,-10,0,16390,6293,46,7915,-4,0,266,4,115055,0
115057,-116,-2071,273,-83,38,118,14862,1,-6,-51,-16,35473,-26,34,127,0,0,3919,-21,0,16390,6293,46,7925,-4,0,266,4,115071,0
115067,-95,-2072,272,-80,34,115,14862,-1,3,-65,-8,35471,-35,34,127,0,0,3922,32,0,16390,6293,46,7935,-4,0,266,4,115071,0
115077,-61,-2077,273,-82,38,107,14862,-4,1,-19,-16,35469,-43,34,127,0,0,3919,-10,0,16390,6293,46,7945,-4,0,266,4,115071,0
115087,-83,-2072,270,-81,41,113,14862,1,-2,-54,-16,35462,-40,34,127,0,0,3919,-10,0,16390,6293,46,7955,-4,0,266,4,115071,0
115097,-92,-2077,273,-87,29,114,14862,4,-2,-95,-8,35465,-29,34,127,0,0,3919,0,0,16390,6293,46,7965,-4,0,266,4,115071,0
115107,-96,-2070,271,-85,35,110,14863,1,5,-61,-56,35472,-19,34,127,0,0,3919,-10,0,16390,6293,46,7975,-4,0,266,4,115102,0
115117,-73,-2062,267,-92,35,104,14860,-6,0,-86,-16,35485,-7,34,127,0,0,3919,10,0,16390,6293,46,7985,-4,0,266,4,115102,0
115127,-104,-2075,262,-93,35,94,14861,4,4,-52,-16,35484,-15,34,127,0,0,3917,-32,0,16390,6293,46,7995,-4,0,266,4,115102,0
115138,-103,-2057,267,-91,35,94,14858,-3,0,-169,-56,35472,-28,34,127,0,0,3918,10,0,16390,6293,46,8006,-4,0,266,4,115149,0
115148,-102,-2076,271,-91,36,89,14857,-7,-3,-165,-56,35471,-34,34,127,0,0,3918,38,0,16390,6293,46,8016,-4,0,266,4,115149,0
115158,-77,-2069,262,-88,40,84,14857,0,5,-182,-56,35480,-27,34,127,0,0,3915,10,0,16390,6293,46,8026,-4,0,266,4,115149,0
115168,-77,-2071,270,-90,37,86,14853,-8,-2,-237,-72,35484,-33,34,127,0,0,3913,-16,0,16390,6293,46,8036,-4,0,266,4,115149,0
115178,-81,-2076,268,-95,41,85,14847,-15,-13,-216,-80,35474,-31,34,127,0,0,3911,-38,0,16390,6293,46,8046,-4,0,266,4,115164,0
115188,-65,-2078,268,-92,36,75,14843,5,0,-176,-48,35471,-40,34,127,0,0,3910,-71,0,16390,6293,46,8056,-4,0,266,4,115180,0
115198,-74,-2072,266,-93,33,89,14835,-30,3,-226,-56,35479,-20,34,127,0,0,3914,27,0,16390,6293,46,8066,-4,0,266,4,115196,0
115208,-95,-2076,266,-94,36,84,14827,-20,-7,-133,-40,35479,-33,34,127,0,0,3911,5,0,16390,6293,46,8076,-4,0,266,4,115196,0
115218,-79,-2078,274,-90,41,80,14822,-14,0,-136,-32,35471,-39,34,127,0,0,3911,0,0,16390,6293,46,8086,-4,0,266,4,115196,0
115228,-75,-2074,272,-91,35,75,14820,-12,10,-136,-32,35464,-37,34,127,0,0,3911,16,0,16390,6293,46,8096,-4,0,266,4,115227,0
115238,-63,-2080,270,-92,35,76,14820,0,16,-118,-48,35473,-32,34,127,0,0,3905,-43,0,16390,6293,46,8106,-4,0,266,4,115227,0
115248,-58,-2076,267,-92,39,78,14813,-13,-8,-203,-40,35474,-23,34,127,0,0,3908,10,0,16390,6293,46,8116,-4,0,266,4,115243,0
115258,-66,-2074,257,-95,33,81,14811,-10,-2,-190,-56,35469,-38,34,127,0,0,3906,10,0,16390,6293,46,8126,-4,0,266,4,115258,0
115268,-76,-2068,262,-91,38,81,14811,-5,11,-224,-56,35474,-41,34,127,0,0,3903,-27,0,16390,6293,46,8136,-4,0,266,4,115258,0
115278,-82,-2068,267,-83,35,77,14810,0,-2,-252,-56,35477,-42,34,127,0,0,3906,38,0,16390,6293,46,8146,-4,0,266,4,115274,0
115288,-69,-2063,261,-91,33,79,14809,-8,-3,-241,-72,35476,-43,34,127,0,0,3904,10,0,16390,6293,46,8156,-4,0,266,4,115274,0
115298,-71,-2064,262,-88,40,79,14808,-3,8,-235,-96,35463,-41,34,127,0,0,3902,-43,0,16390,6293,46,8166,-4,0,266,4,115289,0
115308,-59,-2073,267,-85,32,71,14806,-1,-6,-270,-88,35456,-37,34,127,0,0,3902,-43,0,16390,6293,46,8176,-4,0,266,4,115289,0
115318,-86,-2073,268,-85,33,79,14804,-8,-2,-295,-88,35462,-33,33,127,0,0,3902,-21,0,16390,6293,46,8186,-4,0,266,4,115289,0
115328,-79,-2076,264,-93,29,86,14803,-2,7,-301,-88,35456,-29,33,127,0,0,3895,-65,0,16390,6293,46,8196,-4,0,266,4,115336,0
115338,-68,-2069,265,-89,36,83,14798,-20,-10,-408,-72,35465,-26,34,127,0,0,3895,10,0,16390,6293,46,8206,-4,0,266,4,115336,0
115348,-53,-2075,265,-94,34,85,14797,1,2,-346,-120,35459,-25,34,127,0,0,3897,-76,0,16390,6293,46,8216,-4,0,266,4,115336,0
115358,-86,-2081,261,-84,37,83,14796,3,5,-389,-120,35463,-13,34,127,0,0,3894,-54,0,16390,6293,46,8226,-4,0,266,4,115352,0
115368,-68,-2078,269,-86,31,83,14790,-14,-1,-454,-136,35457,-33,34,127,0,0,3892,-16,0,16390,6293,46,8236,-4,0,266,4,115352,0
115378,-61,-2076,265,-85,35,87,14786,-2,0,-448,-104,35460,-14,34,127,0,0,3891,10,0,16390,6293,46,8246,-4,0,266,4,115352,0
115389,-64,-2072,262,-86,37,88,14780,-20,-4,-451,-136,35456,-37,34,127,0,0,3893,0,0,16390,6293,46,8257,-4,0,266,4,115383,0
115399,-57,-2074,257,-87,33,95,14765,-41,-16,-378,-96,35462,-29,34,127,0,0,3893,0,0,16390,6293,46,8267,-4,0,266,4,115383,0
115409,-82,-2068,259,-77,40,90,14732,-68,-48,-121,-56,35458,-47,34,127,0,0,3893,-10,0,16390,6293,46,8277,-4,0,266,4,115383,0
115419,-61,-2069,256,-77,42,95,14730,-8,25,-176,-24,35463,-43,34,127,0,0,3891,-10,0,16390,6293,46,8287,-4,0,266,4,115414,0
115429,-74,-2075,277,-80,31,100,14731,1,70,-185,-24,35466,-59,34,127,0,0,3891,-21,0,16390,6293,46,8297,-4,0,266,4,115414,0
115439,-68,-2075,269,-77,29,101,14729,-6,1,-228,-56,35463,-68,34,127,0,0,3891,10,0,16390,6293,46,8307,-4,0,266,4,115414,0
115449,-68,-2071,262,-82,36,106,14729,-4,-4,-261,-120,35465,-71,34,127,0,0,3889,-10,0,16390,6293,46,8317,-4,0,266,4,115461,0
115459,-78,-2070,261,-78,36,99,14726,0,-2,-266,-112,35463,-58,34,127,0,0,3889,-10,0,16390,6293,46,8327,-4,0,266,4,115461,0
115469,-59,-2070,268,-83,31,105,14725,-1,11,-262,-72,35464,-78,34,127,0,0,3889,0,0,16390,6293,46,8337,-4,0,266,4,115461,0
115479,-69,-2073,266,-76,28,101,14726,-3,5,-261,-104,35463,-79,34,127,0,0,3886,-32,0,16390,6293,46,8347,-4,0,266,4,115477,0
115489,-72,-2075,268,-83,33,98,14724,0,10,-272,-112,35452,-87,33,127,0,0,3889,0,0,16390,6293,46,8357,-4,0,266,4,115477,0
115499,-71,-2072,271,-82,35,98,14723,-9,-6,-281,-56,35454,-81,33,127,0,0,3886,0,0,16390,6293,46,8367,-4,0,266,4,115477,0
115509,-70,-2069,265,-85,38,95,14723,-5,-1,-311,-88,35457,-49,34,127,0,0,3889,21,0,16390,6293,46,8377,-4,0,266,4,115492,0
115519,-67,-2073,259,-85,30,98,14723,-3,-1,-291,-88,35450,-63,33,127,0,0,3886,0,0,16390,6293,46,8387,-4,0,266,4,115508,0
115529,-70,-2077,264,-87,38,98,14723,1,2,-309,-88,35455,-56,33,127,0,0,3886,0,0,16390,6293,46,8397,-4,0,266,4,115524,0
115539,-62,-2077,258,-78,37,101,14721,-11,-3,-326,-120,35452,-74,34,127,0,0,3884,0,0,16390,6293,46,8407,-4,0,266,4,115524,0
115549,-47,-2073,262,-85,37,100,14717,-11,-12,-356,-136,35467,-75,34,127,0,0,3884,21,0,16390,6293,46,8417,-4,0,266,4,115524,0
115559,-65,-2077,270,-83,36,104,14709,-11,-14,-289,-120,35462,-72,34,127,0,0,3884,-32,0,16390,6293,46,8427,-4,0,266,4,115539,0
115569,-54,-2071,268,-82,30,115,14696,-38,-7,-296,-88,35464,-61,34,127,0,0,3882,0,0,16390,6293,46,8437,-4,0,266,4,115571,0
115579,-73,-2075,267,-77,34,108,14670,-60,-41,-173,-40,35468,-77,34,127,0,0,3882,43,0,16390,6293,46,8447,-4,0,266,4,115571,0
115589,-21,-2072,262,-80,36,102,14669,-6,22,-174,-32,35473,-66,34,127,0,0,3882,43,0,16390,6293,46,8457,-4,0,266,4,115571,0
115599,-48,-2073,260,-81,37,111,14670,0,53,-129,-32,35466,-74,34,127,0,0,3882,0,0,16390,6293,46,8467,-4,0,266,4,115602,0
115609,-73,-2071,264,-82,31,116,14670,5,-2,-132,-32,35465,-93,34,127,0,0,3882,0,0,16390,6293,46,8477,-4,0,266,4,115617,0
115619,-69,-2075,269,-80,41,112,14670,1,-5,-98,-40,35459,-101,34,127,0,0,3882,-10,0,16390,6293,46,8487,-4,0,266,4,115617,0
115629,-54,-2071,273,-81,37,118,14670,-7,-4,-145,-16,35459,-106,34,127,0,0,3880,-32,0,16390,6293,46,8497,-4,0,266,4,115633,0
115640,-51,-2073,262,-79,38,114,14670,3,-2,-158,-32,35451,-94,34,127,0,0,3882,5,0,16390,6293,46,8508,-4,0,266,4,115680,0
115650,-53,-2075,270,-79,35,122,14669,-7,-3,-193,-48,35456,-95,34,127,0,0,3880,16,0,16390,6293,46,8518,-4,0,266,4,115680,0
115660,-53,-2072,270,-85,41,126,14668,-7,0,-209,-56,35463,-84,34,127,0,0,3880,5,0,16390,6293,46,8528,-4,0,266,4,115696,0
115670,-41,-2077,264,-82,37,126,14668,1,4,-247,-80,35462,-84,34,127,0,0,3884,76,0,16390,6293,46,8538,-4,0,266,4,115696,0
115680,-70,-2070,265,-83,36,130,14671,3,3,-125,-56,35463,-84,34,127,0,0,3883,-5,0,16390,6293,46,8548,-4,0,266,4,115696,0
115690,-41,-2072,272,-85,36,128,14668,-11,-1,-166,-48,35462,-98,34,127,0,0,3883,43,0,16390,6293,46,8558,-4,0,266,4,115696,0
115700,-60,-2078,273,-85,38,128,14670,1,-2,-117,-32,35463,-96,34,127,0,0,3882,0,0,16390,6293,46,8568,-4,0,266,4,115696,0
115710,-56,-2065,268,-89,39,124,14667,-7,0,-216,-72,35464,-95,34,127,0,0,3884,71,0,16390,6293,46,8578,-4,0,266,4,115696,0
115720,-82,-2074,271,-89,40,132,14669,-5,-1,-150,-32,35461,-99,34,127,0,0,3882,43,0,16390,6293,46,8588,-4,0,266,4,115696,0
115730,-90,-2075,265,-93,40,118,14670,1,3,-119,-72,35471,-81,34,127,0,0,3881,-27,0,16390,6293,46,8598,-4,0,266,4,115742,0
115740,-128,-2076,263,-87,34,130,14668,1,-3,-207,-72,35472,-86,34,127,0,0,3881,0,0,16390,6293,46,8608,-4,0,266,4,115742,0
115750,-33,-2066,263,-82,43,118,14669,8,8,-171,-56,35474,-71,34,127,0,0,3883,16,0,16390,6293,46,8618,-4,0,266,4,115742,0
115760,-67,-2074,272,-91,40,121,14669,-3,4,-94,-32,35458,-75,34,127,0,0,3882,-27,0,16390,6293,46,8628,-4,0,266,4,115742,0
115770,-24,-2071,272,-89,37,112,14667,-7,-2,-198,-48,35459,-90,34,127,0,0,3880,38,0,16390,6293,46,8638,-4,0,266,4,115758,0
115780,-33,-2072,268,-90,38,112,14669,6,-5,-148,-80,35461,-107,34,127,0,0,3878,-71,0,16390,6293,46,8648,-4,0,266,4,115758,0
115790,-101,-2068,271,-96,31,132,14668,1,7,-197,-48,35471,-110,34,127,0,0,3886,32,0,16390,6293,46,8658,-4,0,266,4,115789,0
115800,-113,-2062,272,-89,25,138,14669,-2,7,-118,-56,35480,-115,34,127,0,0,3883,21,0,16390,6293,46,8668,-4,0,266,4,115789,0
115810,-54,-2083,269,-92,39,108,14668,-5,1,-170,-48,35478,-90,34,127,0,0,3883,43,0,16390,6293,46,8678,-4,0,266,4,115789,0
115820,-76,-2084,265,-91,36,118,14669,-5,-3,-198,-32,35471,-84,34,127,0,0,3882,71,0,16390,6293,46,8688,-4,0,266,4,115836,0
115830,-32,-2081,267,-94,37,112,14666,-17,-7,-165,-48,35471,-79,34,127,0,0,3883,27,0,16390,6293,46,8698,-4,0,266,4,115836,0
115840,-35,-2084,267,-89,43,103,14668,-9,2,-176,-48,35471,-85,34,127,0,0,3880,16,0,16390,6293,46,8708,-4,0,266,4,115836,0
115850,-55,-2062,269,-93,34,106,14667,-4,-7,-248,-72,35474,-86,34,127,0,0,3878,10,0,16390,6293,46,8718,-4,0,266,4,115836,0
115860,-56,-2074,270,-94,34,116,14668,10,-3,-227,-72,35467,-78,34,127,0,0,3878,-43,0,16390,6293,46,8728,-4,0,266,4,115836,0
115870,-47,-2069,269,-96,31,117,14667,-2,1,-250,-48,35463,-78,34,127,0,0,3883,65,0,16390,6293,46,8738,-4,0,266,4,115852,0
115881,-49,-2073,266,-92,37,112,14667,-13,1,-211,-40,35483,-76,34,127,0,0,3878,10,0,16390,6293,46,8749,-4,0,266,4,115867,0
115891,-42,-2074,275,-99,35,112,14666,-4,0,-254,-32,35489,-69,34,127,0,0,3880,43,0,16390,6293,46,8759,-4,0,266,4,115883,0
115901,-68,-2069,271,-103,28,122,14668,-5,-3,-177,-88,35479,-72,34,127,0,0,3882,21,0,16390,6293,46,8769,-4,0,266,4,115883,0
115911,-75,-2069,257,-99,37,124,14666,-18,-5,-196,-48,35468,-75,34,127,0,0,3880,21,0,16390,6293,46,8779,-4,0,266,4,115883,0
115921,-72,-2072,242,-96,34,120,14668,1,-2,-235,-72,35460,-84,34,127,0,0,3882,54,0,16390,6293,46,8789,-4,0,266,4,115914,0
115931,-65,-2069,262,-85,33,121,14668,-5,-3,-216,-72,35471,-79,34,127,0,0,3878,0,0,16390,6293,46,8799,-4,0,266,4,115914,0
115941,-70,-2078,278,-87,32,122,14666,2,0,-239,-48,35474,-89,34,127,0,0,3878,10,0,16390,6293,46,8809,-4,0,266,4,115914,0
115951,-47,-2073,277,-93,37,131,14666,-4,5,-196,-80,35480,-80,34,127,0,0,3882,32,0,16390,6293,46,8819,-4,0,266,4,115961,0
115961,-27,-2065,268,-98,30,131,14666,-12,-5,-200,-72,35477,-75,34,127,0,0,3878,0,0,16390,6293,46,8829,-4,0,266,4,115961,0
115971,-36,-2069,253,-96,37,129,14666,1,1,-248,-72,35474,-83,34,127,0,0,3882,43,0,16390,6293,46,8839,-4,0,266,4,115961,0
115981,-48,-2085,252,-89,38,130,14668,-5,6,-137,-48,35462,-75,34,127,0,0,3878,-43,0,16390,6293,46,8849,-4,0,266,4,115961,0
115991,-39,-2088,260,-90,41,135,14667,-2,1,-219,-48,35473,-87,34,127,0,0,3882,10,0,16390,6293,46,8859,-4,0,266,4,115977,0
116001,-39,-2095,271,-90,36,139,14667,5,-1,-178,-16,35478,-90,34,127,0,0,3882,10,0,16390,6293,46,8869,-4,0,266,4,115992,0
116011,-67,-2100,254,-87,34,143,14667,-1,0,-175,-24,35479,-92,34,127,0,0,3882,32,0,16390,6293,46,8879,-4,0,266,4,115992,0
116021,-69,-2101,269,-84,33,144,14668,1,-7,-158,-16,35466,-106,34,127,0,0,3880,10,0,16390,6293,46,8889,-4,0,266,4,115992,0
116031,-56,-2091,280,-90,38,138,14669,1,-1,-128,-32,35469,-97,34,127,0,0,3882,0,0,16390,6293,46,8899,-4,0,266,4,116024,0
116041,-59,-2080,294,-97,37,151,14667,-2,4,-123,-64,35472,-93,34,127,0,0,3882,-10,0,16390,6293,46,8909,-4,0,266,4,116024,0
116051,-84,-2075,285,-109,32,150,14669,5,-3,-126,-32,35477,-83,34,127,0,0,3882,0,0,16390,6293,46,8919,-4,0,266,4,116039,0
116061,-92,-2060,267,-106,35,139,14668,-3,4,-92,-40,35461,-86,34,127,0,0,3882,-10,0,16390,6293,46,8929,-4,0,266,4,116039,0
116071,-90,-2056,253,-100,36,143,14668,2,0,-123,-64,35460,-63,34,127,0,0,3882,10,0,16390,6293,46,8939,-4,0,266,4,116070,0
116081,-60,-2047,250,-103,34,136,14668,-4,-2,-90,8,35461,-71,34,127,0,0,3882,0,0,16390,6293,46,8949,-4,0,266,4,116070,0
116091,-58,-2053,257,-97,36,131,14668,0,2,-100,-32,35456,-71,34,127,0,0,3884,21,0,16390,6293,46,8959,-4,0,266,4,116086,0
116101,-55,-2062,267,-100,33,138,14670,-6,4,9,-40,35460,-83,34,127,0,0,3886,10,0,16390,6293,46,8969,-4,0,266,4,116086,0
116111,-67,-2053,268,-94,35,149,14672,-2,0,21,8,35460,-91,34,127,0,0,3884,21,0,16390,6293,46,8979,-4,0,266,4,116086,0
116121,-60,-2070,263,-97,35,150,14672,3,2,22,-56,35476,-85,34,127,0,0,3886,0,0,16390,6293,46,8989,-4,0,266,4,116117,0
116131,-66,-2061,265,-99,32,160,14672,2,1,29,-16,35478,-98,34,127,0,0,3886,10,0,16390,6293,46,8999,-4,0,266,4,116117,0
116141,-58,-2059,266,-106,27,166,14672,0,5,73,8,35474,-107,34,127,0,0,3886,-21,0,16390,6293,46,9009,-4,0,266,4,116117,0
116152,-67,-2063,263,-107,35,171,14673,0,-2,63,32,35475,-86,34,127,0,0,3889,32,0,16390,6293,46,9020,-4,0,266,4,116180,0
116162,-69,-2065,263,-99,31,170,14675,2,-1,157,24,35470,-74,34,127,0,0,3889,0,0,16390,6293,46,9030,-4,0,266,4,116195,0
116172,-73,-2069,265,-100,35,175,14676,5,1,192,72,35477,-77,34,127,0,0,3890,-5,0,16390,6293,46,9040,-4,0,266,4,116195,0
116182,-82,-2081,264,-97,40,167,14679,3,-1,238,64,35469,-68,34,127,0,0,3893,16,0,16390,6293,46,9050,-4,0,266,4,116195,0
116192,-82,-2086,261,-100,38,161,14679,-2,-5,269,88,35474,-81,34,127,0,0,3895,38,0,16390,6293,46,9060,-4,0,266,4,116195,0
116202,-84,-2087,271,-100,42,148,14682,8,-3,318,64,35476,-70,34,127,0,0,3896,21,0,16390,6293,46,9070,-4,0,266,4,116195,0
116212,-96,-2092,277,-102,39,136,14684,2,-6,317,80,35473,-79,34,127,0,0,3895,32,0,16390,6293,46,9080,-4,0,266,4,116195,0
116222,-95,-2101,272,-107,35,125,14685,11,-2,353,80,35472,-99,34,127,0,0,3899,32,0,16390,6293,46,9090,-4,0,266,4,116195,0
116232,-106,-2096,267,-108,38,111,14684,-2,1,363,104,35480,-100,34,127,0,0,3894,0,0,16390,6293,46,9100,-4,0,266,4,116211,0
116242,-101,-2085,271,-109,40,95,14685,-2,-3,353,80,35483,-93,34,127,0,0,3895,-5,0,16390,6293,46,9110,-4,0,266,4,116242,0
116252,-100,-2088,274,-114,35,90,14686,0,4,361,96,35482,-75,34,127,0,0,3901,54,0,16390,6293,46,9120,-4,0,266,4,116242,0
116262,-62,-2074,266,-117,33,81,14688,9,11,397,96,35468,-78,34,127,0,0,3894,-16,0,16390,6293,46,9130,-4,0,266,4,116242,0
116272,-71,-2073,253,-121,34,72,14689,11,6,391,136,35456,-85,34,127,0,0,3892,-54,0,16390,6293,46,9140,-4,0,266,4,116258,0
116282,-98,-2071,247,-114,38,79,14691,0,-1,336,112,35460,-95,34,127,0,0,3896,-27,0,16390,6293,46,9150,-4,0,266,4,116274,0
116292,-77,-2061,247,-115,37,71,14691,0,-1,375,88,35460,-92,34,127,0,0,3894,-60,0,16390,6293,46,9160,-4,0,266,4,116274,0
116302,-72,-2068,254,-114,40,70,14693,7,-4,366,88,35463,-86,33,127,0,0,3897,-43,0,16390,6293,46,9170,-4,0,266,4,116305,0
116312,-64,-2063,249,-111,37,71,14693,3,-1,327,88,35462,-87,34,127,0,0,3897,32,0,16390,6293,46,9180,-4,0,266,4,116305,0
116322,-47,-2058,242,-104,36,65,14691,-9,3,331,40,35463,-86,34,127,0,0,3900,21,0,16390,6293,46,9190,-4,0,266,4,116320,0
116332,-69,-2064,250,-99,34,74,14691,0,0,272,40,35461,-82,34,127,0,0,3893,-32,0,16390,6293,46,9200,-4,0,266,4,116320,0
116342,-61,-2062,247,-96,41,76,14689,0,-4,158,48,35463,-84,34,127,0,0,3890,0,0,16390,6293,46,9210,-4,0,266,4,116320,0
116352,-50,-2073,254,-100,38,73,14688,-1,0,143,24,35467,-88,34,127,0,0,3894,5,0,16390,6293,46,9220,-4,0,266,4,116414,0
116362,-55,-2073,256,-91,36,73,14687,-3,3,178,24,35464,-85,34,127,0,0,3891,-5,0,16390,6293,46,9230,-4,0,266,4,116414,0
116372,-80,-2084,249,-88,46,74,14687,-3,0,133,-16,35459,-75,34,127,0,0,3896,0,0,16390,6293,46,9240,-4,0,266,4,116414,0
116382,-76,-2072,258,-91,40,70,14683,-5,-6,74,-8,35448,-73,34,127,0,0,3890,49,0,16390,6293,46,9250,-4,0,266,4,116414,0
116392,-89,-2082,262,-92,43,59,14681,-6,-3,39,16,35451,-80,34,127,0,0,3885,-27,0,16390,6293,46,9260,-4,0,266,4,116430,0
116402,-82,-2072,277,-92,45,41,14682,3,5,-5,-8,35452,-81,34,127,0,0,3883,-32,0,16390,6293,46,9270,-4,0,266,4,116430,0
116412,-80,-2075,274,-95,46,37,14680,-6,-6,-87,-48,35451,-85,34,127,0,0,3885,-32,0,16390,6293,46,9280,-4,0,266,4,116430,0
116422,-83,-2065,271,-100,51,8,14675,2,-7,-106,-16,35454,-82,34,127,0,0,3881,0,0,16390,6293,46,9290,-4,0,266,4,116430,0
116432,-78,-2076,273,-106,45,15,14673,-6,3,-223,-88,35453,-96,34,127,0,0,3881,10,0,16390,6293,46,9300,-4,0,266,4,116430,0
116442,-89,-2073,268,-116,40,-1,14666,-5,-4,-269,-96,35451,-93,34,127,0,0,3875,-10,0,16390,6293,46,9310,-4,0,266,4,116430,0
116453,-72,-2074,270,-118,43,-14,14663,-19,0,-380,-136,35448,-77,34,127,0,0,3869,-43,0,16390,6293,46,9321,-4,0,266,4,116430,0
116463,-72,-2076,272,-124,45,-29,14648,-38,-16,-453,-192,35463,-63,34,127,0,0,3867,-21,0,16390,6293,46,9331,-4,0,266,4,116461,0
116473,-43,-2073,271,-127,40,-27,14612,-102,-57,-347,-112,35466,-61,34,127,0,0,3862,-32,0,16390,6293,46,9341,-4,0,266,4,116461,0
116483,-93,-2079,257,-131,54,-42,14578,-31,-41,-239,-64,35461,-60,34,127,0,0,3860,-10,0,16390,6293,46,9351,-4,0,266,4,116461,0
116493,11,-2075,255,-132,36,-24,14576,-6,77,-391,-136,35452,-78,34,127,0,0,3854,-43,0,16390,6293,46,9361,-4,0,266,4,116477,0
116503,-26,-2074,261,-134,35,-4,14559,-51,31,-463,-112,35448,-57,34,127,0,0,3849,-32,0,16390,6293,46,9371,-4,0,266,4,116492,0
116513,-42,-2080,240,-137,40,-8,14528,-54,-63,-334,-104,35454,-54,34,127,0,0,3847,-21,0,16390,6293,46,9381,-4,0,266,4,116508,0
116523,-29,-2075,250,-133,42,14,14525,-3,31,-432,-176,35460,-52,34,127,0,0,3840,-76,0,16390,6293,46,9391,-4,0,266,4,116508,0
116533,-9,-2063,263,-135,28,29,14518,-22,39,-540,-176,35460,-58,34,127,0,0,3840,0,0,16390,6293,46,9401,-4,0,266,4,116523,0
116543,-13,-2071,263,-140,33,42,14509,-18,-13,-501,-152,35463,-63,34,127,0,0,3836,-65,0,16390,6293,46,9411,-4,0,266,4,116523,0
116553,-11,-2071,252,-138,34,63,14487,-64,-17,-500,-168,35461,-62,34,127,0,0,3836,0,0,16390,6293,46,9421,-4,0,266,4,116523,0
116563,-32,-2075,247,-133,36,69,14448,-64,-62,-274,-88,35464,-57,34,127,0,0,3836,10,0,16390,6293,46,9431,-4,0,266,4,116555,0
116573,-14,-2071,248,-130,36,84,14440,-2,26,-221,-96,35462,-51,34,127,0,0,3832,-65,0,16390,6293,46,9441,-4,0,266,4,116570,0
116583,-3,-2073,259,-134,31,105,14429,-27,60,-278,-104,35458,-61,34,127,0,0,3832,-21,0,16390,6293,46,9451,-4,0,266,4,116570,0
116593,-29,-2080,250,-135,30,122,14409,-47,-14,-189,-24,35452,-64,34,127,0,0,3832,10,0,16390,6293,46,9461,-4,0,266,4,116570,0
116603,2,-2083,235,-132,38,124,14408,2,17,-158,-48,35456,-78,34,127,0,0,3834,21,0,16390,6293,46,9471,-4,0,266,4,116602,0
116613,-17,-2069,234,-127,37,140,14408,-6,43,-91,-24,35457,-78,34,127,0,0,3834,0,0,16390,6293,46,9481,-4,0,266,4,116602,0
116623,-9,-2069,242,-123,36,143,14408,0,-2,-101,-24,35459,-76,34,127,0,0,3834,10,0,16390,6293,46,9491,-4,0,266,4,116602,0
116634,-65,-2075,253,-127,29,145,14409,1,-2,-122,-24,35461,-86,33,127,0,0,3834,32,0,16390,6293,46,9502,-4,0,266,4,116617,0
116644,-61,-2080,256,-124,38,141,14407,-6,2,-115,0,35472,-71,33,127,0,0,3829,-10,0,16390,6293,46,9512,-4,0,266,4,116633,0
116654,-54,-2080,236,-123,46,135,14409,3,-1,-125,-24,35474,-74,34,127,0,0,3830,-16,0,16390,6293,46,9522,-4,0,266,4,116633,0
116664,-57,-2086,236,-115,41,134,14408,8,5,-84,-24,35462,-73,34,127,0,0,3834,-27,0,16390,6293,46,9532,-4,0,266,4,116648,0
116674,-37,-2078,244,-115,37,133,14409,7,0,-72,-24,35459,-68,34,127,0,0,3834,0,0,16390,6293,46,9542,-4,0,266,4,116664,0
116684,-50,-2073,251,-114,38,132,14408,0,-1,-113,-24,35463,-71,34,127,0,0,3834,16,0,16390,6293,46,9552,-4,0,266,4,116664,0
116694,-63,-2084,252,-119,38,129,14409,0,4,-92,-24,35460,-64,34,127,0,0,3834,5,0,16390,6293,46,9562,-4,0,266,4,116773,0
116704,-53,-2080,242,-119,34,135,14409,2,2,-77,0,35457,-66,34,127,0,0,3833,5,0,16390,6293,46,9572,-4,0,266,4,116773,0
116714,-65,-2076,241,-117,38,128,14409,1,0,-88,-24,35449,-70,33,127,0,0,3834,0,0,16390,6293,46,9582,-4,0,266,4,116773,0
116724,-71,-2080,246,-120,38,128,14409,7,3,-55,-24,35454,-68,33,127,0,0,3834,-5,0,16390,6293,46,9592,-4,0,266,4,116773,0
116734,-52,-2075,246,-116,38,135,14407,0,0,-86,-24,35451,-69,34,127,0,0,3830,-32,0,16390,6293,46,9602,-4,0,266,4,116789,0
116744,-35,-2073,247,-114,37,126,14409,9,-1,-89,-24,35448,-77,34,127,0,0,3834,-10,0,16390,6293,46,9612,-4,0,266,4,116789,0
116754,-46,-2077,231,-112,40,136,14408,0,4,-74,-24,35448,-68,34,127,0,0,3830,-32,0,16390,6293,46,9622,-4,0,266,4,116789,0
116764,-31,-2073,227,-107,40,128,14408,1,2,-101,-24,35452,-65,34,127,0,0,3834,-5,0,16390,6293,46,9632,-4,0,266,4,116789,0
116774,-17,-2070,239,-96,39,136,14408,-4,2,-63,0,35453,-77,34,127,0,0,3833,5,0,16390,6293,46,9642,-4,0,266,4,116789,0
116784,-10,-2071,243,-99,45,132,14408,-1,-5,-81,-24,35453,-82,34,127,0,0,3837,32,0,16390,6293,46,9652,-4,0,266,4,116789,0
116794,-20,-2077,241,-103,35,138,14408,-7,-2,-33,-24,35451,-87,34,127,0,0,3834,-5,0,16390,6293,46,9662,-4,0,266,4,116789,0
116804,-37,-2079,240,-97,39,147,14409,2,1,-57,-24,35456,-77,34,127,0,0,3834,-5,0,16390,6293,46,9672,-4,0,266,4,116789,0
116814,-55,-2077,233,-89,43,151,14409,4,1,-81,-24,35469,-57,34,127,0,0,3834,0,0,16390,6293,46,9682,-4,0,266,4,116789,0
116824,-39,-2076,237,-91,47,160,14408,2,-4,-53,-24,35483,-58,34,127,0,0,3834,-16,0,16390,6293,46,9692,-4,0,266,4,116820,0
116834,-40,-2077,245,-89,40,158,14408,1,0,-70,-24,35485,-69,34,127,0,0,3837,27,0,16390,6293,46,9702,-4,0,266,4,116820,0
116844,-54,-2081,247,-92,44,160,14408,-2,-4,-22,0,35476,-77,34,127,0,0,3836,27,0,16390,6293,46,9712,-4,0,266,4,116836,0
116854,-48,-2077,254,-92,39,156,14409,2,1,-31,-24,35470,-73,34,127,0,0,3837,21,0,16390,6293,46,9722,-4,0,266,4,116836,0
116864,-60,-2089,247,-93,35,158,14409,3,4,-1,0,35468,-64,34,127,0,0,3836,0,0,16390,6293,46,9732,-4,0,266,4,116851,0
116874,-47,-2079,249,-96,40,161,14409,0,2,21,0,35472,-77,34,127,0,0,3836,-5,0,16390,6293,46,9742,-4,0,266,4,116851,0
116885,-57,-2076,247,-93,39,155,14410,5,-1,36,16,35470,-78,34,127,0,0,3838,21,0,16390,6293,46,9753,-4,0,266,4,116867,0
116895,-56,-2086,242,-97,40,149,14413,10,0,105,40,35470,-74,34,127,0,0,3840,0,0,16390,6293,46,9763,-4,0,266,4,116883,0
116905,-59,-2073,240,-90,45,146,14412,9,2,183,24,35467,-63,34,127,0,0,3840,-10,0,16390,6293,46,9773,-4,0,266,4,116883,0
116915,-66,-2079,242,-93,45,143,14414,4,3,145,48,35465,-68,33,127,0,0,3843,10,0,16390,6293,46,9783,-4,0,266,4,116898,0
116925,-31,-2074,242,-93,38,135,14414,2,1,203,56,35464,-82,34,127,0,0,3840,-10,0,16390,6293,46,9793,-4,0,266,4,116961,0
116935,-57,-2082,242,-93,39,140,14414,-1,-5,178,56,35466,-98,34,127,0,0,3843,21,0,16390,6293,46,9803,-4,0,266,4,116961,0
116945,-60,-2077,251,-98,40,139,14413,-10,0,219,64,35472,-100,34,127,0,0,3843,0,0,16390,6293,46,9813,-4,0,266,4,116976,0
116955,-62,-2075,249,-96,46,131,14415,-2,2,247,48,35471,-85,34,127,0,0,3840,-32,0,16390,6293,46,9823,-4,0,266,4,116976,0
116965,-57,-2077,242,-103,42,134,14416,0,2,205,56,35465,-84,34,127,0,0,3840,-21,0,16390,6293,46,9833,-4,0,266,4,116976,0
116975,-52,-2066,234,-97,39,130,14416,-1,2,205,56,35463,-67,34,127,0,0,3840,-10,0,16390,6293,46,9843,-4,0,266,4,116976,0
116985,-57,-2082,241,-95,38,132,14414,-4,0,188,72,35464,-74,34,127,0,0,3843,21,0,16390,6293,46,9853,-4,0,266,4,116976,0
116995,-33,-2075,240,-95,34,132,14416,-5,1,252,80,35465,-78,34,127,0,0,3840,-21,0,16390,6293,46,9863,-4,0,266,4,116976,0
117005,-81,-2074,237,-97,40,124,14416,-5,-1,226,80,35469,-48,34,127,0,0,3845,10,0,16390,6293,46,9873,-4,0,266,4,116976,0
117015,-71,-2084,241,-103,39,126,14417,-7,0,249,8,35476,-46,34,127,0,0,3840,-32,0,16390,6293,46,9883,-4,0,266,4,117008,0
117025,-68,-2078,231,-98,37,125,14418,5,-1,202,48,35483,-50,34,127,0,0,3843,0,0,16390,6293,46,9893,-4,0,266,4,117023,0
117035,-64,-2082,244,-95,38,118,14419,5,2,269,40,35473,-71,34,127,0,0,3845,0,0,16390,6293,46,9903,-4,0,266,4,117023,0
117045,-44,-2084,251,-100,34,113,14418,-5,-1,289,72,35470,-94,34,127,0,0,3845,0,0,16390,6293,46,9913,-4,0,266,4,117023,0
117055,-56,-2083,246,-99,37,105,14419,0,-2,285,40,35468,-87,34,127,0,0,3845,0,0,16390,6293,46,9923,-4,0,266,4,117039,0
117065,-51,-2075,238,-99,33,102,14418,-1,3,252,88,35481,-78,34,127,0,0,3843,10,0,16390,6293,46,9933,-4,0,266,4,117055,0
117075,-51,-2069,229,-98,36,93,14418,-2,-7,253,72,35480,-80,34,127,0,0,3843,-10,0,16390,6293,46,9943,-4,0,266,4,117055,0
117085,-105,-2065,231,-98,21,100,14418,0,0,250,0,35480,-86,34,127,0,0,3843,-32,0,16390,6293,46,9953,-4,0,266,4,117148,0
117095,-105,-2067,231,-93,24,101,14419,4,2,247,48,35470,-99,34,127,0,0,3845,0,0,16390,6293,46,9963,-4,0,266,4,117148,0
117105,-36,-2079,228,-92,30,84,14418,-2,5,224,96,35469,-93,33,127,0,0,3843,0,0,16390,6293,46,9973,-4,0,266,4,117164,0
117115,-12,-2076,218,-86,25,72,14418,-4,5,224,88,35464,-91,33,127,0,0,3845,32,0,16390,6293,46,9983,-4,0,266,4,117164,0
117125,-57,-2075,222,-71,29,74,14419,-3,-6,266,40,35462,-93,34,127,0,0,3843,-10,0,16390,6293,46,9993,-4,0,266,4,117164,0
117135,-47,-2073,227,-68,31,77,14417,-5,-5,190,96,35461,-98,34,127,0,0,3843,10,0,16390,6293,46,10003,-4,0,266,4,117164,0
117145,-32,-2078,231,-64,35,82,14419,0,-2,171,24,35461,-93,34,127,0,0,3838,-54,0,16390,6293,46,10013,-4,0,266,4,117164,0
117155,-28,-2083,235,-64,35,80,14417,8,-1,125,-8,35466,-90,34,127,0,0,3840,-21,0,16390,6293,46,10023,-4,0,266,4,117164,0
117165,-12,-2075,233,-63,35,99,14415,-5,4,87,8,35467,-85,34,127,0,0,3838,0,0,16390,6293,46,10033,-4,0,266,4,117164,0
117175,-18,-2080,234,-60,33,111,14416,3,0,66,0,35468,-86,34,127,0,0,3840,21,0,16390,6293,46,10043,-4,0,266,4,117164,0
117186,-5,-2073,238,-51,32,122,14417,2,0,117,32,35463,-86,34,127,0,0,3840,27,0,16390,6293,46,10054,-4,0,266,4,117180,0
117196,-10,-2086,231,-56,43,133,14415,-7,-1,122,8,35468,-85,33,127,0,0,3841,10,0,16390,6293,46,10064,-4,0,266,4,117180,0
117206,-31,-2084,239,-47,37,150,14416,3,-2,155,32,35481,-76,34,127,0,0,3840,0,0,16390,6293,46,10074,-4,0,266,4,117195,0
117216,-23,-2083,235,-53,45,150,14415,-3,1,121,8,35487,-58,34,127,0,0,3835,-54,0,16390,6293,46,10084,-4,0,266,4,117195,0
117226,-60,-2090,255,-48,54,156,14415,7,-3,76,32,35480,-62,34,127,0,0,3837,-27,0,16390,6293,46,10094,-4,0,266,4,117211,0
117236,-39,-2088,265,-56,45,162,14416,4,6,77,8,35475,-70,34,127,0,0,3841,16,0,16390,6293,46,10104,-4,0,266,4,117226,0
117246,-18,-2090,267,-65,48,175,14413,-13,-3,31,16,35473,-90,34,127,0,0,3841,87,0,16390,6293,46,10114,-4,0,266,4,117226,0
117256,-41,-2090,267,-74,47,171,14414,-4,12,130,8,35473,-94,34,127,0,0,3841,21,0,16390,6293,46,10124,-4,0,266,4,117226,0
117266,-61,-2080,258,-82,43,165,14415,0,-4,95,64,35472,-88,34,127,0,0,3839,49,0,16390,6293,46,10134,-4,0,266,4,117242,0
117276,-47,-2077,256,-80,39,164,14416,0,1,170,56,35467,-87,34,127,0,0,3843,10,0,16390,6293,46,10144,-4,0,266,4,117258,0
117286,-74,-2059,250,-79,38,146,14416,0,-6,182,56,35471,-75,34,127,0,0,3839,10,0,16390,6293,46,10154,-4,0,266,4,117273,0
117296,-83,-2055,251,-84,38,126,14415,0,-4,185,56,35464,-80,34,127,0,0,3839,-27,0,16390,6293,46,10164,-4,0,266,4,117305,0
117306,-113,-2063,256,-91,37,118,14417,1,1,197,32,35469,-64,34,127,0,0,3844,-16,0,16390,6293,46,10174,-4,0,266,4,117305,0
117316,-131,-2060,253,-95,38,109,14416,0,0,160,56,35466,-69,33,127,0,0,3843,71,0,16390,6293,46,10184,-4,0,266,4,117305,0
117326,-71,-2074,260,-103,30,80,14417,-1,-3,172,32,35473,-58,34,127,0,0,3840,5,0,16390,6293,46,10194,-4,0,266,4,117305,0
117336,-63,-2082,260,-112,36,74,14415,-1,1,169,56,35464,-83,33,127,0,0,3839,-21,0,16390,6293,46,10204,-4,0,266,4,117320,0
117346,-53,-2076,241,-113,23,69,14414,-13,-2,85,56,35468,-61,34,127,0,0,3843,71,0,16390,6293,46,10214,-4,0,266,4,117336,0
117356,-37,-2068,233,-115,27,66,14417,-3,2,194,32,35463,-60,34,127,0,0,3840,-43,0,16390,6293,46,10224,-4,0,266,4,117336,0
117366,-50,-2054,224,-102,33,49,14416,-8,-2,116,8,35470,-63,34,127,0,0,3838,-27,0,16390,6293,46,10234,-4,0,266,4,117351,0
117376,-82,-2070,218,-95,48,38,14412,-4,-6,10,-8,35468,-72,34,127,0,0,3836,-16,0,16390,6293,46,10244,-4,0,266,4,117351,0
117387,-22,-2058,224,-83,44,55,14411,-12,-1,-100,-32,35470,-94,34,127,0,0,3832,-32,0,16390,6293,46,10255,-4,0,266,4,117367,0
117397,-25,-2087,240,-76,34,68,14407,-6,-4,-169,-48,35470,-86,34,127,0,0,3832,0,0,16390,6293,46,10265,-4,0,266,4,117383,0
117407,-18,-2089,230,-77,30,77,14408,-7,6,-193,-32,35465,-92,34,127,0,0,3827,-43,0,16390,6293,46,10275,-4,0,266,4,117387,0
117417,-25,-2091,229,-72,31,90,14401,-19,-1,-308,-72,35470,-92,34,127,0,0,3825,-10,0,16390,6293,46,10285,-4,0,266,4,117402,0
117427,-31,-2080,229,-62,33,101,14398,-11,-8,-333,-64,35468,-93,34,127,0,0,3825,10,0,16390,6293,46,10295,-4,0,266,4,117512,0
117437,-12,-2074,236,-64,34,112,14398,-4,8,-292,-112,35469,-58,34,127,0,0,3825,-10,0,16390,6293,46,10305,-4,0,266,4,117512,0
117447,-14,-2080,240,-49,30,132,14397,-9,7,-343,-88,35461,-59,33,127,0,0,3825,10,0,16390,6293,46,10315,-4,0,266,4,117512,0
117457,-26,-2078,233,-46,40,140,14397,6,6,-270,-72,35463,-59,33,127,0,0,3827,-10,0,16390,6293,46,10325,-4,0,266,4,117527,0
117467,-40,-2070,236,-42,40,156,14397,4,-1,-260,-104,35466,-89,34,127,0,0,3825,-32,0,16390,6293,46,10335,-4,0,266,4,117527,0
117477,-4,-2067,223,-33,48,161,14397,-2,-1,-294,-56,35465,-85,34,127,0,0,3825,-10,0,16390,6293,46,10345,-4,0,266,4,117527,0
117487,2,-2071,230,-28,40,168,14398,4,4,-281,-40,35463,-90,34,127,0,0,3827,32,0,16390,6293,46,10355,-4,0,266,4,117527,0
117497,-41,-2080,230,-22,44,182,14397,-3,-1,-216,-128,35458,-84,34,127,0,0,3825,0,0,16390,6293,46,10365,-4,0,266,4,117527,0
117507,-22,-2085,248,-17,38,196,14397,0,-1,-221,-120,35453,-80,34,127,0,0,3829,21,0,16390,6293,46,10375,-4,0,266,4,117527,0
117517,-23,-2081,256,-10,40,218,14397,-6,0,-201,-16,35451,-72,34,127,0,0,3829,21,0,16390,6293,46,10385,-4,0,266,4,117527,0
117527,-16,-2095,255,-10,31,233,14400,10,4,-104,-8,35453,-67,34,127,0,0,3836,43,0,16390,6293,46,10395,-4,0,266,4,117527,0
117537,-46,-2104,248,-8,31,243,14402,0,4,35,8,35454,-73,34,127,0,0,3836,0,0,16390,6293,46,10405,-4,0,266,4,117527,0
117547,-61,-2104,257,-1,33,242,14402,2,-3,102,56,35457,-77,34,127,0,0,3843,65,0,16390,6293,46,10415,-4,0,266,4,117527,0
117557,-45,-2104,260,-13,28,236,14412,11,10,261,88,35470,-73,34,127,0,0,3845,10,0,16390,6293,46,10425,-4,0,266,4,117527,0
117567,-69,-2088,264,-15,19,230,14412,-11,-3,308,120,35492,-67,34,127,0,0,3849,54,0,16390,6293,46,10435,-4,0,266,4,117559,0
117577,-80,-2080,259,-25,20,225,14417,14,1,397,120,35499,-69,34,127,0,0,3851,21,0,16390,6293,46,10445,-4,0,266,4,117590,0
117587,-81,-2078,259,-26,17,219,14421,16,10,449,176,35486,-75,34,127,0,0,3851,0,0,16390,6293,46,10455,-4,0,266,4,117590,0
117597,-84,-2069,265,-28,29,206,14431,27,6,501,160,35464,-91,34,127,0,0,3856,-10,0,16390,6293,46,10465,-4,0,266,4,117606,0
117607,-81,-2059,262,-33,18,205,14461,91,46,418,128,35459,-87,34,127,0,0,3862,65,0,16390,6293,46,10475,-4,0,266,4,117606,0
117617,-43,-2062,275,-40,16,206,14497,58,61,303,80,35456,-90,34,127,0,0,3862,32,0,16390,6293,46,10485,-4,0,266,4,117606,0
117627,-100,-2059,267,-48,12,191,14520,45,-22,244,64,35462,-86,34,127,0,0,3862,32,0,16390,6293,46,10495,-4,0,266,4,117606,0
117638,-55,-2058,259,-48,20,183,14541,28,-27,187,64,35465,-80,34,127,0,0,3867,10,0,16390,6293,46,10506,-4,0,266,4,117621,0
117648,-69,-2060,252,-45,22,176,14541,5,-42,271,88,35477,-64,34,127,0,0,3862,-43,0,16390,6293,46,10516,-4,0,266,4,117652,0
117658,-66,-2060,267,-55,28,177,14541,8,-26,236,104,35467,-40,34,127,0,0,3868,27,0,16390,6293,46,10526,-4,0,266,4,117652,0
117668,-54,-2050,272,-55,26,185,14545,3,6,321,104,35463,-53,34,127,0,0,3868,-10,0,16390,6293,46,10536,-4,0,266,4,117652,0
117678,-68,-2057,276,-62,29,178,14545,8,-1,363,104,35452,-55,33,127,0,0,3871,-5,0,16390,6293,46,10546,-4,0,266,4,117668,0
117688,-54,-2074,277,-67,26,182,14549,6,1,404,136,35464,-49,34,127,0,0,3872,-5,0,16390,6293,46,10556,-4,0,266,4,117668,0
117698,-50,-2080,279,-83,22,184,14552,-1,7,396,128,35471,-22,34,127,0,0,3875,16,0,16390,6293,46,10566,-4,0,266,4,117699,0
117708,-61,-2086,278,-89,28,184,14557,15,-3,454,128,35467,-7,34,127,0,0,3879,-16,0,16390,6293,46,10576,-4,0,266,4,117699,0
117718,-76,-2086,272,-94,34,187,14566,30,13,473,152,35469,-13,34,127,0,0,3880,0,0,16390,6293,46,10586,-4,0,266,4,117699,0
117728,-71,-2082,269,-95,27,182,14596,79,44,381,128,35465,-30,34,127,0,0,3882,10,0,16390,6293,46,10596,-4,0,266,4,117731,0
117738,-56,-2085,254,-94,29,190,14618,14,33,318,120,35467,-21,34,127,0,0,3886,27,0,16390,6293,46,10606,-4,0,266,4,117731,0
117748,-109,-2090,253,-97,31,184,14617,-1,-68,430,120,35461,-30,34,127,0,0,3886,10,0,16390,6293,46,10616,-4,0,266,4,117731,0
117758,-85,-2088,252,-91,41,167,14617,1,-40,464,144,35459,-33,34,127,0,0,3889,16,0,16390,6293,46,10626,-4,0,266,4,117746,0
117768,-74,-2091,259,-97,35,163,14621,19,10,545,160,35468,-65,34,127,0,0,3891,-21,0,16390,6293,46,10636,-4,0,266,4,117746,0
117778,-77,-2088,258,-90,33,155,14624,6,11,510,128,35468,-65,34,127,0,0,3889,-10,0,16390,6293,46,10646,-4,0,266,4,117777,0
117788,-92,-2087,245,-90,33,147,14625,0,-6,493,128,35469,-62,34,127,0,0,3892,-5,0,16390,6293,46,10656,-4,0,266,4,117777,0
117798,-96,-2077,239,-81,40,128,14627,-4,-1,499,144,35467,-61,34,127,0,0,3888,-5,0,16390,6293,46,10666,-4,0,266,4,117777,0
117808,-88,-2064,236,-73,36,118,14631,6,0,495,160,35468,-71,34,127,0,0,3893,21,0,16390,6293,46,10676,-4,0,266,4,117793,0
117818,-110,-2063,248,-65,43,108,14643,34,24,450,112,35474,-95,34,127,0,0,3891,-16,0,16390,6293,46,10686,-4,0,266,4,117809,0
117828,-105,-2061,252,-64,38,95,14663,49,31,287,96,35467,-88,34,127,0,0,3890,-27,0,16390,6293,46,10696,-4,0,266,4,117809,0
117838,-83,-2075,245,-56,36,68,14673,4,-13,250,80,35468,-86,34,127,0,0,3890,-16,0,16390,6293,46,10706,-4,0,266,4,117840,0
117848,-79,-2083,257,-56,36,58,14672,0,-42,247,80,35464,-68,34,127,0,0,3893,10,0,16390,6293,46,10716,-4,0,266,4,117840,0
117858,-69,-2072,269,-58,22,53,14670,-11,-11,226,64,35474,-72,34,127,0,0,3891,32,0,16390,6293,46,10726,-4,0,266,4,117840,0
117868,-80,-2073,272,-64,22,52,14671,0,2,218,56,35474,-75,34,127,0,0,3888,-5,0,16390,6293,46,10736,-4,0,266,4,117871,0
117878,-87,-2082,262,-66,31,30,14670,2,-2,207,40,35478,-79,34,127,0,0,3892,10,0,16390,6293,46,10746,-4,0,266,4,117871,0
117888,-78,-2082,256,-67,36,22,14668,-11,-1,163,16,35472,-104,34,127,0,0,3886,-10,0,16390,6293,46,10756,-4,0,266,4,117871,0
117899,-81,-2082,264,-63,34,11,14668,-7,1,53,-48,35476,-95,34,127,0,0,3882,-65,0,16390,6293,46,10767,-4,0,266,4,117887,0
117909,-59,-2092,267,-71,33,8,14660,-25,-20,-116,-72,35474,-83,34,127,0,0,3880,-10,0,16390,6293,46,10777,-4,0,266,4,117887,0
117919,-67,-2091,272,-71,37,11,14656,3,-12,-168,-48,35476,-72,34,127,0,0,3878,0,0,16390,6293,46,10787,-4,0,266,4,117918,0
117929,-46,-2072,258,-66,31,22,14654,-7,29,-232,-72,35482,-80,34,127,0,0,3873,-54,0,16390,6293,46,10797,-4,0,266,4,117918,0
117939,-35,-2071,264,-65,31,33,14640,-44,-16,-314,-56,35478,-83,34,127,0,0,3869,-43,0,16390,6293,46,10807,-4,0,266,4,117934,0
117949,-38,-2058,256,-61,31,41,14607,-84,-65,-108,8,35478,-93,34,127,0,0,3869,-21,0,16390,6293,46,10817,-4,0,266,4,117934,0
117959,-22,-2052,250,-68,37,63,14604,2,11,-133,-88,35467,-88,34,127,0,0,3867,-32,0,16390,6293,46,10827,-4,0,266,4,117965,0
117969,-41,-2051,260,-69,32,74,14601,-6,68,-198,-56,35477,-83,34,127,0,0,3867,-21,0,16390,6293,46,10837,-4,0,266,4,117965,0
117979,-50,-2059,269,-71,39,76,14601,-3,1,-191,-72,35481,-76,34,127,0,0,3864,-54,0,16390,6293,46,10847,-4,0,266,4,117965,0
117989,-62,-2074,264,-73,43,81,14594,-15,-7,-280,-64,35480,-73,34,127,0,0,3864,0,0,16390,6293,46,10857,-4,0,266,4,117965,0
117999,-41,-2067,263,-75,43,81,14595,-2,0,-316,-96,35474,-69,34,127,0,0,3862,-21,0,16390,6293,46,10867,-4,0,266,4,118012,0
118009,-72,-2057,261,-68,35,91,14592,-1,6,-361,-112,35479,-73,34,127,0,0,3860,-10,0,16390,6293,46,10877,-4,0,266,4,118012,0
118019,-77,-2064,253,-66,34,77,14587,-14,-10,-389,-104,35479,-71,34,127,0,0,3860,10,0,16390,6293,46,10887,-4,0,266,4,118012,0
118029,-104,-2078,245,-64,46,58,14583,-6,-5,-377,-112,35475,-67,34,127,0,0,3854,-65,0,16390,6293,46,10897,-4,0,266,4,118012,0
118039,-62,-2083,251,-55,47,35,14577,-13,3,-440,-128,35467,-59,34,127,0,0,3854,-54,0,16390,6293,46,10907,-4,0,266,4,118012,0
118049,-59,-2099,256,-49,49,25,14552,-72,-33,-374,-104,35473,-48,34,127,0,0,3854,10,0,16390,6293,46,10917,-4,0,266,4,118043,0
118059,-101,-2091,255,-45,49,8,14529,-18,-39,-228,-112,35481,-54,34,127,0,0,3849,-43,0,16390,6293,46,10927,-4,0,266,4,118043,0
118069,-44,-2096,261,-43,43,0,14529,0,55,-376,-168,35481,-60,34,127,0,0,3847,-32,0,16390,6293,46,10937,-4,0,266,4,118059,0
118079,-66,-2093,263,-50,43,2,14525,-6,33,-436,-176,35479,-68,34,127,0,0,3840,-54,0,16390,6293,46,10947,-4,0,266,4,118059,0
118089,-51,-2084,262,-40,39,-1,14514,-31,-16,-550,-224,35470,-70,34,127,0,0,3836,-21,0,16390,6293,46,10957,-4,0,266,4,118074,0
118099,-51,-2078,259,-35,42,6,14480,-92,-59,-427,-128,35473,-64,34,127,0,0,3834,-10,0,16390,6293,46,10967,-4,0,266,4,118074,0
118109,-72,-2082,256,-24,40,6,14439,-75,-61,-241,-88,35477,-52,34,127,0,0,3829,-54,0,16390,6293,46,10977,-4,0,266,4,118105,0
118119,-5,-2072,263,-21,29,20,14404,-93,3,-221,-64,35482,-46,33,127,0,0,3825,-10,0,16390,6293,46,10987,-4,0,266,4,118121,0
118129,-16,-2077,256,-25,30,35,14396,2,59,-270,-56,35481,-50,33,127,0,0,3823,-32,0,16390,6293,46,10997,-4,0,266,4,118121,0
118139,-18,-2071,259,-18,25,28,14394,0,75,-365,-112,35475,-59,34,127,0,0,3821,-43,0,16390,6293,46,11007,-4,0,266,4,118121,0
118150,-6,-2069,256,-17,32,35,14391,-11,-2,-435,-152,35468,-78,34,127,0,0,3815,-43,0,16390,6293,46,11018,-4,0,266,4,118121,0
118160,-14,-2070,262,-12,25,50,14385,-9,-8,-455,-168,35472,-85,34,127,0,0,3816,-76,0,16390,6293,46,11028,-4,0,266,4,118152,0
118170,-23,-2056,263,-17,33,75,14378,-23,-7,-511,-152,35477,-78,34,127,0,0,3813,-10,0,16390,6293,46,11038,-4,0,266,4,118152,0
118180,-25,-2062,271,-9,31,91,14361,-44,-17,-430,-136,35479,-66,34,127,0,0,3814,-49,0,16390,6293,46,11048,-4,0,266,4,118152,0
118190,-43,-2068,266,-7,30,92,14339,-52,-29,-323,-96,35472,-54,34,127,0,0,3811,-32,0,16390,6293,46,11058,-4,0,266,4,118184,0
118200,-32,-2078,270,-10,35,100,14333,1,22,-351,-104,35469,-62,34,127,0,0,3812,-43,0,16390,6293,46,11068,-4,0,266,4,118230,0
118210,-25,-2082,282,-12,28,96,14332,1,52,-394,-104,35465,-53,34,127,0,0,3815,32,0,16390,6293,46,11078,-4,0,266,4,118246,0
118220,-39,-2078,285,-16,25,107,14332,-10,5,-389,-104,35467,-43,34,127,0,0,3812,27,0,16390,6293,46,11088,-4,0,266,4,118246,0
118230,-38,-2076,289,-25,28,95,14331,2,-5,-408,-128,35461,-44,34,127,0,0,3813,21,0,16390,6293,46,11098,-4,0,266,4,118262,0
118240,-63,-2066,291,-29,25,93,14327,-9,-2,-434,-120,35465,-47,34,127,0,0,3810,16,0,16390,6293,46,11108,-4,0,266,4,118262,0
118250,-53,-2065,298,-37,29,73,14325,-5,-2,-454,-112,35464,-53,34,127,0,0,3806,0,0,16390,6293,46,11118,-4,0,266,4,118262,0
118260,-68,-2062,296,-43,31,70,14325,3,5,-427,-136,35462,-52,34,127,0,0,3807,-60,0,16390,6293,46,11128,-4,0,266,4,118262,0
118270,-81,-2058,289,-49,34,53,14322,-7,-1,-444,-160,35460,-53,34,127,0,0,3808,-32,0,16390,6293,46,11138,-4,0,266,4,118262,0
118280,-81,-2071,296,-55,34,32,14316,-23,-10,-522,-192,35461,-52,34,127,0,0,3804,16,0,16390,6293,46,11148,-4,0,266,4,118262,0
118290,-78,-2082,282,-62,43,-4,14287,-78,-55,-390,-144,35464,-36,34,127,0,0,3797,-71,0,16390,6293,46,11158,-4,0,266,4,118293,0
118300,-59,-2084,286,-64,42,-30,14241,-95,-73,-254,-96,35475,-15,34,127,0,0,3796,-32,0,16390,6293,46,11168,-4,0,266,4,118309,0
118310,-38,-2080,275,-63,45,-48,14220,-38,16,-179,-72,35472,-12,34,127,0,0,3791,-65,0,16390,6293,46,11178,-4,0,266,4,118309,0
118320,-48,-2074,272,-62,39,-49,14205,-27,62,-317,-112,35472,-8,33,127,0,0,3788,-5,0,16390,6293,46,11188,-4,0,266,4,118309,0
118330,-65,-2072,271,-64,38,-58,14201,0,31,-392,-144,35460,-53,34,127,0,0,3780,-87,0,16390,6293,46,11198,-4,0,266,4,118309,0
118340,-38,-2061,264,-59,41,-65,14193,-32,12,-548,-200,35469,-59,34,127,0,0,3773,-71,0,16390,6293,46,11208,-4,0,266,4,118340,0
118350,-45,-2069,278,-46,49,-79,14178,-36,-19,-645,-248,35474,-68,34,127,0,0,3770,-38,0,16390,6293,46,11218,-4,0,266,4,118340,0
118360,-16,-2067,281,-52,44,-85,14143,-94,-53,-521,-232,35477,-47,34,127,0,0,3766,-49,0,16390,6293,46,11228,-4,0,266,4,118340,0
118370,-53,-2063,282,-55,44,-88,14092,-115,-70,-394,-200,35469,-48,34,127,0,0,3756,-104,0,16390,6293,46,11238,-4,0,266,4,118371,0
118380,7,-2065,273,-56,39,-100,14033,-118,-41,-323,-152,35462,-54,34,127,0,0,3749,-60,0,16390,6293,46,11248,-4,0,266,4,118371,0
118390,6,-2070,278,-53,50,-99,13986,-92,7,-274,-120,35456,-55,34,127,0,0,3746,-49,0,16390,6293,46,11258,-4,0,266,4,118387,0
118400,-34,-2070,266,-51,42,-78,13961,-55,64,-345,-144,35458,-45,34,127,0,0,3736,-49,0,16390,6293,46,11268,-4,0,266,4,118387,0
118411,-19,-2074,267,-39,41,-90,13924,-76,17,-314,-152,35466,-39,34,127,0,0,3730,-76,0,16390,6293,46,11279,-4,0,266,4,118387,0
118421,2,-2083,280,-37,43,-84,13910,-28,15,-442,-192,35475,-64,34,127,0,0,3724,-65,0,16390,6293,46,11289,-4,0,266,4,118418,0
118431,9,-2081,282,-37,43,-87,13882,-86,14,-435,-176,35479,-69,34,127,0,0,3719,-43,0,16390,6293,46,11299,-4,0,266,4,118418,0
118441,-26,-2080,272,-31,41,-90,13844,-74,-46,-421,-216,35469,-80,34,127,0,0,3713,-43,0,16390,6293,46,11309,-4,0,266,4,118434,0
118451,39,-2065,274,-23,44,-94,13795,-112,-34,-320,-160,35459,-89,34,127,0,0,3704,-98,0,16390,6293,46,11319,-4,0,266,4,118434,0
118461,15,-2073,270,-25,44,-82,13768,-51,14,-448,-152,35466,-84,34,127,0,0,3700,-54,0,16390,6293,46,11329,-4,0,266,4,118465,0
118471,-11,-2070,282,-23,37,-84,13741,-65,48,-432,-184,35466,-60,34,127,0,0,3693,-54,0,16390,6293,46,11339,-4,0,266,4,118465,0
118481,7,-2085,274,-14,36,-84,13727,-20,15,-556,-192,35464,-59,34,127,0,0,3689,-43,0,16390,6293,46,11349,-4,0,266,4,118465,0
118491,-2,-2086,281,-10,36,-89,13712,-47,24,-635,-232,35453,-51,34,127,0,0,3682,-32,0,16390,6293,46,11359,-4,0,266,4,118465,0
118501,-5,-2085,288,-5,45,-118,13663,-128,-70,-426,-208,35464,-68,34,127,0,0,3676,-76,0,16390,6293,46,11369,-4,0,266,4,118496,0
118511,-4,-2085,287,-6,40,-113,13602,-139,-86,-335,-160,35465,-74,34,127,0,0,3669,-65,0,16390,6293,46,11379,-4,0,266,4,118496,0
118521,15,-2083,294,-13,39,-120,13563,-86,24,-438,-176,35469,-78,34,127,0,0,3658,-43,0,16390,6293,46,11389,-4,0,266,4,118496,0
118531,-2,-2068,306,-16,34,-161,13522,-81,40,-393,-192,35466,-77,34,127,0,0,3649,-109,0,16390,6293,46,11399,-4,0,266,4,118527,0
118541,21,-2063,293,-17,38,-181,13469,-129,-23,-351,-184,35472,-69,34,127,0,0,3643,-76,0,16390,6293,46,11409,-4,0,266,4,118527,0
118551,-40,-2062,268,-11,41,-170,13426,-90,-2,-365,-200,35470,-49,34,127,0,0,3634,-87,0,16390,6293,46,11419,-4,0,266,4,118527,0
118561,-53,-2053,269,-7,42,-203,13402,-35,56,-503,-200,35472,-40,34,127,0,0,3625,-76,0,16390,6293,46,11429,-4,0,266,4,118621,0
118571,11,-2034,294,-7,36,-226,13379,-74,46,-677,-248,35472,-51,34,127,0,0,3612,-120,0,16390,6293,46,11439,-4,0,266,4,118621,0
118581,-25,-2025,273,2,53,-278,13316,-154,-80,-537,-280,35473,-68,34,127,0,0,3601,-142,0,16390,6293,46,11449,-4,0,266,4,118637,0
118591,-29,-2028,248,8,67,-306,13237,-172,-106,-414,-256,35468,-80,34,127,0,0,3588,-131,0,16390,6293,46,11459,-4,0,266,4,118637,0
118601,-11,-2043,227,31,70,-336,13159,-158,-25,-375,-240,35464,-68,34,127,0,0,3574,-131,0,16390,6293,46,11469,-4,0,266,4,118637,0
118611,-3,-2045,214,54,55,-339,13086,-168,17,-428,-240,35461,-60,34,127,0,0,3559,-153,0,16390,6293,46,11479,-4,0,266,4,118637,0
118621,30,-2025,164,96,56,-378,13013,-165,4,-427,-272,35458,-61,34,127,0,0,3544,-153,0,16390,6293,46,11489,-4,0,266,4,118637,0
118631,-2,-2017,122,130,53,-393,12956,-123,16,-549,-288,35455,-73,34,127,0,0,3531,-142,0,16390,6293,46,11499,-4,0,266,4,118637,0
118641,14,-2023,128,213,71,-464,12892,-157,21,-482,-360,35457,-79,34,127,0,0,3513,-197,0,16390,6293,46,11509,-4,0,266,4,118637,0
118651,-5,-2040,101,261,89,-509,12811,-172,-52,-481,-400,35456,-82,34,127,0,0,3493,-186,0,16390,6293,46,11519,-4,0,266,4,118637,0
118662,38,-2043,265,308,133,-535,12707,-227,-44,-475,-392,35464,-61,34,127,0,0,3471,-214,0,16390,6293,46,11530,-4,0,266,4,118637,0
118672,48,-2093,430,274,149,-547,12611,-203,-30,-455,-392,35477,-60,34,127,0,0,3451,-225,0,16390,6293,46,11540,-4,0,266,4,118668,0
118682,94,-2146,629,185,100,-514,12520,-203,18,-513,-432,35483,-43,34,127,0,0,3433,-219,0,16390,6293,46,11550,-4,0,266,4,118668,0
118692,147,-2173,637,108,54,-496,12420,-216,-7,-444,-392,35478,-48,34,127,0,0,3414,-186,0,16390,6293,46,11560,-4,0,266,4,118668,0
118702,138,-2087,509,41,37,-468,12330,-200,2,-518,-384,35474,-55,34,127,0,0,3400,-131,0,16390,6293,46,11570,-4,0,266,4,118730,0
118712,118,-2081,394,-2,22,-484,12241,-176,17,-528,-384,35466,-48,34,127,0,0,3382,-153,0,16390,6293,46,11580,-4,0,266,4,118730,0
118722,172,-2123,355,-17,43,-442,12160,-177,21,-552,-384,35474,-56,34,127,0,0,3367,-164,0,16390,6293,46,11590,-4,0,266,4,118746,0
118732,179,-2077,326,-10,27,-411,12078,-172,7,-487,-384,35471,-58,34,127,0,0,3348,-219,0,16390,6293,46,11600,-4,0,266,4,118746,0
118742,248,-2060,301,-6,24,-360,11995,-191,-7,-532,-352,35474,-60,34,127,0,0,3342,-76,0,16390,6293,46,11610,-4,0,266,4,118746,0
118752,238,-2070,295,12,50,-329,11910,-167,-5,-427,-280,35476,-60,34,127,0,0,3323,-126,0,16390,6293,46,11620,-4,0,266,4,118746,0
118762,257,-2027,335,13,35,-229,11843,-139,37,-502,-256,35474,-53,34,127,0,0,3318,-76,0,16390,6293,46,11630,-4,0,266,4,118746,0
118772,293,-2038,387,3,23,-141,11794,-106,66,-572,-248,35476,-55,34,127,0,0,3310,-54,0,16390,6293,46,11640,-4,0,266,4,118746,0
118782,301,-2072,407,-22,1,-32,11745,-112,21,-446,-184,35479,-47,34,127,0,0,3309,27,0,16390,6293,46,11650,-4,0,266,4,118777,0
118792,264,-2033,374,-27,-4,23,11700,-74,11,-318,-120,35479,-27,34,127,0,0,3306,10,0,16390,6293,46,11660,-4,0,266,4,118777,0
118802,238,-2037,323,-48,20,85,11701,-3,116,-385,-120,35477,-22,34,127,0,0,3310,32,0,16390,6293,46,11670,-4,0,266,4,118777,0
118812,210,-2051,309,-51,26,104,11702,4,69,-378,-144,35477,-33,34,127,0,0,3307,-5,0,16390,6293,46,11680,-4,0,266,4,118808,0
118822,231,-2023,299,-31,28,126,11701,0,-4,-401,-120,35478,-46,34,127,0,0,3306,27,0,16390,6293,46,11690,-4,0,266,4,118808,0
118832,199,-2006,265,-19,27,151,11701,-3,1,-401,-120,35477,-57,34,127,0,0,3303,-27,0,16390,6293,46,11700,-4,0,266,4,118824,0
118842,140,-2010,278,-3,32,160,11701,7,-2,-401,-120,35469,-45,34,127,0,0,3310,21,0,16390,6293,46,11710,-4,0,266,4,118824,0
118852,124,-2021,324,-6,46,150,11702,2,4,-360,-120,35476,-43,33,127,0,0,3306,-5,0,16390,6293,46,11720,-4,0,266,4,118840,0
118862,160,-2016,375,-7,50,158,11701,1,-1,-384,-120,35482,-34,34,127,0,0,3306,0,0,16390,6293,46,11730,-4,0,266,4,118840,0
118872,171,-2041,377,-28,35,176,11702,2,6,-391,-120,35479,-27,34,127,0,0,3306,0,0,16390,6293,46,11740,-4,0,266,4,118871,0
118882,144,-2122,446,-71,20,173,11702,2,2,-382,-120,35471,-44,34,127,0,0,3306,-5,0,16390,6293,46,11750,-4,0,266,4,118871,0
118892,121,-2087,486,-100,26,164,11702,3,-2,-377,-120,35467,-50,33,127,0,0,3306,-5,0,16390,6293,46,11760,-4,0,266,4,118871,0
118903,171,-2052,425,-148,26,168,11701,3,0,-368,-96,35471,-51,33,127,0,0,3311,21,0,16390,6293,46,11771,-4,0,266,4,118887,0
118913,249,-2078,327,-181,42,195,11703,4,2,-280,-80,35476,-40,34,127,0,0,3309,-32,0,16390,6293,46,11781,-4,0,266,4,118980,0
118923,233,-2131,354,-172,26,248,11702,5,-5,-346,-64,35478,-34,34,127,0,0,3311,32,0,16390,6293,46,11791,-4,0,266,4,118980,0
118933,224,-2109,374,-192,1,343,11702,-2,-2,-267,-72,35480,-43,34,127,0,0,3315,54,0,16390,6293,46,11801,-4,0,266,4,118980,0
118943,268,-2085,381,-204,11,355,11708,32,8,-45,8,35472,-54,34,127,0,0,3322,32,0,16390,6293,46,11811,-4,0,266,4,118996,0
118953,188,-1998,340,-223,-11,425,11714,0,15,67,88,35469,-52,34,127,0,0,3328,98,0,16390,6293,46,11821,-4,0,266,4,118996,0
118963,130,-2087,354,-261,-24,441,11725,27,3,335,136,35463,-45,34,127,0,0,3337,76,0,16390,6293,46,11831,-4,0,266,4,118996,0
118973,52,-2127,429,-279,-13,364,11741,31,22,437,184,35463,-38,34,127,0,0,3348,120,0,16390,6293,46,11841,-4,0,266,4,118996,0
118983,-31,-2139,439,-305,4,289,11775,106,41,424,184,35465,-39,34,127,0,0,3348,32,0,16390,6293,46,11851,-4,0,266,4,118996,0
118993,-42,-2098,384,-316,-19,207,11817,82,61,305,144,35464,-41,34,127,0,0,3355,43,0,16390,6293,46,11861,-4,0,266,4,118996,0
119003,-59,-2092,312,-335,-28,161,11859,81,7,209,72,35459,-51,34,127,0,0,3355,21,0,16390,6293,46,11871,-4,0,266,4,118996,0
119013,-81,-2081,253,-309,-28,40,11869,0,-67,227,16,35456,-60,34,127,0,0,3355,0,0,16390,6293,46,11881,-4,0,266,4,118996,0
119023,-68,-2084,272,-283,-48,-25,11869,1,-88,246,56,35468,-72,34,127,0,0,3353,-32,0,16390,6293,46,11891,-4,0,266,4,119011,0
119033,-109,-2074,331,-274,-77,-190,11869,8,-14,155,-8,35489,-91,34,127,0,0,3348,-54,0,16390,6293,46,11901,-4,0,266,4,119043,0
119043,-148,-2065,357,-273,-56,-307,11864,-12,-10,-90,-88,35498,-91,34,127,0,0,3339,-87,0,16390,6293,46,11911,-4,0,266,4,119043,0
119053,-142,-2058,318,-291,-20,-477,11845,-45,-32,-285,-144,35486,-81,34,127,0,0,3326,-153,0,16390,6293,46,11921,-4,0,266,4,119043,0
119063,-74,-2064,275,-281,-34,-552,11822,-49,-39,-541,-296,35470,-56,34,127,0,0,3311,-142,0,16390,6293,46,11931,-4,0,266,4,119043,0
119073,51,-2041,249,-233,-85,-633,11767,-155,-62,-551,-272,35461,-47,34,127,0,0,3295,-164,0,16390,6293,46,11941,-4,0,266,4,119043,0
119083,15,-2099,270,-200,-90,-672,11686,-180,-119,-475,-288,35477,-44,34,127,0,0,3280,-131,0,16390,6293,46,11951,-4,0,266,4,119074,0
119093,168,-2106,307,-98,-145,-704,11615,-148,-30,-558,-368,35482,-49,34,127,0,0,3262,-164,0,16390,6293,46,11961,-4,0,266,4,119074,0
119103,321,-2149,250,-47,-184,-640,11534,-191,2,-523,-328,35479,-45,34,127,0,0,3249,-131,0,16390,6293,46,11971,-4,0,266,4,119074,0
119113,461,-2059,267,54,-351,-502,11460,-149,-12,-585,-320,35474,-57,34,127,0,0,3238,-98,0,16390,6293,46,11981,-4,0,266,4,119105,0
119123,778,-1788,512,229,-700,-433,11392,-155,42,-496,-280,35474,-51,34,127,0,0,3229,-76,0,16390,6293,46,11991,-4,0,266,4,119105,0
119134,1055,-2036,638,423,-1455,-172,11329,-139,18,-516,-280,35474,-48,34,127,0,0,3221,-60,0,16390,6293,46,12002,-4,0,266,4,119105,0
119144,813,-2187,731,343,-1646,146,11269,-132,12,-436,-160,35472,-46,34,127,0,0,3221,27,0,16390,6293,46,12012,-4,0,266,4,119136,0
119154,270,-1987,603,97,-1480,324,11241,-18,52,-349,-80,35466,-30,34,127,0,0,3223,38,0,16390,6293,46,12022,-4,0,266,4,119152,0
119164,292,-2013,318,-89,-1122,335,11244,7,126,-232,-40,35464,-31,34,127,0,0,3231,60,0,16390,6293,46,12032,-4,0,266,4,119152,0
119174,437,-1878,-31,-164,-657,385,11249,-1,60,-97,24,35458,-24,34,127,0,0,3231,65,0,16390,6293,46,12042,-4,0,266,4,119152,0
119184,492,-1763,-139,-194,-456,460,11255,-1,6,-25,-16,35463,-34,34,127,0,0,3232,-16,0,16390,6293,46,12052,-4,0,266,4,119168,0
119194,471,-1767,-159,-256,-153,585,11254,-12,-13,-142,-32,35466,-21,34,127,0,0,3229,38,0,16390,6293,46,12062,-4,0,266,4,119183,0
119204,277,-1918,-321,-432,34,642,11254,-2,-8,-174,-80,35464,-18,34,127,0,0,3222,-82,0,16390,6293,46,12072,-4,0,266,4,119183,0
119214,-29,-2235,332,-307,185,690,11251,3,-5,-300,-80,35466,-7,34,127,0,0,3225,-10,0,16390,6293,46,12082,-4,0,266,4,119215,0
119224,-150,-2202,336,-231,174,626,11251,-3,5,-267,-80,35469,-33,34,127,0,0,3228,5,0,16390,6293,46,12092,-4,0,266,4,119215,0
119234,-223,-2181,638,-319,138,527,11253,12,12,-159,-32,35469,-38,34,127,0,0,3229,27,0,16390,6293,46,12102,-4,0,266,4,119215,0
119244,-174,-2143,627,-386,76,422,11256,4,7,-54,-16,35463,-53,34,127,0,0,3242,82,0,16390,6293,46,12112,-4,0,266,4,119230,0
119254,-188,-2139,490,-449,90,205,11262,25,15,143,16,35468,-64,34,127,0,0,3239,27,0,16390,6293,46,12122,-4,0,266,4,119230,0
119264,-123,-2110,370,-458,82,103,11263,3,3,100,16,35466,-60,34,127,0,0,3236,5,0,16390,6293,46,12132,-4,0,266,4,119261,0
119274,92,-2077,251,-449,71,-19,11264,5,-13,44,-8,35468,-38,34,127,0,0,3234,-21,0,16390,6293,46,12142,-4,0,266,4,119261,0
119284,78,-2063,161,-422,49,-69,11259,-17,-4,-123,-96,35460,-37,34,127,0,0,3225,-82,0,16390,6293,46,12152,-4,0,266,4,119261,0
119294,73,-2068,28,-320,38,-114,11252,-20,-11,-390,-128,35458,-32,34,127,0,0,3214,-71,0,16390,6293,46,12162,-4,0,266,4,119277,0
119304,95,-2068,-34,-230,51,-143,11243,-31,-17,-569,-200,35460,-41,34,127,0,0,3202,-148,0,16390,6293,46,12172,-4,0,266,4,119355,0
119314,189,-2051,-9,-98,89,-149,11211,-94,-46,-642,-288,35461,-26,33,127,0,0,3199,-93,0,16390,6293,46,12182,-4,0,266,4,119371,0
119324,235,-2045,68,-49,97,-139,11160,-101,-81,-532,-256,35463,-22,34,127,0,0,3189,-65,0,16390,6293,46,12192,-4,0,266,4,119371,0
119334,326,-2046,266,-9,67,-69,11107,-95,-32,-455,-208,35456,-45,34,127,0,0,3182,-60,0,16390,6293,46,12202,-4,0,266,4,119371,0
119344,335,-2097,358,-13,46,11,11082,-57,59,-570,-184,35449,-64,34,127,0,0,3177,-38,0,16390,6293,46,12212,-4,0,266,4,119371,0
119354,278,-2112,410,-44,23,77,11062,-43,63,-616,-208,35449,-65,34,127,0,0,3177,10,0,16390,6293,46,12222,-4,0,266,4,119386,0
119364,280,-2083,371,-61,25,112,11060,5,41,-675,-216,35451,-52,33,127,0,0,3175,-38,0,16390,6293,46,12232,-4,0,266,4,119386,0
119374,264,-2078,286,-77,19,163,11058,-1,36,-681,-192,35459,-54,33,127,0,0,3173,-43,0,16390,6293,46,12242,-4,0,266,4,119386,0
119384,262,-2066,233,-75,26,192,11056,-3,5,-692,-232,35456,-42,34,127,0,0,3179,-5,0,16390,6293,46,12252,-4,0,266,4,119386,0
119395,209,-2083,205,-55,51,212,11056,-1,3,-607,-216,35456,-39,34,127,0,0,3175,-43,0,16390,6293,46,12263,-4,0,266,4,119386,0
119405,204,-2052,256,-41,65,221,11054,1,2,-615,-184,35457,-31,34,127,0,0,3177,0,0,16390,6293,46,12273,-4,0,266,4,119386,0
119415,194,-2027,284,-47,65,228,11054,0,3,-575,-152,35469,-26,34,127,0,0,3179,10,0,16390,6293,46,12283,-4,0,266,4,119418,0
119425,157,-2016,279,-67,72,224,11056,7,5,-572,-200,35483,-34,34,127,0,0,3179,21,0,16390,6293,46,12293,-4,0,266,4,119418,0
119435,125,-2042,288,-64,71,218,11055,3,-4,-562,-136,35472,-26,34,127,0,0,3181,32,0,16390,6293,46,12303,-4,0,266,4,119418,0
119445,138,-2058,284,-65,88,200,11056,6,2,-465,-152,35460,-29,34,127,0,0,3181,0,0,16390,6293,46,12313,-4,0,266,4,119449,0
119455,151,-2064,295,-68,84,186,11056,2,-1,-477,-144,35463,-23,34,127,0,0,3183,32,0,16390,6293,46,12323,-4,0,266,4,119449,0
119465,159,-2091,339,-81,78,176,11054,-5,0,-423,-128,35464,-28,34,127,0,0,3183,0,0,16390,6293,46,12333,-4,0,266,4,119449,0
119475,169,-2085,319,-108,81,172,11057,2,0,-415,-136,35463,-35,34,127,0,0,3183,-10,0,16390,6293,46,12343,-4,0,266,4,119449,0
119485,183,-2092,293,-130,75,164,11055,3,-2,-404,-136,35454,-46,34,127,0,0,3186,0,0,16390,6293,46,12353,-4,0,266,4,119480,0
119495,176,-2100,283,-132,71,162,11057,-5,1,-385,-136,35456,-36,34,127,0,0,3183,0,0,16390,6293,46,12363,-4,0,266,4,119480,0
119505,157,-2080,275,-127,53,155,11057,6,-4,-403,-104,35456,-38,34,127,0,0,3186,21,0,16390,6293,46,12373,-4,0,266,4,119527,0
119515,143,-2075,275,-126,51,145,11057,7,1,-360,-104,35462,-44,34,127,0,0,3186,-21,0,16390,6293,46,12383,-4,0,266,4,119527,0
119525,136,-2073,266,-118,33,136,11057,0,1,-379,-72,35458,-48,33,127,0,0,3183,-21,0,16390,6293,46,12393,-4,0,266,4,119527,0
119535,145,-2072,275,-117,41,117,11056,-2,1,-396,-104,35460,-58,34,127,0,0,3183,-21,0,16390,6293,46,12403,-4,0,266,4,119527,0
119545,147,-2067,299,-123,18,97,11057,-4,1,-388,-104,35451,-64,34,127,0,0,3186,-10,0,16390,6293,46,12413,-4,0,266,4,119527,0
119555,138,-2071,330,-137,-2,90,11057,-4,-2,-383,-104,35456,-67,34,127,0,0,3186,0,0,16390,6293,46,12423,-4,0,266,4,119543,0
119565,119,-2079,326,-166,-11,64,11056,-6,1,-382,-104,35464,-63,34,127,0,0,3188,21,0,16390,6293,46,12433,-4,0,266,4,119543,0
119575,93,-2058,322,-194,-27,43,11056,0,0,-357,-104,35471,-40,34,127,0,0,3186,-10,0,16390,6293,46,12443,-4,0,266,4,119574,0
119585,93,-2071,279,-199,-15,-20,11057,-2,-2,-405,-96,35477,-33,34,127,0,0,3183,0,0,16390,6293,46,12453,-4,0,266,4,119574,0
119595,82,-2040,248,-190,-6,-73,11057,5,0,-437,-112,35474,-34,34,127,0,0,3179,-43,0,16390,6293,46,12463,-4,0,266,4,119574,0
119605,97,-2043,262,-170,1,-131,11056,-4,-2,-598,-216,35470,-47,34,127,0,0,3172,-65,0,16390,6293,46,12473,-4,0,266,4,119605,0
119615,139,-2041,254,-156,29,-139,11049,-17,-15,-737,-304,35464,-38,33,127,0,0,3164,-87,0,16390,6293,46,12483,-4,0,266,4,119605,0
119625,265,-2030,238,-150,37,-118,11013,-105,-60,-677,-288,35463,-33,34,127,0,0,3159,-54,0,16390,6293,46,12493,-4,0,266,4,119605,0
119635,268,-2025,253,-148,28,-73,10952,-131,-107,-430,-208,35460,-38,34,127,0,0,3150,-65,0,16390,6293,46,12503,-4,0,266,4,119621,0
119646,297,-2022,259,-161,7,14,10914,-29,18,-499,-208,35465,-37,34,127,0,0,3149,16,0,16390,6293,46,12514,-4,0,266,4,119652,0
119656,319,-2016,280,-174,-8,62,10908,-12,113,-613,-192,35466,-26,34,127,0,0,3143,-32,0,16390,6293,46,12524,-4,0,266,4,119652,0
119666,258,-2033,272,-184,2,123,10896,-35,27,-603,-192,35465,-19,34,127,0,0,3144,0,0,16390,6293,46,12534,-4,0,266,4,119668,0
119676,231,-2035,260,-187,16,145,10879,-36,-27,-441,-152,35460,-47,34,127,0,0,3144,-16,0,16390,6293,46,12544,-4,0,266,4,119699,0
119686,228,-2048,251,-187,39,162,10874,-1,11,-444,-136,35459,-72,34,127,0,0,3144,-10,0,16390,6293,46,12554,-4,0,266,4,119699,0
119696,224,-2058,267,-176,43,170,10873,5,35,-421,-120,35464,-80,34,127,0,0,3143,-38,0,16390,6293,46,12564,-4,0,266,4,119699,0
119706,217,-2038,230,-169,36,202,10872,0,6,-432,-136,35460,-73,34,127,0,0,3150,27,0,16390,6293,46,12574,-4,0,266,4,119714,0
119716,194,-2081,244,-171,33,218,10871,-8,2,-374,-96,35462,-60,34,127,0,0,3148,60,0,16390,6293,46,12584,-4,0,266,4,119714,0
119726,178,-2099,260,-172,33,210,10874,9,0,-303,-80,35464,-72,34,127,0,0,3150,21,0,16390,6293,46,12594,-4,0,266,4,119714,0
119736,167,-2116,251,-171,38,210,10873,0,1,-255,-56,35471,-80,34,127,0,0,3153,43,0,16390,6293,46,12604,-4,0,266,4,119714,0
119746,670,-2069,166,-193,105,-48,10873,-3,-4,-138,-16,35480,-79,34,127,0,0,3160,65,0,16390,6293,46,12614,-4,0,266,4,119746,0
119756,890,-2054,19,-212,129,-315,10876,2,0,-39,-64,35482,-79,34,127,0,0,3149,-126,0,16390,6293,46,12624,-4,0,266,4,119746,0
119766,249,-2052,182,-98,22,51,10870,-18,-17,-402,-200,35479,-66,34,127,0,0,3134,-131,0,16390,6293,46,12634,-4,0,266,4,119746,0
119776,177,-2006,351,-88,-48,275,10856,-38,-36,-569,-152,35474,-68,34,127,0,0,3139,71,0,16390,6293,46,12644,-4,0,266,4,119761,0
119786,372,-2248,236,-115,91,88,10852,-4,5,-453,-96,35472,-72,34,127,0,0,3147,82,0,16390,6293,46,12654,-4,0,266,4,119793,0
119796,625,-2113,27,-121,182,-193,10854,-1,31,-292,-104,35477,-66,34,127,0,0,3144,-38,0,16390,6293,46,12664,-4,0,266,4,119793,0
119806,631,-1963,209,-87,106,-218,10853,-3,-3,-455,-232,35480,-61,34,127,0,0,3131,-148,0,16390,6293,46,12674,-4,0,266,4,119793,0
119816,542,-1956,360,-82,-19,107,10826,-95,-58,-607,-216,35475,-72,34,127,0,0,3123,-5,0,16390,6293,46,12684,-4,0,266,4,119793,0
119826,314,-2106,303,-134,1,125,10785,-60,-79,-400,-136,35473,-77,34,127,0,0,3126,-10,0,16390,6293,46,12694,-4,0,266,4,119824,0
119836,462,-2083,118,-141,87,-32,10781,-5,67,-461,-152,35471,-79,34,127,0,0,3124,-65,0,16390,6293,46,12704,-4,0,266,4,119824,0
119846,719,-1908,84,-107,83,-210,10779,-4,67,-556,-192,35473,-82,34,127,0,0,3116,-76,0,16390,6293,46,12714,-4,0,266,4,119824,0
119856,494,-1985,183,-83,24,-79,10762,-54,-32,-593,-216,35471,-80,34,127,0,0,3113,-54,0,16390,6293,46,12724,-4,0,266,4,119855,0
119866,346,-1963,262,-87,2,3,10732,-50,-50,-556,-200,35485,-88,34,127,0,0,3109,21,0,16390,6293,46,12734,-4,0,266,4,119855,0
119876,386,-2008,188,-98,14,-32,10729,-2,44,-682,-192,35484,-73,34,127,0,0,3109,0,0,16390,6293,46,12744,-4,0,266,4,119871,0
119886,493,-1990,106,-88,27,-155,10728,-1,54,-667,-192,35483,-63,34,127,0,0,3109,-27,0,16390,6293,46,12754,-4,0,266,4,119871,0
119897,435,-2028,151,-70,10,-176,10725,-18,-2,-792,-280,35477,-64,34,127,0,0,3100,-43,0,16390,6293,46,12765,-4,0,266,4,119871,0
119907,362,-2049,216,-60,-21,-179,10704,-58,-42,-743,-272,35487,-59,34,127,0,0,3093,-65,0,16390,6293,46,12775,-4,0,266,4,119902,0
119917,285,-2056,265,-64,-42,-224,10662,-94,-76,-548,-232,35489,-37,34,127,0,0,3089,-21,0,16390,6293,46,12785,-4,0,266,4,119902,0
119927,261,-2091,282,-88,-54,-284,10630,-67,-17,-547,-208,35485,-36,34,127,0,0,3084,-32,0,16390,6293,46,12795,-4,0,266,4,119918,0
119937,239,-2083,260,-115,-40,-402,10600,-48,16,-473,-160,35486,-42,34,127,0,0,3076,-87,0,16390,6293,46,12805,-4,0,266,4,119933,0
119947,300,-2122,287,-124,-51,-417,10587,-42,26,-713,-248,35480,-65,34,127,0,0,3069,-65,0,16390,6293,46,12815,-4,0,266,4,119933,0
119957,315,-2129,326,-141,-77,-474,10543,-119,-22,-501,-208,35482,-74,33,127,0,0,3065,-54,0,16390,6293,46,12825,-4,0,266,4,119949,0
119967,276,-2136,305,-152,-84,-506,10502,-82,-57,-494,-256,35480,-73,34,127,0,0,3054,-109,0,16390,6293,46,12835,-4,0,266,4,119949,0
119977,278,-2060,285,-175,-136,-596,10458,-93,-3,-519,-224,35479,-86,34,127,0,0,3045,-87,0,16390,6293,46,12845,-4,0,266,4,119949,0
119987,241,-2142,209,-180,-181,-632,10418,-109,0,-546,-304,35489,-78,34,127,0,0,3036,-76,0,16390,6293,46,12855,-4,0,266,4,119996,0
119997,20,-2164,288,-202,-207,-768,10371,-91,-3,-475,-264,35483,-50,34,127,0,0,3021,-164,0,16390,6293,46,12865,-4,0,266,4,119996,0
120007,-96,-2303,367,-216,-177,-924,10322,-97,-13,-611,-288,35480,-45,34,127,0,0,3012,-87,0,16390,6293,46,12875,-4,0,266,4,119996,0
120017,-87,-2381,372,-185,-171,-1100,10281,-109,18,-775,-320,35475,-47,34,127,0,0,2994,-153,0,16390,6293,46,12885,-4,0,266,4,119996,0
120027,-123,-2285,303,-241,-228,-1145,10221,-157,-33,-680,-328,35475,-43,34,127,0,0,2990,-43,0,16390,6293,46,12895,-4,0,266,4,120089,0
120037,-1,-2227,242,-263,-312,-1243,10149,-146,-69,-437,-240,35486,-56,34,127,0,0,2986,-10,0,16390,6293,46,12905,-4,0,266,4,120089,0
120047,-3,-2243,115,-249,-309,-1324,10127,-11,77,-571,-176,35483,-51,34,127,0,0,2983,0,0,16390,6293,46,12915,-4,0,266,4,120089,0
120057,67,-2260,91,-230,-254,-1435,10124,-7,142,-700,-224,35479,-58,34,127,0,0,2983,0,0,16390,6293,46,12925,-4,0,266,4,120089,0
120067,144,-2251,100,-237,-195,-1515,10111,-26,2,-543,-208,35468,-62,34,127,0,0,2981,-32,0,16390,6293,46,12935,-4,0,-32,0,120089,0
120077,287,-2164,163,-221,-221,-1583,10090,-51,-35,-447,-152,35467,-65,34,127,0,0,2981,0,0,16390,6293,46,12945,-4,0,-32,0,120105,0
120087,348,-2194,226,-209,-283,-1607,10083,0,10,-447,-136,35467,-65,34,127,0,0,2983,21,0,16390,6293,46,12955,-4,0,-32,0,120105,0
120097,314,-2274,366,-244,-358,-1586,10083,-1,39,-383,-120,35468,-65,34,127,0,0,2988,54,0,16390,6293,46,12965,-4,0,-31,0,120105,0
120107,287,-2280,447,-274,-406,-1604,10085,10,20,-189,-40,35469,-65,34,127,0,0,2994,54,0,16390,6293,46,12975,-4,0,-31,0,120105,0
120117,196,-2359,458,-313,-442,-1644,10087,4,4,19,56,35465,-66,34,127,0,0,3008,153,0,16390,6293,46,12985,-4,0,-31,0,120105,0
120127,150,-2352,431,-331,-478,-1658,10113,72,46,361,184,35468,-76,34,127,0,0,3027,175,0,16390,6293,46,12995,-4,0,-31,0,120105,0
120138,131,-2385,367,-381,-599,-1726,10189,169,130,354,288,35485,-72,34,127,0,0,3054,258,0,16390,6293,46,13006,-4,0,-30,0,120121,0
120148,72,-2475,396,-435,-655,-1831,10272,195,101,504,424,35492,-69,34,127,0,0,3091,340,0,16390,6293,46,13016,-4,0,-30,0,120183,0
120158,-95,-2647,429,-534,-697,-1966,10399,290,110,422,512,35497,-66,34,127,0,0,3123,406,0,16390,6293,46,13026,-4,0,-29,0,120183,0
120168,-177,-2752,513,-617,-699,-2127,10537,309,105,461,616,35481,-54,34,127,0,0,3166,422,0,16390,6293,46,13036,-4,0,-29,0,120183,0
120178,-311,-2884,543,-693,-723,-2382,10694,365,56,479,736,35471,-51,34,127,0,0,3213,472,0,16390,6293,46,13046,-4,0,-28,0,120183,0
120188,-464,-2941,517,-732,-727,-2572,10874,397,92,489,936,35460,-64,34,127,0,0,3266,516,0,16390,6293,46,13056,-4,0,-27,0,120199,0
120198,-512,-2902,352,-733,-760,-2848,11073,442,72,559,1160,35457,-60,34,127,0,0,3325,648,0,16390,6293,46,13066,-4,0,-26,0,120199,0
120208,-363,-2760,111,-690,-532,-3056,11313,550,110,540,1328,35459,-61,34,127,0,0,3390,626,0,16390,6293,46,13076,-4,0,-25,0,120199,0
120218,-67,-3054,118,-356,-959,-3208,11579,616,132,549,1536,35454,-54,34,127,0,0,3466,802,0,16390,6293,46,13086,-4,0,-23,0,120199,0
120228,4,-3038,54,-236,-1158,-3205,11878,675,115,627,1848,35461,-46,34,127,0,0,3559,972,0,16390,6293,46,13096,-4,0,-22,0,120230,0
120238,55,-2973,324,-132,-1224,-3282,12228,810,156,691,2224,35476,-50,34,127,0,0,3669,1082,0,16390,6293,46,13106,-4,0,-20,0,120230,0
120248,79,-2906,195,-317,-1118,-3361,12640,946,220,731,2552,35480,-44,34,127,0,0,3773,1082,0,16390,6293,46,13116,-4,0,-18,0,120230,0
120258,830,-2795,462,-478,-985,-3632,13110,1075,230,665,2832,35471,-15,34,127,0,0,3884,1076,0,16390,6293,46,13126,-4,0,-16,0,120246,0
120268,814,-2792,633,-640,-829,-3813,13636,1182,216,606,2776,35460,-10,34,127,0,0,3961,741,0,16390,6293,46,13136,-4,0,-14,0,120246,0
120278,1081,-2095,718,-943,-748,-3562,14157,1130,105,413,2528,35453,-5,34,127,0,0,4038,785,0,16390,6293,46,13146,-4,0,-12,0,120277,0
120288,1040,-1674,605,-1128,-788,-3308,14651,1059,-62,355,2240,35464,-5,34,127,0,0,4108,703,0,16390,6293,46,13156,-4,0,-10,0,120277,0
120298,811,-1190,329,-1154,-805,-2741,15104,967,-136,371,2064,35458,-6,34,127,0,0,4184,719,0,16390,6293,46,13166,-4,0,-7,0,120277,0
120308,453,-459,180,-855,-650,-2178,15514,869,-155,415,1808,35460,-14,34,127,0,0,4223,373,0,16390,6293,46,13176,-4,0,-5,0,120292,0
120318,853,-582,-374,-418,-79,-1378,15871,738,-181,247,1032,35456,-29,34,127,0,0,4202,-357,0,16390,6293,46,13186,-4,0,-2,0,120308,0
120328,-26,-333,-67,-51,110,-559,16112,408,-318,-130,-296,35469,-31,34,127,0,0,4106,-944,0,16390,6293,46,13196,-4,0,-1,0,120308,0
120338,-395,-242,-49,482,179,962,16014,-409,-872,-837,-1088,35474,-40,34,127,0,0,4016,-944,0,16390,6293,46,13206,-4,0,2,0,120308,0
120348,-860,-132,154,733,105,1757,15752,-627,-985,-490,-1504,35467,-55,34,127,0,0,3926,-873,0,16390,6293,46,13216,-4,0,4,0,120339,0
120358,-855,65,235,914,61,3035,15417,-784,-426,-452,-1792,35462,-60,34,127,0,0,3841,-851,0,16390,6293,46,13226,-4,0,8,0,120339,0
120368,-613,-82,106,939,146,3913,15035,-857,-230,-368,-1760,35459,-61,34,127,0,0,3777,-637,0,16390,6293,46,13236,-4,0,10,0,120355,0
120378,-522,-392,-85,1038,291,5354,14651,-831,-99,-230,-1592,35465,-57,34,127,0,0,3726,-516,0,16390,6293,46,13246,-4,0,15,0,120355,0
120388,-590,-553,-98,1130,444,6152,14296,-747,56,-166,-1224,35457,-60,34,127,0,0,3700,-263,0,16390,6293,46,13256,-4,0,18,0,120449,0
120399,-481,-854,30,1142,784,7026,13968,-616,168,-132,-808,35468,-64,34,127,0,0,3673,-208,0,16390,6293,46,13267,-4,0,23,0,120449,0
120409,-228,-1331,93,1054,1248,7802,13730,-492,209,-150,-584,35472,-60,34,127,0,0,3656,-197,0,16390,6293,46,13277,-4,0,27,0,120449,0
120419,-91,-1630,118,970,1569,8308,13544,-377,204,-176,-392,35474,-63,34,127,0,0,3640,-120,0,16390,6293,46,13287,-4,0,32,0,120465,0
120429,-41,-1945,166,842,1999,8898,13400,-287,176,-147,-200,35464,-58,34,127,0,0,3632,-43,0,16390,6293,46,13297,-4,0,36,0,120465,0
120439,21,-2126,220,773,2209,9144,13325,-114,207,-86,-48,35457,-63,34,127,0,0,3632,32,0,16390,6293,46,13307,-4,0,42,0,120465,0
120449,27,-2435,264,711,2442,9390,13319,15,270,-1,0,35452,-58,34,127,0,0,3634,21,0,16390,6293,46,13317,-4,0,46,0,120465,0
120459,182,-2631,224,640,2524,9507,13327,33,164,188,168,35450,-64,34,127,0,0,3656,219,0,16390,6293,46,13327,-4,0,52,0,120465,0
120469,202,-2868,264,631,2565,9621,13386,157,120,429,360,35451,-65,34,127,0,0,3684,296,0,16390,6293,46,13337,-4,0,57,0,120465,0
120479,248,-2972,270,674,2582,9524,13498,273,196,466,536,35451,-71,34,127,0,0,3719,318,0,16390,6293,46,13347,-4,0,63,25,120465,0
120489,361,-3011,363,706,2528,9276,13636,323,144,474,592,35457,-71,34,127,0,0,3755,318,0,16390,6293,46,13357,-4,0,67,22,120465,0
120499,465,-3024,476,681,2414,9047,13790,356,79,435,576,35469,-60,34,127,0,0,3779,241,0,16390,6293,46,13367,-4,0,73,18,120496,0
120509,482,-3016,637,562,2211,8568,13945,334,38,399,480,35485,-48,34,127,0,0,3794,131,0,16390,6293,46,13377,-4,0,76,16,120512,0
120519,444,-3048,745,456,2066,8171,14082,276,-40,294,256,35492,-47,34,127,0,0,3799,32,0,16390,6293,46,13387,-4,0,81,15,120512,0
120529,448,-3023,724,370,1886,7478,14176,179,-116,203,80,35477,-47,34,127,0,0,3799,0,0,16390,6293,46,13397,-4,0,84,14,120512,0
120539,446,-2911,695,404,1775,6986,14212,2,-187,-51,-8,35467,-58,34,127,0,0,3796,-32,0,16390,6293,46,13407,-4,0,89,13,120543,0
120549,305,-2537,525,618,1610,6009,14200,-2,-224,5,-8,35471,-58,34,127,0,0,3794,-32,0,16390,6293,46,13417,-4,0,91,12,120543,0
120559,478,-2257,364,816,1476,5349,14200,-16,-56,-127,-48,35473,-63,34,127,0,0,3792,-21,0,16390,6293,46,13427,-4,0,94,12,120543,0
120569,499,-1767,308,968,1208,4294,14200,7,18,-192,-40,35476,-58,34,127,0,0,3790,-10,0,16390,6293,46,13437,-4,0,96,12,120543,0
120579,420,-1596,355,941,1048,3456,14199,3,7,-196,-88,35468,-73,34,127,0,0,3790,-32,0,16390,6293,46,13447,-4,0,99,11,120574,0
120589,332,-1867,374,917,856,2114,14198,1,-1,-206,-32,35474,-77,34,127,0,0,3790,-32,0,16390,6293,46,13457,-4,0,100,11,120574,0
120599,412,-2070,309,779,809,1171,14199,11,5,-167,-64,35470,-77,34,127,0,0,3794,21,0,16390,6293,46,13467,-4,0,100,11,120574,0
120609,404,-4874,-128,-593,1481,719,14210,55,12,245,680,35464,-77,34,127,0,0,3928,1647,0,16390,6293,46,13477,-4,0,100,11,120606,0
120619,-226,-3050,505,272,1963,-1076,14439,748,421,1609,2664,35462,-67,34,127,0,0,4166,2482,0,16390,6293,46,13487,-4,0,100,11,120606,0
120629,-780,-1197,-826,230,2643,-3008,15008,1432,1105,1295,3600,35458,-38,34,127,0,0,4333,1582,0,16390,6293,46,13497,-4,0,100,11,120606,0
120640,35,-2440,-196,-187,2153,-2844,15782,1570,859,699,3720,35447,6,34,127,0,0,4484,1312,0,2854,243,47,0,1,0,100,11,120621,0
120650,-273,-2668,125,-116,617,-2318,16489,1530,204,472,3568,35444,36,33,127,0,0,4598,1159,0,2854,243,47,10,1,0,100,11,120637,0
120660,-422,-2723,-57,46,-158,-2506,17161,1462,-78,471,3448,35456,20,34,127,0,0,4713,1104,0,2854,243,47,20,1,0,100,11,120637,0
120670,354,-2720,-627,-149,-833,-3463,17809,1387,-112,355,3088,35465,-4,34,127,0,0,4787,785,0,2854,243,47,30,1,0,100,11,120652,0
120680,326,-3283,-490,-183,-1280,-3352,18392,1224,-168,241,2584,35462,-13,34,127,0,0,4848,637,0,2854,243,47,40,1,0,100,11,120668,0
120690,187,-2636,86,-1,-1833,-3170,18886,1043,-289,277,2064,35457,-16,34,127,0,0,4887,340,0,2854,243,47,50,1,0,100,11,120668,0
120700,31,-2507,515,121,-1676,-3335,19296,829,-323,196,1432,35465,-5,34,127,0,0,4891,-5,0,2854,243,47,60,1,0,100,11,120684,0
120710,494,-2337,712,195,-651,-3798,19604,605,-364,100,616,35468,-18,34,127,0,0,4863,-362,0,2854,243,47,70,1,0,100,11,120699,0
120720,237,-1751,467,264,-49,-3886,19769,233,-453,-445,-344,35473,-31,34,127,0,0,4798,-686,0,2854,243,47,80,1,0,100,11,120699,0
120730,347,-2087,347,227,320,-3580,19649,-366,-818,-654,-920,35462,-48,34,127,0,0,4732,-708,0,2854,243,47,90,1,0,100,11,120715,0
120740,679,-2276,422,244,-85,-3113,19423,-548,-752,-420,-1192,35469,-47,34,127,0,0,4673,-565,0,2854,243,47,100,1,0,100,11,120731,0
120750,355,-2192,507,170,-272,-2912,19151,-628,-286,-423,-1504,35479,-40,34,127,0,0,4581,-845,0,2854,243,47,110,1,0,100,11,120731,0
120760,223,-2143,298,99,-226,-2776,18829,-735,-181,-531,-1776,35476,-38,34,127,0,0,4502,-785,0,2854,243,47,120,1,0,100,11,120746,0
120770,-117,-2190,40,238,-68,-2681,18462,-827,-175,-419,-1880,35470,-31,34,127,0,0,4419,-818,0,2854,243,47,130,1,0,100,11,120840,0
120780,-417,-1802,39,317,21,-2466,18113,-871,-124,-428,-2008,35460,-26,34,127,0,0,4337,-763,0,2854,243,47,140,1,0,100,11,120840,0
120790,-109,-1955,279,298,-16,-2171,17710,-891,-73,-341,-1912,35468,-35,34,127,0,0,4265,-714,0,2854,243,47,150,1,0,100,11,120855,0
120800,-12,-1966,393,259,-11,-2088,17317,-846,-1,-306,-1808,35472,-50,34,127,0,0,4206,-642,0,2854,243,47,160,1,0,100,11,120855,0
120810,6,-2065,432,223,51,-2016,16946,-811,71,-297,-1680,35468,-35,34,127,0,0,4144,-637,0,2854,243,47,170,1,0,100,11,120855,0
120820,56,-1976,408,264,67,-1982,16590,-774,68,-308,-1616,35457,-44,34,127,0,0,4086,-604,0,2854,243,47,180,1,0,100,11,120855,0
120830,4,-2032,394,325,25,-1745,16250,-746,58,-311,-1536,35456,-44,34,127,0,0,4027,-554,0,2854,243,47,190,1,0,100,11,120855,0
120840,-23,-2056,561,334,-14,-1593,15920,-706,44,-283,-1392,35459,-44,34,127,0,0,3973,-483,0,2854,243,47,200,1,0,100,11,120855,0
120850,-72,-2069,587,202,-62,-1474,15605,-675,56,-297,-1296,35465,-44,34,127,0,0,3933,-433,0,2854,243,47,210,1,0,100,11,120855,0
120860,-50,-2159,543,131,-27,-1496,15314,-624,71,-272,-1160,35460,-39,34,127,0,0,3888,-461,0,2854,243,47,220,1,0,100,11,120855,0
120870,-9,-2117,452,85,25,-1501,15053,-567,93,-350,-1104,35462,-52,34,127,0,0,3840,-422,0,2854,243,47,230,1,0,100,11,120855,0
120880,11,-2104,396,76,28,-1463,14795,-563,120,-378,-1104,35465,-50,34,127,0,0,3792,-461,0,2854,243,47,240,1,0,100,11,120871,0
120891,146,-1996,170,102,-8,-1383,14514,-559,-20,-356,-1088,35488,-52,34,127,0,0,3744,-439,0,2854,243,47,251,1,0,100,11,120871,0
120901,192,-1965,36,180,-21,-1271,14272,-524,-29,-369,-1016,35493,-46,34,127,0,0,3702,-406,0,2854,243,47,261,1,0,100,11,120887,0
120911,134,-1972,133,240,-2,-1233,14035,-510,35,-342,-920,35491,-52,34,127,0,0,3665,-395,0,2854,243,47,271,1,0,100,11,120887,0
120921,131,-2065,384,242,52,-1190,13811,-482,33,-336,-904,35486,-47,34,127,0,0,3627,-373,0,2854,243,47,281,1,0,100,11,120934,0
120931,244,-2084,491,212,60,-1142,13602,-448,55,-393,-912,35491,-53,34,127,0,0,3590,-362,0,2854,243,47,291,1,0,100,11,120934,0
120941,358,-2053,471,115,-22,-1051,13399,-447,37,-361,-832,35485,-52,34,127,0,0,3557,-362,0,2854,243,47,301,1,0,100,11,120934,0
120951,352,-2030,327,121,-67,-959,13211,-410,28,-377,-760,35478,-51,34,127,0,0,3526,-285,0,2854,243,47,311,1,0,100,11,120949,0
120961,248,-1972,129,171,-68,-872,13028,-395,37,-370,-696,35464,-44,34,127,0,0,3500,-285,0,2854,243,47,321,1,0,100,11,120949,0
120971,227,-1988,192,232,6,-861,12863,-355,46,-436,-664,35473,-49,34,127,0,0,3471,-285,0,2854,243,47,331,1,0,100,11,120949,0
120981,291,-1966,370,243,47,-847,12700,-350,37,-394,-600,35479,-55,34,127,0,0,3445,-263,0,2854,243,47,341,1,0,100,11,120980,0
120991,328,-2004,485,207,16,-775,12548,-319,22,-425,-568,35478,-57,34,127,0,0,3418,-241,0,2854,243,47,351,1,0,100,11,120980,0
121001,373,-2048,530,120,-38,-716,12410,-299,49,-401,-536,35472,-45,34,127,0,0,3396,-208,0,2854,243,47,361,1,0,100,11,120980,0
121011,376,-2080,482,82,-43,-714,12282,-286,45,-469,-480,35473,-51,34,127,0,0,3375,-197,0,2854,243,47,371,1,0,100,11,121012,0
121021,336,-2085,447,54,-17,-739,12166,-251,43,-535,-504,35468,-56,34,127,0,0,3348,-241,0,2854,243,47,381,1,0,100,11,121012,0
121031,349,-2014,462,26,-10,-723,12045,-270,9,-523,-496,35468,-52,34,127,0,0,3326,-241,0,2854,243,47,391,1,0,100,11,121012,0
121041,365,-1993,430,11,-29,-624,11915,-279,-30,-444,-504,35468,-47,34,127,0,0,3306,-186,0,2854,243,47,401,1,0,100,11,121012,0
121051,393,-1997,347,13,-46,-574,11796,-252,4,-469,-448,35482,-44,34,127,0,0,3287,-208,0,2854,243,47,411,1,0,100,11,121043,0
121061,413,-1993,343,4,-20,-543,11682,-251,33,-416,-408,35486,-38,34,127,0,0,3273,-142,0,2854,243,47,421,1,0,100,11,121043,0
121071,391,-2075,388,-14,-7,-505,11587,-202,53,-510,-368,35479,-19,34,127,0,0,3258,-120,0,2854,243,47,431,1,0,100,11,121043,0
121081,382,-2106,443,-39,-39,-477,11494,-178,47,-447,-392,35474,-27,34,127,0,0,3243,-175,0,2854,243,47,441,1,0,100,11,121074,0
121091,375,-2127,455,-65,-68,-404,11417,-168,31,-526,-328,35471,-44,34,127,0,0,3229,-98,0,2854,243,47,451,1,0,100,11,121074,0
121101,311,-2077,428,-104,-55,-390,11337,-169,23,-444,-272,35474,-70,33,127,0,0,3214,-120,0,2854,243,47,461,1,0,100,11,121074,0
121111,366,-2045,382,-113,-26,-422,11258,-172,6,-415,-272,35471,-67,34,127,0,0,3205,-120,0,2854,243,47,471,1,0,100,11,121090,0
121121,416,-2027,365,-104,-45,-420,11191,-148,24,-453,-304,35473,-64,34,127,0,0,3192,-120,0,2854,243,47,481,1,0,100,11,121105,0
121131,357,-2017,424,-109,-85,-352,11124,-158,12,-435,-248,35482,-52,34,127,0,0,3183,-54,0,2854,243,47,491,1,0,100,11,121199,0
121142,336,-2081,468,-137,-107,-326,11071,-98,33,-487,-216,35487,-33,34,127,0,0,3173,-49,0,2854,243,47,502,1,0,100,11,121199,0
121152,355,-2029,453,-168,-90,-368,11047,-42,88,-642,-256,35479,-34,34,127,0,0,3168,-71,0,2854,243,47,512,1,0,100,11,121199,0
121162,385,-2068,387,-179,-130,-405,11014,-103,31,-632,-272,35464,-34,34,127,0,0,3159,-60,0,2854,243,47,522,1,0,100,11,121199,0
121172,310,-2026,354,-181,-138,-450,10957,-125,-72,-426,-264,35460,-37,34,127,0,0,3145,-164,0,2854,243,47,532,1,0,100,11,121199,0
121182,198,-2060,408,-194,-173,-523,10905,-89,-31,-470,-248,35464,-58,34,127,0,0,3136,-126,0,2854,243,47,542,1,0,100,11,121215,0
121192,202,-2100,477,-187,-238,-566,10865,-108,41,-537,-256,35465,-52,34,127,0,0,3124,-109,0,2854,243,47,552,1,0,100,11,121215,0
121202,185,-2111,575,-164,-351,-652,10813,-125,-5,-573,-296,35463,-63,34,127,0,0,3115,-131,0,2854,243,47,562,1,0,100,11,121215,0
121212,182,-2116,596,-194,-403,-732,10749,-131,-44,-469,-256,35459,-61,34,127,0,0,3103,-120,0,2854,243,47,572,1,0,100,11,121215,0
121222,175,-2149,500,-267,-494,-853,10706,-71,26,-597,-256,35459,-62,34,127,0,0,3091,-126,0,2854,243,47,582,1,0,100,11,121215,0
121232,125,-2200,422,-306,-473,-895,10664,-104,43,-578,-256,35467,-61,34,127,0,0,3086,-82,0,2854,243,47,592,1,0,100,11,121215,0
121242,102,-2069,230,-300,-373,-1097,10618,-106,-13,-536,-272,35482,-50,34,127,0,0,3075,-109,0,2854,243,47,602,1,0,100,11,121215,0
121252,126,-2031,120,-291,-324,-1220,10568,-112,-12,-588,-344,35489,-60,34,127,0,0,3060,-137,0,2854,243,47,612,1,0,100,11,121246,0
121262,165,-1995,107,-307,-301,-1355,10494,-163,-52,-502,-336,35480,-63,34,127,0,0,3047,-93,0,2854,243,47,622,1,0,100,11,121262,0
121272,164,-2030,160,-317,-282,-1471,10414,-167,-59,-489,-344,35466,-68,34,127,0,0,3026,-186,0,2854,243,47,632,1,0,100,11,121293,0
121282,58,-2108,294,-344,-289,-1666,10329,-193,-20,-509,-368,35457,-64,34,127,0,0,3003,-170,0,2854,243,47,642,1,0,100,11,121293,0
121292,3,-2154,382,-336,-288,-1792,10253,-166,0,-675,-408,35465,-57,34,127,0,0,2983,-225,0,2854,243,47,652,1,0,100,11,121293,0
121302,71,-2219,501,-327,-333,-2045,10161,-214,-11,-537,-440,35468,-48,34,127,0,0,2965,-219,0,2854,243,47,662,1,0,100,11,121293,0
121312,97,-2213,546,-308,-366,-2223,10067,-216,-36,-593,-480,35479,-42,34,127,0,0,2937,-241,0,2854,243,47,672,1,0,100,11,121293,0
121322,189,-2182,529,-322,-454,-2448,9954,-259,-34,-575,-496,35472,-50,34,127,0,0,2910,-269,0,2854,243,47,682,1,0,0,0,121293,0
121332,230,-2235,479,-335,-539,-2553,9840,-248,-48,-588,-520,35482,-59,34,127,0,0,2883,-274,0,2854,243,47,692,1,0,1,0,121340,0
121342,144,-2185,507,-319,-658,-2623,9721,-273,-11,-516,-536,35484,-71,34,127,0,0,2860,-307,0,2854,243,47,702,1,0,1,0,121340,0
121352,64,-2218,495,-358,-823,-2499,9595,-281,-23,-493,-376,35476,-58,34,127,0,0,2858,-5,0,2854,243,47,712,1,0,1,0,121355,0
121362,-143,-2316,828,-478,-896,-2696,9506,-140,46,-349,-184,35460,-51,34,127,0,0,2858,0,0,2854,243,47,722,1,0,2,0,121355,0
121372,-247,-2863,880,-606,-981,-2801,9482,-11,199,-407,-136,35452,-53,34,127,0,0,2859,16,0,2854,243,47,732,1,0,3,0,121355,0
121382,-198,-2739,788,-608,-1000,-3144,9483,5,179,-448,-144,35469,-64,34,127,0,0,2863,71,0,2854,243,47,742,1,0,4,0,121355,0
121393,278,-2619,296,-591,-1113,-3732,9487,11,35,-286,-64,35483,-44,34,127,0,0,2863,0,0,2854,243,47,753,1,0,5,0,121387,0
121403,267,-2617,206,-422,-1286,-3881,9486,1,0,-294,-96,35486,-47,34,127,0,0,2860,-65,0,2854,243,47,763,1,0,6,0,121387,0
121413,-231,-2628,267,-251,-1482,-3949,9486,-2,-5,-379,-72,35469,-45,34,127,0,0,2865,43,0,2854,243,47,773,1,0,7,0,121387,0
121423,-322,-2774,290,-216,-1522,-3891,9489,18,7,-169,64,35460,-71,34,127,0,0,2889,274,0,2854,243,47,783,1,0,8,0,121449,0
121433,-242,-2926,218,-234,-1340,-4130,9533,135,82,388,320,35464,-77,34,127,0,0,2924,362,0,2854,243,47,793,1,0,10,0,121449,0
121443,-254,-2769,104,-237,-1294,-4153,9639,258,200,478,552,35469,-72,34,127,0,0,2975,516,0,2854,243,47,803,1,0,12,0,121465,0
121453,-1,-2676,-47,-171,-1442,-4140,9787,354,185,518,896,35460,-61,33,127,0,0,3043,714,0,2854,243,47,813,1,0,14,0,121465,0
121463,80,-2830,126,-170,-1685,-4091,9987,496,178,614,1280,35448,-62,34,127,0,0,3137,955,0,2854,243,47,823,1,0,17,0,121465,0
121473,95,-3072,575,-65,-1986,-4181,10265,673,248,773,1832,35441,-42,34,127,0,0,3251,1142,0,2854,243,47,833,1,0,19,0,121465,0
121483,62,-3065,569,-69,-2008,-4216,10645,905,342,775,2320,35439,-43,34,127,0,0,3375,1252,0,2854,243,47,843,1,0,23,0,121465,0
121493,19,-2747,793,-208,-2376,-4608,11112,1079,372,738,2792,35448,-13,34,127,0,0,3502,1263,0,2854,243,47,853,1,0,25,0,121465,0
121503,221,-3337,622,-56,-2327,-4974,11644,1191,289,566,2880,35459,-2,34,127,0,0,3612,1109,0,2854,243,47,863,1,0,29,0,121558,0
121513,546,-3227,456,221,-2186,-5302,12189,1199,145,455,2912,35468,-7,34,127,0,0,3713,999,0,2854,243,47,873,1,0,32,0,121558,0
121523,662,-2966,411,203,-2360,-5294,12724,1163,3,436,2856,35462,-8,34,127,0,0,3807,977,0,2854,243,47,883,1,0,36,0,121558,0
121533,848,-2645,554,94,-2841,-4886,13248,1152,-36,520,2912,35444,-17,34,127,0,0,3915,1098,0,2854,243,47,893,1,0,39,0,121558,0
121543,842,-2458,380,-154,-3194,-4536,13799,1240,29,642,3104,35434,-11,34,127,0,0,4045,1296,0,2854,243,47,903,1,0,44,0,121558,0
121553,623,-2217,628,-382,-3597,-3941,14398,1360,141,698,3352,35434,-6,34,127,0,0,4187,1483,0,2854,243,47,913,1,0,47,0,121558,0
121563,486,-2012,725,-354,-3827,-3515,15056,1482,207,675,3544,35432,10,34,127,0,0,4339,1527,0,2854,243,47,923,1,0,53,0,121558,0
121573,472,-1143,806,-203,-3954,-2821,15758,1572,201,734,3800,35432,14,34,127,0,0,4491,1494,0,2854,243,47,933,1,0,56,0,121558,0
121583,1764,-1275,238,-340,-2956,-3190,16486,1585,134,481,3464,35433,21,34,127,0,0,4552,472,0,2854,243,47,943,1,0,62,0,121574,0
121593,1209,-1678,148,-453,-1627,-2716,17121,1287,-117,27,1832,35455,-7,34,127,0,0,4495,-659,0,2854,243,47,953,0,0,66,0,121574,0
121603,987,-1605,28,-241,-907,-1860,17560,799,-552,-401,-144,35478,-39,34,127,0,0,4390,-1109,0,2854,243,47,963,0,0,71,0,121590,0
121613,584,-1224,-1,-35,-220,-625,17504,-427,-1332,-1351,-1184,35485,-52,34,127,0,0,4291,-999,0,2854,243,47,973,0,0,75,0,121590,0
121623,-23,-837,258,147,-71,-185,17228,-664,-1415,-609,-1720,35472,-42,34,127,0,0,4187,-1021,0,2854,243,47,983,0,0,81,79,121605,0
121633,117,-474,424,170,12,187,16861,-855,-547,-571,-2064,35459,-42,34,127,0,0,4084,-1010,0,2854,243,47,993,0,0,85,75,121605,0
121644,243,-512,316,113,-12,616,16392,-973,-275,-478,-2272,35465,-9,34,127,0,0,3972,-939,0,2854,243,47,1004,0,0,91,70,121637,0
121654,463,-532,102,147,-18,1579,15923,-1048,-178,-364,-2216,35476,-12,34,127,0,0,3899,-675,0,2854,243,47,1014,0,0,97,65,121637,0
121664,437,-485,-15,214,46,2228,15459,-1015,-66,-222,-1912,35464,1,34,127,0,0,3846,-494,0,2854,243,47,1024,0,0,101,62,121637,0
121674,458,-430,-35,343,232,3006,15038,-895,88,-145,-1592,35461,-4,34,127,0,0,3799,-455,0,2854,243,47,1034,0,0,108,57,121668,0
121684,488,-425,-19,419,448,3431,14671,-773,197,-148,-1320,35461,-33,34,127,0,0,3751,-488,0,2854,243,47,1044,0,0,112,54,121668,0
121694,528,-559,27,503,817,4110,14354,-674,205,-231,-1288,35467,-40,34,127,0,0,3691,-571,0,2854,243,47,1054,0,0,118,49,121683,0
121704,510,-656,48,559,1043,4673,14057,-650,133,-344,-1376,35477,-26,33,127,0,0,3627,-620,0,2854,243,47,1064,0,0,122,46,121683,0
121714,387,-697,67,637,1271,5532,13754,-668,22,-343,-1384,35462,-31,34,127,0,0,3573,-549,0,2854,243,47,1074,0,0,128,41,121699,0
121724,313,-691,99,686,1334,5997,13462,-639,6,-329,-1264,35465,-44,34,127,0,0,3527,-422,0,2854,243,47,1084,0,0,132,38,121715,0
121734,298,-772,96,761,1352,6546,13187,-589,55,-291,-1160,35460,-49,34,127,0,0,3490,-379,0,2854,243,47,1094,0,0,138,34,121715,0
121744,377,-886,81,816,1344,6891,12935,-531,76,-318,-1048,35462,-52,34,127,0,0,3447,-406,0,2854,243,47,1104,0,0,142,31,121715,0
121754,407,-1104,85,874,1343,7513,12705,-498,88,-328,-920,35474,-35,34,127,0,0,3414,-340,0,2854,243,47,1114,0,0,148,27,121746,0
121764,379,-1222,68,917,1334,7961,12496,-438,77,-298,-696,35468,-27,34,127,0,0,3404,-82,0,2854,243,47,1124,0,0,152,25,121762,0
121774,368,-1431,117,968,1328,8458,12337,-359,109,-227,-336,35466,-22,34,127,0,0,3407,60,0,2854,243,47,1134,0,0,159,21,121762,0
121784,302,-1666,108,1011,1289,8745,12218,-197,188,-156,-56,35463,-29,34,127,0,0,3418,142,0,2854,243,47,1144,0,0,163,19,121777,0
121794,446,-2052,104,1012,1271,9129,12219,104,369,229,168,35464,-71,34,127,0,0,3440,219,0,2854,243,47,1154,0,0,170,16,121777,0
121804,619,-2274,210,1017,1249,9384,12301,210,389,278,336,35478,-67,34,127,0,0,3480,428,0,2854,243,47,1164,0,0,174,14,121793,0
121814,547,-2566,390,999,1193,9561,12403,244,169,471,488,35489,-68,34,127,0,0,3518,422,0,2854,243,47,1174,0,0,180,11,121793,0
121824,535,-2779,459,1000,1137,9583,12542,316,108,448,632,35482,-55,34,127,0,0,3550,324,0,2854,243,47,1184,0,0,185,10,121808,0
121834,599,-3014,450,1008,1088,9550,12702,367,102,381,640,35483,-46,34,127,0,0,3590,395,0,2854,243,47,1194,0,0,191,8,121824,0
121844,627,-3073,381,1024,1137,9512,12866,360,42,404,640,35472,-35,34,127,0,0,3617,329,0,2854,243,47,1204,0,0,195,7,121824,0
121854,526,-3052,247,1070,1313,9400,13033,370,7,343,544,35474,-40,34,127,0,0,3629,120,0,2854,243,47,1214,0,0,202,6,121840,0
121864,419,-3025,215,1146,1473,9309,13181,309,-31,311,368,35474,-45,34,127,0,0,3640,65,0,2854,243,47,1224,0,0,206,5,121855,0
121874,244,-2961,247,1274,1685,9098,13294,219,-104,245,208,35468,-55,34,127,0,0,3647,32,0,2854,243,47,1234,0,0,212,4,121855,0
121885,153,-2919,380,1427,1780,8867,13375,133,-145,211,104,35471,-51,34,127,0,0,3654,65,0,2854,243,47,1245,0,0,215,4,121902,0
121895,183,-2897,445,1549,1814,8673,13416,100,-111,258,120,35467,-50,34,127,0,0,3662,65,0,2854,243,47,1255,0,0,221,3,121902,0
121905,206,-2877,468,1734,1828,8449,13452,61,-51,307,176,35463,-59,34,127,0,0,3680,186,0,2854,243,47,1265,0,0,224,3,121902,0
121915,105,-2793,448,1836,1840,8240,13490,104,-6,487,248,35461,-52,34,127,0,0,3695,186,0,2854,243,47,1275,0,0,229,3,121902,0
121925,79,-2716,395,1940,1943,7808,13549,152,52,542,368,35460,-48,34,127,0,0,3708,142,0,2854,243,47,1285,0,0,233,2,121902,0
121935,39,-2700,365,2002,2064,7501,13634,203,88,396,256,35456,-72,34,127,0,0,3717,76,0,2854,243,47,1295,0,0,237,2,121918,0
121945,-85,-2621,351,1966,2224,7010,13707,146,32,368,256,35467,-85,34,127,0,0,3728,109,0,2854,243,47,1305,0,0,240,2,121949,0
121955,-140,-2549,361,1816,2346,6602,13779,155,-33,297,224,35475,-74,34,127,0,0,3741,175,0,2854,243,47,1315,0,0,244,2,121949,0
121965,-4,-2636,488,1369,2499,5873,13840,115,-18,386,272,35477,-55,34,127,0,0,3759,197,0,2854,243,47,1325,0,0,247,3,121949,0
121975,125,-2795,505,1200,2528,5278,13905,167,-23,499,360,35471,-65,34,127,0,0,3779,219,0,2854,243,47,1335,0,0,250,3,121965,0
121985,472,-2632,283,1128,2368,4221,13999,215,66,437,336,35468,-77,34,127,0,0,3796,131,0,2854,243,47,1345,0,0,252,3,121965,0
121995,651,-2280,244,1067,2154,3430,14098,209,64,361,328,35479,-72,34,127,0,0,3805,120,0,2854,243,47,1355,0,0,254,3,121980,0
122005,806,-2068,269,954,1715,2155,14190,200,0,269,136,35480,-49,34,127,0,0,3810,32,0,2854,243,47,1365,0,0,255,3,122011,0
122015,912,-2078,298,821,1440,1329,14254,83,-58,97,64,35489,-24,34,127,0,0,3814,54,0,2854,243,47,1375,0,0,255,3,122011,0
122025,868,-2210,261,638,1168,41,14260,-10,-179,199,40,35477,-21,34,127,0,0,3814,32,0,2854,243,47,1385,0,0,255,3,122011,0
122035,884,-2236,245,484,1129,-800,14261,9,-117,257,64,35473,-16,34,127,0,0,3814,0,0,2854,243,47,1395,0,0,255,3,122011,0
122045,1038,-2203,223,253,1195,-1887,14261,5,-6,256,24,35469,-30,34,127,0,0,3810,-43,0,2854,243,47,1405,0,0,255,3,122043,0
122055,1080,-2120,166,144,1318,-2578,14257,-12,-10,102,-40,35466,-21,34,127,0,0,3799,-153,0,2854,243,47,1415,0,0,255,3,122043,0
122065,1054,-2083,92,152,1424,-3409,14229,-90,-49,-243,-192,35470,-22,34,127,0,0,3779,-219,0,2854,243,47,1425,0,0,255,3,122043,0
122075,974,-2193,48,196,1492,-3811,14164,-145,-122,-374,-288,35469,-29,34,127,0,0,3759,-197,0,2854,243,47,1435,0,0,255,3,122074,0
122085,-2725,-10314,-1028,-658,919,-2249,14072,-239,-116,-293,-64,35467,-43,34,127,0,0,3827,856,0,1473,205,48,1,1,1,255,3,122074,0
122095,-1616,-1745,2894,255,1588,-2658,14140,485,212,1977,2592,35461,-35,33,127,0,0,4025,1823,0,1473,205,48,11,1,1,255,3,122074,0
122105,-200,-1503,-271,-136,-154,-3199,14686,1435,1289,1627,4232,35453,10,34,127,0,0,4179,1527,0,1473,205,48,21,1,1,255,3,122090,0
122115,721,-1537,-759,-1320,-177,-2962,15528,2004,1496,1284,5168,35440,63,34,127,0,0,4326,1461,0,1473,205,48,31,1,1,255,3,122121,0
122125,80,-3020,-1186,-709,-761,-2698,16535,2285,876,1007,5840,35438,108,34,127,0,0,4467,1417,0,1473,205,48,41,1,1,255,3,122121,0
122135,-274,-2765,-1014,-296,-1101,-2880,17634,2474,481,861,6184,35424,127,34,127,0,0,4596,1274,0,1473,205,48,51,1,1,255,3,122136,0
122145,-640,-1902,-680,-180,-1098,-3119,18800,2579,301,681,6128,35417,114,34,127,0,0,4710,1120,0,1473,205,48,61,1,1,255,3,122136,0
122156,-336,-2917,19,-287,-1047,-3229,20063,2486,76,580,6032,35413,90,34,127,0,0,4813,911,0,1473,205,48,72,1,1,255,3,122136,0
122166,515,-2665,291,-150,-991,-3751,21148,2356,-166,438,5728,35436,71,34,127,0,0,4865,455,0,1473,205,48,82,1,1,255,3,122168,0
122176,343,-2317,415,-99,-763,-4060,22170,2171,-226,-33,3832,35451,47,34,127,0,0,4869,21,0,1473,205,48,92,1,1,255,3,122168,0
122186,550,-2535,539,139,-420,-4183,23022,1718,-442,-394,1952,35457,3,33,127,0,0,4840,-291,0,1473,205,48,102,1,1,255,3,122168,0
122196,147,-2066,380,274,-322,-4195,23585,1015,-875,-674,208,35462,-52,34,127,0,0,4785,-598,0,1473,205,48,112,1,1,255,3,122199,0
122206,495,-1980,504,46,-287,-3915,23696,-170,-1420,-1639,-688,35469,-81,34,127,0,0,4720,-598,0,1473,205,48,122,1,1,255,3,122199,0
122216,260,-2297,609,43,-445,-3717,23522,-392,-1501,-166,-56,35474,-70,34,127,0,0,4658,-598,640,1473,205,48,132,1,1,255,3,122199,0
122226,1038,-2915,596,223,-183,-3828,23475,33,-278,432,200,35466,-57,34,127,0,0,4580,-785,840,1473,205,48,142,1,1,255,3,122215,0
122236,-1953,-1567,678,401,-577,-2852,23516,20,455,570,136,35459,-55,34,127,0,0,4520,-411,1040,1473,205,48,152,1,1,255,3,122215,0
122246,1667,-2227,1075,10,-1484,-2376,23377,-494,-179,649,-304,35469,-66,34,127,0,0,4505,-159,1240,1473,205,48,162,1,1,255,3,122215,0
122256,1123,-2091,543,-266,-770,-2545,22910,-1242,-995,506,-1744,35481,-52,34,127,0,0,4441,-752,1440,1473,205,48,172,1,1,255,3,122230,0
122266,-1574,-2219,-213,-215,426,-3371,22226,-1544,-1075,634,-1976,35484,-51,34,127,0,0,4320,-1181,1500,1473,205,48,182,1,1,255,3,122246,0
122276,-862,-2076,-530,-58,998,-3498,21569,-1385,-364,811,-1456,35479,-77,34,127,0,0,4191,-1301,1500,1473,205,48,192,1,1,255,3,122261,0
122286,-123,-1998,395,225,825,-2852,21027,-1104,290,886,-816,35479,-92,34,127,0,0,4070,-1246,1500,1473,205,48,202,1,1,255,3,122261,0
122296,593,-2121,939,56,79,-2425,20610,-838,462,914,-192,35481,-107,34,127,0,0,3991,-703,1500,1473,205,48,212,1,1,255,3,122277,0
122306,489,-2078,620,-19,-494,-1848,20343,-484,521,1189,16,35477,-93,34,127,0,0,3947,-461,1500,1473,205,48,222,1,1,255,3,122308,0
122316,609,-2103,523,90,-887,-1630,20172,-392,493,987,-72,35475,-75,34,127,0,0,3927,-175,1500,1473,205,48,232,1,1,255,3,122308,0
122326,46,-2061,91,-52,-439,-1565,19912,-658,9,704,-296,35473,-76,34,127,0,0,3884,-483,1500,1473,205,48,242,1,1,255,3,122324,0
122336,-522,-2071,131,63,57,-1872,19547,-841,-393,693,-384,35477,-73,34,127,0,0,3828,-664,1500,1473,205,48,252,1,1,255,3,122324,0
122346,37,-1927,268,78,516,-2016,19161,-830,-245,832,-248,35471,-75,34,127,0,0,3754,-730,1500,1473,205,48,262,1,1,255,3,122324,0
122356,354,-1896,473,216,436,-1741,18842,-629,93,1032,-72,35488,-86,34,127,0,0,3687,-681,1500,1473,205,48,272,1,1,255,3,122355,0
122366,519,-1891,572,54,-185,-1241,18625,-416,330,1075,48,35494,-82,34,127,0,0,3648,-357,1500,1473,205,48,282,1,1,255,3,122355,0
122376,393,-1938,541,149,-577,-1139,18460,-335,305,902,48,35492,-75,34,127,0,0,3627,-197,1500,1473,205,48,292,1,1,255,3,122355,0
122387,158,-1988,240,100,-291,-1108,18294,-335,109,885,16,35474,-79,34,127,0,0,3601,-219,1500,1473,205,48,303,1,1,255,3,122371,0
122397,119,-2042,349,128,0,-1222,18113,-427,-35,883,-48,35463,-58,34,127,0,0,3568,-351,1500,1473,205,48,313,1,1,255,3,122386,0
122407,283,-2061,524,101,74,-1303,17888,-522,-142,838,-96,35471,-55,34,127,0,0,3528,-384,1500,1473,205,48,323,1,1,255,3,122386,0
122417,447,-2088,604,85,117,-1383,17634,-562,-139,819,-80,35480,-59,34,127,0,0,3482,-483,1500,1473,205,48,333,1,1,255,3,122418,0
122427,401,-1927,406,47,54,-1303,17412,-451,0,976,-24,35477,-70,34,127,0,0,3438,-428,1500,1473,205,48,343,1,1,255,3,122418,0
122437,501,-1938,375,11,-132,-1028,17243,-339,166,947,40,35464,-60,34,127,0,0,3407,-307,1500,1473,205,48,353,1,1,255,3,122418,0
122447,310,-1933,347,27,-158,-938,17099,-297,152,893,56,35464,-57,33,127,0,0,3381,-252,1500,1473,205,48,363,1,1,255,3,122449,0
122457,360,-1994,419,17,-11,-1001,16959,-315,55,881,40,35473,-73,34,127,0,0,3359,-219,1500,1473,205,48,373,1,1,255,3,122449,0
122467,618,-2041,519,-15,21,-996,16817,-319,7,887,8,35478,-91,34,127,0,0,3331,-252,1500,1473,205,48,383,1,1,255,3,122449,0
122477,573,-2064,613,-67,-52,-902,16660,-357,-29,879,-8,35481,-94,34,127,0,0,3302,-230,1500,1473,205,48,393,1,1,255,3,122464,0
122487,412,-2073,514,-94,-80,-854,16505,-330,-33,886,48,35466,-74,34,127,0,0,3273,-296,1500,1473,205,48,403,1,1,255,3,122464,0
122497,433,-2022,356,-94,-41,-803,16374,-278,51,907,72,35477,-79,34,127,0,0,3249,-230,1500,1473,205,48,413,1,1,255,3,122480,0
122507,570,-2017,319,-95,-64,-715,16265,-240,89,918,72,35483,-77,34,127,0,0,3229,-186,1500,1473,205,48,423,1,1,255,3,122496,0
122517,467,-2032,328,-87,-93,-625,16164,-197,56,889,96,35484,-84,34,127,0,0,3212,-153,1510,1473,205,48,433,1,1,255,3,122511,0
122527,428,-1966,363,-85,-124,-560,16092,-142,72,908,144,35471,-75,34,127,0,0,3197,-164,1580,1473,205,48,443,1,1,255,3,122511,0
122537,421,-2080,456,-82,-157,-464,16052,-54,109,935,224,35463,-75,34,127,0,0,3192,-32,1650,1473,205,48,453,1,1,255,3,122511,0
122547,452,-2032,514,-88,-226,-480,16037,-37,119,1001,224,35464,-79,34,127,0,0,3186,-54,1720,1473,205,48,463,1,1,255,3,122528,0
122557,230,-2026,517,-116,-299,-625,16002,-77,4,1053,208,35471,-85,34,127,0,0,3179,-87,1790,1473,205,48,473,1,1,255,3,122560,0
122567,195,-2066,495,-130,-414,-722,15967,-84,-31,1089,200,35463,-77,34,127,0,0,3172,-87,1880,1473,205,48,483,1,1,255,3,122560,0
122577,-27,-1912,355,-234,-567,-875,15920,-93,-26,1132,200,35466,-69,34,127,0,0,3166,-76,1990,1473,205,48,493,1,1,255,3,122575,0
122587,130,-2131,532,-133,-681,-1044,15870,-130,-26,1234,176,35463,-48,34,127,0,0,3157,-54,2110,1473,205,48,503,1,1,255,3,122575,0
122597,-119,-2237,461,-97,-734,-1337,15804,-162,-42,1285,184,35469,-47,34,127,0,0,3142,-98,2260,1473,205,48,513,1,1,255,3,122575,0
122607,-306,-2328,545,-169,-620,-1483,15755,-87,-6,1384,240,35475,-50,34,127,0,0,3135,-76,2440,1473,205,48,523,1,1,255,3,122669,0
122617,-268,-2239,494,-283,-564,-1756,15733,-40,85,1483,336,35480,-58,34,127,0,0,3128,-54,2670,1473,205,48,533,1,1,255,3,122669,0
122627,-107,-2230,426,-311,-655,-1937,15720,-32,71,1651,352,35480,-67,34,127,0,0,3126,-21,2930,1473,205,48,543,1,1,255,3,122669,0
122637,-159,-2250,362,-299,-736,-2389,15667,-163,-55,1819,240,35469,-69,34,127,0,0,3115,-109,3050,1473,205,48,553,1,1,255,3,122669,0
122647,-355,-2283,382,-302,-650,-2765,15555,-278,-194,1857,120,35460,-53,34,127,0,0,3093,-241,3180,1473,205,48,563,1,1,255,3,122669,0
122657,-368,-2269,335,-332,-482,-3354,15380,-436,-238,1904,24,35457,-63,34,127,0,0,3062,-362,3330,1473,205,48,573,1,1,255,3,122685,0
122667,-453,-2263,273,-357,-431,-3659,15158,-479,-210,1956,64,35468,-73,33,127,0,0,3023,-406,3480,1473,205,48,583,1,1,255,3,122685,0
122677,-192,-2470,314,-330,-442,-3935,14972,-386,-19,2181,136,35470,-82,34,127,0,0,2990,-296,3630,1473,205,48,593,1,1,255,3,122685,0
122687,-55,-2458,413,-316,-558,-4043,14851,-217,196,2208,352,35469,-80,34,127,0,0,2970,-186,3790,1473,205,48,603,1,1,255,3,122685,0
122698,28,-2573,523,-380,-789,-4112,14811,-35,288,2292,536,35456,-55,34,127,0,0,2961,-32,3980,1473,205,48,614,1,1,255,3,122685,0
122708,26,-2500,572,-410,-1025,-4132,14819,31,232,2384,672,35467,-25,34,127,0,0,2960,5,4180,1473,205,48,624,1,1,255,3,122685,0
122718,-258,-2332,566,-475,-905,-4691,14844,70,102,2438,992,35481,-1,34,127,0,0,2968,93,4390,1473,205,48,634,1,1,255,3,122716,0
122728,-289,-3203,763,-506,-1000,-4698,14933,255,153,2553,1408,35488,12,34,127,0,0,2982,181,4620,1473,205,48,644,1,1,255,3,122731,0
122738,-554,-3466,1129,-581,-1358,-4736,15136,538,331,2675,2280,35466,21,34,127,0,0,3016,346,4900,1473,205,48,654,1,1,255,3,122731,0
122748,-535,-3324,754,-551,-1526,-4955,15518,982,563,3024,3464,35440,51,34,127,0,0,3086,730,5220,1473,205,48,664,1,1,255,3,122731,0
122758,195,-3350,457,-425,-2045,-5157,16103,1399,744,3287,4416,35420,129,34,127,0,0,3189,1093,5680,1473,205,48,674,1,1,255,3,122731,0
122768,130,-3447,538,-228,-2653,-5049,16799,1574,609,3530,4912,35405,246,34,127,0,0,3316,1290,6320,1473,205,48,684,1,1,255,3,122763,0
122778,-1581,-3982,855,-152,-2910,-5116,17495,1767,363,3827,5632,35374,344,34,127,0,0,3460,1499,6920,1473,205,48,694,1,1,255,3,122763,0
122788,-2351,-3768,1086,-124,-2499,-5481,18432,2197,494,4141,6952,35334,451,34,127,0,0,3629,1697,7320,1473,205,48,704,1,1,255,3,122778,0
122798,-1012,-3842,635,-73,-2313,-5962,19578,2640,747,4399,7968,35288,561,34,127,0,0,3838,2098,7730,1473,205,48,714,1,1,255,3,122778,0
122808,-38,-3256,189,54,-2516,-5880,20849,2843,622,4536,8656,35243,717,34,127,0,0,4067,2389,8220,1473,205,48,724,1,1,255,3,122810,0
