state_time,accelx,accely,accelz,gyrox,gyroy,gyroz,mot_ang,mot_vel,mot_acc,mot_cur,mot_volt,batt_volt,batt_curr,temperature,status_mn,status_ex,status_re,ank_ang,ank_vel,ank_torque,peak_ank_torque,step_energy,step_count,step_time,gait_state,movement,speed,incline,sys_time,eventFlags
95650,101,-2080,209,-72,36,118,12249,-4,-1,358,104,35249,40,34,127,0,0,3431,-38,0,8929,1068,46,5210,-4,0,98,21,95623,0
95660,109,-2077,213,-74,43,119,12250,3,3,339,80,35272,24,34,127,0,0,3432,-16,0,8929,1068,46,5220,-4,0,98,21,95670,0
95670,103,-2082,214,-70,29,120,12250,2,0,332,104,35284,18,34,127,0,0,3431,0,0,8929,1068,46,5230,-4,0,98,21,95686,0
95680,106,-2077,210,-77,39,114,12248,-1,-6,347,88,35278,10,34,127,0,0,3432,-21,0,8929,1068,46,5240,-4,0,98,21,95686,0
95690,95,-2077,210,-69,37,119,12248,-2,-3,343,88,35260,8,34,127,0,0,3432,-38,0,8929,1068,46,5250,-4,0,98,21,95686,0
95700,107,-2076,214,-70,37,123,12248,-1,1,353,104,35264,14,35,127,0,0,3431,-16,0,8929,1068,46,5260,-4,0,98,21,95686,0
95710,84,-2080,210,-66,41,119,12249,5,-2,353,104,35279,13,34,127,0,0,3431,-38,0,8929,1068,46,5270,-4,0,98,21,95701,0
95720,109,-2078,220,-68,37,117,12248,-3,3,346,104,35279,0,34,127,0,0,3434,16,0,8929,1068,46,5280,-4,0,98,21,95701,0
95730,94,-2084,215,-67,32,111,12249,-2,2,348,80,35274,13,34,127,0,0,3432,-16,0,8929,1068,46,5290,-4,0,98,21,95701,0
95740,97,-2079,214,-64,31,114,12249,0,-4,323,104,35279,11,34,127,0,0,3431,5,0,8929,1068,46,5300,-4,0,98,21,95717,0
95750,95,-2075,217,-66,35,111,12250,9,-1,337,104,35290,8,34,127,0,0,3431,-10,0,8929,1068,46,5310,-4,0,98,21,95717,0
95760,99,-2079,214,-65,33,112,12248,-2,-3,339,88,35282,16,34,127,0,0,3435,16,0,8929,1068,46,5320,-4,0,98,21,95733,0
95770,120,-2076,216,-66,40,112,12250,0,3,384,80,35270,17,34,127,0,0,3435,-5,0,8929,1068,46,5330,-4,0,98,21,95748,0
95780,103,-2082,223,-62,31,117,12249,-7,-4,353,80,35265,25,34,127,0,0,3432,-5,0,8929,1068,46,5340,-4,0,98,21,95748,0
95790,107,-2083,208,-68,35,117,12248,-4,-2,334,104,35268,15,34,127,0,0,3434,32,0,8929,1068,46,5350,-4,0,98,21,95780,0
95800,92,-2083,216,-62,39,114,12249,-1,0,335,80,35283,9,34,127,0,0,3432,10,0,8929,1068,46,5360,-4,0,98,21,95780,0
95810,104,-2068,223,-63,40,113,12250,1,-3,342,104,35272,18,34,127,0,0,3431,-10,0,8929,1068,46,5370,-4,0,98,21,95780,0
95820,117,-2076,223,-69,26,121,12249,-3,0,318,104,35272,25,34,127,0,0,3431,5,0,8929,1068,46,5380,-4,0,98,21,95795,0
95830,84,-2076,231,-64,34,123,12250,2,1,339,104,35275,28,34,127,0,0,3431,-21,0,8929,1068,46,5390,-4,0,98,21,95795,0
95840,103,-2072,224,-65,37,114,12249,-1,-2,331,104,35281,14,34,127,0,0,3434,32,0,8929,1068,46,5400,-4,0,98,21,95826,0
95850,93,-2081,223,-71,33,122,12249,2,-4,379,104,35281,16,34,127,0,0,3431,-32,0,8929,1068,46,5410,-4,0,98,21,95826,0
95860,100,-2074,227,-69,34,117,12250,7,-2,349,104,35273,22,34,127,0,0,3434,16,0,8929,1068,46,5420,-4,0,98,21,95858,0
95870,106,-2071,222,-73,31,113,12249,-1,0,351,80,35274,26,34,127,0,0,3432,-5,0,8929,1068,46,5430,-4,0,98,21,95858,0
95880,96,-2073,225,-75,31,121,12248,-2,4,368,88,35273,20,34,127,0,0,3435,-16,0,8929,1068,46,5440,-4,0,98,21,95858,0
95890,113,-2079,223,-72,37,118,12249,2,1,384,104,35268,20,34,127,0,0,3434,0,0,8929,1068,46,5450,-4,0,98,21,95889,0
95901,96,-2076,226,-75,39,118,12250,0,-2,379,104,35273,22,34,127,0,0,3432,-32,0,8929,1068,46,5461,-4,0,98,21,95889,0
95911,92,-2075,224,-81,38,116,12250,0,-5,355,104,35282,14,34,127,0,0,3432,-32,0,8929,1068,46,5471,-4,0,98,21,95889,0
95921,105,-2081,228,-77,39,114,12250,5,-2,342,104,35289,-9,34,127,0,0,3434,10,0,8929,1068,46,5481,-4,0,98,21,95904,0
95931,80,-2082,229,-81,35,117,12250,7,0,352,72,35286,0,34,127,0,0,3434,21,0,8929,1068,46,5491,-4,0,98,21,95904,0
95941,109,-2077,229,-80,35,116,12249,-7,2,374,104,35286,5,35,127,0,0,3432,-10,0,8929,1068,46,5501,-4,0,98,21,95920,0
95951,84,-2078,231,-84,38,123,12250,0,0,340,72,35282,24,34,127,0,0,3432,-10,0,8929,1068,46,5511,-4,0,98,21,95920,0
95961,102,-2076,222,-90,34,120,12250,5,6,320,80,35275,27,34,127,0,0,3432,0,0,8929,1068,46,5521,-4,0,98,21,95951,0
95971,102,-2076,222,-88,38,118,12249,3,2,346,72,35267,32,34,127,0,0,3432,0,0,8929,1068,46,5531,-4,0,98,21,95951,0
95981,99,-2074,228,-88,39,116,12249,-3,0,332,80,35268,32,34,127,0,0,3429,-21,0,8929,1068,46,5541,-4,0,98,21,95951,0
95991,108,-2074,223,-92,35,114,12250,2,-2,317,80,35267,15,34,127,0,0,3432,-21,0,8929,1068,46,5551,-4,0,98,21,95967,0
96001,96,-2072,227,-91,32,120,12248,-3,4,340,88,35269,16,34,127,0,0,3432,-21,0,8929,1068,46,5561,-4,0,98,21,95967,0
96011,107,-2077,217,-96,35,117,12250,9,1,333,48,35272,21,34,127,0,0,3429,-43,0,8929,1068,46,5571,-4,0,98,21,95983,0
96021,90,-2077,223,-101,37,114,12249,6,-2,295,96,35272,25,34,127,0,0,3429,-10,0,8929,1068,46,5581,-4,0,98,21,95998,0
96031,114,-2078,228,-98,35,115,12250,0,-3,285,48,35281,43,34,127,0,0,3432,10,0,8929,1068,46,5591,-4,0,98,21,96029,0
96041,112,-2077,229,-106,33,113,12249,1,-1,292,48,35283,18,34,127,0,0,3429,-10,0,8929,1068,46,5601,-4,0,98,21,96029,0
96051,102,-2076,225,-106,38,118,12248,4,2,286,96,35280,-7,34,127,0,0,3432,0,0,8929,1068,46,5611,-4,0,98,21,96029,0
96061,101,-2079,228,-105,39,116,12248,-7,-4,313,88,35272,-20,34,127,0,0,3432,-10,0,8929,1068,46,5621,-4,0,98,21,96029,0
96071,91,-2072,215,-104,34,113,12250,10,2,297,48,35278,-1,34,127,0,0,3429,-10,0,8929,1068,46,5631,-4,0,98,21,96045,0
96081,105,-2077,213,-109,37,119,12249,1,-1,286,96,35286,4,34,127,0,0,3429,-10,0,8929,1068,46,5641,-4,0,98,21,96076,0
96091,112,-2069,211,-105,38,112,12248,-1,3,269,96,35289,5,34,127,0,0,3429,0,0,8929,1068,46,5651,-4,0,98,21,96076,0
96101,100,-2076,209,-98,42,115,12248,3,-4,263,64,35279,16,34,127,0,0,3429,0,0,8929,1068,46,5661,-4,0,98,21,96076,0
96111,99,-2078,211,-100,40,116,12249,-5,-2,257,96,35263,19,34,127,0,0,3429,0,0,8929,1068,46,5671,-4,0,98,21,96076,0
96121,93,-2079,215,-97,38,125,12249,1,2,280,64,35270,40,34,127,0,0,3429,-21,0,8929,1068,46,5681,-4,0,98,21,96092,0
96131,104,-2075,208,-99,39,122,12248,-8,-4,254,64,35277,21,34,127,0,0,3429,10,0,8929,1068,46,5691,-4,0,98,21,96108,0
96141,91,-2078,217,-94,40,120,12249,-1,-6,262,80,35284,16,34,127,0,0,3429,21,0,8929,1068,46,5701,-4,0,98,21,96108,0
96151,97,-2074,216,-95,42,121,12249,0,2,268,64,35287,15,34,127,0,0,3429,0,0,8929,1068,46,5711,-4,0,98,21,96123,0
96162,115,-2072,209,-91,40,126,12249,-3,6,264,80,35283,21,34,127,0,0,3428,5,0,8929,1068,46,5722,-4,0,98,21,96154,0
96172,118,-2075,210,-91,39,129,12248,-3,-2,269,64,35281,11,34,127,0,0,3429,0,0,8929,1068,46,5732,-4,0,98,21,96154,0
96182,97,-2078,212,-91,44,133,12249,4,-3,263,40,35276,18,34,127,0,0,3431,-5,0,8929,1068,46,5742,-4,0,98,21,96154,0
96192,93,-2089,210,-87,42,134,12248,-1,2,274,64,35277,14,34,127,0,0,3429,0,0,8929,1068,46,5752,-4,0,98,21,96170,0
96202,104,-2075,211,-88,47,134,12249,1,-1,271,64,35277,-12,34,127,0,0,3429,0,0,8929,1068,46,5762,-4,0,98,21,96201,0
96212,107,-2074,212,-86,44,130,12249,5,0,262,64,35284,-19,34,127,0,0,3433,32,0,8929,1068,46,5772,-4,0,98,21,96201,0
96222,114,-2076,219,-84,41,137,12249,5,-4,296,64,35280,-6,34,127,0,0,3433,38,0,8929,1068,46,5782,-4,0,98,21,96217,0
96232,93,-2081,213,-78,45,137,12249,1,0,298,64,35275,15,34,127,0,0,3433,38,0,8929,1068,46,5792,-4,0,98,21,96233,0
96242,102,-2074,207,-83,43,142,12247,-7,4,293,80,35273,10,34,127,0,0,3432,43,0,8929,1068,46,5802,-4,0,98,21,96248,0
96252,101,-2076,198,-82,45,143,12249,-2,1,303,104,35277,0,34,127,0,0,3431,21,0,8929,1068,46,5812,-4,0,98,21,96248,0
96262,91,-2078,205,-73,40,144,12250,3,1,300,64,35273,11,34,127,0,0,3433,10,0,8929,1068,46,5822,-4,0,98,21,96248,0
96272,93,-2077,203,-68,43,147,12249,-4,2,353,80,35260,25,34,127,0,0,3432,-32,0,8929,1068,46,5832,-4,0,98,21,96248,0
96282,100,-2072,204,-59,38,150,12249,0,5,321,104,35255,37,34,127,0,0,3431,5,0,8929,1068,46,5842,-4,0,98,21,96264,0
96292,98,-2077,212,-58,40,147,12249,-3,-5,348,104,35274,25,35,127,0,0,3434,5,0,8929,1068,46,5852,-4,0,98,21,96311,0
96302,98,-2085,212,-53,32,160,12249,2,1,388,104,35284,5,34,127,0,0,3434,-5,0,8929,1068,46,5862,-4,0,98,21,96311,0
96312,98,-2077,209,-53,38,155,12249,-2,5,411,128,35285,9,34,127,0,0,3436,16,0,8929,1068,46,5872,-4,0,98,21,96311,0
96322,95,-2075,217,-46,38,151,12251,4,2,420,128,35266,12,34,127,0,0,3436,27,0,8929,1068,46,5882,-4,0,98,21,96326,0
96332,100,-2078,225,-53,40,144,12252,9,1,474,144,35258,21,34,127,0,0,3438,-5,0,8929,1068,46,5892,-4,0,98,21,96326,0
96342,94,-2075,224,-56,34,152,12252,0,3,480,144,35264,6,34,127,0,0,3438,16,0,8929,1068,46,5902,-4,0,98,21,96326,0
96352,93,-2070,221,-58,34,151,12252,-1,-4,503,160,35270,2,34,127,0,0,3440,38,0,8929,1068,46,5912,-4,0,98,21,96326,0
96362,93,-2076,219,-48,33,152,12257,20,8,592,152,35280,-9,34,127,0,0,3440,-43,0,8929,1068,46,5922,-4,0,98,21,96358,0
96372,92,-2074,218,-50,39,147,12258,4,2,474,152,35275,-17,34,127,0,0,3444,76,0,8929,1068,46,5932,-4,0,98,21,96358,0
96382,85,-2079,220,-51,33,149,12262,9,-3,579,168,35274,-16,34,127,0,0,3449,54,0,8929,1068,46,5942,-4,0,98,21,96358,0
96393,90,-2082,216,-49,33,143,12274,37,21,618,128,35262,-4,34,127,0,0,3447,10,0,8929,1068,46,5953,-4,0,98,21,96358,0
96403,85,-2077,217,-51,35,137,12296,58,35,438,160,35265,5,34,127,0,0,3447,10,0,8929,1068,46,5963,-4,0,98,21,96404,0
96413,100,-2073,229,-45,28,140,12314,25,16,401,144,35268,0,34,127,0,0,3445,-21,0,8929,1068,46,5973,-4,0,98,21,96404,0
96423,84,-2073,228,-50,28,130,12313,1,-50,389,144,35268,-10,34,127,0,0,3449,21,0,8929,1068,46,5983,-4,0,98,21,96404,0
96433,80,-2081,226,-49,36,128,12314,-6,-34,466,128,35260,-15,34,127,0,0,3449,0,0,8929,1068,46,5993,-4,0,98,21,96404,0
96443,93,-2082,230,-48,33,119,12315,5,-1,491,128,35265,-17,34,127,0,0,3449,-21,0,8929,1068,46,6003,-4,0,98,21,96420,0
96453,91,-2077,225,-49,33,125,12314,-3,-1,452,96,35263,-3,34,127,0,0,3449,0,0,8929,1068,46,6013,-4,0,98,21,96436,0
96463,89,-2082,221,-50,26,120,12314,-3,1,476,128,35265,-13,34,127,0,0,3449,0,0,8929,1068,46,6023,-4,0,98,21,96436,0
96473,86,-2079,220,-48,38,118,12314,-5,-4,459,128,35259,-18,34,127,0,0,3449,-10,0,8929,1068,46,6033,-4,0,98,21,96451,0
96483,80,-2076,218,-44,37,119,12315,2,4,457,112,35259,-32,34,127,0,0,3449,10,0,8929,1068,46,6043,-4,0,98,21,96467,0
96493,89,-2076,220,-47,36,120,12314,-5,6,454,128,35263,-29,34,127,0,0,3449,-10,0,8929,1068,46,6053,-4,0,98,21,96482,0
96503,84,-2077,227,-43,36,123,12315,5,4,438,128,35262,-15,34,127,0,0,3447,-10,0,8929,1068,46,6063,-4,0,98,21,96482,0
96513,83,-2071,234,-48,32,122,12316,6,2,431,96,35258,-5,34,127,0,0,3449,0,0,8929,1068,46,6073,-4,0,98,21,96498,0
96523,92,-2081,234,-44,33,123,12316,0,2,462,128,35260,-4,34,127,0,0,3449,0,0,8929,1068,46,6083,-4,0,98,21,96498,0
96533,86,-2080,237,-49,37,113,12315,0,-1,462,128,35262,-10,35,127,0,0,3449,0,0,8929,1068,46,6093,-4,0,98,21,96498,0
96543,86,-2081,232,-52,36,112,12316,3,0,450,96,35263,-21,34,127,0,0,3447,-10,0,8929,1068,46,6103,-4,0,98,21,96514,0
96553,77,-2074,232,-57,32,112,12316,7,3,437,128,35274,-16,34,127,0,0,3447,-21,0,8929,1068,46,6113,-4,0,98,21,96545,0
96563,90,-2076,237,-60,26,108,12314,0,-2,431,96,35280,-17,34,127,0,0,3447,-10,0,8929,1068,46,6123,-4,0,98,21,96545,0
96573,87,-2069,231,-59,27,102,12315,5,2,421,136,35270,8,34,127,0,0,3449,21,0,8929,1068,46,6133,-4,0,98,21,96545,0
96583,103,-2073,228,-55,27,95,12316,4,2,461,96,35268,-3,34,127,0,0,3447,-32,0,8929,1068,46,6143,-4,0,98,21,96561,0
96593,87,-2076,227,-64,28,100,12315,-3,-2,413,96,35259,11,34,127,0,0,3449,21,0,8929,1068,46,6153,-4,0,98,21,96639,0
96603,93,-2078,234,-63,33,100,12315,0,-3,440,104,35263,15,34,127,0,0,3449,10,0,8929,1068,46,6163,-4,0,98,21,96639,0
96613,102,-2077,233,-67,33,98,12314,-3,-1,424,112,35263,18,34,127,0,0,3449,21,0,8929,1068,46,6173,-4,0,98,21,96639,0
96623,97,-2076,234,-73,31,101,12316,4,1,450,128,35263,10,34,127,0,0,3449,-10,0,8929,1068,46,6183,-4,0,98,21,96670,0
96633,104,-2073,234,-70,26,96,12315,0,-2,437,128,35259,5,34,127,0,0,3447,-10,0,8929,1068,46,6193,-4,0,98,21,96670,0
96643,77,-2079,237,-73,32,100,12315,-2,1,393,104,35258,-14,34,127,0,0,3449,32,0,8929,1068,46,6203,-4,0,98,21,96686,0
96653,89,-2080,232,-74,28,102,12315,-1,-3,441,104,35260,-16,34,127,0,0,3447,-21,0,8929,1068,46,6213,-4,0,98,21,96686,0
96663,93,-2078,230,-75,31,99,12317,7,2,393,104,35262,-13,34,127,0,0,3447,0,0,8929,1068,46,6223,-4,0,98,21,96686,0
96673,96,-2075,234,-77,29,93,12315,-4,0,373,120,35259,-10,34,127,0,0,3445,-10,0,8929,1068,46,6233,-4,0,98,21,96686,0
96684,104,-2077,233,-79,32,96,12315,3,-2,379,104,35251,-2,34,127,0,0,3444,-43,0,8929,1068,46,6244,-4,0,98,21,96686,0
96694,101,-2082,235,-86,30,96,12315,5,0,361,88,35255,11,34,127,0,0,3448,10,0,8929,1068,46,6254,-4,0,98,21,96686,0
96704,82,-2081,238,-84,29,104,12314,-5,0,337,88,35259,11,34,127,0,0,3448,71,0,8929,1068,46,6264,-4,0,98,21,96686,0
96714,121,-2075,236,-85,30,107,12314,-9,-2,351,112,35264,14,34,127,0,0,3444,16,0,8929,1068,46,6274,-4,0,98,21,96686,0
96724,132,-2072,225,-85,32,107,12316,9,4,331,104,35276,-8,35,127,0,0,3444,5,0,8929,1068,46,6284,-4,0,98,21,96732,0
96734,115,-2076,225,-85,30,120,12314,-3,5,329,88,35284,-8,34,127,0,0,3445,0,0,8929,1068,46,6294,-4,0,98,21,96732,0
96744,109,-2072,220,-87,33,126,12314,-1,-3,327,88,35286,-4,34,127,0,0,3445,0,0,8929,1068,46,6304,-4,0,98,21,96732,0
96754,103,-2080,227,-80,39,132,12314,3,1,314,88,35266,12,34,127,0,0,3445,16,0,8929,1068,46,6314,-4,0,98,21,96748,0
96764,113,-2077,227,-77,42,139,12315,0,2,329,104,35268,8,34,127,0,0,3447,38,0,8929,1068,46,6324,-4,0,98,21,96748,0
96774,108,-2084,228,-79,40,145,12315,0,2,361,88,35269,3,34,127,0,0,3448,38,0,8929,1068,46,6334,-4,0,98,21,96748,0
96784,88,-2080,230,-79,42,142,12314,-4,-3,399,112,35279,-5,34,127,0,0,3447,0,0,8929,1068,46,6344,-4,0,98,21,96795,0
96794,90,-2077,242,-83,45,144,12313,-6,-4,378,88,35277,-9,34,127,0,0,3448,10,0,8929,1068,46,6354,-4,0,98,21,96795,0
96804,74,-2077,244,-88,38,142,12314,-7,-3,379,88,35272,7,34,127,0,0,3445,-21,0,8929,1068,46,6364,-4,0,98,21,96795,0
96814,60,-2075,245,-93,39,136,12315,2,2,363,88,35269,1,34,127,0,0,3448,0,0,8929,1068,46,6374,-4,0,98,21,96795,0
96824,66,-2077,238,-97,39,126,12315,7,2,379,104,35265,0,34,127,0,0,3444,-16,0,8929,1068,46,6384,-4,0,98,21,96795,0
96834,63,-2074,239,-98,44,119,12314,3,2,365,112,35275,-4,34,127,0,0,3450,38,0,8929,1068,46,6394,-4,0,98,21,96811,0
96844,75,-2073,237,-103,43,112,12314,-3,1,402,88,35279,-12,34,127,0,0,3448,21,0,8929,1068,46,6404,-4,0,98,21,96826,0
96854,88,-2071,236,-107,33,105,12314,-13,-3,349,112,35283,-33,34,127,0,0,3447,49,0,8929,1068,46,6414,-4,0,98,21,96842,0
96864,92,-2074,224,-113,41,97,12315,3,2,353,64,35279,-28,34,127,0,0,3446,-16,0,8929,1068,46,6424,-4,0,98,21,96842,0
96874,93,-2081,224,-107,33,93,12314,0,3,331,88,35277,-17,34,127,0,0,3445,0,0,8929,1068,46,6434,-4,0,98,21,96857,0
96884,90,-2073,235,-111,37,89,12314,0,4,327,88,35281,-16,34,127,0,0,3438,-65,0,8929,1068,46,6444,-4,0,98,21,96857,0
96894,64,-2081,228,-109,30,87,12313,1,4,282,88,35280,-15,34,127,0,0,3445,-16,0,8929,1068,46,6454,-4,0,98,21,96873,0
96905,83,-2082,214,-113,36,80,12313,-3,1,326,88,35284,-16,34,127,0,0,3445,0,0,8929,1068,46,6465,-4,0,98,21,96904,0
96915,82,-2076,221,-110,43,72,12314,-4,1,327,56,35287,-11,34,127,0,0,3440,-65,0,8929,1068,46,6475,-4,0,98,21,96904,0
96925,84,-2084,227,-113,46,61,12313,2,0,264,96,35287,-10,34,127,0,0,3440,-32,0,8929,1068,46,6485,-4,0,98,21,96904,0
96935,76,-2080,226,-109,48,52,12314,3,1,236,40,35275,-17,34,127,0,0,3440,-21,0,8929,1068,46,6495,-4,0,98,21,96904,0
96945,91,-2082,223,-114,41,50,12312,-3,4,223,48,35276,-20,34,127,0,0,3436,-65,0,8929,1068,46,6505,-4,0,98,21,96998,0
96955,105,-2078,220,-107,43,40,12309,-6,-6,72,8,35277,-17,35,127,0,0,3438,0,0,8929,1068,46,6515,-4,0,98,21,96998,0
96965,101,-2079,227,-105,45,44,12307,-2,4,88,48,35278,-13,34,127,0,0,3436,-10,0,8929,1068,46,6525,-4,0,98,21,96998,0
96975,111,-2077,232,-104,45,44,12305,-9,0,-36,-32,35278,-7,34,127,0,0,3432,-32,0,8929,1068,46,6535,-4,0,98,21,97014,0
96985,89,-2083,225,-107,51,51,12300,-4,-14,-59,-56,35280,-11,34,127,0,0,3427,-54,0,8929,1068,46,6545,-4,0,98,21,97014,0
96995,124,-2076,225,-106,45,50,12295,-20,3,-184,-56,35284,-13,34,127,0,0,3427,-10,0,8929,1068,46,6555,-4,0,98,21,97014,0
97005,119,-2075,217,-99,37,49,12295,0,6,-162,-64,35283,0,34,127,0,0,3425,-32,0,8929,1068,46,6565,-4,0,98,21,97014,0
97015,115,-2072,218,-100,42,58,12289,-18,2,-296,-88,35275,-1,34,127,0,0,3423,10,0,8929,1068,46,6575,-4,0,98,21,97014,0
97025,103,-2076,225,-91,38,56,12279,-23,-19,-265,-64,35267,-9,34,127,0,0,3423,-21,0,8929,1068,46,6585,-4,0,98,21,97014,0
97035,87,-2075,220,-88,39,62,12258,-54,-29,-195,-48,35263,-22,34,127,0,0,3418,21,0,8929,1068,46,6595,-4,0,98,21,97014,0
97045,101,-2074,197,-85,40,61,12243,-7,-10,-122,-72,35266,-9,34,127,0,0,3416,-43,0,8929,1068,46,6605,-4,0,98,21,97014,0
97055,119,-2075,202,-75,41,65,12241,-3,46,-272,-88,35280,13,34,127,0,0,3414,-10,0,8929,1068,46,6615,-4,0,98,21,97045,0
97065,110,-2086,209,-64,38,73,12241,-5,22,-297,-80,35284,34,34,127,0,0,3414,0,0,8929,1068,46,6625,-4,0,98,21,97045,0
97075,115,-2080,210,-64,42,77,12240,0,1,-317,-64,35281,37,34,127,0,0,3412,-21,0,8929,1068,46,6635,-4,0,98,21,97060,0
97085,109,-2085,228,-57,43,87,12240,-1,-3,-357,-88,35276,23,34,127,0,0,3410,-32,0,8929,1068,46,6645,-4,0,98,21,97060,0
97095,126,-2074,229,-54,43,91,12237,0,1,-358,-80,35283,10,35,127,0,0,3410,-43,0,8929,1068,46,6655,-4,0,98,21,97076,0
97105,124,-2070,227,-61,40,98,12235,-2,-1,-401,-112,35290,9,34,127,0,0,3410,0,0,8929,1068,46,6665,-4,0,98,21,97076,0
97115,128,-2077,232,-64,39,108,12236,-4,3,-419,-104,35285,9,34,127,0,0,3407,-10,0,8929,1068,46,6675,-4,0,98,21,97092,0
97125,125,-2077,238,-67,37,121,12234,-1,2,-415,-80,35280,1,34,127,0,0,3410,0,0,8929,1068,46,6685,-4,0,98,21,97107,0
97135,126,-2076,243,-66,39,126,12234,0,-1,-383,-120,35272,-7,34,127,0,0,3412,10,0,8929,1068,46,6695,-4,0,98,21,97107,0
97145,149,-2074,235,-75,36,136,12234,0,5,-379,-112,35274,7,34,127,0,0,3410,10,0,8929,1068,46,6705,-4,0,98,21,97123,0
97156,137,-2073,230,-79,34,141,12234,-4,1,-403,-112,35272,17,34,127,0,0,3413,32,0,8929,1068,46,6716,-4,0,98,21,97123,0
97166,114,-2075,213,-74,33,146,12233,-9,-1,-375,-104,35274,16,34,127,0,0,3410,10,0,8929,1068,46,6726,-4,0,98,21,97154,0
97176,110,-2075,221,-69,39,142,12234,-2,2,-366,-88,35275,12,34,127,0,0,3412,16,0,8929,1068,46,6736,-4,0,98,21,97154,0
97186,113,-2076,236,-77,34,151,12234,4,2,-343,-88,35276,8,34,127,0,0,3412,0,0,8929,1068,46,6746,-4,0,98,21,97154,0
97196,110,-2081,239,-78,40,147,12234,4,4,-342,-112,35284,7,34,127,0,0,3413,-5,0,8929,1068,46,6756,-4,0,98,21,97185,0
97206,112,-2076,241,-79,36,158,12234,5,0,-335,-88,35290,10,34,127,0,0,3412,0,0,8929,1068,46,6766,-4,0,98,21,97185,0
97216,99,-2075,237,-80,38,155,12233,-1,0,-322,-88,35286,16,34,127,0,0,3415,27,0,8929,1068,46,6776,-4,0,98,21,97201,0
97226,103,-2070,232,-86,30,148,12234,-4,1,-270,-64,35274,25,34,127,0,0,3414,27,0,8929,1068,46,6786,-4,0,98,21,97204,0
97236,93,-2075,238,-87,32,144,12235,6,-2,-283,-64,35276,15,34,127,0,0,3414,16,0,8929,1068,46,6796,-4,0,98,21,97224,0
97246,75,-2075,230,-91,36,136,12236,0,-3,-246,-64,35293,10,34,127,0,0,3414,-27,0,8929,1068,46,6806,-4,0,98,21,97224,0
97256,87,-2074,225,-95,26,137,12234,-4,-6,-264,-40,35295,11,34,127,0,0,3416,38,0,8929,1068,46,6816,-4,0,98,21,97240,0
97266,90,-2078,226,-100,34,123,12236,5,7,-128,-48,35281,23,34,127,0,0,3416,-43,0,8929,1068,46,6826,-4,0,98,21,97240,0
97276,72,-2078,233,-97,34,113,12237,3,5,-122,-32,35269,11,34,127,0,0,3418,-10,0,8929,1068,46,6836,-4,0,98,21,97255,0
97286,107,-2074,239,-105,35,110,12237,-3,1,-182,-72,35282,3,34,127,0,0,3417,5,0,8929,1068,46,6846,-4,0,98,21,97255,0
97296,98,-2083,244,-108,30,101,12239,11,4,-101,-32,35289,23,34,127,0,0,3415,-49,0,8929,1068,46,6856,-4,0,98,21,97271,0
97306,69,-2079,234,-112,32,98,12237,2,7,-169,-56,35284,34,34,127,0,0,3416,-16,0,8929,1068,46,6866,-4,0,98,21,97380,0
97316,102,-2071,231,-114,33,93,12237,-1,-6,-190,-48,35269,42,34,127,0,0,3416,-5,0,8929,1068,46,6876,-4,0,98,21,97396,0
97326,84,-2073,217,-113,32,93,12237,0,-3,-266,-72,35261,16,34,127,0,0,3414,-10,0,8929,1068,46,6886,-4,0,98,21,97396,0
97336,86,-2072,224,-114,32,87,12235,-6,-1,-271,-88,35260,14,34,127,0,0,3415,-16,0,8929,1068,46,6896,-4,0,98,21,97396,0
97346,94,-2079,216,-113,31,87,12236,-1,2,-249,-72,35263,13,34,127,0,0,3414,-27,0,8929,1068,46,6906,-4,0,98,21,97396,0
97356,101,-2074,210,-109,38,87,12235,-3,-1,-285,-88,35264,16,34,127,0,0,3412,-38,0,8929,1068,46,6916,-4,0,98,21,97412,0
97366,112,-2076,215,-109,41,87,12235,1,1,-340,-88,35260,26,34,127,0,0,3412,0,0,8929,1068,46,6926,-4,0,98,21,97412,0
97376,116,-2071,210,-99,37,90,12236,-1,0,-339,-88,35259,24,34,127,0,0,3412,0,0,8929,1068,46,6936,-4,0,98,21,97412,0
97386,120,-2077,205,-93,28,88,12235,1,-1,-382,-112,35258,25,34,127,0,0,3410,10,0,8929,1068,46,6946,-4,0,98,21,97412,0
97396,102,-2067,203,-89,33,88,12236,2,1,-403,-112,35258,23,34,127,0,0,3410,0,0,8929,1068,46,6956,-4,0,98,21,97412,0
97406,108,-2074,221,-85,36,84,12234,-6,-3,-418,-104,35266,29,34,127,0,0,3406,-16,0,8929,1068,46,6966,-4,0,98,21,97412,0
97417,104,-2076,222,-83,39,84,12232,-12,-4,-445,-136,35265,18,34,127,0,0,3407,-21,0,8929,1068,46,6977,-4,0,98,21,97412,0
97427,104,-2076,206,-77,33,82,12228,-15,-5,-503,-112,35269,14,34,127,0,0,3407,43,0,8929,1068,46,6987,-4,0,98,21,97412,0
97437,122,-2077,209,-74,34,85,12228,-4,0,-474,-184,35266,7,34,127,0,0,3405,0,0,8929,1068,46,6997,-4,0,98,21,97412,0
97447,107,-2079,226,-70,36,88,12228,4,6,-505,-136,35283,14,34,127,0,0,3407,21,0,8929,1068,46,7007,-4,0,98,21,97458,0
97457,131,-2082,241,-72,35,100,12225,-7,3,-506,-160,35296,20,35,127,0,0,3403,-10,0,8929,1068,46,7017,-4,0,98,21,97458,0
97467,110,-2082,233,-76,29,98,12223,-7,-2,-562,-176,35285,19,34,127,0,0,3403,21,0,8929,1068,46,7027,-4,0,98,21,97474,0
97477,111,-2069,207,-75,27,102,12217,-10,-10,-556,-136,35273,21,34,127,0,0,3401,0,0,8929,1068,46,7037,-4,0,98,21,97474,0
97487,105,-2079,202,-72,31,93,12214,-8,-3,-517,-168,35255,27,34,127,0,0,3403,0,0,8929,1068,46,7047,-4,0,98,21,97490,0
97497,109,-2079,237,-76,43,99,12214,9,7,-507,-152,35260,23,34,127,0,0,3401,0,0,8929,1068,46,7057,-4,0,98,21,97490,0
97507,121,-2079,251,-78,38,102,12211,-1,5,-499,-184,35269,32,34,127,0,0,3401,0,0,8929,1068,46,7067,-4,0,98,21,97490,0
97517,125,-2078,249,-87,34,108,12201,-26,-16,-468,-168,35279,37,34,127,0,0,3399,10,0,8929,1068,46,7077,-4,0,98,21,97490,0
97527,112,-2073,238,-87,34,108,12188,-31,-22,-346,-136,35279,58,34,127,0,0,3401,-21,0,8929,1068,46,7087,-4,0,98,21,97529,0
97537,107,-2072,228,-96,39,110,12178,-3,-2,-302,-120,35277,56,34,127,0,0,3399,-32,0,8929,1068,46,7097,-4,0,98,21,97529,0
97547,122,-2071,229,-95,32,116,12179,-1,34,-357,-112,35266,67,34,127,0,0,3399,-21,0,8929,1068,46,7107,-4,0,98,21,97529,0
97557,118,-2073,235,-99,37,116,12178,0,10,-371,-112,35258,51,34,127,0,0,3401,21,0,8929,1068,46,7117,-4,0,98,21,97529,0
97567,112,-2080,229,-100,39,119,12177,-4,-3,-370,-104,35263,69,34,127,0,0,3399,21,0,8929,1068,46,7127,-4,0,98,21,97545,0
97577,108,-2069,225,-93,41,121,12178,5,4,-338,-112,35265,65,34,127,0,0,3399,-43,0,8929,1068,46,7137,-4,0,98,21,97545,0
97587,117,-2076,205,-95,38,129,12175,-10,-1,-371,-104,35263,58,34,127,0,0,3399,0,0,8929,1068,46,7147,-4,0,98,21,97561,0
97597,120,-2074,198,-89,36,125,12177,-2,-2,-387,-104,35258,50,34,127,0,0,3399,21,0,8929,1068,46,7157,-4,0,98,21,97592,0
97607,108,-2072,205,-83,40,121,12175,-6,0,-370,-104,35265,16,34,127,0,0,3399,0,0,8929,1068,46,7167,-4,0,98,21,97592,0
97617,116,-2081,228,-82,34,125,12177,3,2,-346,-104,35269,17,34,127,0,0,3399,-21,0,8929,1068,46,7177,-4,0,98,21,97592,0
97627,110,-2075,228,-85,30,123,12176,-2,0,-348,-112,35266,13,34,127,0,0,3399,-10,0,8929,1068,46,7187,-4,0,98,21,97592,0
97637,96,-2085,232,-86,27,124,12175,-5,1,-320,-80,35267,20,34,127,0,0,3401,-10,0,8929,1068,46,7197,-4,0,98,21,97607,0
97648,88,-2083,238,-85,35,129,12176,5,0,-315,-104,35264,21,34,127,0,0,3402,0,0,8929,1068,46,7208,-4,0,98,21,97623,0
97658,108,-2077,238,-97,36,115,12176,-3,2,-331,-104,35267,20,34,127,0,0,3399,-16,0,8929,1068,46,7218,-4,0,98,21,97639,0
97668,104,-2075,234,-94,29,109,12176,0,-3,-347,-104,35266,18,34,127,0,0,3402,5,0,8929,1068,46,7228,-4,0,98,21,97670,0
97678,108,-2074,222,-96,37,98,12176,1,-3,-326,-104,35263,20,34,127,0,0,3399,-5,0,8929,1068,46,7238,-4,0,98,21,97670,0
97688,96,-2073,219,-90,40,107,12175,-8,-3,-371,-104,35262,24,34,127,0,0,3399,0,0,8929,1068,46,7248,-4,0,98,21,97670,0
97698,105,-2076,234,-104,36,104,12175,-3,-2,-345,-104,35264,12,34,127,0,0,3399,-27,0,8929,1068,46,7258,-4,0,98,21,97686,0
97708,122,-2078,233,-102,37,104,12175,-8,-2,-359,-80,35270,15,34,127,0,0,3401,32,0,8929,1068,46,7268,-4,0,98,21,97701,0
97718,118,-2075,225,-107,37,108,12176,3,1,-354,-80,35274,18,34,127,0,0,3401,49,0,8929,1068,46,7278,-4,0,98,21,97701,0
97728,125,-2077,232,-106,35,112,12176,3,2,-349,-104,35274,23,34,127,0,0,3399,10,0,8929,1068,46,7288,-4,0,98,21,97717,0
97738,120,-2072,228,-105,32,118,12176,0,1,-334,-104,35270,51,34,127,0,0,3402,-10,0,8929,1068,46,7298,-4,0,98,21,97717,0
97748,110,-2074,221,-111,34,117,12175,-1,-1,-349,-104,35279,45,34,127,0,0,3399,10,0,8929,1068,46,7308,-4,0,98,21,97717,0
97758,108,-2072,220,-108,39,120,12175,-2,-5,-331,-80,35282,45,34,127,0,0,3394,-71,0,8929,1068,46,7318,-4,0,98,21,97764,0
97768,123,-2072,229,-112,34,113,12175,3,0,-362,-128,35278,27,34,127,0,0,3403,-10,0,8929,1068,46,7328,-4,0,98,21,97764,0
97778,124,-2080,224,-112,35,120,12175,4,-2,-321,-80,35277,14,34,127,0,0,3401,32,0,8929,1068,46,7338,-4,0,98,21,97764,0
97788,126,-2073,228,-115,38,118,12174,-4,-1,-351,-80,35273,17,34,127,0,0,3398,16,0,8929,1068,46,7348,-4,0,98,21,97779,0
97798,97,-2088,228,-118,44,122,12175,5,3,-356,-80,35268,22,34,127,0,0,3398,-5,0,8929,1068,46,7358,-4,0,98,21,97779,0
97808,134,-2079,232,-123,37,114,12173,-3,0,-369,-96,35269,27,34,127,0,0,3399,0,0,8929,1068,46,7368,-4,0,98,21,97779,0
97818,109,-2072,221,-118,34,117,12174,-4,0,-333,-80,35278,50,34,127,0,0,3401,16,0,8929,1068,46,7378,-4,0,98,21,97810,0
97828,104,-2076,226,-126,37,117,12174,-2,-1,-325,-104,35283,46,34,127,0,0,3399,-16,0,8929,1068,46,7388,-4,0,98,21,97810,0
97838,104,-2075,234,-127,38,114,12175,5,0,-342,-104,35284,51,34,127,0,0,3402,16,0,8929,1068,46,7398,-4,0,98,21,97810,0
97848,95,-2083,234,-131,34,118,12174,0,0,-331,-104,35276,53,34,127,0,0,3399,-16,0,8929,1068,46,7408,-4,0,98,21,97826,0
97858,112,-2074,228,-139,34,115,12175,7,1,-357,-104,35278,33,34,127,0,0,3402,27,0,8929,1068,46,7418,-4,0,98,21,97842,0
97868,98,-2078,216,-137,31,111,12175,0,0,-340,-80,35275,39,34,127,0,0,3401,49,0,8929,1068,46,7428,-4,0,98,21,97857,0
97878,114,-2068,213,-140,32,111,12175,-2,-3,-299,-104,35277,29,34,127,0,0,3399,-32,0,8929,1068,46,7438,-4,0,98,21,97857,0
97888,120,-2075,219,-135,34,110,12175,5,1,-343,-104,35274,30,34,127,0,0,3399,-16,0,8929,1068,46,7448,-4,0,98,21,97857,0
97899,114,-2073,224,-138,32,111,12175,0,2,-389,-128,35275,24,34,127,0,0,3396,-21,0,8929,1068,46,7459,-4,0,98,21,97873,0
97909,96,-2080,217,-142,30,119,12174,3,1,-370,-104,35287,26,34,127,0,0,3399,-21,0,8929,1068,46,7469,-4,0,98,21,97904,0
97919,121,-2066,209,-139,31,113,12173,0,2,-370,-96,35286,15,34,127,0,0,3399,10,0,8929,1068,46,7479,-4,0,98,21,97904,0
97929,101,-2078,217,-137,31,109,12175,3,-2,-355,-104,35279,5,34,127,0,0,3399,0,0,8929,1068,46,7489,-4,0,98,21,97904,0
97939,109,-2082,225,-142,31,110,12173,-2,1,-370,-96,35275,2,34,127,0,0,3399,0,0,8929,1068,46,7499,-4,0,98,21,97904,0
97949,108,-2074,232,-149,34,104,12175,2,1,-379,-136,35282,26,34,127,0,0,3399,21,0,8929,1068,46,7509,-4,0,98,21,97967,0
97959,107,-2071,227,-156,36,109,12173,1,0,-354,-96,35288,30,34,127,0,0,3399,-10,0,8929,1068,46,7519,-4,0,98,21,97982,0
97969,103,-2071,211,-162,35,96,12173,-6,-4,-402,-88,35284,23,34,127,0,0,3399,21,0,8929,1068,46,7529,-4,0,98,21,97982,0
97979,97,-2070,207,-157,38,91,12173,-5,1,-401,-88,35282,20,34,127,0,0,3396,0,0,8929,1068,46,7539,-4,0,98,21,97982,0
97989,98,-2079,211,-160,37,81,12173,2,1,-442,-112,35274,9,34,127,0,0,3394,-10,0,8929,1068,46,7549,-4,0,98,21,97982,0
97999,106,-2077,216,-160,43,76,12172,-4,-2,-457,-144,35273,4,34,127,0,0,3392,-32,0,8929,1068,46,7559,-4,0,98,21,97982,0
98009,105,-2090,210,-164,49,74,12169,-6,-1,-473,-160,35272,7,35,127,0,0,3390,-21,0,8929,1068,46,7569,-4,0,98,21,97982,0
98019,119,-2081,213,-164,38,70,12165,-18,-3,-486,-152,35278,3,34,127,0,0,3392,0,0,8929,1068,46,7579,-4,0,98,21,97998,0
98029,130,-2075,203,-169,44,76,12163,-20,-10,-556,-192,35284,17,34,127,0,0,3385,-10,0,8929,1068,46,7589,-4,0,98,21,98029,0
98039,116,-2076,202,-162,43,75,12139,-65,-32,-460,-176,35296,24,34,127,0,0,3385,-10,0,8929,1068,46,7599,-4,0,98,21,98029,0
98049,106,-2082,196,-156,56,60,12103,-62,-71,-252,-88,35289,27,35,127,0,0,3385,0,0,8929,1068,46,7609,-4,0,98,21,98029,0
98059,126,-2086,201,-168,50,80,12101,2,42,-321,-112,35288,8,34,127,0,0,3385,10,0,8929,1068,46,7619,-4,0,98,21,98029,0
98069,133,-2080,209,-161,40,81,12101,-2,70,-329,-144,35278,0,34,127,0,0,3381,-21,0,8929,1068,46,7629,-4,0,98,21,98123,0
98079,122,-2073,200,-168,40,87,12100,3,2,-391,-128,35279,2,34,127,0,0,3381,-21,0,8929,1068,46,7639,-4,0,98,21,98123,0
98089,122,-2074,200,-163,42,91,12100,-1,0,-412,-96,35278,3,34,127,0,0,3381,0,0,8929,1068,46,7649,-4,0,98,21,98123,0
98099,121,-2070,197,-158,49,89,12098,-11,0,-421,-128,35278,-3,34,127,0,0,3381,-10,0,8929,1068,46,7659,-4,0,98,21,98123,0
98109,120,-2078,206,-155,38,95,12097,-9,-5,-470,-136,35273,0,34,127,0,0,3379,21,0,8929,1068,46,7669,-4,0,98,21,98139,0
98119,111,-2072,199,-159,43,97,12093,-18,-7,-481,-160,35274,11,34,127,0,0,3377,10,0,8929,1068,46,7679,-4,0,98,21,98139,0
98129,108,-2075,189,-157,45,96,12080,-29,-19,-431,-136,35268,9,35,127,0,0,3377,10,0,8929,1068,46,7689,-4,0,98,21,98139,0
98139,106,-2072,184,-158,50,80,12063,-36,-26,-310,-136,35265,-1,34,127,0,0,3375,-32,0,8929,1068,46,7699,-4,0,98,21,98139,0
98149,92,-2071,194,-152,51,73,12054,-7,6,-373,-96,35269,-14,34,127,0,0,3375,21,0,8929,1068,46,7709,-4,0,98,21,98139,0
98160,114,-2073,203,-144,45,73,12053,-4,34,-374,-128,35271,-7,34,127,0,0,3372,-32,0,8929,1068,46,7720,-4,0,98,21,98139,0
98170,103,-2078,198,-154,53,74,12052,-5,13,-410,-152,35271,15,34,127,0,0,3370,-65,0,8929,1068,46,7730,-4,0,98,21,98139,0
98180,110,-2082,191,-151,52,61,12050,0,-7,-466,-144,35267,25,34,127,0,0,3367,-60,0,8929,1068,46,7740,-4,0,98,21,98185,0
98190,119,-2080,181,-151,51,63,12045,-17,-5,-512,-160,35284,26,34,127,0,0,3368,-5,0,8929,1068,46,7750,-4,0,98,21,98185,0
98200,115,-2077,180,-146,51,60,12045,0,5,-505,-184,35283,8,35,127,0,0,3366,-65,0,8929,1068,46,7760,-4,0,98,21,98185,0
98210,132,-2078,186,-142,52,58,12039,-16,-1,-568,-192,35290,1,34,127,0,0,3364,-10,0,8929,1068,46,7770,-4,0,98,21,98185,0
98220,122,-2083,176,-139,46,54,12033,-11,-12,-554,-208,35269,7,34,127,0,0,3365,-32,0,8929,1068,46,7780,-4,0,98,21,98185,0
98230,128,-2082,177,-132,50,68,12024,-23,-2,-529,-168,35268,10,34,127,0,0,3360,-32,0,8929,1068,46,7790,-4,0,98,21,98248,0
98240,148,-2089,182,-127,49,70,11998,-78,-38,-410,-144,35269,12,34,127,0,0,3358,-65,0,8929,1068,46,7800,-4,0,98,21,98248,0
98250,132,-2084,189,-122,43,77,11967,-48,-49,-315,-120,35271,6,34,127,0,0,3360,-27,0,8929,1068,46,7810,-4,0,98,21,98248,0
98260,151,-2081,181,-121,44,88,11961,-3,42,-366,-88,35275,19,34,127,0,0,3356,-10,0,8929,1068,46,7820,-4,0,98,21,98248,0
98270,151,-2085,177,-117,36,101,11955,-19,46,-378,-96,35283,21,34,127,0,0,3357,0,0,8929,1068,46,7830,-4,0,98,21,98264,0
98280,133,-2081,179,-111,37,106,11948,-7,0,-284,-88,35293,33,34,127,0,0,3357,-32,0,8929,1068,46,7840,-4,0,98,21,98264,0
98290,134,-2078,192,-107,37,115,11942,-20,-6,-306,-72,35283,49,34,127,0,0,3360,32,0,8929,1068,46,7850,-4,0,98,21,98264,0
98300,129,-2072,184,-107,36,118,11939,-7,5,-198,-40,35283,83,34,127,0,0,3356,10,0,8929,1068,46,7860,-4,0,98,21,98264,0
98310,132,-2075,196,-104,32,120,11938,-4,15,-278,-64,35278,76,34,127,0,0,3354,0,0,8929,1068,46,7870,-4,0,98,21,98295,0
98320,124,-2074,189,-109,32,118,11937,-5,2,-235,-80,35289,63,34,127,0,0,3358,-32,0,8929,1068,46,7880,-4,0,98,21,98310,0
98330,119,-2073,182,-106,33,120,11936,-2,4,-259,-56,35278,54,34,127,0,0,3357,10,0,8929,1068,46,7890,-4,0,98,21,98310,0
98340,110,-2074,185,-104,32,119,11935,1,4,-209,-56,35278,48,34,127,0,0,3357,-5,0,8929,1068,46,7900,-4,0,98,21,98310,0
98350,112,-2077,187,-101,32,112,11936,9,0,-222,-56,35273,43,34,127,0,0,3360,54,0,8929,1068,46,7910,-4,0,98,21,98342,0
98360,98,-2073,188,-105,32,115,11935,-4,2,-214,-32,35290,25,34,127,0,0,3356,43,0,8929,1068,46,7920,-4,0,98,21,98342,0
98370,104,-2085,177,-91,38,112,11935,1,0,-156,-56,35292,33,34,127,0,0,3357,-49,0,8929,1068,46,7930,-4,0,98,21,98342,0
98380,116,-2082,187,-96,26,117,11937,4,4,-214,-32,35285,45,34,127,0,0,3356,0,0,8929,1068,46,7940,-4,0,98,21,98357,0
98391,109,-2083,192,-96,31,116,11934,-1,2,-226,24,35283,42,34,127,0,0,3357,-10,0,8929,1068,46,7951,-4,0,98,21,98389,0
98401,94,-2082,184,-99,34,113,11935,-1,-2,-253,-8,35284,25,34,127,0,0,3359,32,0,8929,1068,46,7961,-4,0,98,21,98389,0
98411,111,-2088,187,-92,27,104,11935,-2,4,-224,-48,35272,24,34,127,0,0,3357,21,0,8929,1068,46,7971,-4,0,98,21,98389,0
98421,125,-2084,183,-97,28,102,11935,-1,2,-202,-24,35269,43,34,127,0,0,3357,-10,0,8929,1068,46,7981,-4,0,98,21,98389,0
98431,111,-2084,185,-95,32,95,11934,1,-4,-235,-56,35270,57,34,127,0,0,3355,-32,0,8929,1068,46,7991,-4,0,98,21,98467,0
98441,114,-2086,177,-89,30,95,11934,0,0,-277,-112,35278,60,34,127,0,0,3355,-10,0,8929,1068,46,8001,-4,0,98,21,98482,0
98451,118,-2078,176,-92,34,92,11933,-2,2,-286,-64,35272,35,34,127,0,0,3353,0,0,8929,1068,46,8011,-4,0,98,21,98482,0
98461,124,-2082,174,-85,33,74,11929,-11,-6,-345,-56,35275,38,34,127,0,0,3355,43,0,8929,1068,46,8021,-4,0,98,21,98482,0
98471,112,-2078,179,-82,36,79,11929,0,0,-317,-128,35261,26,34,127,0,0,3353,0,0,8929,1068,46,8031,-4,0,98,21,98482,0
98481,130,-2083,180,-80,36,66,11929,0,2,-331,-120,35261,34,34,127,0,0,3350,-10,0,8929,1068,46,8041,-4,0,98,21,98482,0
98491,122,-2081,181,-79,36,71,11927,2,-5,-389,-144,35257,42,34,127,0,0,3348,-21,0,8929,1068,46,8051,-4,0,98,21,98482,0
98501,136,-2073,186,-78,36,67,11923,-12,-7,-429,-128,35260,60,34,127,0,0,3350,32,0,8929,1068,46,8061,-4,0,98,21,98482,0
98511,132,-2073,185,-73,41,73,11923,-8,-4,-418,-120,35258,56,34,127,0,0,3348,0,0,8929,1068,46,8071,-4,0,98,21,98482,0
98521,131,-2076,177,-77,36,70,11921,-9,-1,-481,-104,35269,55,34,127,0,0,3344,-10,0,8929,1068,46,8081,-4,0,98,21,98498,0
98531,131,-2076,179,-73,38,69,11919,-9,-1,-499,-176,35281,51,34,127,0,0,3346,0,0,8929,1068,46,8091,-4,0,98,21,98498,0
98541,139,-2076,186,-68,37,66,11916,-7,-4,-474,-160,35285,49,34,127,0,0,3342,-32,0,8929,1068,46,8101,-4,0,98,21,98529,0
98551,139,-2076,177,-63,34,69,11912,-19,-5,-588,-168,35280,56,34,127,0,0,3339,0,0,8929,1068,46,8111,-4,0,98,21,98529,0
98561,129,-2075,179,-60,31,71,11905,-16,-13,-550,-184,35268,56,34,127,0,0,3339,-21,0,8929,1068,46,8121,-4,0,98,21,98529,0
98571,142,-2081,183,-58,33,74,11890,-39,-20,-511,-152,35260,52,34,127,0,0,3339,0,0,8929,1068,46,8131,-4,0,98,21,98560,0
98581,131,-2080,186,-59,32,72,11863,-59,-40,-303,-96,35263,46,34,127,0,0,3339,-10,0,8929,1068,46,8141,-4,0,98,21,98560,0
98591,131,-2081,185,-61,33,79,11857,5,22,-399,-96,35260,31,34,127,0,0,3335,0,0,8929,1068,46,8151,-4,0,98,21,98592,0
98601,126,-2076,194,-65,26,84,11857,0,59,-427,-96,35266,44,34,127,0,0,3335,-21,0,8929,1068,46,8161,-4,0,98,21,98592,0
98611,126,-2079,190,-59,20,85,11857,5,6,-444,-128,35270,26,34,127,0,0,3333,-21,0,8929,1068,46,8171,-4,0,98,21,98592,0
98621,122,-2074,187,-66,32,80,11856,-5,1,-455,-128,35271,3,34,127,0,0,3335,10,0,8929,1068,46,8181,-4,0,98,21,98607,0
98631,137,-2078,198,-66,27,81,11855,-4,-3,-445,-160,35269,19,34,127,0,0,3331,-32,0,8929,1068,46,8191,-4,0,98,21,98607,0
98641,135,-2078,200,-71,32,84,11854,0,-1,-512,-152,35269,11,34,127,0,0,3333,10,0,8929,1068,46,8201,-4,0,98,21,98638,0
98652,146,-2083,183,-73,29,89,11852,-7,-3,-529,-144,35278,9,34,127,0,0,3333,43,0,8929,1068,46,8212,-4,0,98,21,98638,0
98662,147,-2077,187,-66,34,85,11851,0,-1,-525,-168,35278,18,34,127,0,0,3334,21,0,8929,1068,46,8222,-4,0,98,21,98638,0
98672,142,-2075,189,-67,41,91,11849,-3,1,-516,-136,35280,22,34,127,0,0,3333,27,0,8929,1068,46,8232,-4,0,98,21,98654,0
98682,139,-2077,203,-70,33,91,11849,0,3,-520,-160,35284,26,34,127,0,0,3331,-32,0,8929,1068,46,8242,-4,0,98,21,98654,0
98692,146,-2078,197,-80,34,95,11849,1,-1,-534,-160,35290,13,34,127,0,0,3327,-32,0,8929,1068,46,8252,-4,0,98,21,98670,0
98702,138,-2080,187,-74,39,98,11846,-9,-5,-573,-176,35285,13,34,127,0,0,3332,0,0,8929,1068,46,8262,-4,0,98,21,98670,0
98712,141,-2075,184,-69,36,105,11844,-15,-6,-555,-152,35282,28,34,127,0,0,3331,32,0,8929,1068,46,8272,-4,0,98,21,98701,0
98722,161,-2079,190,-70,30,106,11844,-3,-1,-571,-152,35275,32,34,127,0,0,3331,49,0,8929,1068,46,8282,-4,0,98,21,98701,0
98732,148,-2080,197,-71,34,113,11843,1,1,-521,-176,35274,24,34,127,0,0,3328,-10,0,8929,1068,46,8292,-4,0,98,21,98701,0
98742,130,-2075,197,-74,37,108,11839,-11,-6,-580,-168,35274,8,34,127,0,0,3328,0,0,8929,1068,46,8302,-4,0,98,21,98717,0
98752,130,-2079,195,-74,39,112,11833,-19,-12,-548,-152,35275,-1,34,127,0,0,3322,-21,0,8929,1068,46,8312,-4,0,98,21,98732,0
98762,152,-2080,194,-76,35,101,11825,-19,-8,-493,-160,35276,-2,34,127,0,0,3326,-71,0,8929,1068,46,8322,-4,0,98,21,98748,0
98772,144,-2082,191,-73,34,106,11818,-9,-3,-402,-144,35279,-2,34,127,0,0,3329,-38,0,8929,1068,46,8332,-4,0,98,21,98748,0
98782,148,-2073,184,-76,39,116,11809,-20,1,-373,-104,35287,0,34,127,0,0,3332,60,0,8929,1068,46,8342,-4,0,98,21,98795,0
98792,143,-2074,177,-72,40,122,11808,-6,13,-345,-80,35285,13,34,127,0,0,3324,-16,0,8929,1068,46,8352,-4,0,98,21,98795,0
98802,119,-2077,184,-67,39,118,11808,0,7,-359,-104,35278,5,34,127,0,0,3328,-27,0,8929,1068,46,8362,-4,0,98,21,98795,0
98812,117,-2079,192,-65,34,122,11806,-8,-2,-380,-120,35266,15,34,127,0,0,3326,-38,0,8929,1068,46,8372,-4,0,98,21,98810,0
98822,126,-2080,199,-64,37,123,11806,0,1,-385,-72,35267,10,34,127,0,0,3331,27,0,8929,1068,46,8382,-4,0,98,21,98810,0
98832,140,-2083,193,-67,37,118,11808,4,1,-259,-80,35268,13,34,127,0,0,3331,0,0,8929,1068,46,8392,-4,0,98,21,98810,0
98842,130,-2072,187,-62,36,119,11807,-3,-1,-291,-80,35273,22,34,127,0,0,3334,49,0,8929,1068,46,8402,-4,0,98,21,98826,0
98852,139,-2078,183,-65,42,123,11806,0,-2,-270,-72,35281,29,34,127,0,0,3334,49,0,8929,1068,46,8412,-4,0,98,21,98826,0
98862,143,-2078,185,-62,40,111,11807,0,4,-254,-80,35284,16,34,127,0,0,3324,-54,0,8929,1068,46,8422,-4,0,98,21,98842,0
98872,159,-2077,198,-59,39,109,11808,7,-4,-333,-80,35282,18,34,127,0,0,3331,-16,0,8929,1068,46,8432,-4,0,98,21,98873,0
98882,148,-2078,194,-59,39,112,11807,5,0,-260,-80,35282,1,34,127,0,0,3331,0,0,8929,1068,46,8442,-4,0,98,21,98873,0
98892,140,-2076,192,-54,42,114,11806,1,0,-311,-72,35278,11,34,127,0,0,3327,-10,0,8929,1068,46,8452,-4,0,98,21,98873,0
98902,129,-2078,182,-55,42,114,11808,7,-2,-291,-104,35278,13,34,127,0,0,3325,-82,0,8929,1068,46,8462,-4,0,98,21,98873,0
98913,144,-2079,183,-50,42,108,11807,4,4,-313,-88,35264,18,34,127,0,0,3331,0,0,8929,1068,46,8473,-4,0,98,21,98888,0
98923,109,-2075,190,-42,53,115,11807,8,2,-286,-80,35271,33,34,127,0,0,3331,21,0,8929,1068,46,8483,-4,0,98,21,98904,0
98933,147,-2063,188,-43,46,111,11806,1,4,-260,-72,35277,20,34,127,0,0,3331,0,0,8929,1068,46,8493,-4,0,98,21,98920,0
98943,137,-2068,178,-39,47,111,11807,3,3,-248,-80,35281,10,34,127,0,0,3331,-21,0,8929,1068,46,8503,-4,0,98,21,98920,0
98953,139,-2071,189,-35,44,115,11806,0,2,-248,-120,35278,2,34,127,0,0,3331,-21,0,8929,1068,46,8513,-4,0,98,21,98920,0
98963,122,-2081,198,-37,41,126,11807,3,2,-267,-80,35274,8,34,127,0,0,3333,21,0,8929,1068,46,8523,-4,0,98,21,98951,0
98973,154,-2075,207,-35,36,121,11806,-5,1,-253,-72,35274,4,34,127,0,0,3331,-10,0,8929,1068,46,8533,-4,0,98,21,98951,0
98983,126,-2083,190,-36,37,124,11805,-1,-2,-314,-40,35284,16,34,127,0,0,3331,54,0,8929,1068,46,8543,-4,0,98,21,98951,0
98993,137,-2078,184,-26,40,118,11806,-4,-8,-282,-120,35280,21,34,127,0,0,3333,65,0,8929,1068,46,8553,-4,0,98,21,98982,0
99003,129,-2080,188,-27,41,124,11806,-8,-2,-234,-72,35279,24,34,127,0,0,3328,-32,0,8929,1068,46,8563,-4,0,98,21,98982,0
99013,128,-2082,195,-22,39,123,11806,10,0,-331,-96,35275,24,34,127,0,0,3331,21,0,8929,1068,46,8573,-4,0,98,21,98982,0
99023,160,-2078,202,-15,42,125,11805,-3,0,-281,-64,35274,34,34,127,0,0,3331,10,0,8929,1068,46,8583,-4,0,98,21,99013,0
99033,123,-2073,192,-15,39,128,11806,0,1,-258,-40,35278,23,34,127,0,0,3328,-10,0,8929,1068,46,8593,-4,0,98,21,99013,0
99043,141,-2074,192,-13,42,120,11807,8,-2,-254,-88,35278,25,35,127,0,0,3331,-21,0,8929,1068,46,8603,-4,0,98,21,99013,0
99053,150,-2079,200,-6,40,136,11807,2,0,-249,-80,35281,17,34,127,0,0,3328,-43,0,8929,1068,46,8613,-4,0,98,21,99045,0
99063,150,-2081,207,-10,37,134,11806,0,3,-270,-88,35282,22,34,127,0,0,3333,21,0,8929,1068,46,8623,-4,0,98,21,99045,0
99073,142,-2082,210,-5,34,146,11806,-3,3,-202,-40,35280,24,34,127,0,0,3333,-10,0,8929,1068,46,8633,-4,0,98,21,99045,0
99083,148,-2091,204,-3,25,141,11808,8,-1,-181,-32,35280,14,34,127,0,0,3335,21,0,8929,1068,46,8643,-4,0,98,21,99076,0
99093,143,-2076,186,3,24,151,11807,-1,1,-125,-64,35283,12,35,127,0,0,3335,0,0,8929,1068,46,8653,-4,0,98,21,99076,0
99103,140,-2077,171,9,28,155,11807,1,2,-96,-40,35284,1,34,127,0,0,3333,-32,0,8929,1068,46,8663,-4,0,98,21,99076,0
99113,130,-2082,173,26,37,153,11808,8,3,-146,-32,35281,22,34,127,0,0,3337,21,0,8929,1068,46,8673,-4,0,98,21,99091,0
99123,134,-2077,188,36,43,159,11808,-1,-6,-80,-8,35275,18,34,127,0,0,3337,21,0,8929,1068,46,8683,-4,0,98,21,99123,0
99133,153,-2081,208,36,32,167,11809,7,1,-18,8,35273,20,34,127,0,0,3337,0,0,8929,1068,46,8693,-4,0,98,21,99123,0
99143,162,-2081,226,33,33,167,11812,13,1,70,-8,35270,11,34,127,0,0,3339,-32,0,8929,1068,46,8703,-4,0,98,21,99138,0
99153,128,-2084,235,23,30,183,11815,1,-4,-17,48,35267,19,34,127,0,0,3342,32,0,8929,1068,46,8713,-4,0,98,21,99138,0
99164,130,-2080,241,15,32,179,11815,-1,-3,108,48,35276,15,34,127,0,0,3340,5,0,8929,1068,46,8724,-4,0,98,21,99185,0
99174,130,-2075,239,5,34,173,11820,23,12,197,80,35274,18,34,127,0,0,3348,43,0,8929,1068,46,8734,-4,0,98,21,99185,0
99184,119,-2074,242,0,29,175,11843,58,44,171,32,35275,25,34,127,0,0,3348,0,0,8929,1068,46,8744,-4,0,98,21,99185,0
99194,138,-2077,240,-10,23,173,11857,12,24,17,8,35274,18,34,127,0,0,3351,27,0,8929,1068,46,8754,-4,0,98,21,99185,0
99204,98,-2075,227,-19,20,165,11857,-2,-51,88,32,35279,10,34,127,0,0,3350,43,0,8929,1068,46,8764,-4,0,98,21,99185,0
99214,121,-2075,215,-24,37,163,11862,17,-10,209,40,35275,13,34,127,0,0,3349,-71,0,8929,1068,46,8774,-4,0,98,21,99185,0
99224,143,-2061,224,-20,35,161,11863,3,-3,103,40,35281,18,34,127,0,0,3356,65,0,8929,1068,46,8784,-4,0,98,21,99201,0
99234,130,-2064,231,-29,32,164,11867,12,-7,274,32,35283,21,34,127,0,0,3356,-5,0,8929,1068,46,8794,-4,0,98,21,99263,0
99244,123,-2065,227,-35,31,162,11868,6,5,268,80,35287,20,34,127,0,0,3354,-10,0,8929,1068,46,8804,-4,0,98,21,99263,0
99254,128,-2070,226,-30,28,173,11869,6,-4,307,104,35284,15,34,127,0,0,3359,27,0,8929,1068,46,8814,-4,0,98,21,99263,0
99264,136,-2076,238,-36,31,177,11872,4,8,346,112,35272,39,34,127,0,0,3358,21,0,8929,1068,46,8824,-4,0,98,21,99279,0
99274,132,-2072,240,-47,29,186,11875,3,-1,373,112,35267,23,34,127,0,0,3365,38,0,8929,1068,46,8834,-4,0,98,21,99279,0
99284,116,-2074,238,-53,25,183,11881,23,-3,442,104,35265,16,34,127,0,0,3368,43,0,8929,1068,46,8844,-4,0,98,21,99279,0
99294,107,-2072,229,-59,26,176,11889,27,12,480,136,35271,19,35,127,0,0,3366,0,0,8929,1068,46,8854,-4,0,98,21,99279,0
99304,115,-2081,222,-63,32,173,11915,72,42,308,104,35277,35,34,127,0,0,3371,71,0,8929,1068,46,8864,-4,0,98,21,99279,0
99314,135,-2072,228,-72,16,175,11942,25,44,216,48,35281,40,34,127,0,0,3371,38,0,8929,1068,46,8874,-4,0,98,21,99279,0
99324,81,-2083,228,-65,22,162,11940,4,-64,253,96,35284,40,34,127,0,0,3369,43,0,8929,1068,46,8884,-4,0,98,21,99310,0
99334,120,-2075,235,-72,37,153,11941,0,-40,295,96,35280,44,34,127,0,0,3372,32,0,8929,1068,46,8894,-4,0,98,21,99310,0
99344,122,-2077,234,-79,26,147,11942,0,5,386,120,35278,51,34,127,0,0,3375,5,0,8929,1068,46,8904,-4,0,98,21,99310,0
99354,125,-2076,234,-78,17,147,11942,-1,3,401,112,35269,64,34,127,0,0,3375,5,0,8929,1068,46,8914,-4,0,98,21,99357,0
99364,108,-2073,224,-85,22,146,11942,-5,2,407,160,35273,43,34,127,0,0,3372,5,0,8929,1068,46,8924,-4,0,98,21,99357,0
99374,136,-2081,222,-85,25,149,11946,3,-3,383,136,35274,34,34,127,0,0,3380,65,0,8929,1068,46,8934,-4,0,98,21,99373,0
99384,125,-2074,223,-89,35,147,11948,6,2,455,144,35269,29,34,127,0,0,3379,27,0,8929,1068,46,8944,-4,0,98,21,99373,0
99394,145,-2078,230,-83,30,156,11958,16,14,395,128,35263,24,34,127,0,0,3379,43,0,8929,1068,46,8954,-4,0,98,21,99373,0
99405,132,-2072,225,-91,26,169,11977,43,22,344,128,35271,35,34,127,0,0,3379,-10,0,8929,1068,46,8965,-4,0,98,21,99373,0
99415,141,-2068,222,-88,21,182,11993,20,20,286,104,35277,31,34,127,0,0,3381,0,0,8929,1068,46,8975,-4,0,98,21,99404,0
99425,133,-2083,216,-81,27,183,11996,6,-30,370,80,35273,27,34,127,0,0,3383,-21,0,8929,1068,46,8985,-4,0,98,21,99404,0
99435,143,-2073,216,-77,31,187,11998,15,-26,385,128,35271,27,34,127,0,0,3390,32,0,8929,1068,46,8995,-4,0,98,21,99404,0
99445,114,-2080,223,-72,26,198,12003,15,10,487,160,35272,29,34,127,0,0,3392,54,0,8929,1068,46,9005,-4,0,98,21,99435,0
99455,122,-2082,216,-77,21,203,12018,37,31,459,152,35278,14,34,127,0,0,3394,43,0,8929,1068,46,9015,-4,0,98,21,99435,0
99465,94,-2084,223,-73,32,205,12050,97,55,343,112,35273,12,34,127,0,0,3396,10,0,8929,1068,46,9025,-4,0,98,21,99451,0
99475,148,-2087,229,-72,22,212,12080,31,38,261,88,35266,1,34,127,0,0,3401,65,0,8929,1068,46,9035,-4,0,98,21,99451,0
99485,92,-2080,225,-70,26,200,12093,29,-51,328,88,35264,1,34,127,0,0,3403,32,0,8929,1068,46,9045,-4,0,98,21,99451,0
99495,94,-2081,224,-72,33,197,12110,35,-14,275,72,35281,7,34,127,0,0,3405,54,0,8929,1068,46,9055,-4,0,98,21,99482,0
99505,110,-2066,226,-69,31,198,12117,1,-8,315,80,35284,-1,34,127,0,0,3405,0,0,8929,1068,46,9065,-4,0,98,21,99482,0
99515,91,-2075,222,-69,31,195,12116,0,-36,347,136,35285,5,34,127,0,0,3412,54,0,8929,1068,46,9075,-4,0,98,21,99482,0
99525,95,-2063,213,-61,30,190,12121,11,-8,413,152,35282,3,34,127,0,0,3412,32,0,8929,1068,46,9085,-4,0,98,21,99576,0
99535,95,-2069,217,-57,29,179,12127,16,11,455,160,35283,2,34,127,0,0,3412,21,0,8929,1068,46,9095,-4,0,98,21,99576,0
99545,105,-2077,221,-60,32,172,12130,-4,-6,468,144,35281,-5,34,127,0,0,3416,43,0,8929,1068,46,9105,-4,0,98,21,99576,0
99555,89,-2078,220,-58,30,165,12136,19,-5,527,152,35280,-2,34,127,0,0,3416,-10,0,8929,1068,46,9115,-4,0,98,21,99576,0
99565,85,-2078,224,-59,38,154,12144,17,11,471,168,35273,3,34,127,0,0,3416,0,0,8929,1068,46,9125,-4,0,98,21,99591,0
99575,92,-2079,223,-60,41,139,12165,58,35,372,88,35263,0,34,127,0,0,3421,10,0,8929,1068,46,9135,-4,0,98,21,99591,0
99585,120,-2074,233,-71,25,138,12191,41,39,261,56,35260,-4,34,127,0,0,3416,-21,0,8929,1068,46,9145,-4,0,98,21,99591,0
99595,86,-2072,231,-65,37,125,12193,3,-48,224,104,35259,3,34,127,0,0,3421,0,0,8929,1068,46,9155,-4,0,98,21,99591,0
99605,105,-2073,220,-66,40,125,12194,7,-39,297,72,35263,16,34,127,0,0,3421,10,0,8929,1068,46,9165,-4,0,98,21,99591,0
99615,110,-2069,215,-62,40,122,12194,4,1,351,104,35273,16,34,127,0,0,3421,-32,0,8929,1068,46,9175,-4,0,98,21,99591,0
99625,102,-2078,228,-64,28,128,12196,0,-1,285,48,35284,13,34,127,0,0,3423,54,0,8929,1068,46,9185,-4,0,98,21,99591,0
99635,102,-2070,230,-64,30,129,12199,21,4,390,120,35296,12,34,127,0,0,3421,-54,0,8929,1068,46,9195,-4,0,98,21,99623,0
99645,121,-2078,219,-61,35,124,12206,6,14,219,56,35294,17,34,127,0,0,3423,65,0,8929,1068,46,9205,-4,0,98,21,99623,0
99655,98,-2085,222,-62,33,124,12212,18,-1,314,56,35282,27,34,127,0,0,3427,43,0,8929,1068,46,9215,-4,0,98,21,99638,0
99666,122,-2065,218,-60,28,123,12231,36,26,120,56,35276,19,34,127,0,0,3428,131,0,8929,1068,46,9226,-4,0,98,21,99638,0
99676,101,-2081,221,-67,36,121,12237,9,-8,179,40,35284,4,34,127,0,0,3425,0,0,8929,1068,46,9236,-4,0,98,21,99669,0
99686,123,-2073,224,-63,45,114,12237,-6,-34,148,16,35285,5,34,127,0,0,3423,-10,0,8929,1068,46,9246,-4,0,98,21,99669,0
99696,112,-2078,235,-62,39,115,12237,-1,-12,104,-8,35282,12,34,127,0,0,3421,-54,0,8929,1068,46,9256,-4,0,98,21,99669,0
99706,105,-2072,236,-69,40,129,12236,0,0,78,0,35274,50,34,127,0,0,3424,5,0,8929,1068,46,9266,-4,0,98,21,99701,0
99716,91,-2073,241,-68,31,122,12236,3,2,111,0,35276,42,34,127,0,0,3427,21,0,8929,1068,46,9276,-4,0,98,21,99701,0
99726,103,-2076,230,-74,34,121,12237,-1,3,185,64,35280,39,34,127,0,0,3424,16,0,8929,1068,46,9286,-4,0,98,21,99701,0
99736,97,-2072,232,-69,37,116,12236,-1,-6,131,40,35271,32,34,127,0,0,3428,49,0,8929,1068,46,9296,-4,0,98,21,99701,0
99746,91,-2081,230,-80,37,112,12237,-7,-2,164,-8,35280,18,34,127,0,0,3427,0,0,8929,1068,46,9306,-4,0,98,21,99748,0
99756,67,-2086,233,-77,36,117,12237,0,-2,133,16,35279,19,34,127,0,0,3429,71,0,8929,1068,46,9316,-4,0,98,21,99748,0
99766,105,-2077,228,-80,31,103,12238,2,5,187,16,35283,20,34,127,0,0,3420,-71,0,8929,1068,46,9326,-4,0,98,21,99748,0
99776,110,-2079,233,-82,34,96,12238,0,-2,63,40,35272,24,34,127,0,0,3422,5,0,8929,1068,46,9336,-4,0,98,21,99748,0
99786,106,-2075,238,-83,40,88,12237,-4,-4,65,16,35274,23,34,127,0,0,3429,93,0,8929,1068,46,9346,-4,0,98,21,99779,0
99796,91,-2070,242,-85,37,94,12237,-3,0,115,16,35281,50,34,127,0,0,3423,21,0,8929,1068,46,9356,-4,0,98,21,99779,0
99806,98,-2075,239,-90,30,83,12237,2,0,47,16,35284,43,34,127,0,0,3429,82,0,8929,1068,46,9366,-4,0,98,21,99794,0
99816,82,-2084,234,-88,31,82,12236,-14,-3,73,40,35286,38,34,127,0,0,3422,76,0,8929,1068,46,9376,-4,0,98,21,99794,0
99826,131,-2078,227,-95,33,72,12237,-4,-3,46,-8,35283,25,34,127,0,0,3417,-38,0,8929,1068,46,9386,-4,0,98,21,99794,0
99836,122,-2081,226,-94,34,72,12236,-1,1,-39,0,35290,14,34,127,0,0,3417,-38,0,8929,1068,46,9396,-4,0,98,21,99826,0
99846,91,-2086,220,-95,47,66,12236,2,5,0,-24,35293,9,34,127,0,0,3418,-71,0,8929,1068,46,9406,-4,0,98,21,99826,0
99856,98,-2083,221,-91,43,51,12234,5,2,-77,-40,35286,11,35,127,0,0,3416,-21,0,8929,1068,46,9416,-4,0,98,21,99826,0
99866,110,-2077,225,-90,46,56,12233,-7,-2,-163,-40,35285,26,34,127,0,0,3410,-65,0,8929,1068,46,9426,-4,0,98,21,99951,0
99876,128,-2081,235,-93,39,60,12230,-2,-2,-276,-80,35280,35,34,127,0,0,3412,-27,0,8929,1068,46,9436,-4,0,98,21,99951,0
99886,100,-2074,233,-87,47,61,12228,2,-2,-284,-96,35280,28,35,127,0,0,3413,-5,0,8929,1068,46,9446,-4,0,98,21,99951,0
99896,115,-2068,237,-90,42,62,12226,-7,8,-306,-96,35281,19,34,127,0,0,3406,-49,0,8929,1068,46,9456,-4,0,98,21,99951,0
99906,126,-2064,240,-96,37,58,12222,-14,-3,-402,-104,35277,8,34,127,0,0,3407,27,0,8929,1068,46,9466,-4,0,98,21,99966,0
99916,108,-2065,237,-100,43,67,12217,-9,-7,-391,-120,35274,10,34,127,0,0,3405,-5,0,8929,1068,46,9476,-4,0,98,21,99966,0
99926,115,-2064,234,-101,51,65,12213,-6,2,-387,-112,35272,18,34,127,0,0,3405,0,0,8929,1068,46,9486,-4,0,98,21,99966,0
99936,126,-2072,233,-102,48,69,12205,-17,-2,-381,-96,35278,16,34,127,0,0,3405,16,0,8929,1068,46,9496,-4,0,98,21,99966,0
99946,120,-2067,232,-102,41,77,12190,-32,-15,-299,-112,35281,20,34,127,0,0,3401,-49,0,8929,1068,46,9506,-4,0,98,21,99966,0
99956,122,-2075,234,-102,44,77,12174,-25,-16,-251,-80,35280,16,34,127,0,0,3401,-5,0,8929,1068,46,9516,-4,0,98,21,99966,0
99966,146,-2073,228,-113,45,83,12174,-5,31,-319,-120,35275,21,34,127,0,0,3396,-65,0,8929,1068,46,9526,-4,0,98,21,99966,0
99976,134,-2077,233,-111,46,90,12171,-1,21,-358,-120,35275,15,34,127,0,0,3396,-27,0,8929,1068,46,9536,-4,0,98,21,99966,0
99987,122,-2078,224,-111,41,94,12171,-3,4,-351,-128,35274,4,34,127,0,0,3396,-10,0,8929,1068,46,9547,-4,0,98,21,99966,0
99997,129,-2081,223,-113,43,103,12171,9,12,-371,-120,35279,21,34,127,0,0,3396,0,0,8929,1068,46,9557,-4,0,98,21,99982,0
100007,126,-2087,219,-108,36,112,12170,-5,3,-364,-112,35298,25,34,127,0,0,3394,-21,0,8929,1068,46,9567,-4,0,98,21,99982,0
100017,123,-2081,218,-106,39,118,12167,-12,-4,-425,-96,35302,42,34,127,0,0,3396,21,0,8929,1068,46,9577,-4,0,98,21,99997,0
100027,125,-2085,203,-97,34,123,12166,-5,-7,-406,-96,35294,18,34,127,0,0,3396,32,0,8929,1068,46,9587,-4,0,98,21,99997,0
100037,132,-2074,211,-92,42,119,12167,2,7,-379,-112,35277,-2,34,127,0,0,3396,10,0,8929,1068,46,9597,-4,0,98,21,100013,0
100047,114,-2078,219,-95,43,125,12165,-9,-6,-404,-104,35271,1,34,127,0,0,3396,43,0,8929,1068,46,9607,-4,0,98,21,100044,0
100057,126,-2080,231,-94,43,125,12164,-4,3,-367,-136,35282,10,34,127,0,0,3396,0,0,8929,1068,46,9617,-4,0,98,21,100044,0
100067,135,-2075,230,-89,37,135,12165,3,1,-362,-104,35278,10,34,127,0,0,3394,-21,0,8929,1068,46,9627,-4,0,98,21,100044,0
100077,125,-2070,222,-85,45,143,12164,-8,-1,-367,-104,35278,16,34,127,0,0,3396,0,0,8929,1068,46,9637,-4,0,98,21,100044,0
100087,131,-2071,216,-84,46,146,12164,0,10,-369,-104,35284,4,34,127,0,0,3396,21,0,8929,1068,46,9647,-4,0,98,21,100076,0
100097,138,-2070,212,-77,41,162,12163,-3,4,-394,-120,35281,2,34,127,0,0,3396,32,0,8929,1068,46,9657,-4,0,98,21,100076,0
100107,131,-2078,204,-70,41,172,12164,0,-2,-364,-104,35277,0,34,127,0,0,3396,21,0,8929,1068,46,9667,-4,0,98,21,100076,0
100117,131,-2076,208,-61,32,196,12163,-7,1,-363,-64,35278,3,34,127,0,0,3396,0,0,8929,1068,46,9677,-4,0,98,21,100091,0
100127,146,-2079,207,-56,30,213,12165,1,4,-313,-64,35279,11,34,127,0,0,3403,65,0,8929,1068,46,9687,-4,0,98,21,100107,0
100137,124,-2082,214,-49,26,225,12165,-2,1,-178,8,35281,16,34,127,0,0,3405,43,0,8929,1068,46,9697,-4,0,98,21,100107,0
100148,108,-2091,217,-46,28,239,12170,0,2,-70,0,35290,8,34,127,0,0,3407,32,0,8929,1068,46,9708,-4,0,98,21,100138,0
100158,108,-2074,215,-39,24,242,12173,12,1,49,16,35288,20,34,127,0,0,3413,16,0,8929,1068,46,9718,-4,0,98,21,100138,0
100168,120,-2079,219,-37,23,238,12180,11,4,137,64,35286,22,34,127,0,0,3410,5,0,8929,1068,46,9728,-4,0,98,21,100154,0
100178,107,-2074,224,-32,19,239,12185,9,1,201,96,35272,29,34,127,0,0,3417,16,0,8929,1068,46,9738,-4,0,98,21,100154,0
100188,83,-2075,230,-34,24,242,12195,22,6,315,128,35280,17,34,127,0,0,3428,71,0,8929,1068,46,9748,-4,0,98,21,100185,0
100198,84,-2078,234,-33,29,225,12222,75,34,329,96,35274,18,34,127,0,0,3427,10,0,8929,1068,46,9758,-4,0,98,21,100185,0
100208,100,-2077,257,-42,26,232,12255,52,45,224,96,35282,17,34,127,0,0,3434,10,0,8929,1068,46,9768,-4,0,98,21,100185,0
100218,56,-2079,244,-47,27,210,12255,0,-62,402,120,35272,18,34,127,0,0,3439,49,0,8929,1068,46,9778,-4,0,98,21,100185,0
100228,85,-2070,247,-52,35,195,12255,3,-60,489,136,35271,28,34,127,0,0,3442,32,0,8929,1068,46,9788,-4,0,98,21,100216,0
100238,65,-2073,250,-64,34,183,12259,18,6,568,152,35261,26,34,127,0,0,3447,60,0,8929,1068,46,9798,-4,0,98,21,100216,0
100248,71,-2070,243,-60,31,166,12265,14,14,594,160,35265,23,34,127,0,0,3446,38,0,8929,1068,46,9808,-4,0,98,21,100232,0
100258,67,-2071,238,-71,33,151,12277,28,19,524,136,35269,11,34,127,0,0,3453,76,0,8929,1068,46,9818,-4,0,98,21,100232,0
100268,46,-2072,231,-74,38,136,12295,48,23,463,152,35281,17,34,127,0,0,3444,5,0,8929,1068,46,9828,-4,0,98,21,100310,0
100278,96,-2072,239,-81,36,118,12308,0,8,386,120,35282,9,34,127,0,0,3447,27,0,8929,1068,46,9838,-4,0,98,21,100310,0
100288,89,-2080,233,-80,35,110,12309,-1,-42,451,120,35271,-6,34,127,0,0,3447,0,0,8929,1068,46,9848,-4,0,98,21,100310,0
100298,82,-2076,238,-86,40,95,12310,5,-24,465,120,35268,-22,34,127,0,0,3447,-16,0,8929,1068,46,9858,-4,0,98,21,100326,0
100308,91,-2077,243,-93,37,97,12309,4,5,414,96,35269,-13,34,127,0,0,3448,27,0,8929,1068,46,9868,-4,0,98,21,100326,0
100318,92,-2081,233,-94,33,88,12309,-4,-2,448,96,35274,-16,34,127,0,0,3448,-5,0,8929,1068,46,9878,-4,0,98,21,100326,0
100328,90,-2078,234,-90,40,83,12308,-5,0,392,120,35273,-16,34,127,0,0,3444,5,0,8929,1068,46,9888,-4,0,98,21,100326,0
100338,117,-2076,236,-99,40,84,12309,5,1,381,96,35268,-28,34,127,0,0,3445,-10,0,8929,1068,46,9898,-4,0,98,21,100326,0
100348,93,-2078,230,-99,42,84,12308,0,3,393,96,35263,-26,34,127,0,0,3445,-10,0,8929,1068,46,9908,-4,0,98,21,100326,0
100358,108,-2074,234,-99,35,81,12307,-6,-1,298,56,35263,-24,34,127,0,0,3440,-21,0,8929,1068,46,9918,-4,0,98,21,100326,0
100368,95,-2080,231,-100,37,83,12307,2,-1,262,56,35260,1,34,127,0,0,3444,-5,0,8929,1068,46,9928,-4,0,98,21,100357,0
100378,103,-2082,235,-103,44,77,12307,-2,4,254,56,35269,8,34,127,0,0,3440,5,0,8929,1068,46,9938,-4,0,98,21,100357,0
100388,107,-2083,238,-106,40,76,12307,4,-2,200,56,35265,15,34,127,0,0,3440,0,0,8929,1068,46,9948,-4,0,98,21,100357,0
100399,103,-2083,236,-106,46,77,12306,-4,-2,140,16,35272,17,34,127,0,0,3436,-21,0,8929,1068,46,9959,-4,0,98,21,100388,0
100409,101,-2077,230,-108,43,82,12303,-1,-10,92,24,35266,-8,34,127,0,0,3436,0,0,8929,1068,46,9969,-4,0,98,21,100388,0
100419,113,-2067,228,-110,47,87,12303,5,4,73,-32,35266,-9,34,127,0,0,3432,-54,0,8929,1068,46,9979,-4,0,98,21,100404,0
100429,97,-2078,224,-103,40,91,12298,6,-4,22,-24,35262,-29,34,127,0,0,3436,32,0,8929,1068,46,9989,-4,0,98,21,100404,0
100439,110,-2072,227,-103,39,100,12299,-3,3,90,8,35264,-5,34,127,0,0,3434,10,0,8929,1068,46,9999,-4,0,98,21,100419,0
100449,128,-2076,229,-103,43,97,12299,0,6,50,-32,35265,11,34,127,0,0,3434,0,0,8929,1068,46,10009,-4,0,98,21,100419,0
100459,120,-2078,225,-105,39,109,12299,-2,3,47,-32,35268,7,34,127,0,0,3432,-43,0,8929,1068,46,10019,-4,0,98,21,100451,0
100469,89,-2071,222,-102,37,120,12297,9,-1,-42,-16,35271,14,34,127,0,0,3432,-10,0,8929,1068,46,10029,-4,0,98,21,100451,0
100479,87,-2073,222,-96,35,119,12296,-1,1,-45,-48,35273,0,34,127,0,0,3434,10,0,8929,1068,46,10039,-4,0,98,21,100451,0
100489,135,-2073,224,-105,33,128,12296,7,11,2,-48,35273,-6,34,127,0,0,3432,0,0,8929,1068,46,10049,-4,0,98,21,100466,0
100499,108,-2077,229,-108,42,131,12295,1,1,0,-8,35272,5,34,127,0,0,3434,21,0,8929,1068,46,10059,-4,0,98,21,100482,0
100509,111,-2069,229,-105,39,122,12295,-3,-1,6,-8,35275,-5,34,127,0,0,3429,-10,0,8929,1068,46,10069,-4,0,98,21,100482,0
100519,124,-2085,234,-110,38,116,12294,0,0,-64,0,35271,-3,34,127,0,0,3432,32,0,8929,1068,46,10079,-4,0,98,21,100513,0
100529,114,-2079,231,-108,37,117,12294,-7,-3,0,-8,35273,0,34,127,0,0,3429,-21,0,8929,1068,46,10089,-4,0,98,21,100513,0
100539,129,-2073,205,-102,40,115,12294,-6,-2,-64,-8,35266,-1,34,127,0,0,3429,-10,0,8929,1068,46,10099,-4,0,98,21,100513,0
100549,73,-2097,194,-94,36,128,12293,-5,-6,-55,-8,35269,-4,34,127,0,0,3432,-10,0,8929,1068,46,10109,-4,0,98,21,100529,0
100559,82,-2084,211,-82,39,133,12295,0,3,-61,-8,35268,-16,34,127,0,0,3432,10,0,8929,1068,46,10119,-4,0,98,21,100529,0
100569,105,-2085,222,-77,43,141,12296,7,2,-43,0,35276,3,34,127,0,0,3432,-21,0,8929,1068,46,10129,-4,0,98,21,100544,0
100579,112,-2081,223,-76,43,143,12295,5,0,-1,-56,35287,-18,34,127,0,0,3434,10,0,8929,1068,46,10139,-4,0,98,21,100575,0
100589,140,-2077,214,-65,32,147,12296,9,4,29,24,35293,-16,34,127,0,0,3432,-10,0,8929,1068,46,10149,-4,0,98,21,100575,0
100599,131,-2086,209,-69,32,150,12296,4,2,31,48,35284,-17,34,127,0,0,3436,32,0,8929,1068,46,10159,-4,0,98,21,100575,0
100609,88,-2072,216,-54,35,164,12296,0,-1,103,48,35276,-4,34,127,0,0,3436,-10,0,8929,1068,46,10169,-4,0,98,21,100575,0
100619,85,-2071,214,-51,36,157,12298,11,0,107,40,35266,-1,34,127,0,0,3436,10,0,8929,1068,46,10179,-4,0,98,21,100669,0
100629,94,-2077,221,-47,38,162,12299,1,1,193,24,35265,-6,34,127,0,0,3436,0,0,8929,1068,46,10189,-4,0,98,21,100685,0
100639,98,-2074,228,-56,37,160,12298,5,-4,187,32,35266,-6,34,127,0,0,3436,0,0,8929,1068,46,10199,-4,0,98,21,100685,0
100649,97,-2068,224,-50,39,154,12298,0,3,233,40,35267,0,34,127,0,0,3436,-43,0,8929,1068,46,10209,-4,0,98,21,100685,0
100659,97,-2068,230,-50,38,152,12300,11,5,190,16,35267,-22,34,127,0,0,3440,-10,0,8929,1068,46,10219,-4,0,98,21,100685,0
100669,82,-2066,226,-54,30,158,12301,14,3,249,64,35268,-20,34,127,0,0,3438,-21,0,8929,1068,46,10229,-4,0,98,21,100700,0
100679,85,-2074,227,-54,39,152,12302,3,2,256,64,35273,-22,34,127,0,0,3440,0,0,8929,1068,46,10239,-4,0,98,21,100700,0
100689,88,-2077,243,-54,42,144,12300,-3,-6,263,72,35275,-13,34,127,0,0,3443,21,0,8929,1068,46,10249,-4,0,98,21,100700,0
100699,82,-2076,242,-55,44,142,12302,1,3,279,64,35274,-8,34,127,0,0,3443,32,0,8929,1068,46,10259,-4,0,98,21,100700,0
100710,102,-2081,231,-63,42,129,12302,-4,5,316,88,35269,-9,34,127,0,0,3439,-10,0,8929,1068,46,10270,-4,0,98,21,100700,0
100720,117,-2078,231,-57,36,120,12304,2,1,306,104,35280,-3,34,127,0,0,3442,16,0,8929,1068,46,10280,-4,0,98,21,100700,0
100730,72,-2081,232,-58,41,121,12305,1,0,272,104,35290,-11,34,127,0,0,3442,27,0,8929,1068,46,10290,-4,0,98,21,100700,0
100740,102,-2075,230,-61,38,111,12304,-3,-4,319,80,35307,-15,34,127,0,0,3446,32,0,8929,1068,46,10300,-4,0,98,21,100732,0
100750,78,-2082,238,-60,46,109,12304,-7,-1,359,80,35310,-7,34,127,0,0,3439,-49,0,8929,1068,46,10310,-4,0,98,21,100732,0
100760,92,-2072,242,-68,43,104,12305,0,-4,296,104,35301,4,34,127,0,0,3442,-21,0,8929,1068,46,10320,-4,0,98,21,100732,0
100770,92,-2079,246,-66,42,100,12306,-1,2,371,56,35283,-1,34,127,0,0,3444,-54,0,8929,1068,46,10330,-4,0,98,21,100763,0
100780,82,-2081,230,-72,43,100,12304,-2,-4,334,104,35277,3,34,127,0,0,3442,-21,0,8929,1068,46,10340,-4,0,98,21,100763,0
100790,107,-2078,231,-67,37,103,12306,9,0,362,80,35281,7,34,127,0,0,3439,-82,0,8929,1068,46,10350,-4,0,98,21,100763,0
100800,113,-2080,237,-73,35,105,12305,-3,3,289,104,35281,10,34,127,0,0,3445,49,0,8929,1068,46,10360,-4,0,98,21,100794,0
100810,114,-2079,237,-73,35,107,12305,-4,1,318,104,35287,12,34,127,0,0,3442,43,0,8929,1068,46,10370,-4,0,98,21,100794,0
100820,119,-2076,236,-76,40,112,12306,3,2,296,104,35287,-7,34,127,0,0,3438,-21,0,8929,1068,46,10380,-4,0,98,21,100810,0
100830,104,-2077,223,-78,40,118,12306,2,2,295,80,35295,-15,34,127,0,0,3443,-10,0,8929,1068,46,10390,-4,0,98,21,100810,0
100840,108,-2074,228,-76,38,124,12306,1,-2,337,104,35296,-12,34,127,0,0,3442,-32,0,8929,1068,46,10400,-4,0,98,21,100810,0
100850,124,-2077,243,-76,41,124,12306,0,-5,268,80,35300,-12,34,127,0,0,3443,21,0,8929,1068,46,10410,-4,0,98,21,100841,0
100860,121,-2073,246,-85,39,128,12304,-5,-4,237,64,35296,-7,34,127,0,0,3440,10,0,8929,1068,46,10420,-4,0,98,21,100841,0
100870,98,-2062,246,-87,47,132,12305,1,-1,270,80,35285,-10,34,127,0,0,3446,38,0,8929,1068,46,10430,-4,0,98,21,100841,0
100880,91,-2068,239,-87,43,144,12306,-2,3,360,104,35276,-12,34,127,0,0,3442,0,0,8929,1068,46,10440,-4,0,98,21,100857,0
100890,107,-2071,240,-89,44,145,12305,-3,2,340,104,35278,-11,34,127,0,0,3445,5,0,8929,1068,46,10450,-4,0,98,21,100888,0
100901,97,-2075,225,-92,41,149,12306,-7,3,360,80,35297,-5,34,127,0,0,3440,-32,0,8929,1068,46,10461,-4,0,98,21,100888,0
100911,117,-2079,227,-90,41,143,12305,2,2,343,104,35291,-23,34,127,0,0,3443,-21,0,8929,1068,46,10471,-4,0,98,21,100888,0
100921,84,-2082,237,-91,40,154,12306,3,-1,371,104,35286,-22,34,127,0,0,3443,-21,0,8929,1068,46,10481,-4,0,98,21,100888,0
100931,98,-2097,228,-93,34,155,12307,4,-2,373,104,35288,-26,34,127,0,0,3445,0,0,8929,1068,46,10491,-4,0,98,21,100935,0
100941,104,-2083,233,-89,36,163,12306,2,4,370,104,35292,-3,34,127,0,0,3445,21,0,8929,1068,46,10501,-4,0,98,21,100935,0
100951,91,-2080,228,-87,32,160,12307,3,-2,408,136,35289,-4,34,127,0,0,3447,10,0,8929,1068,46,10511,-4,0,98,21,100935,0
100961,100,-2081,238,-96,33,164,12307,-4,-2,449,120,35278,-6,34,127,0,0,3447,0,0,8929,1068,46,10521,-4,0,98,21,100935,0
100971,95,-2076,239,-93,42,157,12308,2,3,488,144,35287,-9,35,127,0,0,3449,0,0,8929,1068,46,10531,-4,0,98,21,100966,0
100981,93,-2079,235,-100,32,155,12311,-1,0,525,192,35291,-7,34,127,0,0,3451,10,0,8929,1068,46,10541,-4,0,98,21,100966,0
100991,100,-2076,226,-95,29,158,12316,3,4,471,128,35290,0,34,127,0,0,3451,10,0,8929,1068,46,10551,-4,0,98,21,100966,0
101001,90,-2073,226,-100,39,149,12316,0,-8,536,136,35290,-3,34,127,0,0,3451,0,0,8929,1068,46,10561,-4,0,98,21,100966,0
101011,94,-2071,229,-94,39,148,12319,6,2,540,168,35286,-17,34,127,0,0,3454,21,0,8929,1068,46,10571,-4,0,98,21,100982,0
101021,102,-2068,234,-103,40,149,12323,12,5,558,192,35286,-17,34,127,0,0,3456,21,0,8929,1068,46,10581,-4,0,98,21,100997,0
101031,95,-2071,226,-95,41,150,12334,35,15,527,160,35285,-10,34,127,0,0,3458,21,0,8929,1068,46,10591,-4,0,98,21,101028,0
101041,83,-2076,227,-96,42,156,12364,82,43,362,96,35283,-9,34,127,0,0,3456,-21,0,8929,1068,46,10601,-4,0,98,21,101028,0
101051,119,-2077,231,-95,43,161,12380,5,13,275,96,35284,-12,34,127,0,0,3456,-21,0,8929,1068,46,10611,-4,0,98,21,101028,0
101061,82,-2077,219,-85,45,162,12380,5,-69,317,88,35284,-3,34,127,0,0,3458,0,0,8929,1068,46,10621,-4,0,98,21,101028,0
101071,96,-2074,223,-81,41,157,12379,-8,-29,345,88,35288,-9,34,127,0,0,3460,32,0,8929,1068,46,10631,-4,0,98,21,101075,0
101081,102,-2070,228,-81,34,165,12381,6,3,399,104,35292,-7,34,127,0,0,3462,21,0,8929,1068,46,10641,-4,0,98,21,101075,0
101091,77,-2075,227,-84,38,163,12382,9,1,450,96,35294,-6,34,127,0,0,3465,32,0,8929,1068,46,10651,-4,0,98,21,101075,0
101101,75,-2075,228,-80,31,156,12388,15,10,474,80,35286,-7,34,127,0,0,3465,10,0,8929,1068,46,10661,-4,0,98,21,101075,0
101111,66,-2078,231,-78,35,151,12392,18,4,498,128,35279,11,34,127,0,0,3467,21,0,8929,1068,46,10671,-4,0,98,21,101075,0
101121,80,-2083,237,-88,40,143,12401,14,6,425,112,35287,27,34,127,0,0,3469,43,0,8929,1068,46,10681,-4,0,98,21,101107,0
101131,71,-2085,243,-86,35,139,12415,35,16,352,88,35285,29,34,127,0,0,3467,0,0,8929,1068,46,10691,-4,0,98,21,101107,0
101142,86,-2079,240,-92,30,126,12422,1,-5,301,72,35282,41,34,127,0,0,3468,27,0,8929,1068,46,10702,-4,0,98,21,101107,0
101152,68,-2078,227,-87,35,129,12424,4,-27,346,112,35279,37,34,127,0,0,3462,-60,0,8929,1068,46,10712,-4,0,98,21,101169,0
101162,74,-2079,220,-90,39,118,12426,7,-4,335,88,35287,51,34,127,0,0,3467,-38,0,8929,1068,46,10722,-4,0,98,21,101169,0
101172,85,-2077,220,-82,35,117,12428,4,2,342,80,35287,52,34,127,0,0,3467,-38,0,8929,1068,46,10732,-4,0,98,21,101169,0
101182,82,-2074,224,-86,38,122,12427,3,-3,294,80,35276,47,34,127,0,0,3470,38,0,8929,1068,46,10742,-4,0,98,21,101169,0
101192,88,-2078,227,-84,35,123,12427,-2,0,345,80,35272,38,34,127,0,0,3467,-21,0,8929,1068,46,10752,-4,0,98,21,101185,0
101202,85,-2079,234,-87,37,125,12429,8,3,346,104,35271,31,34,127,0,0,3462,-76,0,8929,1068,46,10762,-4,0,98,21,101185,0
101212,99,-2079,232,-82,32,119,12428,9,1,305,80,35282,17,34,127,0,0,3467,-43,0,8929,1068,46,10772,-4,0,98,21,101185,0
101222,82,-2077,235,-82,35,128,12427,2,3,326,80,35286,8,34,127,0,0,3467,-32,0,8929,1068,46,10782,-4,0,98,21,101200,0
101232,88,-2073,235,-85,36,118,12427,-5,-4,282,80,35289,11,34,127,0,0,3467,27,0,8929,1068,46,10792,-4,0,98,21,101200,0
101242,81,-2075,236,-84,38,121,12427,-3,-1,309,80,35283,14,34,127,0,0,3470,16,0,8929,1068,46,10802,-4,0,98,21,101232,0
101252,94,-2075,228,-93,38,124,12429,3,-1,371,80,35276,20,34,127,0,0,3467,-38,0,8929,1068,46,10812,-4,0,98,21,101247,0
101262,89,-2075,222,-82,37,121,12429,6,10,341,120,35275,28,34,127,0,0,3465,-21,0,8929,1068,46,10822,-4,0,98,21,101247,0
101272,98,-2076,229,-84,34,119,12428,-2,-1,263,80,35277,37,34,127,0,0,3463,-10,0,8929,1068,46,10832,-4,0,98,21,101247,0
101282,77,-2078,215,-81,37,122,12428,4,-1,328,104,35279,32,34,127,0,0,3472,10,0,8929,1068,46,10842,-4,0,98,21,101278,0
101292,71,-2083,214,-77,40,129,12428,-12,6,347,80,35282,8,35,127,0,0,3473,60,0,8929,1068,46,10852,-4,0,98,21,101278,0
101302,112,-2079,223,-68,34,119,12430,-3,-3,330,80,35279,17,34,127,0,0,3470,43,0,8929,1068,46,10862,-4,0,98,21,101278,0
101312,94,-2079,212,-62,37,126,12430,-2,-1,367,80,35279,25,34,127,0,0,3470,-5,0,8929,1068,46,10872,-4,0,98,21,101278,0
101322,85,-2079,230,-65,39,128,12429,-9,-8,339,128,35277,42,34,127,0,0,3468,21,0,8929,1068,46,10882,-4,0,98,21,101310,0
101332,100,-2084,238,-62,39,129,12431,0,-1,368,120,35281,37,34,127,0,0,3468,0,0,8929,1068,46,10892,-4,0,98,21,101310,0
101342,77,-2087,243,-70,43,128,12430,-6,0,380,96,35284,26,34,127,0,0,3469,-32,0,8929,1068,46,10902,-4,0,98,21,101341,0
101352,81,-2075,241,-70,38,124,12431,-2,-1,390,120,35278,28,34,127,0,0,3471,16,0,8929,1068,46,10912,-4,0,98,21,101388,0
101362,88,-2079,244,-74,41,125,12431,0,4,389,96,35275,14,34,127,0,0,3469,-5,0,8929,1068,46,10922,-4,0,98,21,101388,0
101372,85,-2079,246,-75,37,124,12433,3,-4,376,120,35274,30,34,127,0,0,3468,0,0,8929,1068,46,10932,-4,0,98,21,101388,0
101382,78,-2076,242,-81,41,123,12432,2,3,402,120,35271,35,34,127,0,0,3471,-10,0,8929,1068,46,10942,-4,0,98,21,101403,0
101392,85,-2072,234,-81,37,123,12431,-9,-2,400,120,35272,33,34,127,0,0,3471,16,0,8929,1068,46,10952,-4,0,98,21,101403,0
101402,85,-2079,231,-78,39,121,12432,-5,-4,438,120,35273,26,34,127,0,0,3471,-5,0,8929,1068,46,10962,-4,0,98,21,101403,0
101412,101,-2076,233,-83,36,120,12432,-6,-5,393,120,35271,25,34,127,0,0,3471,21,0,8929,1068,46,10972,-4,0,98,21,101403,0
101423,95,-2078,239,-86,36,125,12434,5,-3,415,104,35276,32,34,127,0,0,3469,-21,0,8929,1068,46,10983,-4,0,98,21,101403,0
101433,69,-2077,239,-87,40,135,12433,0,0,380,112,35280,33,34,127,0,0,3471,0,0,8929,1068,46,10993,-4,0,98,21,101403,0
101443,79,-2074,239,-88,37,135,12433,0,-3,396,112,35284,42,34,127,0,0,3471,-10,0,8929,1068,46,11003,-4,0,98,21,101450,0
101453,94,-2079,249,-93,29,144,12434,0,-1,398,144,35287,43,34,127,0,0,3471,10,0,8929,1068,46,11013,-4,0,98,21,101450,0
101463,97,-2069,242,-96,26,138,12435,7,4,378,120,35279,41,34,127,0,0,3471,10,0,8929,1068,46,11023,-4,0,98,21,101450,0
101473,73,-2082,245,-103,39,140,12434,0,2,372,144,35272,32,34,127,0,0,3473,21,0,8929,1068,46,11033,-4,0,98,21,101466,0
101483,82,-2076,242,-107,38,134,12436,0,0,472,136,35263,22,34,127,0,0,3473,-10,0,8929,1068,46,11043,-4,0,98,21,101466,0
101493,87,-2079,245,-115,38,136,12437,1,-3,426,96,35272,33,34,127,0,0,3473,10,0,8929,1068,46,11053,-4,0,98,21,101466,0
101503,72,-2077,235,-115,40,133,12435,-1,4,402,112,35277,48,34,127,0,0,3473,32,0,8929,1068,46,11063,-4,0,98,21,101482,0
101513,88,-2080,228,-119,42,131,12436,-1,1,439,128,35279,36,34,127,0,0,3473,-10,0,8929,1068,46,11073,-4,0,98,21,101497,0
101523,84,-2081,228,-114,40,126,12435,-5,-1,432,96,35278,43,34,127,0,0,3473,-10,0,8929,1068,46,11083,-4,0,98,21,101497,0
101533,84,-2079,225,-113,38,126,12437,0,0,443,96,35272,44,34,127,0,0,3471,-32,0,8929,1068,46,11093,-4,0,98,21,101497,0
101543,83,-2078,226,-117,38,126,12436,1,-2,391,128,35267,49,34,127,0,0,3473,21,0,8929,1068,46,11103,-4,0,98,21,101544,0
101553,75,-2074,227,-111,36,126,12437,-3,1,425,96,35273,35,34,127,0,0,3473,-10,0,8929,1068,46,11113,-4,0,98,21,101560,0
101563,67,-2078,226,-110,41,129,12437,0,0,440,128,35274,37,34,127,0,0,3471,-21,0,8929,1068,46,11123,-4,0,98,21,101560,0
101573,71,-2076,220,-109,42,126,12437,4,-1,416,128,35269,32,34,127,0,0,3473,-10,0,8929,1068,46,11133,-4,0,98,21,101560,0
101583,73,-2080,229,-113,43,130,12437,-3,0,436,128,35264,17,34,127,0,0,3473,-10,0,8929,1068,46,11143,-4,0,98,21,101560,0
101593,88,-2075,225,-110,41,121,12436,0,0,421,168,35267,21,34,127,0,0,3471,-10,0,8929,1068,46,11153,-4,0,98,21,101560,0
101603,84,-2069,221,-106,52,113,12437,-2,3,430,120,35274,38,34,127,0,0,3473,-10,0,8929,1068,46,11163,-4,0,98,21,101591,0
101613,84,-2074,223,-111,36,121,12438,1,-2,407,136,35278,45,34,127,0,0,3471,-10,0,8929,1068,46,11173,-4,0,98,21,101591,0
101623,92,-2080,224,-103,46,117,12438,0,-1,440,112,35273,56,34,127,0,0,3473,-10,0,8929,1068,46,11183,-4,0,98,21,101591,0
101633,83,-2071,229,-109,47,120,12438,6,1,392,104,35275,43,34,127,0,0,3473,21,0,8929,1068,46,11193,-4,0,98,21,101606,0
101643,83,-2081,231,-106,38,120,12437,-1,2,419,96,35266,38,34,127,0,0,3473,-10,0,8929,1068,46,11203,-4,0,98,21,101622,0
101654,101,-2078,224,-105,39,116,12438,3,0,432,104,35273,32,34,127,0,0,3474,-5,0,8929,1068,46,11214,-4,0,98,21,101653,0
101664,79,-2080,213,-102,37,123,12437,-1,-1,420,104,35275,52,34,127,0,0,3474,21,0,8929,1068,46,11224,-4,0,98,21,101653,0
101674,87,-2077,213,-97,37,122,12437,-9,1,431,104,35281,34,34,127,0,0,3474,-5,0,8929,1068,46,11234,-4,0,98,21,101653,0
101684,77,-2081,216,-91,41,121,12438,-4,0,411,104,35278,35,34,127,0,0,3471,-21,0,8929,1068,46,11244,-4,0,98,21,101653,0
101694,77,-2070,227,-87,44,124,12438,5,-1,402,128,35282,38,34,127,0,0,3473,5,0,8929,1068,46,11254,-4,0,98,21,101685,0
101704,86,-2081,226,-85,45,116,12438,2,2,383,104,35282,35,34,127,0,0,3471,10,0,8929,1068,46,11264,-4,0,98,21,101685,0
101714,83,-2075,222,-86,47,122,12436,-2,0,379,128,35284,40,34,127,0,0,3473,32,0,8929,1068,46,11274,-4,0,98,21,101685,0
101724,89,-2078,227,-90,42,126,12438,-3,1,420,104,35280,47,34,127,0,0,3471,-10,0,8929,1068,46,11284,-4,0,98,21,101700,0
101734,89,-2080,226,-90,40,126,12437,-7,-3,381,128,35280,51,34,127,0,0,3470,-21,0,8929,1068,46,11294,-4,0,98,21,101810,0
101744,92,-2077,229,-86,38,125,12438,4,2,386,104,35279,57,35,127,0,0,3471,-27,0,8929,1068,46,11304,-4,0,98,21,101810,0
101754,82,-2080,228,-86,48,122,12438,2,3,364,104,35275,52,34,127,0,0,3471,10,0,8929,1068,46,11314,-4,0,98,21,101810,0
101764,77,-2083,218,-85,45,128,12438,2,2,344,104,35283,40,34,127,0,0,3471,16,0,8929,1068,46,11324,-4,0,98,21,101810,0
101774,86,-2077,227,-87,44,120,12436,-6,-4,368,112,35278,37,34,127,0,0,3471,0,0,8929,1068,46,11334,-4,0,98,21,101825,0
101784,85,-2067,230,-90,40,128,12438,0,2,353,104,35275,27,34,127,0,0,3471,5,0,8929,1068,46,11344,-4,0,98,21,101825,0
101794,90,-2078,228,-95,48,126,12437,-5,-4,366,104,35272,18,34,127,0,0,3471,0,0,8929,1068,46,11354,-4,0,98,21,101825,0
101804,85,-2085,221,-91,42,130,12436,-8,-4,363,128,35271,15,34,127,0,0,3470,5,0,8929,1068,46,11364,-4,0,98,21,101825,0
101814,77,-2078,220,-87,40,137,12436,-14,-4,382,112,35270,22,34,127,0,0,3471,-27,0,8929,1068,46,11374,-4,0,98,21,101825,0
101824,91,-2078,217,-89,37,131,12437,0,-2,369,128,35274,30,34,127,0,0,3470,5,0,8929,1068,46,11384,-4,0,98,21,101825,0
101834,76,-2076,226,-83,41,126,12438,2,-3,379,104,35274,29,34,127,0,0,3471,-5,0,8929,1068,46,11394,-4,0,98,21,101825,0
101844,72,-2084,234,-86,43,132,12438,2,-3,366,128,35272,24,34,127,0,0,3473,38,0,8929,1068,46,11404,-4,0,98,21,101825,0
101854,91,-2078,237,-90,43,136,12436,-4,-1,373,112,35271,48,34,127,0,0,3471,16,0,8929,1068,46,11414,-4,0,98,21,101841,0
101864,94,-2075,234,-84,38,140,12438,-1,0,389,128,35290,57,35,127,0,0,3470,-10,0,8929,1068,46,11424,-4,0,98,21,101841,0
101874,80,-2073,224,-90,42,148,12437,-1,0,410,128,35304,62,34,127,0,0,3473,-10,0,8929,1068,46,11434,-4,0,98,21,101872,0
101884,92,-2072,217,-86,41,156,12437,-8,-3,425,128,35306,64,34,127,0,0,3473,0,0,8929,1068,46,11444,-4,0,98,21,101872,0
101894,86,-2072,224,-84,42,159,12440,9,1,470,144,35295,56,34,127,0,0,3476,-10,0,8929,1068,46,11454,-4,0,98,21,101888,0
101904,90,-2076,228,-80,38,168,12438,2,-3,478,152,35285,57,34,127,0,0,3476,0,0,8929,1068,46,11464,-4,0,98,21,101888,0
101915,95,-2072,224,-84,42,169,12440,7,2,524,136,35277,57,34,127,0,0,3476,-21,0,8929,1068,46,11475,-4,0,98,21,101888,0
101925,68,-2079,219,-83,37,172,12442,12,8,549,128,35285,48,34,127,0,0,3480,0,0,8929,1068,46,11485,-4,0,98,21,101903,0
101935,69,-2085,222,-82,43,183,12443,4,4,574,152,35292,34,34,127,0,0,3480,21,0,8929,1068,46,11495,-4,0,98,21,101919,0
101945,85,-2078,223,-81,30,185,12448,10,3,566,208,35293,27,34,127,0,0,3482,32,0,8929,1068,46,11505,-4,0,98,21,101919,0
101955,72,-2082,221,-78,32,185,12455,24,12,588,216,35293,23,34,127,0,0,3484,32,0,8929,1068,46,11515,-4,0,98,21,101919,0
101965,73,-2083,222,-79,37,178,12474,61,35,517,192,35290,42,34,127,0,0,3484,-21,0,8929,1068,46,11525,-4,0,98,21,101950,0
101975,89,-2084,230,-72,25,189,12512,74,60,331,160,35285,50,34,127,0,0,3491,32,0,8929,1068,46,11535,-4,0,98,21,101950,0
101985,64,-2080,222,-76,35,183,12541,64,8,313,96,35279,44,34,127,0,0,3491,0,0,8929,1068,46,11545,-4,0,98,21,101950,0
101995,81,-2079,219,-69,39,188,12562,21,-35,213,56,35289,31,34,127,0,0,3493,21,0,8929,1068,46,11555,-4,0,98,21,101981,0
102005,57,-2079,220,-64,30,178,12561,12,-62,331,72,35291,16,34,127,0,0,3495,10,0,8929,1068,46,11565,-4,0,98,21,101981,0
102015,67,-2084,226,-67,36,177,12562,3,-30,367,136,35293,23,34,127,0,0,3495,10,0,8929,1068,46,11575,-4,0,98,21,101981,0
102025,72,-2079,224,-66,35,178,12565,9,5,408,120,35292,42,34,127,0,0,3498,0,0,8929,1068,46,11585,-4,0,98,21,102013,0
102035,78,-2071,216,-67,31,178,12571,23,3,467,128,35287,27,34,127,0,0,3500,-21,0,8929,1068,46,11595,-4,0,98,21,102013,0
102045,63,-2077,221,-56,33,180,12573,0,7,446,144,35290,21,34,127,0,0,3502,0,0,8929,1068,46,11605,-4,0,98,21,102013,0
102055,70,-2075,223,-63,31,184,12581,13,1,456,128,35293,11,34,127,0,0,3502,10,0,8929,1068,46,11615,-4,0,98,21,102044,0
102065,63,-2077,235,-59,27,177,12597,47,22,383,128,35288,31,34,127,0,0,3504,32,0,8929,1068,46,11625,-4,0,98,21,102044,0
102075,60,-2070,232,-63,31,187,12623,58,42,261,72,35286,31,34,127,0,0,3504,10,0,8929,1068,46,11635,-4,0,98,21,102075,0
102085,38,-2078,222,-58,32,170,12624,0,-20,338,136,35282,25,34,127,0,0,3509,10,0,8929,1068,46,11645,-4,0,98,21,102075,0
102095,56,-2083,219,-60,37,165,12624,-2,-54,417,136,35289,12,34,127,0,0,3511,10,0,8929,1068,46,11655,-4,0,98,21,102075,0
102105,50,-2088,232,-56,36,160,12629,11,4,458,120,35294,10,34,127,0,0,3513,0,0,8929,1068,46,11665,-4,0,98,21,102122,0
102115,61,-2083,237,-58,33,160,12631,5,5,496,144,35297,27,34,127,0,0,3513,0,0,8929,1068,46,11675,-4,0,98,21,102138,0
102125,59,-2079,226,-58,38,159,12637,15,5,520,120,35297,22,34,127,0,0,3515,-10,0,8929,1068,46,11685,-4,0,98,21,102138,0
102135,63,-2080,227,-59,39,154,12640,6,6,490,160,35293,29,34,127,0,0,3515,10,0,8929,1068,46,11695,-4,0,98,21,102138,0
102145,73,-2086,226,-49,31,160,12646,14,6,509,120,35287,22,34,127,0,0,3517,21,0,8929,1068,46,11705,-4,0,98,21,102138,0
102156,71,-2080,232,-55,33,162,12665,45,23,404,136,35278,24,34,127,0,0,3520,49,0,8929,1068,46,11716,-4,0,98,21,102138,0
102166,70,-2079,236,-51,30,166,12687,46,34,354,120,35279,38,34,127,0,0,3522,5,0,8929,1068,46,11726,-4,0,98,21,102138,0
102176,60,-2076,227,-50,34,157,12688,0,-41,430,112,35282,42,34,127,0,0,3522,-5,0,8929,1068,46,11736,-4,0,98,21,102153,0
102186,49,-2078,222,-45,42,157,12687,0,-40,432,144,35292,42,34,127,0,0,3521,-21,0,8929,1068,46,11746,-4,0,98,21,102184,0
102196,71,-2075,234,-48,38,161,12688,0,0,423,112,35293,46,34,127,0,0,3522,-5,0,8929,1068,46,11756,-4,0,98,21,102200,0
102206,53,-2076,233,-46,42,160,12691,18,0,499,136,35290,59,34,127,0,0,3527,-21,0,8929,1068,46,11766,-4,0,98,21,102200,0
102216,65,-2077,227,-50,37,157,12692,3,7,516,128,35280,57,34,127,0,0,3527,-5,0,8929,1068,46,11776,-4,0,98,21,102200,0
102226,54,-2079,225,-46,32,155,12692,4,-1,516,152,35275,46,34,127,0,0,3533,54,0,8929,1068,46,11786,-4,0,98,21,102200,0
102236,48,-2077,230,-53,40,155,12697,9,11,552,184,35284,48,34,127,0,0,3527,32,0,8929,1068,46,11796,-4,0,98,21,102216,0
102246,53,-2084,233,-47,31,149,12701,9,2,580,184,35281,44,34,127,0,0,3531,-5,0,8929,1068,46,11806,-4,0,98,21,102231,0
102256,56,-2077,234,-50,39,148,12704,5,2,540,168,35286,43,34,127,0,0,3531,16,0,8929,1068,46,11816,-4,0,98,21,102231,0
102266,55,-2078,241,-47,37,145,12707,9,0,550,192,35283,30,34,127,0,0,3533,38,0,8929,1068,46,11826,-4,0,98,21,102247,0
102276,55,-2073,237,-46,40,142,12716,31,14,544,176,35286,41,34,127,0,0,3533,16,0,8929,1068,46,11836,-4,0,98,21,102247,0
102286,62,-2076,237,-48,35,141,12738,62,39,403,136,35282,40,34,127,0,0,3533,0,0,8929,1068,46,11846,-4,0,98,21,102263,0
102296,56,-2078,237,-51,32,143,12750,2,12,341,104,35282,32,34,127,0,0,3533,0,0,8929,1068,46,11856,-4,0,98,21,102294,0
102306,39,-2086,235,-52,34,136,12751,3,-46,354,104,35281,14,34,127,0,0,3533,5,0,8929,1068,46,11866,-4,0,98,21,102294,0
102316,50,-2077,234,-50,38,124,12751,0,-20,359,104,35281,10,34,127,0,0,3533,21,0,8929,1068,46,11876,-4,0,98,21,102294,0
102326,51,-2081,245,-51,35,126,12752,5,-2,394,104,35280,0,34,127,0,0,3536,10,0,8929,1068,46,11886,-4,0,98,21,102294,0
102336,45,-2080,246,-55,39,121,12750,3,3,420,104,35279,4,34,127,0,0,3536,-5,0,8929,1068,46,11896,-4,0,98,21,102325,0
102346,64,-2079,247,-56,37,124,12750,-3,-4,390,104,35284,0,34,127,0,0,3529,-27,0,8929,1068,46,11906,-4,0,98,21,102325,0
102356,73,-2074,243,-57,37,119,12750,3,1,364,96,35286,1,34,127,0,0,3533,-27,0,8929,1068,46,11916,-4,0,98,21,102325,0
102366,54,-2074,239,-62,41,128,12751,5,1,372,104,35289,17,34,127,0,0,3536,27,0,8929,1068,46,11926,-4,0,98,21,102356,0
102376,50,-2083,237,-57,34,126,12750,-4,-1,388,96,35282,29,34,127,0,0,3536,38,0,8929,1068,46,11936,-4,0,98,21,102356,0
102386,64,-2076,236,-62,40,129,12751,-8,-3,398,128,35281,38,34,127,0,0,3535,32,0,8929,1068,46,11946,-4,0,98,21,102356,0
102397,60,-2074,238,-58,44,128,12752,10,3,414,120,35271,44,34,127,0,0,3533,-32,0,8929,1068,46,11957,-4,0,98,21,102403,0
102407,61,-2071,239,-57,44,132,12752,0,-1,390,88,35276,51,34,127,0,0,3533,-32,0,8929,1068,46,11967,-4,0,98,21,102403,0
102417,66,-2074,237,-57,34,147,12753,7,0,396,88,35273,48,34,127,0,0,3533,-32,0,8929,1068,46,11977,-4,0,98,21,102403,0
102427,58,-2074,233,-59,35,145,12751,-4,2,395,120,35275,36,34,127,0,0,3535,10,0,8929,1068,46,11987,-4,0,98,21,102434,0
102437,69,-2078,233,-60,39,155,12753,2,-2,421,152,35267,7,34,127,0,0,3535,0,0,8929,1068,46,11997,-4,0,98,21,102434,0
102447,75,-2078,244,-58,42,156,12754,15,5,461,176,35272,-6,34,127,0,0,3539,0,0,8929,1068,46,12007,-4,0,98,21,102434,0
102457,57,-2070,246,-63,32,165,12759,4,13,465,152,35273,-6,34,127,0,0,3539,0,0,8929,1068,46,12017,-4,0,98,21,102434,0
102467,60,-2059,246,-60,41,163,12762,14,-4,515,136,35274,-5,34,127,0,0,3539,-21,0,8929,1068,46,12027,-4,0,98,21,102434,0
102477,56,-2066,234,-59,44,159,12772,23,6,476,152,35276,18,34,127,0,0,3541,0,0,8929,1068,46,12037,-4,0,98,21,102513,0
102487,69,-2065,252,-64,43,147,12792,60,36,362,144,35276,18,34,127,0,0,3555,131,0,8929,1068,46,12047,-4,0,98,21,102528,0
102497,446,-2267,192,-80,20,71,12819,28,46,271,40,35280,6,34,127,0,0,3544,21,0,8929,1068,46,12057,-4,0,98,21,102528,0
102507,829,-2105,50,-98,62,-331,12817,10,-45,327,48,35275,0,34,127,0,0,3539,-76,0,8929,1068,46,12067,-4,0,98,21,102528,0
102517,-91,-2139,364,-151,0,-200,12811,-23,-58,90,-56,35269,-19,34,127,0,0,3520,-252,0,8929,1068,46,12077,-4,0,0,0,102528,0
102527,4,-2106,493,-131,-42,75,12783,-69,-57,-311,-128,35270,-17,34,127,0,0,3520,0,0,8929,1068,46,12087,-4,0,0,0,102528,0
102537,299,-2172,30,-130,46,-33,12750,-60,-45,-108,-32,35269,-10,34,127,0,0,3520,0,0,8929,1068,46,12097,-4,0,0,0,102528,0
102547,637,-2056,-31,-100,103,-262,12743,13,55,-95,-40,35268,7,34,127,0,0,3511,-98,0,8929,1068,46,12107,-4,0,0,0,102528,0
102557,407,-2042,254,-117,31,-368,12734,-36,48,-379,-176,35269,20,34,127,0,0,3495,-175,0,8929,1068,46,12117,-4,0,0,0,102528,0
102567,180,-2065,340,-122,-30,-200,12672,-176,-122,-404,-208,35278,22,35,127,0,0,3484,-54,0,8929,1068,46,12127,-4,0,0,0,102544,0
102577,333,-2073,155,-99,63,-210,12595,-158,-124,-221,-120,35289,18,34,127,0,0,3478,-76,0,8929,1068,46,12137,-4,0,0,0,102559,0
102587,498,-2059,73,-88,95,-296,12554,-81,50,-272,-168,35280,23,34,127,0,0,3462,-153,0,8929,1068,46,12147,-4,0,0,0,102559,0
102597,540,-2037,229,-99,28,-355,12526,-64,89,-503,-248,35277,21,34,127,0,0,3454,-87,0,8929,1068,46,12157,-4,0,0,0,102575,0
102607,391,-2068,233,-102,-12,-337,12476,-129,-30,-437,-280,35274,37,34,127,0,0,3438,-153,0,8929,1068,46,12167,-4,0,0,0,102575,0
102617,284,-2072,181,-82,39,-270,12400,-180,-103,-349,-264,35281,30,34,127,0,0,3427,-109,0,8929,1068,46,12177,-4,0,0,0,102591,0
102627,312,-2063,150,-59,65,-246,12334,-117,-23,-328,-208,35286,29,34,127,0,0,3416,-98,0,8929,1068,46,12187,-4,0,0,0,102606,0
102637,408,-2050,181,-52,52,-314,12280,-126,51,-370,-192,35276,19,34,127,0,0,3407,-87,0,8929,1068,46,12197,-4,0,0,0,102622,0
102648,370,-2064,226,-66,37,-342,12220,-108,9,-365,-192,35276,22,34,127,0,0,3399,-82,0,8929,1068,46,12208,-4,0,0,0,102622,0
102658,290,-2084,244,-81,41,-364,12197,-61,73,-581,-256,35272,21,34,127,0,0,3384,-98,0,8929,1068,46,12218,-4,0,0,0,102653,0
102668,225,-2071,259,-74,41,-400,12150,-107,0,-529,-304,35276,22,34,127,0,0,3371,-131,0,8929,1068,46,12228,-4,0,0,0,102653,0
102678,270,-2053,265,-87,50,-459,12084,-161,-87,-440,-288,35272,24,34,127,0,0,3354,-170,0,8929,1068,46,12238,-4,0,0,0,102653,0
102688,236,-2084,284,-118,32,-516,12014,-145,-40,-499,-328,35275,13,34,127,0,0,3343,-175,0,8929,1068,46,12248,-4,0,0,0,102669,0
102698,167,-2045,295,-149,26,-617,11933,-194,-21,-475,-328,35273,8,34,127,0,0,3321,-153,0,8929,1068,46,12258,-4,0,0,0,102669,0
102708,115,-2090,285,-172,34,-660,11844,-195,-41,-461,-360,35279,18,34,127,0,0,3304,-192,0,8929,1068,46,12268,-4,0,0,0,102684,0
102718,131,-2076,288,-189,34,-747,11762,-177,7,-552,-424,35285,37,34,127,0,0,3282,-241,0,8929,1068,46,12278,-4,0,0,0,102716,0
102728,137,-2117,270,-206,35,-792,11665,-234,-20,-501,-416,35286,54,34,127,0,0,3261,-203,0,8929,1068,46,12288,-4,0,0,0,102716,0
102738,148,-2162,226,-230,57,-841,11569,-198,-29,-542,-480,35281,42,34,127,0,0,3240,-225,0,8929,1068,46,12298,-4,0,0,0,102716,0
102748,177,-2196,154,-266,65,-789,11459,-256,-20,-523,-448,35275,44,34,127,0,0,3226,-164,0,8929,1068,46,12308,-4,0,0,0,102716,0
102758,158,-2494,124,-315,70,-672,11361,-216,-10,-481,-344,35271,52,34,127,0,0,3224,16,0,8929,1068,46,12318,-4,0,0,0,102747,0
102768,12,-2847,134,-214,381,-612,11278,-168,59,-333,-176,35272,50,34,127,0,0,3224,16,0,8929,1068,46,12328,-4,0,0,0,102747,0
102778,108,-2111,120,-128,232,-723,11246,-29,135,-184,-16,35277,36,34,127,0,0,3233,60,0,8929,1068,46,12338,-4,0,0,0,102747,0
102788,305,-2165,94,-157,186,-710,11256,31,175,24,56,35272,18,34,127,0,0,3245,126,0,8929,1068,46,12348,-4,0,0,0,102778,0
102798,214,-1667,60,-296,97,-759,11289,100,120,223,128,35280,4,34,127,0,0,3251,120,0,8929,1068,46,12358,-4,0,0,0,102778,0
102808,289,-2018,109,-389,13,-789,11329,85,57,254,136,35277,15,34,127,0,0,3264,126,0,8929,1068,46,12368,-4,0,0,0,102778,0
102818,241,-2503,229,-182,161,-749,11373,66,12,202,72,35283,12,34,127,0,0,3269,120,0,8929,1068,46,12378,-4,0,0,0,102809,0
102828,236,-2188,374,-191,186,-721,11397,64,-50,397,168,35284,1,34,127,0,0,3279,87,0,8929,1068,46,12388,-4,0,0,0,102825,0
102838,401,-2151,382,-275,197,-671,11456,141,29,324,184,35284,1,34,127,0,0,3299,142,0,8929,1068,46,12398,-4,0,0,0,102825,0
102848,431,-2118,331,-248,159,-616,11533,155,111,340,264,35282,10,34,127,0,0,3314,181,0,8929,1068,46,12408,-4,0,0,0,102825,0
102858,462,-1974,231,-186,38,-581,11610,176,33,407,272,35281,5,34,127,0,0,3339,230,0,8929,1068,46,12418,-4,0,0,0,102856,0
102868,476,-1962,194,-159,-19,-540,11705,214,36,367,336,35286,5,34,127,0,0,3357,236,0,8929,1068,46,12428,-4,0,0,0,102872,0
102878,496,-1932,166,-126,-48,-515,11802,228,44,387,368,35298,13,34,127,0,0,3372,159,0,8929,1068,46,12438,-4,0,0,0,102872,0
102888,549,-1907,106,-114,-52,-470,11916,255,36,316,328,35295,16,34,127,0,0,3393,148,0,8929,1068,46,12448,-4,0,0,0,102872,0
102898,566,-1801,74,-103,-41,-410,12018,213,13,328,304,35298,26,34,127,0,0,3411,148,0,8929,1068,46,12458,-4,0,0,0,102887,0
102909,576,-1799,44,-117,17,-352,12123,208,-35,302,304,35294,24,34,127,0,0,3432,208,0,8929,1068,46,12469,-4,0,0,0,102887,0
102919,616,-1884,67,-84,61,-331,12212,192,-24,341,200,35292,27,34,127,0,0,3443,131,0,8929,1068,46,12479,-4,0,0,0,102887,0
102929,608,-1855,165,-14,46,-227,12288,132,-35,307,192,35290,28,35,127,0,0,3456,142,0,8929,1068,46,12489,-4,0,0,0,102903,0
102939,530,-1879,230,-5,14,-146,12336,88,-81,460,240,35290,22,34,127,0,0,3467,109,0,8929,1068,46,12499,-4,0,0,0,102934,0
102949,597,-2028,258,-8,-10,-106,12391,132,-42,400,232,35294,30,34,127,0,0,3480,164,0,8929,1068,46,12509,-4,0,0,0,102934,0
102959,493,-1908,308,4,15,-108,12451,128,35,418,224,35290,20,34,127,0,0,3491,98,0,8929,1068,46,12519,-4,0,0,0,102950,0
102969,414,-1872,305,-21,-65,-34,12501,137,-13,424,232,35284,16,34,127,0,0,3500,98,0,8929,1068,46,12529,-4,0,0,0,102950,0
102979,487,-2007,334,-43,-96,-26,12561,147,3,358,184,35276,23,35,127,0,0,3511,131,0,8929,1068,46,12539,-4,0,0,0,102950,0
102989,400,-2113,385,-49,-103,-86,12621,142,25,356,176,35287,22,34,127,0,0,3515,65,0,8929,1068,46,12549,-4,0,0,0,102966,0
102999,374,-2110,394,-84,-109,-95,12664,76,-23,349,152,35293,12,34,127,0,0,3524,76,0,8929,1068,46,12559,-4,0,0,0,102981,0
103009,325,-2148,379,-127,-143,-82,12697,50,-60,395,112,35302,26,34,127,0,0,3528,54,0,8929,1068,46,12569,-4,0,0,0,102981,0
103019,306,-2179,363,-142,-167,-131,12702,23,-75,620,232,35296,26,34,127,0,0,3539,120,0,8929,1068,46,12579,-4,0,0,0,102997,0
103029,270,-2132,313,-182,-145,-213,12735,106,2,635,248,35297,42,34,127,0,0,3546,54,0,8929,1068,46,12589,-4,0,0,0,103028,0
103039,251,-2106,282,-225,-149,-231,12792,131,105,400,200,35294,41,34,127,0,0,3555,65,0,8929,1068,46,12599,-4,0,0,0,103028,0
103049,230,-2133,274,-269,-163,-262,12843,90,35,382,160,35297,37,34,127,0,0,3561,65,0,8929,1068,46,12609,-4,0,0,0,103028,0
103059,216,-2161,278,-284,-160,-325,12881,77,-43,449,176,35290,24,34,127,0,0,3570,54,0,8929,1068,46,12619,-4,0,0,0,103028,0
103069,240,-2094,227,-321,-112,-419,12911,79,-45,531,216,35285,9,34,127,0,0,3581,87,0,8929,1068,46,12629,-4,0,0,0,103075,0
103079,260,-2077,207,-363,-99,-431,12969,135,43,375,192,35291,-1,34,127,0,0,3588,76,0,8929,1068,46,12639,-4,0,0,0,103075,0
103089,346,-2142,234,-388,-102,-451,13018,80,42,347,160,35294,2,34,127,0,0,3594,65,0,8929,1068,46,12649,-4,0,0,0,103091,0
103099,357,-2090,219,-366,-76,-513,13030,37,-99,650,184,35290,12,34,127,0,0,3603,76,0,8929,1068,46,12659,-4,0,0,0,103091,0
103109,357,-2027,137,-381,-33,-541,13063,102,-24,609,224,35281,0,34,127,0,0,3610,54,0,8929,1068,46,12669,-4,0,0,0,103091,0
103119,390,-2025,147,-419,-15,-547,13104,88,65,558,248,35273,-1,34,127,0,0,3616,76,0,8929,1068,46,12679,-4,0,0,0,103091,0
103129,408,-2037,188,-418,-14,-583,13157,102,35,438,200,35282,-11,34,127,0,0,3625,76,0,8929,1068,46,12689,-4,0,0,0,103122,0
103139,376,-2005,188,-421,-14,-625,13204,84,4,402,192,35295,5,34,127,0,0,3629,65,0,8929,1068,46,12699,-4,0,0,0,103122,0
103149,417,-2042,178,-432,11,-662,13228,62,-59,496,176,35296,16,34,127,0,0,3636,54,0,8929,1068,46,12709,-4,0,0,0,103122,0
103159,415,-2045,173,-426,13,-644,13268,74,-7,372,176,35290,32,34,127,0,0,3640,54,0,8929,1068,46,12719,-4,0,0,0,103137,0
103170,454,-2053,179,-410,19,-692,13294,55,-13,451,184,35275,40,34,127,0,0,3645,65,0,8929,1068,46,12730,-4,0,0,0,103153,0
103180,458,-2047,174,-402,-5,-702,13332,79,-5,396,136,35282,33,34,127,0,0,3654,38,0,8929,1068,46,12740,-4,0,0,0,103153,0
103190,453,-2059,190,-375,-36,-730,13362,81,11,419,144,35280,22,34,127,0,0,3657,49,0,8929,1068,46,12750,-4,0,0,0,103169,0
103200,426,-2058,185,-367,-74,-734,13406,79,17,341,128,35286,10,35,127,0,0,3663,38,0,8929,1068,46,12760,-4,0,0,0,103262,0
103210,416,-2077,175,-354,-71,-793,13429,56,-18,388,128,35289,19,34,127,0,0,3665,16,0,8929,1068,46,12770,-4,0,0,0,103262,0
103220,426,-2062,158,-344,-80,-808,13447,30,-53,451,168,35294,21,34,127,0,0,3674,71,0,8929,1068,46,12780,-4,0,0,0,103262,0
103230,442,-1984,104,-336,-63,-851,13455,20,-31,592,192,35285,30,34,127,0,0,3679,65,0,8929,1068,46,12790,-4,0,0,0,103262,0
103240,461,-1940,64,-345,-53,-888,13466,34,-6,626,216,35277,21,34,127,0,0,3680,54,0,8929,1068,46,12800,-4,0,0,0,103262,0
103250,453,-1886,64,-340,-52,-968,13488,67,22,591,232,35275,24,34,127,0,0,3681,10,0,8929,1068,46,12810,-4,0,0,0,103278,0
103260,452,-1900,83,-357,-61,-994,13523,57,48,377,152,35269,35,34,127,0,0,3681,-21,0,8929,1068,46,12820,-4,0,0,0,103278,0
103270,433,-2005,141,-362,-72,-1069,13534,18,-24,427,128,35266,42,34,127,0,0,3684,-10,0,8929,1068,46,12830,-4,0,0,0,103278,0
103280,436,-2074,158,-359,-74,-1117,13540,13,-60,375,96,35266,24,34,127,0,0,3685,27,0,8929,1068,46,12840,-4,0,0,0,103278,0
103290,406,-2076,194,-367,-100,-1200,13548,22,0,340,104,35272,3,34,127,0,0,3681,-5,0,8929,1068,46,12850,-4,0,0,0,103278,0
103300,376,-2062,209,-387,-107,-1265,13560,16,7,217,56,35272,-8,34,127,0,0,3682,-10,0,8929,1068,46,12860,-4,0,60,9,103278,0
103310,321,-2041,208,-436,-120,-1396,13559,0,-14,216,80,35279,19,34,127,0,0,3681,5,0,8929,1068,46,12870,-4,0,74,9,103278,0
103320,329,-2030,180,-477,-137,-1489,13561,3,-23,189,56,35293,43,34,127,0,0,3679,0,0,8929,1068,46,12880,-4,0,76,9,103309,0
103330,328,-2063,174,-532,-173,-1654,13559,-3,-6,140,8,35301,34,34,127,0,0,3681,-5,0,8929,1068,46,12890,-4,0,77,9,103309,0
103340,329,-2156,190,-539,-191,-1753,13558,-3,-1,97,32,35298,25,34,127,0,0,3680,21,0,8929,1068,46,12900,-4,0,79,9,103325,0
103350,285,-2215,240,-518,-179,-1882,13557,-11,1,97,32,35284,5,34,127,0,0,3680,21,0,8929,1068,46,12910,-4,0,80,8,103325,0
103360,316,-2186,292,-463,-337,-2040,13558,-1,4,142,32,35279,26,34,127,0,0,3683,32,0,8929,1068,46,12920,-4,0,81,8,103372,0
103370,347,-2025,100,-592,-310,-2186,13563,21,6,287,120,35280,27,34,127,0,0,3689,54,0,8929,1068,46,12930,-4,0,82,8,103372,0
103380,14,-2197,275,-672,-378,-2178,13572,11,14,345,144,35287,9,34,127,0,0,3690,43,0,8929,1068,46,12940,-4,0,84,8,103372,0
103390,472,-2576,175,-678,-366,-2399,13584,52,7,605,344,35292,-9,34,127,0,0,3723,280,0,8929,1068,46,12950,-4,0,85,8,103387,0
103400,348,-2342,130,-685,-305,-2800,13649,186,114,670,360,35294,-4,34,127,0,0,3726,43,0,8929,1068,46,12960,-4,0,87,8,103387,0
103410,122,-2095,-28,-710,-568,-2738,13738,198,157,443,304,35291,-7,35,127,0,0,3747,192,0,8929,1068,46,12970,-4,0,89,8,103387,0
103421,199,-2189,-18,-658,-962,-2819,13830,181,19,626,576,35282,1,34,127,0,0,3792,472,0,8929,1068,46,12981,-4,0,91,8,103387,0
103431,286,-2373,-225,-683,-836,-3167,13963,321,76,652,760,35283,9,34,127,0,0,3825,285,0,8929,1068,46,12991,-4,0,92,8,103434,0
103441,-192,-2482,-139,-514,-411,-3592,14121,351,149,498,624,35273,27,34,127,0,0,3843,164,0,8929,1068,46,13001,-4,0,94,8,103434,0
103451,-100,-2585,-178,-475,-280,-3678,14281,335,53,423,592,35262,31,34,127,0,0,3873,296,0,8929,1068,46,13011,-4,0,96,9,103434,0
103461,197,-2501,81,-327,-322,-3876,14437,334,-13,460,584,35257,28,34,127,0,0,3908,351,0,8929,1068,46,13021,-4,0,98,9,103434,0
103471,499,-2696,21,-317,-359,-4085,14597,362,-4,493,672,35269,20,34,127,0,0,3944,351,0,8929,1068,46,13031,-4,0,100,9,103450,0
103481,736,-2695,51,-319,-352,-4468,14766,373,30,483,696,35279,17,34,127,0,0,3974,296,0,8929,1068,46,13041,-4,0,102,9,103465,0
103491,673,-2561,182,-317,-551,-4596,14940,383,26,437,704,35280,27,34,127,0,0,4007,329,0,8929,1068,46,13051,-4,0,104,9,103481,0
103501,679,-2517,358,-184,-1162,-4616,15116,376,8,442,720,35273,38,34,127,0,0,4049,439,0,8929,1068,46,13061,-4,0,107,10,103481,0
103511,828,-2884,336,-187,-1580,-4718,15288,384,-9,499,856,35270,49,34,127,0,0,4097,494,0,8929,1068,46,13071,-4,0,109,10,103481,0
103521,522,-3295,411,-41,-1966,-4716,15477,422,28,548,960,35276,36,34,127,0,0,4148,538,0,8929,1068,46,13081,-4,0,112,10,103517,0
103531,435,-3202,396,42,-2095,-4581,15665,481,70,595,1208,35273,38,34,127,0,0,4218,714,0,8929,1068,46,13091,-4,0,114,11,103517,0
103541,609,-2989,344,32,-2333,-4363,15919,595,130,675,1584,35266,33,34,127,0,0,4306,878,0,8929,1068,46,13101,-4,0,117,11,103532,0
103551,734,-2926,265,24,-2415,-4149,16231,735,203,805,1968,35254,39,34,127,0,0,4412,1043,0,8929,1068,46,13111,-4,0,119,12,103532,0
103561,676,-2571,281,88,-3041,-3598,16618,915,260,871,2504,35257,34,34,127,0,0,4539,1252,0,8929,1068,46,13121,-4,0,123,12,103532,0
103571,902,-2376,328,82,-3481,-2960,17084,1074,303,940,3152,35261,40,34,127,0,0,4697,1636,0,8929,1068,46,13131,-4,0,126,13,103626,0
103581,562,-1963,438,148,-3819,-2004,17673,1383,396,1013,3712,35261,63,34,127,0,0,4864,1691,0,8929,1068,46,13141,-4,0,130,13,103626,0
103591,1405,-1539,557,322,-3868,-1525,18376,1615,464,900,4072,35252,97,34,127,0,0,5007,1384,0,8929,1068,46,13151,-4,0,133,13,103626,0
103601,1385,-1003,-24,284,-3202,-1561,19128,1622,292,319,3048,35249,116,34,127,0,0,5009,-164,0,8929,1068,46,13161,-4,0,137,13,103626,0
103611,1275,-824,-225,276,-3048,-1189,19746,1223,-228,-156,1016,35258,99,34,127,0,0,4913,-1032,0,8929,1068,46,13171,-4,0,140,13,103642,0
103621,899,-684,-221,369,-3388,-307,20048,283,-936,-2035,-1032,35265,60,34,127,0,0,4774,-1373,0,8929,1068,46,13181,-4,0,144,13,103642,0
103631,593,-827,-81,421,-3561,106,19820,-639,-1692,-839,-2096,35263,23,34,127,0,0,4631,-1439,0,8929,1068,46,13191,-4,0,147,13,103642,0
103641,468,-1088,7,496,-3792,1098,19406,-1003,-1271,-685,-2600,35261,14,34,127,0,0,4513,-1175,0,8929,1068,46,13201,-4,0,151,13,103642,0
103651,447,-1222,-16,530,-3708,1640,18900,-1139,-496,-435,-2648,35263,39,34,127,0,0,4418,-988,0,8929,1068,46,13211,-4,0,154,13,103642,0
103662,363,-1364,-63,656,-3314,2333,18317,-1155,-163,-287,-2480,35277,88,34,127,0,0,4324,-840,0,8929,1068,46,13222,-4,0,158,12,103642,0
103672,361,-1326,-115,758,-2916,2737,17808,-1097,20,-239,-2312,35277,65,34,127,0,0,4246,-758,0,8929,1068,46,13232,-4,0,162,11,103642,0
103682,384,-1239,-158,883,-2305,3351,17335,-1019,114,-240,-2144,35290,46,34,127,0,0,4178,-642,0,8929,1068,46,13242,-4,0,165,11,103688,0
103692,347,-1190,-207,992,-1889,3739,16898,-945,139,-228,-1944,35284,38,34,127,0,0,4105,-681,0,8929,1068,46,13252,-4,0,170,10,103688,0
103702,337,-1102,-297,1108,-1341,4360,16489,-883,117,-259,-1752,35283,44,34,127,0,0,4047,-598,0,8929,1068,46,13262,-4,0,173,9,103704,0
103712,368,-1076,-322,1168,-1009,4757,16112,-817,109,-202,-1488,35270,37,34,127,0,0,4008,-406,0,8929,1068,46,13272,-4,0,178,8,103704,0
103722,380,-1088,-318,1263,-511,5312,15774,-713,137,-197,-1184,35273,21,34,127,0,0,3971,-285,0,8929,1068,46,13282,-4,0,181,7,103720,0
103732,361,-1151,-299,1341,-128,5646,15482,-612,171,-183,-952,35277,29,34,127,0,0,3941,-252,0,8929,1068,46,13292,-4,0,185,6,103720,0
103742,346,-1279,-256,1481,471,6094,15232,-511,167,-193,-712,35279,18,34,127,0,0,3917,-236,0,8929,1068,46,13302,-4,0,189,5,103720,0
103752,357,-1353,-266,1579,840,6392,15025,-432,165,-263,-528,35279,12,34,127,0,0,3895,-208,0,8929,1068,46,13312,-4,0,194,4,103720,0
103762,389,-1453,-213,1743,1355,6836,14850,-355,140,-249,-344,35285,9,34,127,0,0,3880,-153,0,8929,1068,46,13322,-4,0,197,3,103767,0
103772,453,-1526,-177,1850,1661,7119,14710,-268,129,-173,-208,35290,8,34,127,0,0,3870,-142,0,8929,1068,46,13332,-4,0,202,2,103767,0
103782,443,-1592,-140,2021,2061,7512,14614,-187,161,-111,-88,35287,17,34,127,0,0,3867,-27,0,8929,1068,46,13342,-4,0,205,1,103767,0
103792,426,-1651,-137,2129,2311,7765,14577,-60,197,-115,-32,35280,1,34,127,0,0,3864,10,0,8929,1068,46,13352,-4,0,211,0,103767,0
103802,441,-1733,-88,2300,2747,8060,14573,11,170,-31,-24,35281,-15,34,127,0,0,3864,0,0,8929,1068,46,13362,-4,0,214,0,103798,0
103812,437,-1793,-80,2402,3037,8233,14572,3,60,-32,-48,35287,-3,34,127,0,0,3866,-10,0,8929,1068,46,13372,-4,0,219,-1,103798,0
103822,455,-1946,-58,2503,3445,8515,14571,12,1,-15,24,35288,8,34,127,0,0,3872,87,0,8929,1068,46,13382,-4,0,223,-2,103798,0
103832,449,-2077,-17,2576,3712,8664,14582,34,21,261,96,35284,14,34,127,0,0,3884,104,0,8929,1068,46,13392,-4,0,229,-3,103798,0
103842,452,-2294,38,2669,4081,8816,14612,93,52,395,200,35291,6,34,127,0,0,3900,170,0,8929,1068,46,13402,-4,0,232,-3,103829,0
103852,470,-2445,107,2699,4269,8902,14683,155,114,393,248,35294,8,34,127,0,0,3917,181,0,8929,1068,46,13412,-4,0,238,-4,103829,0
103862,527,-2636,197,2695,4483,8946,14766,199,101,416,336,35293,14,34,127,0,0,3941,208,0,8929,1068,46,13422,-4,0,242,-5,103829,0
103872,580,-2737,248,2637,4536,8978,14872,230,64,415,432,35288,37,34,127,0,0,3970,263,0,8929,1068,46,13432,-4,0,247,-5,103860,0
103882,607,-2881,295,2543,4472,8968,15000,296,80,393,496,35288,26,34,127,0,0,4001,346,0,8929,1068,46,13442,-4,0,251,-6,103860,0
103892,682,-2963,289,2455,4315,8911,15138,322,71,445,576,35289,24,34,127,0,0,4042,340,0,8929,1068,46,13452,-4,0,256,-6,103876,0
103903,697,-3139,304,2307,3915,8728,15310,368,53,466,672,35288,16,34,127,0,0,4089,450,0,8929,1068,46,13463,-4,0,260,-6,103876,0
103913,764,-3317,335,2074,3389,8425,15482,382,67,454,792,35287,29,34,127,0,0,4130,472,0,8929,1068,46,13473,-4,0,265,-6,103892,0
103923,788,-3409,378,1890,3007,8143,15666,412,50,435,800,35290,37,34,127,0,0,4170,373,0,8929,1068,46,13483,-4,0,268,-6,103907,0
103933,934,-3470,345,1693,2487,7731,15862,429,47,383,792,35281,43,34,127,0,0,4205,362,0,8929,1068,46,13493,-4,0,273,-6,103907,0
103943,1038,-3246,381,1638,1999,7389,16050,410,10,435,792,35290,38,34,127,0,0,4236,274,0,8929,1068,46,13503,-4,0,276,-6,103985,0
103953,1024,-2871,375,1705,1147,6453,16237,405,-12,363,656,35289,41,34,127,0,0,4256,153,0,8929,1068,46,13513,-4,0,280,-6,104001,0
103963,1080,-2554,313,1767,456,5732,16408,362,-35,297,384,35292,25,34,127,0,0,4256,0,0,8929,1068,46,13523,-4,0,282,-6,104001,0
103973,1205,-2081,223,1750,-691,4674,16537,259,-107,124,96,35281,31,34,127,0,0,4256,0,0,8929,1068,46,13533,-4,0,285,-6,104001,0
103983,1204,-1833,185,1558,-1364,3849,16583,5,-233,-26,-8,35278,25,34,127,0,0,4256,-10,0,8929,1068,46,13543,-4,0,287,-6,104001,0
103993,1000,-2053,109,1042,-1975,2404,16568,0,-307,186,16,35278,33,34,127,0,0,4253,-32,0,8929,1068,46,13553,-4,0,289,-6,104017,0
104003,819,-2358,42,548,-2106,1480,16565,-41,-81,-21,-80,35279,23,34,127,0,0,4247,-54,0,8929,1068,46,13563,-4,0,291,-6,104017,0
104013,604,-2875,11,14,-1888,133,16556,-20,3,-184,-56,35275,14,34,127,0,0,4238,-87,0,8929,1068,46,13573,-4,0,291,-6,104017,0
104023,665,-2957,-130,-271,-1630,-571,16547,-38,-12,-370,-144,35276,8,34,127,0,0,4238,0,0,8929,1068,46,13583,-4,0,291,-6,104017,0
104033,834,-2662,-80,-547,-1214,-1380,16529,-56,-23,-364,-120,35281,15,34,127,0,0,4234,10,0,8929,1068,46,13593,-4,0,291,-6,104017,0
104043,962,-2378,-90,-654,-1074,-1808,16501,-37,-34,-160,-32,35296,15,34,127,0,0,4234,-21,0,8929,1068,46,13603,-4,0,291,-6,104017,0
104053,872,-2646,-47,-771,-1022,-2231,16503,-3,48,-177,-24,35318,21,34,127,0,0,4242,98,0,8929,1068,46,13613,-4,0,291,-6,104032,0
104063,-159,-5947,-252,-1192,-1466,-1339,16515,53,65,383,632,35314,20,34,127,0,0,4352,1307,0,8929,1068,46,13623,-4,0,291,-6,104063,0
104073,515,-2705,1096,12,495,-1616,16692,541,315,1231,1896,35304,33,34,127,0,0,4480,1186,0,3920,209,47,9,1,1,291,-6,104063,0
104083,443,-1440,381,208,-463,-1914,17047,839,681,826,2400,35280,37,34,127,0,0,4521,373,0,3920,209,47,19,1,1,291,-6,104063,0
104093,451,-2084,250,-27,-611,-1108,17517,1128,549,1010,3136,35278,71,34,127,0,0,4565,505,0,3920,209,47,29,1,1,291,-6,104063,0
104103,-171,-1908,389,443,-581,-873,18127,1424,485,1004,3816,35274,91,34,127,0,0,4627,626,0,3920,209,47,39,1,1,291,-6,104095,0
104113,-1020,-1425,69,562,-864,-344,18854,1669,500,972,4416,35268,106,34,127,0,0,4715,911,0,3920,209,47,49,1,1,291,-6,104095,0
104123,-1167,-474,-645,126,-738,-120,19694,1922,441,1077,5216,35258,132,34,127,0,0,4851,1373,0,3920,209,47,59,1,1,291,-6,104095,0
104133,-1451,-1171,-1109,-225,-228,-44,20665,2236,460,1222,6256,35241,174,34,127,0,0,5020,1702,0,3920,209,47,69,1,1,291,-6,104110,0
104143,-1558,-2358,-1173,60,933,-850,21812,2659,586,1145,6920,35232,217,34,127,0,0,5156,1318,0,3920,209,47,79,1,1,291,-6,104110,0
104154,-1263,-2852,-426,586,1595,-1773,23221,2811,603,283,5760,35246,201,34,127,0,0,5250,741,0,3920,209,47,90,1,1,291,-6,104157,0
104164,-761,-2832,622,570,1003,-2139,24377,2391,-16,-189,4064,35268,151,34,127,0,0,5305,505,0,3920,209,47,100,1,1,291,-6,104157,0
104174,690,-2619,1192,139,82,-2245,25295,1860,-724,-319,2648,35282,68,34,127,0,0,5329,197,0,3920,209,47,110,1,1,291,-6,104157,0
104184,770,-2609,619,-382,-457,-2340,25973,1334,-919,-425,1344,35284,11,34,127,0,0,5320,-126,0,3920,209,47,120,1,1,291,-6,104157,0
104194,-627,-2312,41,-310,168,-3359,26404,753,-924,-921,-408,35292,-12,34,127,0,0,5221,-1082,0,3920,209,47,130,1,1,291,-6,104157,0
104204,-90,-1712,242,-138,485,-3321,26305,-450,-1484,-1049,-1320,35287,11,34,127,0,0,5126,-972,0,3920,209,47,140,1,1,291,-6,104188,0
104214,195,-1801,576,-47,361,-3039,26052,-542,-1343,-147,-104,35285,36,34,127,0,0,5022,-1038,680,3920,209,47,150,1,1,291,-6,104188,0
104224,273,-1819,495,-9,9,-2371,25942,-90,10,566,144,35270,45,34,127,0,0,4953,-730,880,3920,209,47,160,1,1,291,-6,104204,0
104234,898,-2450,343,25,-508,-1241,25941,-11,529,558,128,35274,56,34,127,0,0,4939,-54,1080,3920,209,47,170,1,1,291,-6,104220,0
104244,605,-2304,255,78,-517,-1037,25863,-245,50,672,-8,35281,29,34,127,0,0,4930,-159,1280,3920,209,47,180,1,1,291,-6,104220,0
104254,61,-1966,-195,222,-388,-1126,25663,-514,-394,674,-160,35280,28,34,127,0,0,4913,-219,1480,3920,209,47,190,1,1,291,-6,104220,0
104264,-503,-1845,-360,302,24,-1227,25373,-671,-415,664,-184,35286,8,34,127,0,0,4860,-505,1500,3920,209,47,200,1,1,291,-6,104251,0
104274,-663,-1984,-46,447,570,-1120,25102,-530,-150,937,96,35287,-10,34,127,0,0,4809,-516,1500,3920,209,47,210,1,1,291,-6,104251,0
104284,-162,-1962,252,555,318,-887,24962,-229,299,995,112,35292,-1,34,127,0,0,4776,-274,1500,3920,209,47,220,1,1,291,-6,104251,0
104294,78,-2134,623,515,-198,-573,24875,-195,366,875,64,35287,14,34,127,0,0,4760,-181,1500,3920,209,47,230,1,1,291,-6,104376,0
104304,-231,-2136,507,528,-303,-564,24766,-258,51,843,32,35271,16,34,127,0,0,4743,-153,1500,3920,209,47,240,1,1,291,-6,104376,0
104314,-504,-2022,482,561,80,-796,24618,-340,-119,817,16,35269,12,34,127,0,0,4718,-318,1500,3920,209,47,250,1,1,291,-6,104376,0
104324,-416,-2016,707,517,256,-874,24432,-432,-137,844,-80,35269,-2,34,127,0,0,4684,-362,1500,3920,209,47,260,1,1,291,-6,104391,0
104334,-379,-1952,1076,285,183,-883,24217,-465,-130,808,-32,35273,-9,34,127,0,0,4646,-390,1500,3920,209,47,270,1,1,291,-6,104391,0
104344,-320,-1895,1071,21,10,-857,24038,-347,7,919,32,35272,-7,35,127,0,0,4619,-285,1500,3920,209,47,280,1,1,291,-6,104391,0
104354,-404,-2044,994,-244,-214,-873,23891,-320,143,867,16,35272,-10,34,127,0,0,4588,-230,1500,3920,209,47,290,1,1,291,-6,104391,0
104364,-452,-2104,881,-326,-278,-969,23727,-392,30,860,-24,35271,-8,34,127,0,0,4567,-214,1500,3920,209,47,300,1,1,291,-6,104391,0
104374,-470,-2098,655,-429,-60,-1321,23498,-563,-165,761,-176,35273,-8,34,127,0,0,4532,-357,1500,3920,209,47,310,1,1,291,-6,104391,0
104384,-323,-2061,545,-504,186,-1541,23189,-720,-286,708,-264,35273,-2,34,127,0,0,4487,-483,1500,3920,209,47,320,1,1,291,-6,104391,0
104394,-234,-2039,501,-607,289,-1703,22833,-795,-247,769,-280,35271,-22,34,127,0,0,4415,-648,1500,3920,209,47,330,1,1,291,-6,104391,0
104404,-159,-2016,524,-622,125,-1658,22498,-686,-57,909,-88,35272,-24,34,127,0,0,4349,-637,1500,3920,209,47,340,1,1,291,-6,104391,0
104415,-56,-1992,361,-727,-122,-1421,22223,-478,226,1081,0,35279,-38,34,127,0,0,4302,-439,1500,3920,209,47,351,1,1,291,-6,104391,0
104425,119,-2003,283,-713,-405,-1349,22017,-463,246,903,-72,35289,2,34,127,0,0,4273,-307,1500,3920,209,47,361,1,1,291,-6,104391,0
104435,119,-2023,204,-740,-500,-1355,21778,-555,4,811,-160,35313,0,34,127,0,0,4238,-307,1500,3920,209,47,371,1,1,291,-6,104423,0
104445,-255,-2022,120,-698,-20,-1472,21504,-623,-127,776,-192,35314,17,34,127,0,0,4190,-516,1500,3920,209,47,381,1,1,291,-6,104423,0
104455,-244,-1994,199,-654,166,-1509,21230,-583,-74,892,-72,35308,-8,34,127,0,0,4139,-538,1500,3920,209,47,391,1,1,291,-6,104423,0
104465,198,-2051,451,-604,75,-1386,20996,-482,82,994,-80,35292,-3,34,127,0,0,4093,-472,1500,3920,209,47,401,1,1,291,-6,104454,0
104475,387,-2067,488,-619,-118,-1364,20765,-533,94,863,-128,35286,-6,34,127,0,0,4051,-461,1500,3920,209,47,411,1,1,291,-6,104470,0
104485,-47,-2046,343,-662,-74,-1414,20503,-594,-68,803,-136,35285,4,34,127,0,0,4007,-417,1500,3920,209,47,421,1,1,291,-6,104470,0
104495,-93,-1996,292,-669,43,-1442,20243,-553,-61,890,-80,35283,-1,34,127,0,0,3957,-505,1500,3920,209,47,431,1,1,291,-6,104470,0
104505,168,-2049,358,-687,17,-1410,19997,-544,37,920,-88,35279,-12,34,127,0,0,3915,-439,1500,3920,209,47,441,1,1,291,-6,104501,0
104515,126,-2020,336,-702,-45,-1423,19729,-606,-14,807,-144,35289,8,34,127,0,0,3869,-439,1500,3920,209,47,451,1,1,291,-6,104501,0
104525,46,-2025,249,-720,-30,-1515,19470,-642,-87,831,-144,35290,8,34,127,0,0,3816,-516,1500,3920,209,47,461,1,1,291,-6,104501,0
104535,-26,-2012,240,-699,11,-1575,19181,-629,-40,874,-128,35283,7,34,127,0,0,3766,-527,1500,3920,209,47,471,1,1,291,-6,104501,0
104545,-33,-2001,328,-690,-19,-1544,18910,-575,42,935,-80,35281,-1,34,127,0,0,3715,-483,1500,3920,209,47,481,1,1,291,-6,104532,0
104555,97,-2045,337,-680,-70,-1543,18661,-538,83,949,-80,35284,-15,34,127,0,0,3671,-461,1500,3920,209,47,491,1,1,291,-6,104532,0
104565,68,-2029,213,-685,-43,-1716,18382,-661,-25,750,-192,35289,-19,34,127,0,0,3623,-483,1500,3920,209,47,501,1,1,291,-6,104532,0
104575,-37,-2062,196,-667,80,-1874,18046,-755,-188,807,-224,35290,-23,34,127,0,0,3561,-615,1500,3920,209,47,511,1,1,291,-6,104563,0
104585,138,-2041,288,-664,86,-1927,17722,-694,-69,935,-176,35285,-27,34,127,0,0,3504,-582,1500,3920,209,47,521,1,1,291,-6,104563,0
104595,90,-2020,336,-676,-43,-1874,17422,-627,78,938,-120,35284,-24,34,127,0,0,3447,-527,1500,3920,209,47,531,1,1,291,-6,104563,0
104605,147,-2003,320,-720,-287,-1847,17160,-553,127,985,-72,35294,-14,34,127,0,0,3396,-505,1500,3920,209,47,541,1,1,291,-6,104579,0
104615,112,-1950,279,-740,-268,-1978,16891,-623,44,846,-176,35293,-8,34,127,0,0,3346,-549,1500,3920,209,47,551,1,1,291,-6,104579,0
104625,-172,-1985,287,-796,-60,-2300,16558,-766,-161,781,-288,35298,3,34,127,0,0,3287,-659,1500,3920,209,47,561,1,1,291,-6,104610,0
104635,-154,-1902,389,-848,23,-2497,16179,-848,-212,811,-376,35291,-1,34,127,0,0,3218,-692,1500,3920,209,47,571,1,1,291,-6,104626,0
104645,29,-2172,633,-1042,-154,-2632,15775,-894,-124,872,-384,35287,-11,34,127,0,0,3142,-769,1500,3920,209,47,581,1,1,291,-6,104641,0
104656,96,-2160,601,-1058,-275,-2669,15331,-881,-27,900,-344,35297,-5,34,127,0,0,3058,-791,1550,3920,209,47,592,1,1,291,-6,104641,0
104666,56,-2243,520,-1149,-464,-2716,14957,-786,64,1041,-168,35298,-21,34,127,0,0,2992,-670,1810,3920,209,47,602,1,1,291,-6,104657,0
104676,135,-2189,407,-1208,-804,-2736,14670,-560,239,1364,-56,35302,-19,34,127,0,0,2944,-505,2090,3920,209,47,612,1,1,291,-6,104657,0
104686,453,-2973,732,-1247,-1532,-2500,14498,-306,401,1479,112,35306,-25,34,127,0,0,2913,-252,2400,3920,209,47,622,1,1,291,-6,104688,0
104696,-181,-3576,603,-1127,-1253,-2349,14418,-115,394,1487,360,35295,-3,34,127,0,0,2904,-65,2700,3920,209,47,632,1,1,291,-6,104704,0
104706,-538,-2597,-32,-1189,-790,-2630,14429,64,342,1604,624,35292,0,34,127,0,0,2905,32,2970,3920,209,47,642,1,1,291,-6,104704,0
104716,-140,-2202,-168,-1299,-558,-2852,14449,32,170,1838,544,35274,23,34,127,0,0,2906,49,3030,3920,209,47,652,1,1,291,-6,104704,0
104726,109,-2207,-116,-1451,-726,-3082,14459,26,-20,1835,536,35266,25,34,127,0,0,2912,65,3090,3920,209,47,662,1,1,291,-6,104704,0
104736,38,-2558,-62,-1453,-820,-3171,14492,101,39,1821,680,35265,38,34,127,0,0,2910,32,3140,3920,209,47,672,1,1,291,-6,104704,0
104746,-183,-2630,12,-1396,-677,-3378,14560,174,124,1766,1024,35271,50,34,127,0,0,2931,142,3190,3920,209,47,682,1,1,291,-6,104735,0
104756,-655,-2357,116,-1413,-403,-3417,14682,311,176,1847,1376,35278,58,34,127,0,0,2954,269,3230,3920,209,47,692,1,1,291,-6,104751,0
104766,-87,-2640,252,-1515,-361,-3447,14877,479,252,1885,1752,35271,77,34,127,0,0,2987,340,3270,3920,209,47,702,1,1,291,-6,104751,0
104776,270,-2849,461,-1417,-471,-3606,15169,711,329,2017,2376,35259,87,34,127,0,0,3032,527,3320,3920,209,47,712,1,1,291,-6,104751,0
104786,119,-2478,191,-1520,-692,-3705,15574,948,407,2094,2912,35246,109,34,127,0,0,3115,774,3390,3920,209,47,722,1,1,291,-6,104766,0
104796,9,-2471,178,-1588,-846,-3740,16038,1046,321,2115,3080,35248,152,34,127,0,0,3197,884,3610,3920,209,47,732,1,1,291,-6,104782,0
104806,-430,-2668,334,-1238,-1032,-3904,16512,1039,122,2211,3176,35236,186,34,127,0,0,3281,889,3880,3920,209,47,742,1,1,291,-6,104782,0
104816,-475,-2785,251,-1031,-899,-4204,16993,1057,21,2326,3216,35230,221,34,127,0,0,3373,895,4160,3920,209,47,752,1,1,291,-6,104798,0
104826,-204,-2703,60,-1093,-708,-4710,17489,1107,44,2516,3384,35228,231,34,127,0,0,3462,944,4440,3920,209,47,762,1,1,291,-6,104813,0
104836,-199,-2498,179,-1049,-785,-4845,18013,1175,20,2669,3616,35222,247,34,127,0,0,3557,966,4660,3920,209,47,772,1,1,291,-6,104813,0
104846,-133,-2228,68,-850,-1101,-5064,18581,1292,189,2782,3976,35213,273,34,127,0,0,3660,999,4700,3920,209,47,782,1,1,291,-6,104844,0
104856,9,-2647,-69,-779,-1125,-5121,19193,1363,292,2774,4064,35194,308,34,127,0,0,3770,1142,4690,3920,209,47,792,1,1,291,-6,104844,0
104866,526,-2740,58,-655,-1057,-5656,19812,1353,98,2762,4064,35192,330,34,127,0,0,3879,1126,4620,3920,209,47,802,1,1,291,-6,104844,0
104876,850,-2708,-80,-921,-1587,-5780,20393,1239,-58,2705,3768,35185,328,34,127,0,0,3982,1054,4840,3920,209,47,812,1,1,291,-6,104844,0
104886,638,-3011,588,-925,-2133,-5770,20925,1157,-177,2826,3912,35194,322,34,127,0,0,4078,917,5310,3920,209,47,822,1,1,291,-6,104876,0
104896,121,-2989,480,-828,-2417,-5668,21510,1371,-3,3108,4608,35190,345,34,127,0,0,4193,1131,5450,3920,209,47,832,1,1,291,-6,104876,0
104907,179,-3147,287,-879,-2921,-5395,22348,1833,468,3147,5696,35180,380,34,127,0,0,4350,1483,5330,3920,209,47,843,1,1,291,-6,104876,0
104917,151,-3105,530,-859,-3458,-4862,23361,2404,803,3082,6992,35162,455,34,127,0,0,4526,1746,5150,3920,209,47,853,1,1,291,-6,104907,0
104927,-55,-2860,682,-755,-4017,-4163,24628,2934,957,2896,8360,35143,519,34,127,0,0,4737,2153,4910,3920,209,47,863,1,1,291,-6,104907,0
104937,-64,-2775,742,-678,-4590,-2908,26113,3423,898,2703,9488,35119,595,34,127,0,0,4992,2636,4590,3920,209,47,873,1,1,291,-6,104938,0
104947,-327,-2393,547,-686,-4932,-2117,27844,3918,911,2081,9840,35099,653,34,127,0,0,5291,2999,750,3920,209,47,883,1,1,291,-6,104938,0
104957,793,-2558,484,-474,-4861,-1086,29474,3301,381,-2785,-504,35111,580,34,127,0,0,5616,3251,0,3920,209,47,893,1,1,291,-6,104954,0
104967,1122,-2280,116,-201,-4337,-1071,29107,-2419,-3915,-8285,-8304,35131,552,34,127,0,0,5829,2021,0,3920,209,47,903,1,1,291,-6,104954,0
104977,916,-1208,-276,-203,-1774,-1521,27684,-3093,-6199,170,-5224,35117,544,34,127,0,0,5831,-197,0,3920,209,47,913,1,1,291,-6,104954,0
104987,1263,-780,-600,-251,-927,-1347,26494,-2389,-1381,656,-3960,35166,377,35,127,0,0,5688,-1505,0,3920,209,47,923,0,1,291,-6,104954,0
104997,989,-504,-483,-96,286,-689,25569,-1914,1002,22,-4424,35192,325,34,127,0,0,5468,-2263,0,3920,209,47,933,0,1,291,-6,104985,0
105007,695,-606,-373,38,509,-100,24709,-1947,642,-935,-5288,35298,8,34,127,0,0,5218,-2460,0,3920,209,47,943,0,1,291,-6,104985,0
105017,317,-908,-136,87,465,802,23722,-2241,-138,-808,-5624,35283,77,34,127,0,0,5003,-2142,0,3920,209,47,953,0,1,291,-6,105001,0
105027,226,-1111,67,107,388,1458,22667,-2320,-393,-500,-5472,35256,123,34,127,0,0,4812,-1856,0,3920,209,47,963,0,1,291,-6,105001,0
105037,326,-1214,173,109,125,2430,21657,-2168,-44,-281,-4992,35243,131,34,127,0,0,4666,-1428,0,3920,209,47,973,0,1,291,-6,105094,0
105047,451,-1217,122,102,57,3116,20748,-1934,290,-162,-4296,35263,103,34,127,0,0,4565,-1010,0,3920,209,47,983,0,1,291,-6,105094,0
105057,512,-1229,44,184,233,3963,19932,-1731,375,-36,-3432,35275,65,34,127,0,0,4495,-659,0,3920,209,47,993,0,1,291,-6,105094,0
105067,427,-1182,-55,267,416,4415,19216,-1502,370,51,-2520,35277,42,34,127,0,0,4431,-615,0,3920,209,47,1003,0,1,291,-6,105094,0
105077,437,-1185,-162,447,776,5021,18628,-1210,437,45,-1928,35271,18,34,127,0,0,4374,-582,0,3920,209,47,1013,0,1,291,-6,105094,0
105087,455,-1144,-180,565,1033,5417,18166,-942,482,3,-1440,35274,8,34,127,0,0,4319,-527,0,3920,209,47,1023,0,1,291,-6,105110,0
105097,473,-1113,-198,712,1452,6043,17809,-726,447,-83,-1200,35274,15,34,127,0,0,4269,-505,0,3920,209,47,1033,0,1,291,-6,105110,0
105107,462,-1088,-207,822,1736,6453,17524,-584,338,-174,-1032,35270,13,34,127,0,0,4220,-483,0,3920,209,47,1043,0,1,291,-6,105110,0
105117,443,-1085,-202,982,2073,7014,17287,-496,224,-296,-864,35269,9,34,127,0,0,4181,-395,0,3920,209,47,1053,0,1,291,-6,105110,0
105127,405,-1147,-167,1095,2227,7358,17077,-447,137,-276,-712,35263,15,34,127,0,0,4144,-373,0,3920,209,47,1063,0,1,291,-6,105110,0
105137,382,-1226,-112,1289,2465,7845,16885,-408,83,-311,-592,35272,18,34,127,0,0,4113,-307,0,3920,209,47,1073,0,1,291,-6,105110,0
105148,365,-1266,-41,1438,2609,8163,16704,-334,92,-258,-384,35281,24,34,127,0,0,4092,-230,0,3920,209,47,1084,0,1,291,-6,105141,0
105158,377,-1351,12,1658,2843,8628,16575,-254,117,-193,-136,35299,28,34,127,0,0,4084,-54,0,3920,209,47,1094,0,1,291,-6,105157,0
105168,354,-1418,32,1809,2982,8909,16525,-38,220,-16,0,35299,3,34,127,0,0,4078,-16,0,3920,209,47,1104,0,1,291,-6,105157,0
105178,386,-1489,56,2041,3186,9324,16547,63,296,54,64,35288,9,34,127,0,0,4078,0,0,3920,209,47,1114,0,1,291,-6,105157,0
105188,372,-1531,67,2221,3287,9570,16580,58,154,193,120,35276,3,34,127,0,0,4077,5,0,3920,209,47,1124,0,1,291,-6,105172,0
105198,361,-1631,49,2486,3387,9939,16594,36,-24,455,176,35286,10,34,127,0,0,4081,5,0,3920,209,47,1134,0,1,291,-6,105172,0
105208,385,-1761,30,2663,3405,10219,16637,131,21,460,264,35286,17,34,127,0,0,4088,104,0,3920,209,47,1144,0,1,291,-6,105172,0
105218,376,-2031,63,2978,3409,10638,16716,194,134,434,344,35288,44,34,127,0,0,4102,142,0,3920,209,47,1154,0,1,291,-6,105204,0
105228,385,-2260,114,3219,3410,10842,16815,228,99,511,488,35284,39,34,127,0,0,4127,208,0,3920,209,47,1164,0,1,291,-6,105204,0
105238,410,-2621,217,3556,3402,10995,16944,304,101,535,592,35279,31,34,127,0,0,4151,274,0,3920,209,47,1174,0,1,291,-6,105204,0
105248,385,-2772,313,3751,3380,10985,17096,334,104,477,616,35286,9,34,127,0,0,4170,203,0,3920,209,47,1184,0,1,291,-6,105251,0
105258,413,-2804,465,3767,3277,10818,17255,338,53,404,616,35284,5,34,127,0,0,4190,181,0,3920,209,47,1194,0,1,291,-6,105251,0
105268,622,-3037,522,3651,3089,10614,17421,372,25,394,600,35280,34,34,127,0,0,4206,137,0,3920,209,47,1204,0,1,291,-6,105251,0
105278,947,-3448,360,3383,2591,10293,17580,346,-2,382,592,35278,35,34,127,0,0,4226,164,0,3920,209,47,1214,0,1,291,-6,105251,0
105288,1126,-3733,285,3071,2202,10023,17733,342,-27,431,600,35269,35,34,127,0,0,4256,280,0,3920,209,47,1224,0,1,291,-6,105266,0
105298,1401,-4233,266,2577,1870,9553,17891,354,4,473,616,35280,32,34,127,0,0,4274,258,0,3920,209,47,1234,0,1,291,-6,105282,0
105308,1557,-4326,361,2338,1586,9144,18053,360,19,398,608,35290,35,34,127,0,0,4291,208,0,3920,209,47,1244,0,1,291,-6,105297,0
105318,1762,-4069,578,2089,427,7707,18223,361,24,314,400,35289,34,34,127,0,0,4283,-54,0,3920,209,47,1254,0,1,291,-6,105297,0
105328,2416,-3609,667,2117,-420,6070,18353,260,-63,137,0,35279,32,34,127,0,0,4245,-466,0,3920,209,47,1264,0,1,291,-6,105297,0
105338,2643,-2488,501,1582,-2033,3410,18333,-190,-354,-623,-520,35274,18,34,127,0,0,4185,-653,0,3920,209,47,1274,0,1,291,-6,105329,0
105348,2451,-2228,325,781,-2614,1482,18187,-370,-559,-538,-784,35285,19,34,127,0,0,4124,-571,0,3920,209,47,1284,0,1,291,-6,105329,0
105358,1903,-2683,-223,-278,-2662,-1256,18002,-412,-302,-511,-888,35286,24,34,127,0,0,4079,-455,0,3920,209,47,1294,0,1,291,-6,105329,0
105368,1688,-3238,-485,-660,-2414,-2646,17803,-439,-97,-370,-664,35283,29,34,127,0,0,4066,-43,0,3920,209,47,1304,0,1,291,-6,105360,0
105378,-2468,-8862,-1933,-1509,-2582,-2913,17624,-371,-1,-108,40,35278,36,34,127,0,0,4127,741,0,3920,209,47,1314,0,1,291,-6,105360,0
105388,313,-7218,533,-2068,-660,-1406,17711,581,508,2207,2168,35280,18,34,127,0,0,4435,3065,0,5054,2250,48,4,1,1,329,-1,105360,0
105399,1120,596,2126,862,2021,-3297,18153,842,1198,214,2024,35270,32,34,127,0,0,4515,417,0,5054,2250,48,15,1,1,329,-1,105376,0
105409,368,-2676,1286,462,-3470,-1329,18551,901,436,852,2648,35260,38,34,127,0,0,4603,999,0,5054,2250,48,25,1,1,329,-1,105376,0
105419,475,-2306,559,890,-2400,207,19108,1424,282,1737,4544,35260,64,34,127,0,0,4822,2263,0,5054,2250,48,35,1,1,329,-1,105391,0
105429,-1693,-322,-1331,-301,-3374,-19,20008,2192,977,1786,6304,35260,121,34,127,0,0,5084,2669,0,5054,2250,48,45,1,1,329,-1,105422,0
105439,-3156,-2252,-2576,-614,-408,-1067,21202,2809,1240,1526,7648,35237,228,34,127,0,0,5295,2032,0,5054,2250,48,55,1,1,329,-1,105422,0
105449,-1885,-2816,-1225,419,1677,-3071,22600,3141,967,588,7384,35212,302,34,127,0,0,5420,1142,0,5054,2250,48,65,1,1,329,-1,105438,0
105459,-1082,-2264,65,628,2102,-3422,24003,3009,404,150,6272,35204,269,34,127,0,0,5473,461,0,5054,2250,48,75,1,1,329,-1,105438,0
105469,673,-2982,1563,207,681,-3342,25239,2592,-319,-43,5048,35224,177,34,127,0,0,5526,505,0,5054,2250,48,85,1,1,329,-1,105438,0
105479,826,-2755,1086,-188,148,-3700,26291,2181,-680,-312,3200,35252,80,34,127,0,0,5534,0,0,5054,2250,48,95,1,1,329,-1,105454,0
105489,802,-2390,-320,-903,-195,-3835,27069,1475,-866,-746,1384,35270,17,34,127,0,0,5499,-351,0,5054,2250,48,105,1,1,329,-1,105485,0
105499,243,-2391,-221,-477,638,-4399,27494,673,-1190,-1395,-568,35287,-8,34,127,0,0,5383,-1318,0,5054,2250,48,115,1,1,329,-1,105485,0
105509,259,-1693,440,-56,592,-3863,27321,-603,-1821,-1246,-1832,35286,2,34,127,0,0,5260,-1142,560,5054,2250,48,125,1,1,329,-1,105501,0
105519,1051,-2128,637,-141,495,-3563,27047,-517,-1356,165,-80,35276,27,34,127,0,0,5152,-1054,760,5054,2250,48,135,1,1,329,-1,105501,0
105529,2307,-2277,778,-198,-241,-1754,26937,-221,156,658,48,35263,26,34,127,0,0,5108,-296,960,5054,2250,48,145,1,1,329,-1,105501,0
105539,1177,-2255,861,-57,-778,-1127,26795,-396,238,560,-104,35266,10,34,127,0,0,5084,-263,1160,5054,2250,48,155,1,1,329,-1,105516,0
105549,-452,-2094,-98,298,-438,-1368,26516,-679,-344,446,-264,35281,-1,34,127,0,0,5047,-384,1360,5054,2250,48,165,1,1,329,-1,105532,0
