state_time,accelx,accely,accelz,gyrox,gyroy,gyroz,mot_ang,mot_vel,mot_acc,mot_cur,mot_volt,batt_volt,batt_curr,temperature,status_mn,status_ex,status_re,ank_ang,ank_vel,ank_torque,peak_ank_torque,step_energy,step_count,step_time,gait_state,movement,speed,incline,sys_time,eventFlags
61111,83,-2040,191,-47,-8,-58,14432,-2,-14,-11,8,35477,-69,34,127,0,0,3840,-21,0,4497,-253,28,5371,-4,0,52,-6,1549081,0
61121,60,-2039,202,-50,-16,-57,14435,-2,-7,-3,-32,35472,-65,34,127,0,0,3836,-43,0,4497,-253,28,5381,-4,0,52,-6,61111,0
61131,83,-2039,198,-54,-13,-61,14433,5,-6,-45,0,35468,-70,34,127,0,0,3840,-10,0,4497,-253,28,5391,-4,0,52,-6,61127,0
61141,33,-2048,197,-53,-21,-54,14436,9,6,-3,0,35462,-84,34,127,0,0,3840,-21,0,4497,-253,28,5401,-4,0,52,-6,61127,0
61151,54,-2042,197,-55,-14,-59,14434,4,6,6,0,35464,-89,34,127,0,0,3840,0,0,4497,-253,28,5411,-4,0,52,-6,61142,0
61161,61,-2047,192,-53,-15,-73,14434,0,-1,2,0,35467,-75,34,127,0,0,3840,0,0,4497,-253,28,5421,-4,0,52,-6,61158,0
61171,68,-2050,195,-51,-14,-83,14432,-11,-5,-53,16,35470,-70,34,127,0,0,3840,21,0,4497,-253,28,5431,-4,0,52,-6,61158,0
61181,77,-2043,189,-55,-6,-83,14433,-4,-1,-108,-88,35471,-70,34,127,0,0,3838,10,0,4497,-253,28,5441,-4,0,52,-6,61158,0
61191,49,-2053,193,-51,-8,-87,14429,1,0,-122,-32,35469,-87,34,127,0,0,3836,-10,0,4497,-253,28,5451,-4,0,52,-6,61189,0
61201,78,-2046,192,-56,-16,-74,14425,-15,-2,-252,-72,35457,-75,34,127,0,0,3834,0,0,4497,-253,28,5461,-4,0,52,-6,61189,0
61211,67,-2049,189,-51,-6,-82,14415,-6,-13,-161,-64,35448,-61,34,127,0,0,3832,-32,0,4497,-253,28,5471,-4,0,52,-6,61189,0
61221,80,-2051,189,-53,-9,-79,14409,-12,-3,-210,-40,35451,-69,34,127,0,0,3832,0,0,4497,-253,28,5481,-4,0,52,-6,61205,0
61231,92,-2044,190,-48,-12,-71,14405,1,5,-148,-32,35460,-57,34,127,0,0,3832,0,0,4497,-253,28,5491,-4,0,52,-6,61236,0
61241,82,-2054,190,-49,-15,-66,14400,-7,11,-185,-48,35454,-59,34,127,0,0,3829,-21,0,4497,-253,28,5501,-4,0,52,-6,61236,0
61251,73,-2042,188,-49,-6,-60,14393,-17,-11,-153,-32,35448,-57,34,127,0,0,3825,-43,0,4497,-253,28,5511,-4,0,52,-6,61251,0
61261,78,-2045,183,-38,-6,-59,14389,-7,1,-191,-24,35459,-71,34,127,0,0,3829,0,0,4497,-253,28,5521,-4,0,52,-6,61283,0
61271,97,-2040,191,-38,-7,-46,14392,0,22,-179,-24,35471,-86,34,127,0,0,3829,21,0,4497,-253,28,5531,-4,0,52,-6,61283,0
61281,102,-2036,182,-41,-2,-40,14392,3,13,-139,-32,35469,-86,34,127,0,0,3829,-10,0,4497,-253,28,5541,-4,0,52,-6,61283,0
61291,74,-2018,205,-43,6,-30,14389,1,-5,-163,-16,35460,-91,34,127,0,0,3829,10,0,4497,-253,28,5551,-4,0,52,-6,61283,0
61301,122,-2067,259,-65,2,-24,14390,0,-8,-165,-24,35457,-75,34,127,0,0,3829,21,0,4497,-253,28,5561,-4,0,52,-6,61283,0
61311,91,-2083,248,-85,-8,-9,14391,-2,4,-145,-32,35449,-85,34,127,0,0,3829,-10,0,4497,-253,28,5571,-4,0,52,-6,61298,0
61321,46,-2032,174,-81,-5,-11,14390,4,-4,-135,-24,35456,-74,34,127,0,0,3829,10,0,4497,-253,28,5581,-4,0,52,-6,61330,0
61331,87,-2028,172,-78,3,-16,14389,-14,1,-135,-24,35453,-58,34,127,0,0,3832,32,0,4497,-253,28,5591,-4,0,52,-6,61330,0
61341,102,-2041,188,-79,-15,-18,14392,7,5,-81,-8,35454,-57,34,127,0,0,3832,10,0,4497,-253,28,5601,-4,0,52,-6,61330,0
61351,57,-2040,181,-80,-7,-18,14392,6,1,-67,-40,35456,-58,34,127,0,0,3829,-43,0,4497,-253,28,5611,-4,0,52,-6,61330,0
61361,34,-2043,183,-75,5,-19,14391,9,-12,-74,-8,35459,-85,34,127,0,0,3832,0,0,4497,-253,28,5621,-4,0,52,-6,61345,0
61371,68,-2048,192,-74,2,-24,14391,-21,2,-74,-8,35459,-77,34,127,0,0,3832,10,0,4497,-253,28,5631,-4,0,52,-6,61361,0
61381,87,-2053,173,-63,1,-10,14392,4,2,-66,-8,35461,-77,34,127,0,0,3832,0,0,4497,-253,28,5641,-4,0,52,-6,61376,0
61391,77,-2049,164,-56,-14,-4,14390,-21,-8,-107,8,35465,-80,34,127,0,0,3829,10,0,4497,-253,28,5651,-4,0,52,-6,61376,0
61401,62,-2042,184,-52,-24,-11,14392,2,0,-82,-8,35457,-75,34,127,0,0,3832,0,0,4497,-253,28,5661,-4,0,52,-6,61376,0
61411,31,-2045,195,-50,-10,-20,14392,5,6,-42,-8,35457,-77,34,127,0,0,3832,0,0,4497,-253,28,5671,-4,0,52,-6,61408,0
61421,40,-2049,215,-65,-11,-43,14394,4,-10,-9,8,35451,-75,34,127,0,0,3832,0,0,4497,-253,28,5681,-4,0,52,-6,61408,0
61431,73,-2033,222,-65,-13,-51,14393,-13,0,-34,24,35464,-82,34,127,0,0,3832,0,0,4497,-253,28,5691,-4,0,52,-6,61423,0
61441,68,-2032,182,-71,-15,-46,14393,-8,-5,-59,-8,35458,-100,34,127,0,0,3832,0,0,4497,-253,28,5701,-4,0,52,-6,61423,0
61451,79,-2044,163,-69,-10,-41,14392,-9,3,-41,56,35457,-85,33,127,0,0,3832,10,0,4497,-253,28,5711,-4,0,52,-6,61423,0
61461,90,-2041,161,-53,-4,-34,14393,-12,1,-35,56,35455,-73,34,127,0,0,3832,0,0,4497,-253,28,5721,-4,0,52,-6,61455,0
61471,108,-2043,175,-48,-13,-30,14395,14,-4,17,32,35452,-51,34,127,0,0,3832,-32,0,4497,-253,28,5731,-4,0,52,-6,61455,0
61481,86,-2045,180,-40,-8,-18,14393,-19,-7,-35,8,35458,-67,33,127,0,0,3834,21,0,4497,-253,28,5741,-4,0,52,-6,61470,0
61491,79,-2050,178,-38,-15,-4,14399,19,-2,64,64,35459,-77,34,127,0,0,3836,21,0,4497,-253,28,5751,-4,0,52,-6,61486,0
61501,77,-2052,168,-31,-13,3,14406,8,16,119,32,35456,-66,34,127,0,0,3840,21,0,4497,-253,28,5761,-4,0,52,-6,61486,0
61511,64,-2049,175,-23,-13,1,14408,4,-7,201,56,35454,-73,34,127,0,0,3840,0,0,4497,-253,28,5771,-4,0,52,-6,61501,0
61521,78,-2043,188,-21,-9,-2,14416,14,1,155,24,35457,-75,34,127,0,0,3840,0,0,4497,-253,28,5781,-4,0,52,-6,61533,0
61531,64,-2053,196,-22,-13,1,14426,30,12,174,32,35465,-91,34,127,0,0,3845,10,0,4497,-253,28,5791,-4,0,52,-6,61533,0
61541,42,-2041,191,-25,-11,-6,14436,30,6,197,32,35458,-84,34,127,0,0,3843,-54,0,4497,-253,28,5801,-4,0,52,-6,61533,0
61551,64,-2042,196,-27,-6,-24,14434,-10,-17,143,80,35448,-84,34,127,0,0,3847,32,0,4497,-253,28,5811,-4,0,52,-6,61533,0
61561,60,-2034,193,-33,-12,-24,14440,7,-15,180,72,35449,-93,34,127,0,0,3847,10,0,4497,-253,28,5821,-4,0,52,-6,61548,0
61571,47,-2041,193,-32,-9,-34,14438,4,4,188,112,35459,-71,34,127,0,0,3847,10,0,4497,-253,28,5831,-4,0,52,-6,61564,0
61581,66,-2037,195,-30,-11,-40,14438,-6,-12,208,96,35456,-69,34,127,0,0,3845,-21,0,4497,-253,28,5841,-4,0,52,-6,61564,0
61591,89,-2041,194,-33,-10,-44,14436,-11,-2,192,64,35448,-60,34,127,0,0,3847,0,0,4497,-253,28,5851,-4,0,52,-6,61580,0
61601,73,-2039,195,-37,-12,-46,14437,-14,-2,195,96,35459,-61,34,127,0,0,3847,21,0,4497,-253,28,5861,-4,0,52,-6,61658,0
61611,77,-2040,202,-35,-10,-49,14438,-5,-2,196,64,35463,-60,34,127,0,0,3847,-10,0,4497,-253,28,5871,-4,0,52,-6,61658,0
61621,55,-2041,195,-35,-16,-51,14438,4,-2,193,64,35465,-64,34,127,0,0,3849,10,0,4497,-253,28,5881,-4,0,52,-6,61658,0
61631,38,-2045,196,-36,-17,-49,14437,-1,1,213,64,35454,-68,34,127,0,0,3847,0,0,4497,-253,28,5891,-4,0,52,-6,61658,0
61641,78,-2059,179,-33,-12,-59,14438,-2,1,171,72,35449,-60,34,127,0,0,3847,21,0,4497,-253,28,5901,-4,0,52,-6,61658,0
61651,64,-2050,178,-26,-8,-62,14440,17,6,242,80,35451,-85,34,127,0,0,3847,-32,0,4497,-253,28,5911,-4,0,52,-6,61673,0
61661,51,-2045,172,-25,-15,-59,14439,-12,0,208,24,35452,-91,34,127,0,0,3847,-10,0,4497,-253,28,5921,-4,0,52,-6,61673,0
61671,51,-2042,182,-21,-15,-62,14442,7,-8,194,64,35451,-80,34,127,0,0,3845,-21,0,4497,-253,28,5931,-4,0,52,-6,61673,0
61681,38,-2050,189,-13,-11,-71,14438,-9,1,184,64,35451,-86,34,127,0,0,3845,-32,0,4497,-253,28,5941,-4,0,52,-6,61673,0
61691,57,-2042,195,-13,-9,-75,14438,-6,-4,128,48,35460,-76,34,127,0,0,3847,21,0,4497,-253,28,5951,-4,0,52,-6,61673,0
61701,95,-2045,204,-18,-4,-70,14440,0,3,133,88,35472,-52,34,127,0,0,3847,32,0,4497,-253,28,5961,-4,0,52,-6,61689,0
61711,63,-2036,208,-20,-12,-79,14440,3,0,148,0,35478,-52,34,127,0,0,3843,-21,0,4497,-253,28,5971,-4,0,52,-6,61689,0
61721,56,-2047,194,-28,-21,-92,14439,13,-3,134,72,35470,-45,34,127,0,0,3845,-10,0,4497,-253,28,5981,-4,0,52,-6,61736,0
61731,72,-2044,192,-27,-13,-104,14438,1,-3,108,40,35472,-93,34,127,0,0,3843,-10,0,4497,-253,28,5991,-4,0,52,-6,61736,0
61741,60,-2043,188,-30,-7,-116,14436,-5,-2,42,-16,35468,-96,34,127,0,0,3840,-32,0,4497,-253,28,6001,-4,0,52,-6,61736,0
61751,57,-2046,183,-23,-3,-121,14434,-6,-7,-62,-40,35466,-96,34,127,0,0,3836,-43,0,4497,-253,28,6011,-4,0,52,-6,61736,0
61761,38,-2055,188,-27,-12,-126,14423,-7,-13,-124,-16,35464,-85,34,127,0,0,3834,-43,0,4497,-253,28,6021,-4,0,52,-6,61736,0
61771,77,-2040,198,-26,-10,-124,14420,-20,2,-251,-64,35475,-88,34,127,0,0,3832,-21,0,4497,-253,28,6031,-4,0,52,-6,61767,0
61781,55,-2036,190,-26,-11,-126,14406,-29,-12,-195,-72,35476,-90,34,127,0,0,3829,-32,0,4497,-253,28,6041,-4,0,52,-6,61767,0
61791,71,-2040,202,-29,-2,-134,14392,-24,-20,-146,-64,35471,-67,34,127,0,0,3827,-32,0,4497,-253,28,6051,-4,0,52,-6,61767,0
61801,88,-2035,195,-27,-10,-130,14386,-8,17,-227,-72,35467,-58,34,127,0,0,3823,-10,0,4497,-253,28,6061,-4,0,52,-6,61783,0
61811,83,-2042,201,-27,-11,-130,14384,-4,29,-288,-88,35469,-59,34,127,0,0,3823,-21,0,4497,-253,28,6071,-4,0,52,-6,61783,0
61821,74,-2042,191,-33,-16,-123,14376,-16,-2,-343,-136,35477,-70,34,127,0,0,3818,-32,0,4497,-253,28,6081,-4,0,52,-6,61798,0
61831,90,-2046,184,-25,-10,-124,14369,-12,-8,-373,-176,35473,-80,34,127,0,0,3816,-32,0,4497,-253,28,6091,-4,0,52,-6,61814,0
61841,86,-2039,184,-16,-1,-114,14362,-13,0,-436,-136,35465,-65,34,127,0,0,3812,-54,0,4497,-253,28,6101,-4,0,52,-6,61829,0
61851,96,-2046,188,-18,-12,-109,14345,-47,-15,-435,-128,35461,-71,34,127,0,0,3812,0,0,4497,-253,28,6111,-4,0,52,-6,61876,0
61861,76,-2046,194,-22,-5,-108,14314,-66,-52,-256,-56,35462,-81,34,127,0,0,3812,0,0,4497,-253,28,6121,-4,0,52,-6,61892,0
61871,63,-2050,188,-15,-2,-97,14310,0,31,-306,-64,35467,-89,34,127,0,0,3807,-10,0,4497,-253,28,6131,-4,0,52,-6,61892,0
61881,100,-2044,201,-17,-11,-94,14308,-4,62,-366,-96,35460,-104,34,127,0,0,3805,-21,0,4497,-253,28,6141,-4,0,52,-6,61892,0
61891,98,-2040,206,-19,-8,-80,14304,-12,-11,-404,-128,35456,-110,34,127,0,0,3803,-32,0,4497,-253,28,6151,-4,0,52,-6,61908,0
61901,105,-2044,202,-18,-6,-81,14300,-15,-3,-443,-144,35460,-132,34,127,0,0,3803,-10,0,4497,-253,28,6161,-4,0,52,-6,61908,0
61911,92,-2045,196,-18,-4,-76,14292,-19,-12,-432,-104,35470,-135,34,127,0,0,3803,10,0,4497,-253,28,6171,-4,0,52,-6,61908,0
61921,102,-2045,201,-20,-9,-63,14280,-34,-13,-398,-48,35474,-138,34,127,0,0,3801,0,0,4497,-253,28,6181,-4,0,52,-6,61908,0
61931,97,-2047,192,-19,-14,-68,14265,-38,-19,-332,-48,35477,-155,34,127,0,0,3801,0,0,4497,-253,28,6191,-4,0,52,-6,61908,0
61941,83,-2047,199,-19,-12,-63,14260,11,12,-275,-72,35483,-144,34,127,0,0,3801,0,0,4497,-253,28,6201,-4,0,52,-6,61939,0
61951,95,-2040,208,-12,-13,-55,14260,-3,45,-258,-80,35478,-168,34,127,0,0,3801,-10,0,4497,-253,28,6211,-4,0,52,-6,61939,0
61961,87,-2048,198,-17,-16,-55,14261,7,12,-272,-112,35471,-147,34,127,0,0,3801,0,0,4497,-253,28,6221,-4,0,52,-6,62033,0
61971,67,-2041,195,-14,-8,-48,14260,2,3,-269,-72,35470,-147,34,127,0,0,3799,-32,0,4497,-253,28,6231,-4,0,52,-6,62033,0
61981,55,-2047,200,-12,-6,-50,14257,-6,-2,-302,-64,35476,-136,34,127,0,0,3801,0,0,4497,-253,28,6241,-4,0,52,-6,62033,0
61991,80,-2038,201,-16,-12,-48,14259,-10,2,-276,-72,35489,-131,34,127,0,0,3801,-10,0,4497,-253,28,6251,-4,0,52,-6,62048,0
62001,78,-2037,197,-17,-11,-49,14259,9,1,-284,-104,35486,-146,34,127,0,0,3801,0,0,4497,-253,28,6261,-4,0,52,-6,62048,0
62011,69,-2040,204,-18,-5,-45,14259,3,3,-259,-72,35470,-131,34,127,0,0,3799,-21,0,4497,-253,28,6271,-4,0,52,-6,62048,0
62021,60,-2048,204,-21,-4,-52,14258,-5,-4,-294,-104,35460,-130,34,127,0,0,3799,-32,0,4497,-253,28,6281,-4,0,52,-6,62048,0
62031,71,-2037,212,-23,-10,-51,14257,-4,-4,-303,-64,35461,-140,34,127,0,0,3801,21,0,4497,-253,28,6291,-4,0,52,-6,62048,0
62041,90,-2028,224,-36,-5,-53,14257,-6,-1,-278,-64,35466,-144,34,127,0,0,3801,21,0,4497,-253,28,6301,-4,0,52,-6,62048,0
62051,90,-2043,243,-49,0,-44,14257,-5,0,-287,-64,35462,-134,34,127,0,0,3801,10,0,4497,-253,28,6311,-4,0,52,-6,62048,0
62061,69,-2061,226,-59,-20,-50,14259,9,0,-281,-104,35457,-134,34,127,0,0,3796,-54,0,4497,-253,28,6321,-4,0,52,-6,62048,0
62071,69,-2051,213,-60,-13,-54,14254,-7,-14,-346,-80,35473,-144,34,127,0,0,3801,21,0,4497,-253,28,6331,-4,0,52,-6,62048,0
62081,75,-2037,181,-59,-13,-59,14256,-1,4,-306,-56,35487,-167,34,127,0,0,3799,-21,0,4497,-253,28,6341,-4,0,52,-6,62079,0
62091,81,-2046,180,-59,-10,-70,14254,-6,6,-328,-48,35484,-158,34,127,0,0,3794,-54,0,4497,-253,28,6351,-4,0,52,-6,62079,0
62101,77,-2036,187,-51,0,-78,14254,-5,-3,-385,-120,35467,-155,34,127,0,0,3799,0,0,4497,-253,28,6361,-4,0,52,-6,62079,0
62111,97,-2047,190,-48,2,-69,14254,2,3,-331,-120,35462,-138,34,127,0,0,3799,-10,0,4497,-253,28,6371,-4,0,52,-6,62095,0
62121,107,-2040,180,-44,-15,-58,14252,-4,-1,-394,-56,35474,-162,34,127,0,0,3796,21,0,4497,-253,28,6381,-4,0,52,-6,62111,0
62131,116,-2035,179,-36,-12,-55,14253,-1,-1,-358,-152,35473,-171,34,127,0,0,3796,-32,0,4497,-253,28,6391,-4,0,52,-6,62111,0
62141,81,-2041,186,-29,-5,-53,14252,5,0,-390,-104,35467,-157,34,127,0,0,3794,-21,0,4497,-253,28,6401,-4,0,52,-6,62142,0
62151,87,-2048,203,-28,-8,-56,14251,1,-3,-376,-144,35461,-143,34,127,0,0,3794,-65,0,4497,-253,28,6411,-4,0,52,-6,62142,0
62161,83,-2048,200,-30,-9,-51,14248,-9,-2,-445,-80,35467,-145,34,127,0,0,3794,10,0,4497,-253,28,6421,-4,0,52,-6,62142,0
62171,102,-2040,201,-30,-4,-55,14249,-1,2,-437,-88,35468,-165,34,127,0,0,3794,-10,0,4497,-253,28,6431,-4,0,52,-6,62173,0
62181,93,-2043,197,-17,-10,-58,14249,-5,-1,-456,-120,35457,-162,34,127,0,0,3794,0,0,4497,-253,28,6441,-4,0,52,-6,62173,0
62191,88,-2037,194,-25,-6,-48,14248,0,-4,-465,-80,35453,-153,34,127,0,0,3792,0,0,4497,-253,28,6451,-4,0,52,-6,62173,0
62201,80,-2036,194,-16,-8,-46,14247,-5,4,-469,-72,35455,-151,34,127,0,0,3796,21,0,4497,-253,28,6461,-4,0,52,-6,62173,0
62211,84,-2032,190,-14,-9,-37,14249,5,-3,-420,-168,35466,-142,34,127,0,0,3794,-10,0,4497,-253,28,6471,-4,0,52,-6,62204,0
62221,100,-2050,201,-8,-5,-38,14247,-1,-2,-424,-160,35465,-150,34,127,0,0,3792,-32,0,4497,-253,28,6481,-4,0,52,-6,62204,0
62231,93,-2047,212,-9,-3,-30,14246,-4,-1,-463,-112,35466,-147,34,127,0,0,3792,-10,0,4497,-253,28,6491,-4,0,52,-6,62236,0
62241,83,-2040,200,-12,-9,-23,14247,7,4,-451,-160,35462,-144,34,127,0,0,3794,-10,0,4497,-253,28,6501,-4,0,52,-6,62236,0
62251,67,-2043,190,-6,-5,-19,14246,-2,1,-447,-80,35467,-150,34,127,0,0,3792,-10,0,4497,-253,28,6511,-4,0,52,-6,62236,0
62261,63,-2052,197,-7,0,-27,14247,-12,2,-422,-128,35460,-151,34,127,0,0,3796,0,0,4497,-253,28,6521,-4,0,52,-6,62236,0
62271,70,-2048,196,5,0,-25,14249,0,3,-386,-96,35463,-151,34,127,0,0,3796,-10,0,4497,-253,28,6531,-4,0,52,-6,62267,0
62281,75,-2046,202,1,-4,-27,14249,16,-3,-361,-112,35458,-135,34,127,0,0,3794,-32,0,4497,-253,28,6541,-4,0,52,-6,62267,0
62291,86,-2044,209,-7,-7,-30,14247,-9,-4,-398,-128,35462,-148,34,127,0,0,3796,0,0,4497,-253,28,6551,-4,0,52,-6,62267,0
62301,84,-2043,212,-11,-1,-25,14248,3,3,-394,-96,35460,-150,34,127,0,0,3796,0,0,4497,-253,28,6561,-4,0,52,-6,62298,0
62311,84,-2043,220,-6,3,-28,14247,-3,-2,-425,-120,35461,-153,34,127,0,0,3794,0,0,4497,-253,28,6571,-4,0,52,-6,62298,0
62321,77,-2048,221,-19,-16,-31,14248,3,-3,-426,-128,35457,-152,34,127,0,0,3799,32,0,4497,-253,28,6581,-4,0,52,-6,62314,0
62331,75,-2043,217,-14,-10,-26,14249,-7,5,-361,-128,35461,-153,34,127,0,0,3799,54,0,4497,-253,28,6591,-4,0,52,-6,62314,0
62341,99,-2037,206,-25,-6,-34,14251,9,-1,-345,-136,35471,-164,34,127,0,0,3796,0,0,4497,-253,28,6601,-4,0,52,-6,62392,0
62351,78,-2040,194,-21,-7,-36,14248,5,-1,-343,-72,35467,-149,34,127,0,0,3794,-32,0,4497,-253,28,6611,-4,0,52,-6,62392,0
62361,66,-2025,200,-17,-9,-40,14246,-26,-8,-429,-80,35456,-140,34,127,0,0,3796,32,0,4497,-253,28,6621,-4,0,52,-6,62392,0
62371,96,-2038,208,-13,-1,-34,14250,14,1,-402,-136,35452,-153,34,127,0,0,3796,0,0,4497,-253,28,6631,-4,0,52,-6,62392,0
62381,85,-2031,210,-15,-14,-32,14246,-3,2,-402,-80,35453,-155,34,127,0,0,3799,32,0,4497,-253,28,6641,-4,0,52,-6,62407,0
62391,81,-2044,214,-19,-10,-34,14250,8,3,-336,-96,35451,-163,34,127,0,0,3801,21,0,4497,-253,28,6651,-4,0,52,-6,62407,0
62401,90,-2045,220,-25,-20,-35,14249,3,-2,-349,-96,35446,-155,34,127,0,0,3796,21,0,4497,-253,28,6661,-4,0,52,-6,62407,0
62411,83,-2041,203,-25,-11,-35,14249,6,-4,-357,-72,35449,-152,34,127,0,0,3799,21,0,4497,-253,28,6671,-4,0,52,-6,62407,0
62421,79,-2045,211,-29,-19,-40,14250,-7,10,-332,-96,35460,-166,34,127,0,0,3794,-43,0,4497,-253,28,6681,-4,0,52,-6,62407,0
62431,84,-2053,210,-25,-10,-42,14247,8,0,-342,-72,35471,-173,34,127,0,0,3801,10,0,4497,-253,28,6691,-4,0,52,-6,62423,0
62441,92,-2040,217,-34,-10,-38,14249,-19,4,-316,-112,35484,-176,34,127,0,0,3799,10,0,4497,-253,28,6701,-4,0,52,-6,62423,0
62451,78,-2049,206,-29,-11,-38,14252,22,3,-290,-112,35491,-170,34,127,0,0,3796,-54,0,4497,-253,28,6711,-4,0,52,-6,62423,0
62461,71,-2035,207,-32,-13,-32,14248,5,-3,-310,-64,35488,-173,34,127,0,0,3799,0,0,4497,-253,28,6721,-4,0,52,-6,62470,0
62471,99,-2040,208,-38,-14,-28,14250,-15,2,-324,-64,35474,-175,34,127,0,0,3799,10,0,4497,-253,28,6731,-4,0,52,-6,62470,0
62481,104,-2044,208,-36,-8,-29,14252,16,8,-279,-8,35462,-150,33,127,0,0,3794,-43,0,4497,-253,28,6741,-4,0,52,-6,62470,0
62491,122,-2048,219,-38,-15,-30,14248,-7,-7,-324,-72,35454,-134,33,127,0,0,3799,0,0,4497,-253,28,6751,-4,0,52,-6,62470,0
62501,90,-2045,215,-40,-10,-13,14252,0,0,-291,-80,35464,-125,34,127,0,0,3801,10,0,4497,-253,28,6761,-4,0,52,-6,62532,0
62511,70,-2041,205,-43,-16,-12,14250,1,0,-238,-56,35465,-146,34,127,0,0,3801,10,0,4497,-253,28,6771,-4,0,52,-6,62532,0
62521,76,-2044,211,-33,-15,-12,14252,6,-8,-245,-56,35455,-147,34,127,0,0,3801,-10,0,4497,-253,28,6781,-4,0,52,-6,62532,0
62531,77,-2046,210,-35,-10,-10,14250,-6,-8,-267,-48,35444,-141,34,127,0,0,3801,32,0,4497,-253,28,6791,-4,0,52,-6,62548,0
62541,80,-2046,209,-38,-4,-13,14253,1,6,-189,-64,35450,-149,34,127,0,0,3801,-32,0,4497,-253,28,6801,-4,0,52,-6,62548,0
62551,63,-2040,201,-34,-11,-18,14254,11,1,-164,-72,35454,-155,34,127,0,0,3803,-21,0,4497,-253,28,6811,-4,0,52,-6,62548,0
62561,55,-2047,217,-38,-7,-26,14253,-4,-4,-123,-8,35457,-159,34,127,0,0,3805,21,0,4497,-253,28,6821,-4,0,52,-6,62548,0
62571,76,-2042,224,-39,-5,-23,14255,-11,8,-105,-16,35458,-155,34,127,0,0,3805,0,0,4497,-253,28,6831,-4,0,52,-6,62548,0
62581,78,-2044,223,-44,-7,-31,14258,17,-1,-63,-16,35470,-145,34,127,0,0,3805,-10,0,4497,-253,28,6841,-4,0,52,-6,62579,0
62591,51,-2037,226,-48,-13,-37,14256,3,-5,-74,-16,35470,-157,34,127,0,0,3805,-10,0,4497,-253,28,6851,-4,0,52,-6,62579,0
62601,76,-2045,226,-55,-11,-50,14254,-12,-4,-100,-24,35462,-159,34,127,0,0,3805,32,0,4497,-253,28,6861,-4,0,52,-6,62579,0
62611,90,-2045,222,-62,-8,-42,14257,-11,7,-99,-16,35460,-152,34,127,0,0,3805,-10,0,4497,-253,28,6871,-4,0,52,-6,62595,0
62621,61,-2041,214,-66,-12,-41,14257,9,-1,-84,16,35457,-149,34,127,0,0,3805,0,0,4497,-253,28,6881,-4,0,52,-6,62595,0
62631,82,-2040,207,-64,-12,-49,14255,-22,-3,-135,-40,35472,-151,34,127,0,0,3805,-10,0,4497,-253,28,6891,-4,0,52,-6,62626,0
62641,95,-2048,209,-63,-7,-47,14256,18,0,-129,-56,35462,-162,34,127,0,0,3803,0,0,4497,-253,28,6901,-4,0,52,-6,62626,0
62651,99,-2040,207,-62,-7,-53,14256,1,8,-92,-16,35453,-142,34,127,0,0,3805,0,0,4497,-253,28,6911,-4,0,52,-6,62626,0
62661,85,-2047,209,-61,-15,-47,14255,-14,-6,-136,-40,35454,-139,34,127,0,0,3805,21,0,4497,-253,28,6921,-4,0,52,-6,62657,0
62671,77,-2043,204,-61,-4,-40,14258,18,2,-129,-8,35462,-147,34,127,0,0,3805,10,0,4497,-253,28,6931,-4,0,52,-6,62673,0
62681,88,-2044,201,-59,-6,-44,14256,2,-1,-105,-16,35469,-160,34,127,0,0,3801,-21,0,4497,-253,28,6941,-4,0,52,-6,62673,0
62691,112,-2041,194,-59,-8,-50,14254,-9,-7,-160,0,35454,-150,34,127,0,0,3805,0,0,4497,-253,28,6951,-4,0,52,-6,62673,0
62701,82,-2036,198,-59,-14,-41,14256,-4,-1,-165,-40,35457,-153,34,127,0,0,3805,21,0,4497,-253,28,6961,-4,0,52,-6,62782,0
62711,73,-2048,207,-57,-5,-38,14256,8,4,-158,-40,35467,-146,34,127,0,0,3805,32,0,4497,-253,28,6971,-4,0,52,-6,62782,0
62721,92,-2043,210,-50,-12,-41,14257,5,5,-104,-8,35473,-145,34,127,0,0,3805,10,0,4497,-253,28,6981,-4,0,52,-6,62782,0
62731,79,-2047,204,-46,-11,-47,14258,8,2,-70,-16,35462,-135,34,127,0,0,3805,-10,0,4497,-253,28,6991,-4,0,52,-6,62782,0
62741,62,-2042,213,-45,-10,-45,14256,10,-5,-79,-16,35451,-145,34,127,0,0,3803,-21,0,4497,-253,28,7001,-4,0,52,-6,62782,0
62751,89,-2044,207,-56,-11,-47,14253,-17,-1,-148,0,35456,-139,34,127,0,0,3803,10,0,4497,-253,28,7011,-4,0,52,-6,62798,0
62761,67,-2039,206,-49,-18,-55,14258,6,6,-119,-16,35459,-165,34,127,0,0,3805,0,0,4497,-253,28,7021,-4,0,52,-6,62798,0
62771,57,-2043,203,-47,-11,-45,14256,3,-3,-116,-8,35459,-160,34,127,0,0,3803,-10,0,4497,-253,28,7031,-4,0,52,-6,62798,0
62781,68,-2045,209,-49,-8,-52,14256,1,-7,-138,-8,35456,-156,34,127,0,0,3805,10,0,4497,-253,28,7041,-4,0,52,-6,62798,0
62791,88,-2031,207,-47,-6,-49,14257,-7,4,-120,-8,35451,-148,34,127,0,0,3805,-10,0,4497,-253,28,7051,-4,0,52,-6,62798,0
62801,66,-2036,199,-45,-12,-42,14258,14,-4,-109,-16,35455,-149,34,127,0,0,3803,-21,0,4497,-253,28,7061,-4,0,52,-6,62798,0
62811,65,-2036,209,-45,-14,-51,14256,-6,0,-139,-40,35467,-160,34,127,0,0,3803,-21,0,4497,-253,28,7071,-4,0,52,-6,62798,0
62821,73,-2049,205,-46,-5,-55,14258,22,0,-126,-56,35479,-152,34,127,0,0,3805,-10,0,4497,-253,28,7081,-4,0,52,-6,62829,0
62831,46,-2049,204,-46,-12,-52,14255,0,3,-111,-16,35481,-149,34,127,0,0,3805,21,0,4497,-253,28,7091,-4,0,52,-6,62829,0
62841,92,-2045,205,-46,-14,-50,14257,-11,0,-95,-24,35478,-151,34,127,0,0,3805,0,0,4497,-253,28,7101,-4,0,52,-6,62829,0
62851,69,-2049,199,-46,-10,-52,14258,15,1,-81,-56,35477,-147,34,127,0,0,3805,0,0,4497,-253,28,7111,-4,0,52,-6,62829,0
62861,91,-2043,201,-40,-10,-55,14254,-10,-7,-156,-24,35478,-140,34,127,0,0,3803,10,0,4497,-253,28,7121,-4,0,52,-6,62860,0
62871,97,-2042,205,-48,-12,-59,14256,5,2,-163,-56,35473,-141,34,127,0,0,3805,10,0,4497,-253,28,7131,-4,0,52,-6,62860,0
62881,73,-2033,213,-43,-15,-53,14254,-6,2,-166,8,35471,-148,34,127,0,0,3803,10,0,4497,-253,28,7141,-4,0,52,-6,62860,0
62891,103,-2036,207,-46,-4,-62,14255,-3,3,-156,-8,35472,-150,34,127,0,0,3803,-21,0,4497,-253,28,7151,-4,0,52,-6,62892,0
62901,69,-2040,204,-50,-11,-58,14254,-3,-3,-180,0,35465,-125,34,127,0,0,3805,32,0,4497,-253,28,7161,-4,0,52,-6,62892,0
62911,97,-2042,210,-44,-4,-55,14257,-10,-6,-118,-88,35461,-118,34,127,0,0,3803,-10,0,4497,-253,28,7171,-4,0,52,-6,62892,0
62921,89,-2040,207,-45,-3,-59,14257,18,0,-127,-16,35457,-114,34,127,0,0,3803,-10,0,4497,-253,28,7181,-4,0,52,-6,62923,0
62931,90,-2042,209,-49,-11,-66,14254,-23,-5,-174,0,35470,-149,34,127,0,0,3803,0,0,4497,-253,28,7191,-4,0,52,-6,62923,0
62941,81,-2048,204,-47,-6,-66,14254,-5,-3,-201,-40,35471,-147,34,127,0,0,3805,21,0,4497,-253,28,7201,-4,0,52,-6,62923,0
62951,61,-2047,202,-45,0,-57,14257,9,11,-129,-40,35472,-140,34,127,0,0,3803,-32,0,4497,-253,28,7211,-4,0,52,-6,62939,0
62961,81,-2043,205,-46,-3,-60,14253,1,-8,-194,-72,35471,-144,34,127,0,0,3803,21,0,4497,-253,28,7221,-4,0,52,-6,62970,0
62971,78,-2044,208,-45,-4,-63,14256,3,4,-150,-56,35480,-147,34,127,0,0,3803,-10,0,4497,-253,28,7231,-4,0,52,-6,62970,0
62981,66,-2043,213,-54,-6,-73,14255,0,8,-184,-40,35479,-146,34,127,0,0,3801,-32,0,4497,-253,28,7241,-4,0,52,-6,62970,0
62991,80,-2043,219,-60,1,-84,14253,-2,-3,-243,-56,35463,-137,34,127,0,0,3799,-21,0,4497,-253,28,7251,-4,0,52,-6,62970,0
63001,80,-2036,213,-67,-3,-89,14252,-6,0,-289,-48,35467,-144,34,127,0,0,3801,10,0,4497,-253,28,7261,-4,0,52,-6,63001,0
63011,73,-2037,217,-68,-2,-90,14254,0,3,-302,-80,35476,-156,34,127,0,0,3799,10,0,4497,-253,28,7271,-4,0,52,-6,63017,0
63021,73,-2040,214,-73,-3,-98,14252,5,-3,-306,-152,35481,-150,34,127,0,0,3796,-32,0,4497,-253,28,7281,-4,0,52,-6,63017,0
63031,73,-2050,213,-73,-1,-104,14249,1,0,-375,-96,35468,-151,34,127,0,0,3794,-21,0,4497,-253,28,7291,-4,0,52,-6,63017,0
63041,93,-2044,208,-77,-2,-104,14247,-7,0,-445,-120,35468,-154,34,127,0,0,3790,-32,0,4497,-253,28,7301,-4,0,52,-6,63032,0
63051,88,-2040,201,-81,-11,-99,14241,-21,-8,-540,-152,35472,-142,34,127,0,0,3790,0,0,4497,-253,28,7311,-4,0,52,-6,63048,0
63061,77,-2044,200,-76,-8,-101,14240,0,-3,-544,-104,35477,-149,34,127,0,0,3790,0,0,4497,-253,28,7321,-4,0,52,-6,63048,0
63071,94,-2046,203,-76,-5,-97,14237,-10,8,-587,-168,35471,-139,34,127,0,0,3783,-43,0,4497,-253,28,7331,-4,0,52,-6,63173,0
63081,102,-2041,198,-74,-6,-101,14231,-19,-11,-606,-176,35469,-149,34,127,0,0,3785,-10,0,4497,-253,28,7341,-4,0,52,-6,63189,0
63091,99,-2046,204,-70,-11,-93,14220,-40,-16,-589,-216,35466,-147,34,127,0,0,3783,-21,0,4497,-253,28,7351,-4,0,52,-6,63189,0
63101,98,-2041,193,-69,-19,-88,14189,-74,-42,-396,-152,35465,-156,34,127,0,0,3781,-32,0,4497,-253,28,7361,-4,0,52,-6,63189,0
63111,86,-2046,188,-63,-15,-83,14176,-14,-8,-397,-112,35463,-150,34,127,0,0,3781,-21,0,4497,-253,28,7371,-4,0,52,-6,63189,0
63121,107,-2044,203,-60,-18,-76,14177,2,69,-483,-104,35465,-124,34,127,0,0,3781,21,0,4497,-253,28,7381,-4,0,52,-6,63204,0
63131,91,-2045,193,-62,-15,-66,14178,4,23,-453,-192,35465,-118,34,127,0,0,3779,-32,0,4497,-253,28,7391,-4,0,52,-6,63204,0
63141,93,-2043,190,-53,-16,-68,14170,-7,-17,-463,-128,35469,-112,34,127,0,0,3779,-10,0,4497,-253,28,7401,-4,0,52,-6,63204,0
63151,111,-2041,192,-50,-11,-64,14168,-2,-6,-507,-144,35468,-121,34,127,0,0,3777,-10,0,4497,-253,28,7411,-4,0,52,-6,63204,0
63161,115,-2048,194,-41,-17,-46,14164,-9,11,-485,-176,35464,-112,34,127,0,0,3774,-32,0,4497,-253,28,7421,-4,0,52,-6,63204,0
63171,96,-2039,196,-43,-14,-41,14147,-48,-25,-452,-88,35461,-109,34,127,0,0,3777,21,0,4497,-253,28,7431,-4,0,52,-6,63204,0
63181,92,-2041,195,-35,-11,-40,14127,-29,-33,-243,-32,35459,-123,34,127,0,0,3774,0,0,4497,-253,28,7441,-4,0,52,-6,63204,0
63191,137,-2043,202,-33,-5,-44,14131,11,42,-295,-56,35457,-113,34,127,0,0,3777,-21,0,4497,-253,28,7451,-4,0,52,-6,63204,0
63201,116,-2042,195,-33,-9,-32,14128,-1,27,-296,-56,35450,-100,34,127,0,0,3774,10,0,4497,-253,28,7461,-4,0,52,-6,63204,0
63211,126,-2043,199,-35,-8,-33,14127,-12,-4,-306,-48,35451,-96,34,127,0,0,3779,43,0,4497,-253,28,7471,-4,0,52,-6,63204,0
63221,89,-2035,190,-29,-20,-23,14130,3,10,-240,-72,35473,-93,34,127,0,0,3774,-54,0,4497,-253,28,7481,-4,0,52,-6,63204,0
63231,80,-2042,193,-24,-10,-27,14126,-13,-11,-300,-88,35497,-107,34,127,0,0,3774,0,0,4497,-253,28,7491,-4,0,52,-6,63204,0
63241,82,-2047,207,-28,-15,-29,14128,7,3,-265,-64,35490,-76,34,127,0,0,3774,-10,0,4497,-253,28,7501,-4,0,52,-6,63251,0
63251,97,-2052,217,-32,-5,-33,14127,-5,14,-248,-32,35474,-63,34,127,0,0,3779,32,0,4497,-253,28,7511,-4,0,52,-6,63251,0
63261,105,-2038,219,-30,-7,-37,14127,-10,-2,-270,-16,35464,-62,34,127,0,0,3777,21,0,4497,-253,28,7521,-4,0,52,-6,63251,0
63271,110,-2038,200,-31,4,-38,14127,2,-1,-262,-64,35473,-72,34,127,0,0,3774,-32,0,4497,-253,28,7531,-4,0,52,-6,63251,0
63281,83,-2042,198,-38,-4,-35,14126,-5,-4,-252,-64,35479,-107,34,127,0,0,3779,32,0,4497,-253,28,7541,-4,0,52,-6,63282,0
63291,90,-2048,204,-31,-6,-34,14128,-6,1,-226,-104,35463,-70,34,127,0,0,3777,-32,0,4497,-253,28,7551,-4,0,52,-6,63282,0
63301,95,-2044,204,-34,-5,-39,14126,8,-5,-233,-72,35453,-77,34,127,0,0,3779,43,0,4497,-253,28,7561,-4,0,52,-6,63282,0
63311,103,-2042,202,-37,0,-36,14128,-4,8,-215,-32,35457,-81,34,127,0,0,3779,10,0,4497,-253,28,7571,-4,0,52,-6,63298,0
63321,114,-2057,204,-34,-7,-43,14128,7,6,-206,-80,35466,-85,34,127,0,0,3779,0,0,4497,-253,28,7581,-4,0,52,-6,63313,0
63331,53,-2045,207,-32,-8,-38,14129,20,-5,-171,-88,35459,-82,34,127,0,0,3779,-10,0,4497,-253,28,7591,-4,0,52,-6,63313,0
63341,74,-2045,197,-33,-1,-23,14128,4,1,-187,-40,35453,-77,34,127,0,0,3781,21,0,4497,-253,28,7601,-4,0,52,-6,63313,0
63351,88,-2049,201,-32,-7,-29,14130,4,5,-134,-56,35459,-93,34,127,0,0,3779,-32,0,4497,-253,28,7611,-4,0,52,-6,63345,0
63361,96,-2036,206,-29,-1,-22,14129,8,-1,-151,-56,35468,-103,34,127,0,0,3779,-10,0,4497,-253,28,7621,-4,0,52,-6,63345,0
63371,106,-2041,200,-34,2,-19,14129,0,-3,-158,-48,35474,-79,34,127,0,0,3779,-21,0,4497,-253,28,7631,-4,0,52,-6,63376,0
63381,97,-2036,196,-23,2,-8,14129,5,3,-182,-8,35468,-84,34,127,0,0,3779,0,0,4497,-253,28,7641,-4,0,52,-6,63392,0
63391,116,-2033,200,-23,-2,-2,14127,-6,1,-182,-40,35462,-70,34,127,0,0,3781,32,0,4497,-253,28,7651,-4,0,52,-6,63392,0
63401,120,-2038,200,-27,-18,24,14130,-3,5,-119,-24,35457,-112,34,127,0,0,3781,21,0,4497,-253,28,7661,-4,0,52,-6,63392,0
63411,114,-2041,204,-24,-14,36,14130,2,-2,-89,16,35459,-94,34,127,0,0,3785,32,0,4497,-253,28,7671,-4,0,52,-6,63392,0
63421,104,-2040,200,-23,-14,44,14135,2,2,3,16,35466,-87,34,127,0,0,3788,54,0,4497,-253,28,7681,-4,0,52,-6,63423,0
63431,92,-2044,202,-24,-11,49,14141,7,13,97,64,35466,-78,34,127,0,0,3790,32,0,4497,-253,28,7691,-4,0,52,-6,63423,0
63441,91,-2036,200,-19,-10,54,14149,10,7,130,32,35466,-88,34,127,0,0,3794,54,0,4497,-253,28,7701,-4,0,52,-6,63423,0
63451,71,-2044,204,-14,-9,52,14161,49,10,221,96,35467,-116,34,127,0,0,3796,32,0,4497,-253,28,7711,-4,0,52,-6,63501,0
63461,88,-2046,207,-14,-13,59,14197,83,61,118,56,35454,-108,34,127,0,0,3803,43,0,4497,-253,28,7721,-4,0,52,-6,63501,0
63471,75,-2044,210,-15,-26,52,14210,1,2,111,64,35451,-109,34,127,0,0,3803,32,0,4497,-253,28,7731,-4,0,52,-6,63501,0
63481,38,-2044,203,-21,-6,41,14211,15,-82,251,40,35446,-106,34,127,0,0,3805,0,0,4497,-253,28,7741,-4,0,52,-6,63501,0
63491,76,-2042,222,-20,-1,24,14217,18,-4,241,96,35452,-128,34,127,0,0,3807,32,0,4497,-253,28,7751,-4,0,52,-6,63501,0
63501,61,-2049,217,-24,-13,18,14232,46,22,209,64,35444,-130,34,127,0,0,3812,65,0,4497,-253,28,7761,-4,0,52,-6,63517,0
63511,39,-2041,217,-25,-14,14,14255,50,39,133,32,35440,-131,34,127,0,0,3812,32,0,4497,-253,28,7771,-4,0,52,-6,63517,0
63521,36,-2044,206,-29,-8,-8,14251,-24,-31,167,72,35445,-141,34,127,0,0,3814,65,0,4497,-253,28,7781,-4,0,52,-6,63517,0
63531,42,-2039,212,-29,-2,-14,14259,12,-37,235,72,35456,-152,34,127,0,0,3814,10,0,4497,-253,28,7791,-4,0,52,-6,63517,0
63541,38,-2044,225,-41,-11,-37,14258,4,8,277,104,35469,-159,34,127,0,0,3816,10,0,4497,-253,28,7801,-4,0,52,-6,63517,0
63551,51,-2040,227,-43,-4,-45,14261,-2,-7,299,56,35474,-158,34,127,0,0,3814,0,0,4497,-253,28,7811,-4,0,52,-6,63548,0
63561,32,-2037,223,-49,-3,-56,14261,3,-2,283,72,35470,-139,34,127,0,0,3814,0,0,4497,-253,28,7821,-4,0,52,-6,63548,0
63571,68,-2039,218,-56,-9,-65,14259,-13,-1,261,104,35465,-148,34,127,0,0,3814,21,0,4497,-253,28,7831,-4,0,52,-6,63579,0
63581,51,-2046,221,-61,-5,-73,14258,-7,-5,211,80,35457,-156,34,127,0,0,3814,32,0,4497,-253,28,7841,-4,0,52,-6,63579,0
63591,72,-2047,219,-60,-6,-82,14261,4,-1,249,32,35456,-154,33,127,0,0,3814,0,0,4497,-253,28,7851,-4,0,52,-6,63579,0
63601,79,-2046,218,-68,-8,-88,14260,5,0,232,80,35449,-162,33,127,0,0,3814,32,0,4497,-253,28,7861,-4,0,52,-6,63595,0
63611,80,-2052,219,-71,-9,-90,14260,-11,-2,238,32,35452,-156,34,127,0,0,3812,-21,0,4497,-253,28,7871,-4,0,52,-6,63595,0
63621,80,-2043,223,-74,-10,-91,14259,0,-1,204,48,35461,-165,34,127,0,0,3814,32,0,4497,-253,28,7881,-4,0,52,-6,63595,0
63631,72,-2042,215,-78,-12,-103,14260,-3,0,220,48,35466,-125,34,127,0,0,3812,-10,0,4497,-253,28,7891,-4,0,52,-6,63626,0
63641,57,-2041,208,-92,-3,-117,14260,16,-4,173,48,35466,-121,34,127,0,0,3807,-43,0,4497,-253,28,7901,-4,0,52,-6,63626,0
63651,87,-2045,209,-87,1,-128,14255,-13,-5,105,0,35463,-117,34,127,0,0,3807,-21,0,4497,-253,28,7911,-4,0,52,-6,63626,0
63661,89,-2041,217,-85,-4,-123,14255,-6,-4,27,-24,35464,-135,34,127,0,0,3803,-43,0,4497,-253,28,7921,-4,0,52,-6,63657,0
63671,84,-2043,209,-95,-3,-128,14249,-10,-1,-107,8,35462,-141,34,127,0,0,3803,0,0,4497,-253,28,7931,-4,0,52,-6,63657,0
63681,91,-2035,216,-96,-1,-124,14247,-11,-7,-195,-48,35465,-145,34,127,0,0,3801,0,0,4497,-253,28,7941,-4,0,52,-6,63673,0
63691,65,-2034,213,-99,-1,-131,14242,-10,2,-264,-64,35467,-151,34,127,0,0,3799,0,0,4497,-253,28,7951,-4,0,52,-6,63688,0
63701,70,-2033,204,-106,-6,-130,14241,-2,1,-291,-40,35469,-156,34,127,0,0,3796,-10,0,4497,-253,28,7961,-4,0,52,-6,63688,0
63711,88,-2032,209,-119,-14,-134,14237,-12,5,-376,-136,35465,-154,34,127,0,0,3792,-32,0,4497,-253,28,7971,-4,0,52,-6,63688,0
63721,75,-2046,215,-110,-7,-129,14223,-27,-32,-383,-112,35465,-138,34,127,0,0,3792,0,0,4497,-253,28,7981,-4,0,52,-6,63720,0
63731,87,-2043,208,-115,-11,-135,14197,-58,-40,-275,-88,35465,-135,34,127,0,0,3788,-10,0,4497,-253,28,7991,-4,0,52,-6,63720,0
63741,73,-2031,197,-109,-11,-134,14183,-10,1,-270,-80,35466,-138,33,127,0,0,3783,-43,0,4497,-253,28,8001,-4,0,52,-6,63720,0
63751,112,-2046,194,-114,-13,-133,14184,-2,54,-364,-152,35466,-149,34,127,0,0,3783,-32,0,4497,-253,28,8011,-4,0,52,-6,63735,0
63761,106,-2043,192,-112,-11,-126,14181,-3,12,-400,-136,35465,-120,34,127,0,0,3781,0,0,4497,-253,28,8021,-4,0,52,-6,63735,0
63771,97,-2042,192,-105,-8,-114,14175,-13,-4,-456,-104,35471,-125,34,127,0,0,3779,0,0,4497,-253,28,8031,-4,0,52,-6,63876,0
63781,107,-2038,194,-106,-21,-111,14167,-14,-2,-476,-144,35470,-116,34,127,0,0,3777,-32,0,4497,-253,28,8041,-4,0,52,-6,63876,0
63791,110,-2042,192,-101,-21,-106,14150,-41,-23,-435,-104,35479,-138,34,127,0,0,3777,0,0,4497,-253,28,8051,-4,0,52,-6,63876,0
63801,101,-2053,175,-94,-11,-94,14125,-42,-34,-292,-88,35468,-116,34,127,0,0,3774,0,0,4497,-253,28,8061,-4,0,52,-6,63876,0
63811,111,-2041,173,-80,-8,-85,14124,17,34,-280,-80,35464,-107,34,127,0,0,3774,0,0,4497,-253,28,8071,-4,0,52,-6,63876,0
63821,120,-2046,188,-77,-18,-65,14122,-7,48,-299,-80,35463,-120,34,127,0,0,3774,0,0,4497,-253,28,8081,-4,0,52,-6,63891,0
63831,118,-2045,182,-78,-18,-55,14124,0,-1,-302,-80,35470,-105,34,127,0,0,3770,-54,0,4497,-253,28,8091,-4,0,52,-6,63891,0
63841,78,-2051,186,-73,-14,-54,14120,1,3,-334,-72,35465,-104,34,127,0,0,3774,21,0,4497,-253,28,8101,-4,0,52,-6,63891,0
63851,107,-2036,179,-69,-22,-48,14121,-9,-3,-317,-80,35464,-88,34,127,0,0,3774,21,0,4497,-253,28,8111,-4,0,52,-6,63891,0
63861,113,-2044,164,-59,-7,-39,14124,14,2,-273,-80,35468,-82,34,127,0,0,3770,-43,0,4497,-253,28,8121,-4,0,52,-6,63891,0
63871,109,-2044,171,-51,-7,-37,14117,-16,-12,-336,-72,35470,-93,34,127,0,0,3774,43,0,4497,-253,28,8131,-4,0,52,-6,63891,0
63881,121,-2043,184,-41,-12,-32,14121,-6,-1,-330,-64,35465,-87,34,127,0,0,3774,32,0,4497,-253,28,8141,-4,0,52,-6,63891,0
63891,131,-2048,189,-45,-5,-24,14119,-1,8,-292,-72,35465,-87,34,127,0,0,3774,21,0,4497,-253,28,8151,-4,0,52,-6,63891,0
63901,105,-2037,189,-33,-13,-22,14120,-2,-5,-291,-72,35468,-84,34,127,0,0,3774,0,0,4497,-253,28,8161,-4,0,52,-6,63891,0
63911,111,-2038,181,-38,-11,-18,14123,4,-1,-257,-72,35485,-87,34,127,0,0,3774,-21,0,4497,-253,28,8171,-4,0,52,-6,63891,0
63921,104,-2036,183,-31,4,-11,14119,-6,0,-280,-72,35505,-93,34,127,0,0,3774,21,0,4497,-253,28,8181,-4,0,52,-6,63907,0
63931,99,-2034,183,-29,-3,-1,14121,-2,0,-266,-72,35506,-77,34,127,0,0,3777,21,0,4497,-253,28,8191,-4,0,52,-6,63938,0
63941,92,-2046,188,-27,-11,2,14123,6,4,-200,-32,35498,-77,34,127,0,0,3777,0,0,4497,-253,28,8201,-4,0,52,-6,63938,0
63951,110,-2038,190,-25,-17,5,14123,-12,-4,-185,-32,35475,-77,34,127,0,0,3779,21,0,4497,-253,28,8211,-4,0,52,-6,63938,0
63961,101,-2054,189,-19,-17,7,14126,6,-5,-127,-16,35470,-94,34,127,0,0,3781,21,0,4497,-253,28,8221,-4,0,52,-6,63938,0
63971,95,-2038,184,-21,-12,10,14128,-1,7,-88,16,35469,-90,34,127,0,0,3783,21,0,4497,-253,28,8231,-4,0,52,-6,63954,0
63981,97,-2044,185,-25,-20,3,14128,0,-10,-73,16,35477,-89,34,127,0,0,3785,43,0,4497,-253,28,8241,-4,0,52,-6,63970,0
63991,71,-2043,204,-19,-13,3,14130,8,1,7,24,35478,-98,34,127,0,0,3785,43,0,4497,-253,28,8251,-4,0,52,-6,63970,0
64001,95,-2034,197,-21,-27,0,14135,-3,4,31,16,35479,-98,34,127,0,0,3785,0,0,4497,-253,28,8261,-4,0,52,-6,64001,0
64011,76,-2044,192,-19,-12,-3,14136,13,-10,81,72,35465,-95,34,127,0,0,3788,10,0,4497,-253,28,8271,-4,0,52,-6,64001,0
64021,80,-2039,190,-20,-17,-10,14138,-5,2,93,32,35461,-90,34,127,0,0,3788,10,0,4497,-253,28,8281,-4,0,52,-6,64016,0
64031,86,-2046,183,-22,-16,-11,14141,9,-2,149,16,35456,-92,34,127,0,0,3790,43,0,4497,-253,28,8291,-4,0,52,-6,64016,0
64041,98,-2050,192,-19,-16,-26,14146,13,8,221,16,35472,-100,34,127,0,0,3790,-10,0,4497,-253,28,8301,-4,0,52,-6,64032,0
64051,82,-2045,198,-21,-10,-28,14153,15,8,137,64,35471,-99,34,127,0,0,3790,-10,0,4497,-253,28,8311,-4,0,52,-6,64048,0
64061,66,-2047,212,-19,-8,-34,14155,0,-11,91,24,35469,-78,34,127,0,0,3794,32,0,4497,-253,28,8321,-4,0,52,-6,64048,0
64071,62,-2051,207,-22,-9,-30,14158,20,-5,136,16,35464,-71,34,127,0,0,3794,21,0,4497,-253,28,8331,-4,0,52,-6,64063,0
64081,95,-2049,209,-34,-14,-38,14161,13,13,106,8,35475,-79,34,127,0,0,3790,-21,0,4497,-253,28,8341,-4,0,52,-6,64063,0
64091,84,-2050,208,-34,-17,-42,14162,10,-5,70,8,35476,-100,34,127,0,0,3792,-10,0,4497,-253,28,8351,-4,0,52,-6,64063,0
64101,116,-2041,209,-40,-8,-45,14163,0,2,72,32,35472,-92,34,127,0,0,3792,21,0,4497,-253,28,8361,-4,0,52,-6,64079,0
64111,93,-2041,204,-38,-10,-44,14172,32,14,102,32,35472,-103,34,127,0,0,3792,-21,0,4497,-253,28,8371,-4,0,52,-6,64110,0
64121,97,-2035,199,-42,-18,-44,14182,6,21,-27,-56,35475,-108,34,127,0,0,3792,-10,0,4497,-253,28,8381,-4,0,52,-6,64110,0
64131,61,-2035,199,-38,-14,-33,14181,6,-26,17,-16,35469,-117,34,127,0,0,3792,0,0,4497,-253,28,8391,-4,0,52,-6,64110,0
64141,97,-2040,199,-43,-8,-45,14181,-9,-20,14,16,35454,-112,34,127,0,0,3794,0,0,4497,-253,28,8401,-4,0,52,-6,64126,0
64151,76,-2040,190,-39,-9,-37,14181,0,-3,-29,24,35459,-106,34,127,0,0,3794,10,0,4497,-253,28,8411,-4,0,52,-6,64141,0
64161,115,-2032,200,-42,-5,-34,14180,-3,-4,-26,16,35459,-110,34,127,0,0,3794,32,0,4497,-253,28,8421,-4,0,52,-6,64141,0
64171,98,-2040,203,-39,-5,-26,14183,-2,6,-67,0,35471,-107,34,127,0,0,3794,43,0,4497,-253,28,8431,-4,0,52,-6,64235,0
64181,123,-2042,195,-44,-3,-28,14181,4,0,-15,24,35460,-81,34,127,0,0,3794,21,0,4497,-253,28,8441,-4,0,52,-6,64235,0
64191,90,-2051,196,-42,-7,-21,14185,22,6,72,0,35455,-83,34,127,0,0,3794,-32,0,4497,-253,28,8451,-4,0,52,-6,64235,0
64201,86,-2039,198,-44,-7,-13,14183,-11,-5,11,8,35453,-79,34,127,0,0,3796,54,0,4497,-253,28,8461,-4,0,52,-6,64235,0
64211,90,-2053,199,-45,-14,-4,14189,10,0,32,0,35456,-97,34,127,0,0,3794,0,0,4497,-253,28,8471,-4,0,52,-6,64251,0
64221,77,-2048,198,-40,-6,-15,14185,3,-4,5,8,35460,-117,34,127,0,0,3796,21,0,4497,-253,28,8481,-4,0,52,-6,64251,0
64231,66,-2049,203,-40,-8,-13,14188,6,-6,82,-24,35459,-115,34,127,0,0,3799,32,0,4497,-253,28,8491,-4,0,52,-6,64251,0
64241,86,-2043,200,-46,-11,-19,14189,-1,8,107,-8,35451,-117,34,127,0,0,3799,21,0,4497,-253,28,8501,-4,0,52,-6,64251,0
64251,67,-2044,199,-41,-7,-16,14190,15,5,121,24,35451,-126,34,127,0,0,3799,10,0,4497,-253,28,8511,-4,0,52,-6,64251,0
64261,74,-2039,190,-47,-14,-16,14190,-1,5,103,104,35454,-131,34,127,0,0,3801,54,0,4497,-253,28,8521,-4,0,52,-6,64251,0
64271,84,-2047,195,-44,-9,-16,14194,10,6,172,56,35462,-107,34,127,0,0,3801,21,0,4497,-253,28,8531,-4,0,52,-6,64251,0
64281,96,-2042,200,-51,-15,-24,14195,-12,5,116,48,35477,-96,34,127,0,0,3801,32,0,4497,-253,28,8541,-4,0,52,-6,64266,0
64291,75,-2053,201,-49,-7,-23,14198,17,-11,182,48,35484,-98,34,127,0,0,3801,0,0,4497,-253,28,8551,-4,0,52,-6,64282,0
64301,76,-2041,200,-44,-10,-20,14198,-7,1,151,64,35477,-99,34,127,0,0,3801,0,0,4497,-253,28,8561,-4,0,52,-6,64282,0
64311,77,-2037,198,-42,-10,-22,14197,1,-8,116,64,35468,-112,34,127,0,0,3801,43,0,4497,-253,28,8571,-4,0,52,-6,64313,0
64321,99,-2047,198,-40,-7,-25,14200,-6,12,178,48,35464,-110,34,127,0,0,3801,10,0,4497,-253,28,8581,-4,0,52,-6,64313,0
64331,91,-2035,199,-47,-9,-27,14198,3,-5,195,48,35464,-126,34,127,0,0,3803,21,0,4497,-253,28,8591,-4,0,52,-6,64313,0
64341,89,-2049,188,-41,-7,-27,14200,6,-6,217,48,35460,-132,34,127,0,0,3801,-21,0,4497,-253,28,8601,-4,0,52,-6,64329,0
64351,72,-2045,198,-41,-2,-30,14198,5,-3,182,48,35465,-129,34,127,0,0,3801,0,0,4497,-253,28,8611,-4,0,52,-6,64345,0
64361,85,-2038,202,-43,-5,-38,14199,-9,0,149,16,35466,-111,34,127,0,0,3801,21,0,4497,-253,28,8621,-4,0,52,-6,64345,0
64371,74,-2040,205,-39,-1,-30,14201,9,13,176,48,35471,-98,34,127,0,0,3803,21,0,4497,-253,28,8631,-4,0,52,-6,64376,0
64381,80,-2046,205,-41,-4,-31,14200,11,6,218,80,35469,-117,34,127,0,0,3803,0,0,4497,-253,28,8641,-4,0,52,-6,64391,0
64391,81,-2050,200,-43,0,-36,14200,-3,-2,188,48,35463,-126,34,127,0,0,3801,0,0,4497,-253,28,8651,-4,0,52,-6,64391,0
64401,79,-2046,203,-44,0,-38,14200,12,-2,195,40,35455,-125,34,127,0,0,3801,0,0,4497,-253,28,8661,-4,0,52,-6,64391,0
64411,89,-2047,198,-48,-4,-39,14199,-13,2,175,48,35453,-141,34,127,0,0,3801,0,0,4497,-253,28,8671,-4,0,52,-6,64391,0
64421,90,-2051,197,-44,3,-37,14200,1,-3,188,40,35468,-136,34,127,0,0,3803,10,0,4497,-253,28,8681,-4,0,52,-6,64454,0
64431,72,-2047,195,-45,-4,-31,14200,-10,-3,174,16,35474,-146,34,127,0,0,3803,21,0,4497,-253,28,8691,-4,0,52,-6,64454,0
64441,91,-2048,195,-44,-3,-31,14204,22,3,239,64,35462,-120,34,127,0,0,3801,-32,0,4497,-253,28,8701,-4,0,52,-6,64454,0
64451,78,-2052,204,-47,-6,-32,14202,-8,5,161,40,35450,-116,34,127,0,0,3803,21,0,4497,-253,28,8711,-4,0,52,-6,64454,0
64461,93,-2036,199,-46,-7,-26,14204,9,-7,205,32,35449,-138,34,127,0,0,3801,0,0,4497,-253,28,8721,-4,0,52,-6,64454,0
64471,84,-2043,201,-51,-6,-33,14202,-7,-1,193,120,35449,-125,34,127,0,0,3801,-21,0,4497,-253,28,8731,-4,0,52,-6,64469,0
64481,71,-2040,198,-46,-3,-29,14203,0,-8,165,32,35451,-131,34,127,0,0,3801,0,0,4497,-253,28,8741,-4,0,52,-6,64469,0
64491,84,-2039,200,-50,-3,-31,14206,10,8,233,96,35460,-126,34,127,0,0,3803,-10,0,4497,-253,28,8751,-4,0,52,-6,64469,0
64501,74,-2040,198,-56,-13,-24,14208,1,5,220,88,35472,-127,34,127,0,0,3803,-21,0,4497,-253,28,8761,-4,0,52,-6,64485,0
64511,83,-2040,190,-57,-7,-24,14207,-1,-10,217,88,35477,-136,34,127,0,0,3805,10,0,4497,-253,28,8771,-4,0,52,-6,64501,0
64521,81,-2045,195,-48,-8,-30,14209,4,7,282,96,35471,-137,34,127,0,0,3805,-10,0,4497,-253,28,8781,-4,0,52,-6,64548,0
64531,86,-2048,196,-51,-11,-27,14217,13,16,211,24,35465,-136,34,127,0,0,3805,0,0,4497,-253,28,8791,-4,0,52,-6,64579,0
64541,93,-2041,202,-47,-7,-23,14217,-5,-12,181,72,35470,-129,34,127,0,0,3805,32,0,4497,-253,28,8801,-4,0,52,-6,64579,0
64551,89,-2050,197,-47,-1,-22,14221,14,-8,234,80,35484,-135,34,127,0,0,3805,0,0,4497,-253,28,8811,-4,0,52,-6,64579,0
64561,83,-2040,196,-47,-1,-25,14237,37,27,150,16,35476,-140,34,127,0,0,3807,0,0,4497,-253,28,8821,-4,0,52,-6,64579,0
64571,78,-2038,201,-53,-8,-16,14246,7,15,71,40,35468,-131,34,127,0,0,3810,43,0,4497,-253,28,8831,-4,0,52,-6,64594,0
64581,75,-2040,192,-49,-5,-24,14246,2,-33,150,16,35460,-140,34,127,0,0,3810,10,0,4497,-253,28,8841,-4,0,52,-6,64594,0
64591,69,-2044,192,-48,-3,-24,14248,4,-20,148,16,35463,-135,34,127,0,0,3807,0,0,4497,-253,28,8851,-4,0,52,-6,64594,0
64601,78,-2047,198,-49,-11,-32,14248,2,2,163,32,35466,-153,34,127,0,0,3810,10,0,4497,-253,28,8861,-4,0,52,-6,64594,0
64611,71,-2048,198,-56,-14,-31,14247,-16,0,104,88,35464,-133,34,127,0,0,3810,32,0,4497,-253,28,8871,-4,0,52,-6,64594,0
64621,66,-2042,200,-52,-2,-35,14252,2,3,184,64,35469,-133,34,127,0,0,3810,-32,0,4497,-253,28,8881,-4,0,52,-6,64626,0
64631,74,-2041,198,-54,-13,-43,14251,-6,-5,157,40,35472,-161,34,127,0,0,3810,-32,0,4497,-253,28,8891,-4,0,52,-6,64641,0
64641,63,-2045,194,-53,-15,-31,14252,14,-6,154,0,35472,-165,34,127,0,0,3812,0,0,4497,-253,28,8901,-4,0,52,-6,64641,0
64651,45,-2044,199,-56,-8,-31,14253,7,15,192,72,35457,-167,34,127,0,0,3812,0,0,4497,-253,28,8911,-4,0,52,-6,64641,0
64661,89,-2039,184,-61,-9,-42,14250,-16,2,142,72,35445,-150,34,127,0,0,3810,21,0,4497,-253,28,8921,-4,0,52,-6,64641,0
64671,84,-2045,201,-56,-7,-45,14253,0,1,150,40,35460,-146,34,127,0,0,3810,-10,0,4497,-253,28,8931,-4,0,52,-6,64657,0
64681,60,-2043,195,-57,-14,-34,14253,7,1,123,48,35471,-155,34,127,0,0,3810,-10,0,4497,-253,28,8941,-4,0,52,-6,64673,0
64691,73,-2041,193,-60,-12,-42,14252,-11,-3,157,40,35471,-145,34,127,0,0,3810,10,0,4497,-253,28,8951,-4,0,52,-6,64673,0
64701,77,-2043,198,-57,-11,-55,14253,0,-1,158,24,35457,-131,34,127,0,0,3807,-10,0,4497,-253,28,8961,-4,0,52,-6,64673,0
64711,71,-2041,198,-58,-15,-53,14252,-10,-7,123,40,35463,-138,34,127,0,0,3810,0,0,4497,-253,28,8971,-4,0,52,-6,64719,0
64721,75,-2039,195,-59,-11,-41,14253,0,1,157,32,35474,-147,34,127,0,0,3810,-21,0,4497,-253,28,8981,-4,0,52,-6,64719,0
64731,64,-2043,185,-62,-11,-49,14253,12,-7,146,40,35473,-163,34,127,0,0,3810,0,0,4497,-253,28,8991,-4,0,52,-6,64719,0
64741,82,-2041,196,-60,-12,-55,14250,-9,-6,107,48,35458,-140,34,127,0,0,3810,32,0,4497,-253,28,9001,-4,0,52,-6,64719,0
64751,102,-2035,193,-62,-4,-53,14252,1,3,110,40,35458,-143,34,127,0,0,3810,21,0,4497,-253,28,9011,-4,0,52,-6,64735,0
64761,80,-2046,193,-56,-10,-52,14253,5,0,156,40,35470,-148,34,127,0,0,3807,-32,0,4497,-253,28,9021,-4,0,52,-6,64766,0
64771,72,-2042,188,-55,-7,-51,14252,8,-4,100,48,35476,-149,34,127,0,0,3810,-10,0,4497,-253,28,9031,-4,0,52,-6,64766,0
64781,100,-2048,192,-57,-6,-53,14253,-2,3,178,24,35461,-143,34,127,0,0,3810,-10,0,4497,-253,28,9041,-4,0,52,-6,64766,0
64791,83,-2049,191,-52,-5,-43,14251,-10,2,120,48,35456,-134,34,127,0,0,3810,10,0,4497,-253,28,9051,-4,0,52,-6,64766,0
64801,93,-2050,184,-56,-7,-35,14253,3,3,126,8,35466,-149,34,127,0,0,3810,-10,0,4497,-253,28,9061,-4,0,52,-6,64798,0
64811,72,-2046,192,-45,-10,-30,14253,8,10,162,32,35476,-141,34,127,0,0,3810,-21,0,4497,-253,28,9071,-4,0,52,-6,64798,0
64821,72,-2049,194,-47,-1,-37,14253,0,2,155,72,35474,-144,34,127,0,0,3807,-32,0,4497,-253,28,9081,-4,0,52,-6,64813,0
64831,81,-2046,191,-49,-5,-43,14253,9,-4,103,40,35459,-142,34,127,0,0,3807,-21,0,4497,-253,28,9091,-4,0,52,-6,64813,0
64841,76,-2036,195,-52,-6,-45,14251,-10,4,106,72,35467,-143,34,127,0,0,3812,43,0,4497,-253,28,9101,-4,0,52,-6,64829,0
64851,79,-2043,190,-46,-8,-38,14253,-5,1,137,72,35477,-153,34,127,0,0,3812,21,0,4497,-253,28,9111,-4,0,52,-6,64844,0
64861,64,-2047,193,-50,-5,-43,14254,7,-4,189,56,35480,-146,34,127,0,0,3810,-32,0,4497,-253,28,9121,-4,0,52,-6,64844,0
64871,57,-2037,203,-53,-9,-48,14251,-9,-12,119,40,35470,-120,34,127,0,0,3812,54,0,4497,-253,28,9131,-4,0,52,-6,64844,0
64881,77,-2050,190,-54,-7,-52,14254,-2,4,158,32,35475,-122,34,127,0,0,3810,-10,0,4497,-253,28,9141,-4,0,52,-6,64876,0
64891,78,-2043,191,-56,-14,-54,14255,5,2,156,32,35480,-134,34,127,0,0,3812,10,0,4497,-253,28,9151,-4,0,52,-6,64891,0
64901,57,-2043,194,-58,-12,-50,14256,12,-8,184,16,35482,-167,34,127,0,0,3812,-10,0,4497,-253,28,9161,-4,0,52,-6,64891,0
64911,41,-2049,197,-57,-14,-55,14253,-4,2,174,64,35465,-154,34,127,0,0,3810,21,0,4497,-253,28,9171,-4,0,52,-6,64891,0
64921,49,-2045,196,-60,-19,-66,14252,-18,-2,129,80,35466,-148,34,127,0,0,3810,-10,0,4497,-253,28,9181,-4,0,52,-6,64985,0
64931,78,-2048,195,-63,-10,-66,14256,10,7,166,56,35470,-159,34,127,0,0,3812,-10,0,4497,-253,28,9191,-4,0,52,-6,64985,0
64941,79,-2054,192,-66,-13,-60,14253,5,-1,142,0,35474,-158,34,127,0,0,3810,0,0,4497,-253,28,9201,-4,0,52,-6,64985,0
64951,86,-2040,188,-56,-13,-55,14256,13,2,149,32,35460,-148,34,127,0,0,3810,-32,0,4497,-253,28,9211,-4,0,52,-6,65001,0
64961,99,-2046,181,-51,-6,-47,14250,-7,-3,79,16,35453,-140,34,127,0,0,3810,21,0,4497,-253,28,9221,-4,0,52,-6,65001,0
64971,100,-2049,186,-49,-9,-51,14254,7,0,88,48,35458,-153,34,127,0,0,3807,-10,0,4497,-253,28,9231,-4,0,52,-6,65001,0
64981,99,-2042,178,-44,-3,-35,14252,-1,5,78,16,35465,-163,34,127,0,0,3810,10,0,4497,-253,28,9241,-4,0,52,-6,65001,0
64991,106,-2048,176,-47,-6,-30,14254,9,-1,141,0,35466,-154,34,127,0,0,3807,-32,0,4497,-253,28,9251,-4,0,52,-6,65001,0
65001,73,-2041,174,-35,6,-16,14252,7,-2,127,40,35461,-143,34,127,0,0,3810,-10,0,4497,-253,28,9261,-4,0,52,-6,65001,0
65011,81,-2040,188,-32,0,-22,14254,-4,-2,147,-16,35463,-137,34,127,0,0,3807,-43,0,4497,-253,28,9271,-4,0,52,-6,65001,0
65021,72,-2044,195,-33,3,-14,14251,0,-4,99,72,35473,-150,33,127,0,0,3812,54,0,4497,-253,28,9281,-4,0,52,-6,65001,0
65031,95,-2050,201,-30,0,-11,14256,1,8,157,32,35489,-140,34,127,0,0,3812,0,0,4497,-253,28,9291,-4,0,52,-6,65016,0
65041,76,-2049,199,-38,2,-13,14254,15,1,157,32,35495,-140,34,127,0,0,3812,10,0,4497,-253,28,9301,-4,0,52,-6,65047,0
65051,46,-2046,199,-40,-1,-17,14255,11,3,188,56,35485,-141,34,127,0,0,3812,0,0,4497,-253,28,9311,-4,0,52,-6,65079,0
65061,71,-2044,197,-40,0,-21,14255,-4,1,203,56,35474,-150,34,127,0,0,3810,-32,0,4497,-253,28,9321,-4,0,52,-6,65079,0
65071,68,-2045,197,-39,-2,-24,14254,-1,-2,133,32,35469,-171,34,127,0,0,3812,0,0,4497,-253,28,9331,-4,0,52,-6,65079,0
65081,77,-2046,198,-38,-9,-14,14256,6,5,173,88,35467,-149,34,127,0,0,3814,43,0,4497,-253,28,9341,-4,0,52,-6,65079,0
65091,73,-2046,201,-45,-15,-14,14255,-5,2,223,88,35461,-139,34,127,0,0,3812,10,0,4497,-253,28,9351,-4,0,52,-6,65079,0
65101,71,-2046,190,-42,-8,-22,14256,0,-3,231,88,35467,-141,34,127,0,0,3814,10,0,4497,-253,28,9361,-4,0,52,-6,65094,0
65111,74,-2041,186,-43,-11,-20,14256,0,-1,257,80,35475,-150,34,127,0,0,3816,21,0,4497,-253,28,9371,-4,0,52,-6,65094,0
65121,91,-2045,192,-46,-12,-28,14258,-1,1,274,64,35482,-148,34,127,0,0,3814,10,0,4497,-253,28,9381,-4,0,52,-6,65126,0
65131,75,-2036,201,-47,-5,-30,14256,0,-3,285,96,35480,-154,34,127,0,0,3814,0,0,4497,-253,28,9391,-4,0,52,-6,65126,0
65141,66,-2046,197,-43,-14,-27,14259,-7,-2,274,72,35471,-151,34,127,0,0,3816,10,0,4497,-253,28,9401,-4,0,52,-6,65126,0
65151,62,-2035,196,-49,-10,-26,14259,3,-1,307,96,35459,-157,34,127,0,0,3818,54,0,4497,-253,28,9411,-4,0,52,-6,65141,0
65161,83,-2042,198,-44,-10,-31,14262,9,5,340,88,35463,-159,34,127,0,0,3814,-21,0,4497,-253,28,9421,-4,0,52,-6,65141,0
65171,77,-2042,191,-51,-11,-37,14261,2,-4,301,88,35469,-160,34,127,0,0,3816,0,0,4497,-253,28,9431,-4,0,52,-6,65172,0
65181,70,-2039,201,-54,-13,-42,14261,-6,1,326,80,35480,-155,34,127,0,0,3816,10,0,4497,-253,28,9441,-4,0,52,-6,65188,0
65191,58,-2047,198,-55,-9,-42,14263,6,4,322,88,35478,-166,33,127,0,0,3816,10,0,4497,-253,28,9451,-4,0,52,-6,65188,0
65201,71,-2044,191,-53,-7,-55,14261,-9,-1,316,128,35465,-165,34,127,0,0,3814,21,0,4497,-253,28,9461,-4,0,52,-6,65188,0
65211,108,-2043,199,-58,-9,-59,14263,0,-3,342,40,35459,-147,34,127,0,0,3818,-10,0,4497,-253,28,9471,-4,0,52,-6,65188,0
65221,85,-2039,199,-54,-13,-44,14263,3,-4,316,48,35468,-148,34,127,0,0,3816,21,0,4497,-253,28,9481,-4,0,52,-6,65219,0
65231,78,-2041,191,-58,-5,-46,14262,-4,-6,274,96,35474,-158,34,127,0,0,3814,0,0,4497,-253,28,9491,-4,0,52,-6,65219,0
65241,61,-2046,195,-52,-12,-51,14261,2,3,212,64,35473,-170,34,127,0,0,3816,21,0,4497,-253,28,9501,-4,0,52,-6,65219,0
65251,64,-2048,186,-56,-10,-52,14261,-3,2,287,88,35459,-159,34,127,0,0,3814,-10,0,4497,-253,28,9511,-4,0,52,-6,65266,0
65261,72,-2042,196,-61,-5,-48,14260,-7,-1,264,88,35456,-149,34,127,0,0,3814,0,0,4497,-253,28,9521,-4,0,52,-6,65266,0
65271,95,-2041,186,-62,-13,-49,14263,-7,-4,255,64,35465,-169,34,127,0,0,3818,32,0,4497,-253,28,9531,-4,0,52,-6,65266,0
65281,93,-2045,191,-60,-6,-42,14266,22,10,362,32,35463,-152,34,127,0,0,3814,-54,0,4497,-253,28,9541,-4,0,52,-6,65282,0
65291,64,-2043,180,-50,-5,-40,14260,-13,-12,241,80,35465,-149,34,127,0,0,3816,32,0,4497,-253,28,9551,-4,0,52,-6,65282,0
65301,110,-2040,188,-49,1,-31,14265,19,6,288,48,35462,-128,34,127,0,0,3814,-21,0,4497,-253,28,9561,-4,0,52,-6,65313,0
65311,85,-2046,193,-49,-10,-24,14263,3,6,315,88,35474,-135,34,127,0,0,3814,-32,0,4497,-253,28,9571,-4,0,52,-6,65313,0
65321,67,-2043,183,-49,-1,-23,14262,-8,-12,269,88,35475,-140,34,127,0,0,3814,0,0,4497,-253,28,9581,-4,0,52,-6,65329,0
65331,87,-2039,177,-45,1,-22,14263,-5,6,274,48,35469,-161,34,127,0,0,3816,0,0,4497,-253,28,9591,-4,0,52,-6,65329,0
65341,90,-2038,184,-42,3,-19,14263,7,2,281,96,35459,-156,34,127,0,0,3812,-32,0,4497,-253,28,9601,-4,0,52,-6,65329,0
65351,113,-2042,185,-43,6,-24,14261,-4,-6,248,104,35462,-146,34,127,0,0,3814,-10,0,4497,-253,28,9611,-4,0,52,-6,65329,0
65361,74,-2036,195,-38,-4,-14,14263,-4,-1,245,96,35476,-139,34,127,0,0,3816,21,0,4497,-253,28,9621,-4,0,52,-6,65391,0
65371,69,-2043,189,-37,0,-19,14263,9,10,266,64,35473,-145,34,127,0,0,3818,32,0,4497,-253,28,9631,-4,0,52,-6,65391,0
65381,87,-2040,185,-43,7,-10,14264,2,-1,332,80,35461,-125,34,127,0,0,3816,0,0,4497,-253,28,9641,-4,0,52,-6,65391,0
65391,69,-2046,200,-41,-1,2,14263,1,5,316,96,35449,-126,34,127,0,0,3818,21,0,4497,-253,28,9651,-4,0,52,-6,65391,0
65401,98,-2048,196,-46,-17,13,14266,7,7,377,136,35448,-133,34,127,0,0,3821,21,0,4497,-253,28,9661,-4,0,52,-6,65391,0
65411,72,-2041,191,-52,-17,20,14268,-1,6,410,88,35450,-155,34,127,0,0,3823,32,0,4497,-253,28,9671,-4,0,52,-6,65391,0
65421,67,-2038,183,-42,-4,20,14272,11,3,478,176,35451,-152,34,127,0,0,3827,43,0,4497,-253,28,9681,-4,0,52,-6,65407,0
65431,75,-2047,192,-40,-2,21,14284,28,23,481,136,35460,-147,34,127,0,0,3827,21,0,4497,-253,28,9691,-4,0,52,-6,65422,0
65441,74,-2044,196,-35,-6,25,14306,63,34,391,80,35464,-158,34,127,0,0,3825,0,0,4497,-253,28,9701,-4,0,52,-6,65438,0
65451,79,-2048,194,-45,-17,27,14320,10,13,325,112,35460,-149,34,127,0,0,3829,32,0,4497,-253,28,9711,-4,0,52,-6,65438,0
65461,53,-2041,175,-40,-5,21,14325,2,-36,440,128,35456,-144,34,127,0,0,3832,0,0,4497,-253,28,9721,-4,0,52,-6,65469,0
65471,65,-2036,185,-39,-1,20,14329,8,-24,463,192,35457,-126,34,127,0,0,3834,21,0,4497,-253,28,9731,-4,0,52,-6,65469,0
65481,81,-2040,206,-39,-7,21,14332,9,-2,457,136,35459,-116,34,127,0,0,3836,43,0,4497,-253,28,9741,-4,0,52,-6,65469,0
65491,65,-2041,195,-35,-3,17,14336,20,1,533,152,35461,-119,34,127,0,0,3838,10,0,4497,-253,28,9751,-4,0,52,-6,65469,0
65501,54,-2054,189,-38,-14,18,14350,38,22,540,176,35458,-105,34,127,0,0,3838,-10,0,4497,-253,28,9761,-4,0,52,-6,65500,0
65511,62,-2037,190,-36,-11,18,14384,88,59,327,144,35455,-98,34,127,0,0,3840,0,0,4497,-253,28,9771,-4,0,52,-6,65516,0
65521,86,-2046,196,-39,-11,18,14405,16,23,260,120,35453,-93,34,127,0,0,3845,54,0,4497,-253,28,9781,-4,0,52,-6,65516,0
65531,44,-2047,188,-42,-11,16,14410,6,-64,326,96,35451,-96,34,127,0,0,3845,32,0,4497,-253,28,9791,-4,0,52,-6,65516,0
65541,59,-2044,192,-35,-8,12,14415,13,-31,328,120,35464,-91,34,127,0,0,3847,21,0,4497,-253,28,9801,-4,0,52,-6,65532,0
65551,55,-2046,198,-40,-10,16,14426,24,11,260,64,35458,-61,34,127,0,0,3849,32,0,4497,-253,28,9811,-4,0,52,-6,65548,0
65561,66,-2040,193,-35,-11,14,14439,26,7,294,80,35459,-61,34,127,0,0,3849,10,0,4497,-253,28,9821,-4,0,52,-6,65552,0
65571,66,-2044,191,-41,-12,10,14442,0,-14,337,88,35461,-73,34,127,0,0,3851,0,0,4497,-253,28,9831,-4,0,52,-6,65552,0
65581,57,-2041,195,-38,-4,12,14445,0,-20,367,120,35473,-71,34,127,0,0,3854,0,0,4497,-253,28,9841,-4,0,52,-6,65567,0
65591,62,-2042,188,-37,-13,11,14447,7,-7,382,120,35475,-87,34,127,0,0,3856,21,0,4497,-253,28,9851,-4,0,52,-6,65583,0
65601,57,-2038,185,-39,-12,15,14447,6,3,425,136,35470,-81,34,127,0,0,3854,10,0,4497,-253,28,9861,-4,0,52,-6,65598,0
65611,65,-2039,189,-39,-19,20,14451,-8,11,420,200,35463,-103,33,127,0,0,3862,76,0,4497,-253,28,9871,-4,0,52,-6,65598,0
65621,54,-2041,188,-34,-9,18,14459,14,5,534,184,35464,-91,34,127,0,0,3860,10,0,4497,-253,28,9881,-4,0,52,-6,65630,0
65631,48,-2055,199,-34,-10,11,14458,-12,1,505,176,35461,-88,34,127,0,0,3862,43,0,4497,-253,28,9891,-4,0,52,-6,65630,0
65641,60,-2039,189,-31,-2,3,14465,7,-11,545,216,35456,-76,34,127,0,0,3864,32,0,4497,-253,28,9901,-4,0,52,-6,65630,0
65651,56,-2044,197,-35,-8,8,14472,11,17,540,232,35454,-67,34,127,0,0,3864,32,0,4497,-253,28,9911,-4,0,52,-6,65630,0
65661,45,-2044,188,-34,-18,0,14490,43,21,496,176,35460,-85,34,127,0,0,3867,10,0,4497,-253,28,9921,-4,0,52,-6,65645,0
65671,48,-2048,191,-34,-14,4,14510,41,26,373,168,35461,-91,34,127,0,0,3869,54,0,4497,-253,28,9931,-4,0,52,-6,65677,0
65681,49,-2038,186,-30,-3,-2,14522,14,-12,440,128,35464,-84,34,127,0,0,3869,0,0,4497,-253,28,9941,-4,0,52,-6,65708,0
65691,29,-2052,186,-25,-7,-12,14519,-4,-44,451,128,35458,-74,34,127,0,0,3871,32,0,4497,-253,28,9951,-4,0,52,-6,65723,0
65701,59,-2051,192,-23,-7,-9,14523,7,-12,468,200,35463,-77,34,127,0,0,3871,21,0,4497,-253,28,9961,-4,0,52,-6,65723,0
65711,57,-2052,200,-30,-3,-3,14526,3,15,461,144,35459,-88,34,127,0,0,3871,32,0,4497,-253,28,9971,-4,0,52,-6,65723,0
65721,47,-2038,209,-31,-7,-4,14527,1,-7,489,176,35453,-75,34,127,0,0,3871,10,0,4497,-253,28,9981,-4,0,52,-6,65723,0
65731,59,-2040,198,-31,-10,-10,14534,17,2,477,152,35453,-71,34,127,0,0,3875,21,0,4497,-253,28,9991,-4,0,52,-6,65723,0
65741,51,-2042,199,-27,0,-7,14552,49,22,430,160,35458,-75,34,127,0,0,3875,32,0,4497,-253,28,10001,-4,0,52,-6,65723,0
65751,48,-2048,194,-35,-12,-9,14585,77,55,281,152,35474,-71,34,127,0,0,3880,54,0,4497,-253,28,10011,-4,0,52,-6,65739,0
65761,27,-2052,196,-30,-9,-3,14596,8,-8,299,88,35479,-68,34,127,0,0,3880,21,0,4497,-253,28,10021,-4,0,52,-6,65739,0
65771,23,-2058,192,-28,-6,0,14595,2,-65,384,104,35488,-48,34,127,0,0,3880,21,0,4497,-253,28,10031,-4,0,52,-6,65802,0
65781,66,-2055,198,-29,-3,-4,14599,7,-12,378,96,35481,-58,34,127,0,0,3884,54,0,4497,-253,28,10041,-4,0,52,-6,65802,0
65791,43,-2046,200,-28,-14,7,14606,20,12,372,80,35474,-55,34,127,0,0,3884,43,0,4497,-253,28,10051,-4,0,52,-6,65802,0
65801,33,-2047,191,-29,-8,5,14616,37,15,363,120,35462,-44,34,127,0,0,3884,10,0,4497,-253,28,10061,-4,0,52,-6,65802,0
65811,50,-2044,197,-33,-9,7,14637,31,32,291,88,35457,-46,34,127,0,0,3884,0,0,4497,-253,28,10071,-4,0,52,-6,65802,0
65821,42,-2049,190,-35,1,-7,14635,-22,-27,298,120,35467,-34,34,127,0,0,3886,10,0,4497,-253,28,10081,-4,0,52,-6,65802,0
65831,54,-2038,189,-35,0,9,14638,-4,-42,301,120,35484,-48,34,127,0,0,3889,54,0,4497,-253,28,10091,-4,0,52,-6,65817,0
65841,66,-2042,204,-36,-6,9,14640,-1,7,361,144,35492,-36,34,127,0,0,3891,43,0,4497,-253,28,10101,-4,0,52,-6,65817,0
65851,53,-2035,190,-33,-6,7,14643,11,-3,423,136,35487,-27,34,127,0,0,3893,10,0,4497,-253,28,10111,-4,0,52,-6,65848,0
65861,51,-2042,193,-34,-6,19,14646,11,-1,507,104,35479,-40,34,127,0,0,3893,0,0,4497,-253,28,10121,-4,0,52,-6,65848,0
65871,55,-2042,200,-33,-7,21,14646,-8,-7,485,152,35475,-35,34,127,0,0,3897,76,0,4497,-253,28,10131,-4,0,52,-6,65848,0
65881,54,-2033,195,-42,-7,33,14652,16,3,550,152,35476,-45,34,127,0,0,3897,32,0,4497,-253,28,10141,-4,0,52,-6,65895,0
65891,51,-2042,198,-34,-7,34,14655,3,5,598,192,35469,-23,34,127,0,0,3900,21,0,4497,-253,28,10151,-4,0,52,-6,65895,0
65901,50,-2046,189,-30,-8,32,14667,19,8,531,168,35465,-2,34,127,0,0,3902,32,0,4497,-253,28,10161,-4,0,52,-6,65895,0
65911,23,-2045,193,-35,-5,23,14689,59,29,502,144,35459,-17,34,127,0,0,3904,10,0,4497,-253,28,10171,-4,0,52,-6,65895,0
65921,46,-2045,200,-35,-10,29,14717,33,36,354,152,35466,-10,34,127,0,0,3908,54,0,4497,-253,28,10181,-4,0,52,-6,65895,0
65931,5,-2060,204,-36,-10,22,14721,-1,-41,459,168,35469,-37,34,127,0,0,3908,32,0,4497,-253,28,10191,-4,0,52,-6,65926,0
65941,35,-2048,196,-45,-3,9,14724,12,-41,487,112,35475,-42,34,127,0,0,3908,32,0,4497,-253,28,10201,-4,0,52,-6,65926,0
65951,27,-2045,202,-40,0,6,14730,17,0,502,176,35474,-56,34,127,0,0,3913,54,0,4497,-253,28,10211,-4,0,52,-6,65942,0
65961,39,-2029,208,-46,1,5,14747,56,31,484,152,35475,-70,34,127,0,0,3911,-21,0,4497,-253,28,10221,-4,0,52,-6,65942,0
65971,71,-2047,222,-49,-3,15,14774,56,48,280,96,35477,-80,34,127,0,0,3915,32,0,4497,-253,28,10231,-4,0,52,-6,65958,0
65981,52,-2045,204,-56,-16,2,14780,0,-30,372,120,35473,-93,34,127,0,0,3915,10,0,4497,-253,28,10241,-4,0,52,-6,65958,0
65991,126,-1990,211,-68,7,-71,14779,5,-55,385,144,35477,-91,34,127,0,0,3917,32,0,4497,-253,28,10251,-4,0,52,-6,65989,0
66001,552,-2010,95,-121,-14,-356,14784,7,6,418,120,35473,-107,34,127,0,0,3915,-32,0,4497,-253,28,10261,-4,0,52,-6,65989,0
66011,308,-2001,179,-134,-7,-400,14782,-20,-7,305,16,35471,-104,34,127,0,0,3900,-164,0,4497,-253,28,10271,-4,0,52,-6,65989,0
66021,41,-2094,281,-130,-44,-117,14756,-64,-64,-72,0,35472,-91,34,127,0,0,3897,-10,0,4497,-253,28,10281,-4,0,52,-6,66005,0
66031,194,-2126,126,-124,-2,-165,14752,5,8,-109,-24,35468,-82,34,127,0,0,3897,0,0,4497,-253,28,10291,-4,0,52,-6,66020,0
66041,501,-2046,-18,-135,34,-442,14750,-13,44,-162,-96,35479,-92,34,127,0,0,3889,-87,0,4497,-253,28,10301,-4,0,52,-6,66020,0
66051,428,-2005,66,-159,-15,-454,14732,-75,-42,-404,-184,35478,-103,34,127,0,0,3873,-120,0,4497,-253,28,10311,-4,0,52,-6,66051,0
66061,138,-2072,239,-167,-53,-332,14664,-153,-134,-313,-152,35466,-84,34,127,0,0,3862,-98,0,4497,-253,28,10321,-4,0,52,-6,66051,0
66071,264,-2072,177,-149,-9,-377,14600,-118,-60,-282,-128,35456,-58,34,127,0,0,3854,-109,0,4497,-253,28,10331,-4,0,52,-6,66051,0
66081,464,-2040,29,-153,20,-475,14567,-72,72,-392,-168,35461,-55,34,127,0,0,3845,-109,0,4497,-253,28,10341,-4,0,52,-6,66067,0
66091,423,-2053,81,-161,-6,-511,14536,-69,58,-545,-272,35472,-43,34,127,0,0,3829,-142,0,4497,-253,28,10351,-4,0,52,-6,66114,0
66101,275,-2036,153,-163,-23,-487,14469,-177,-57,-464,-304,35467,-46,34,127,0,0,3814,-164,0,4497,-253,28,10361,-4,0,52,-6,66114,0
66111,268,-2053,158,-170,-13,-427,14384,-184,-116,-409,-224,35460,-50,34,127,0,0,3803,-98,0,4497,-253,28,10371,-4,0,52,-6,66114,0
66121,445,-2068,122,-141,-26,-361,14317,-150,2,-389,-200,35454,-60,34,127,0,0,3799,-32,0,4497,-253,28,10381,-4,0,52,-6,66114,0
66131,430,-2037,86,-134,-39,-363,14265,-92,69,-352,-200,35463,-83,34,127,0,0,3790,-98,0,4497,-253,28,10391,-4,0,52,-6,66130,0
66141,382,-2009,60,-118,-38,-388,14232,-39,64,-439,-200,35467,-103,34,127,0,0,3783,-98,0,4497,-253,28,10401,-4,0,52,-6,66130,0
66151,392,-2030,79,-116,-38,-348,14212,-57,70,-615,-208,35470,-126,34,127,0,0,3774,-87,0,4497,-253,28,10411,-4,0,52,-6,66130,0
66161,271,-2083,114,-99,-27,-323,14167,-102,-25,-477,-224,35477,-127,34,127,0,0,3768,-65,0,4497,-253,28,10421,-4,0,52,-6,66161,0
66171,294,-2056,113,-92,-27,-338,14120,-116,-51,-409,-168,35482,-132,34,127,0,0,3763,-43,0,4497,-253,28,10431,-4,0,52,-6,66161,0
66181,241,-2059,145,-94,-38,-384,14083,-81,13,-418,-200,35469,-125,34,127,0,0,3755,-43,0,4497,-253,28,10441,-4,0,52,-6,66161,0
66191,190,-2034,177,-111,-19,-458,14043,-77,13,-424,-176,35457,-96,34,127,0,0,3746,-65,0,4497,-253,28,10451,-4,0,52,-6,66176,0
66201,195,-2032,221,-154,-36,-484,14010,-90,13,-560,-232,35465,-98,34,127,0,0,3737,-54,0,4497,-253,28,10461,-4,0,52,-6,66208,0
66211,116,-2037,226,-177,-37,-524,13965,-94,-11,-567,-304,35471,-93,34,127,0,0,3722,-109,0,4497,-253,28,10471,-4,0,52,-6,66208,0
66221,116,-2044,216,-215,-35,-637,13904,-141,-55,-516,-288,35470,-93,34,127,0,0,3706,-164,0,4497,-253,28,10481,-4,0,52,-6,66208,0
66231,154,-2045,201,-254,-25,-697,13832,-157,-51,-545,-296,35458,-67,34,127,0,0,3691,-153,0,4497,-253,28,10491,-4,0,52,-6,66208,0
66241,80,-2030,220,-287,-45,-773,13765,-153,-6,-631,-360,35457,-38,34,127,0,0,3671,-175,0,4497,-253,28,10501,-4,0,52,-6,66223,0
66251,67,-2041,225,-319,-41,-838,13671,-223,-43,-514,-456,35471,-50,34,127,0,0,3651,-230,0,4497,-253,28,10511,-4,0,52,-6,66239,0
66261,74,-2040,205,-367,-40,-928,13569,-232,-67,-548,-440,35471,-51,34,127,0,0,3627,-241,0,4497,-253,28,10521,-4,0,52,-6,66239,0
66271,131,-2019,183,-384,-37,-996,13457,-249,-32,-531,-536,35465,-70,34,127,0,0,3605,-230,0,4497,-253,28,10531,-4,0,52,-6,66286,0
66281,173,-2056,192,-431,-43,-1041,13344,-257,-20,-577,-552,35456,-96,34,127,0,0,3581,-219,0,4497,-253,28,10541,-4,0,52,-6,66286,0
66291,114,-2035,178,-449,-49,-1055,13222,-256,-25,-506,-520,35458,-87,34,127,0,0,3559,-175,0,4497,-253,28,10551,-4,0,52,-6,66286,0
66301,201,-2088,174,-470,-108,-1050,13094,-288,-25,-495,-504,35460,-107,33,127,0,0,3533,-219,0,4497,-253,28,10561,-4,0,52,-6,66301,0
66311,113,-2206,165,-467,-148,-1030,12969,-276,2,-513,-440,35449,-66,34,127,0,0,3511,-197,0,4497,-253,28,10571,-4,0,52,-6,66301,0
66321,130,-2212,241,-439,-290,-977,12843,-273,3,-460,-368,35458,-54,34,127,0,0,3500,-98,0,4497,-253,28,10581,-4,0,52,-6,66301,0
66331,196,-2250,225,-419,-214,-952,12735,-226,28,-370,-264,35473,-33,34,127,0,0,3489,-98,0,4497,-253,28,10591,-4,0,52,-6,66364,0
66341,185,-2085,146,-465,-161,-956,12655,-157,92,-352,-168,35485,-77,34,127,0,0,3482,-65,0,4497,-253,28,10601,-4,0,52,-6,66364,0
66351,176,-2088,93,-486,-158,-971,12618,-64,137,-413,-136,35476,-118,34,127,0,0,3480,-43,0,4497,-253,28,10611,-4,0,52,-6,66364,0
66361,209,-2079,88,-489,-164,-999,12592,-49,108,-395,-128,35455,-117,34,127,0,0,3476,-21,0,4497,-253,28,10621,-4,0,52,-6,66380,0
66371,170,-2078,59,-490,-179,-1023,12586,-4,55,-449,-176,35444,-109,34,127,0,0,3473,-32,0,4497,-253,28,10631,-4,0,52,-6,66380,0
66381,122,-2065,53,-530,-149,-1078,12579,-23,35,-538,-192,35447,-99,34,127,0,0,3465,-65,0,4497,-253,28,10641,-4,0,52,-6,66380,0
66391,95,-1929,41,-600,-132,-1158,12551,-91,-40,-532,-184,35456,-97,34,127,0,0,3462,-21,0,4497,-253,28,10651,-4,0,52,-6,66411,0
66401,60,-2007,63,-683,-120,-1330,12514,-60,-65,-404,-184,35453,-84,34,127,0,0,3454,-87,0,4497,-253,28,10661,-4,0,52,-6,66426,0
66411,183,-2362,86,-663,-60,-1321,12495,-56,29,-672,-312,35460,-78,34,127,0,0,3443,-76,0,4497,-253,28,10671,-4,0,52,-6,66426,0
66421,104,-2308,278,-609,-68,-1342,12445,-101,-33,-537,-272,35462,-92,34,127,0,0,3436,-43,0,4497,-253,28,10681,-4,0,52,-6,66426,0
66431,127,-2206,277,-643,-108,-1412,12396,-121,-58,-438,-160,35467,-95,34,127,0,0,3436,-10,0,4497,-253,28,10691,-4,0,-19,0,66426,0
66441,42,-2192,277,-693,-154,-1551,12357,-72,16,-344,-104,35454,-81,34,127,0,0,3432,-21,0,4497,-253,28,10701,-4,0,-21,0,66442,0
66451,14,-2225,291,-746,-197,-1662,12336,-32,51,-335,-104,35444,-71,34,127,0,0,3425,-65,0,4497,-253,28,10711,-4,0,-21,0,66442,0
66461,7,-2271,244,-809,-254,-1854,12337,-2,69,-474,-128,35454,-47,34,127,0,0,3425,-21,0,4497,-253,28,10721,-4,0,-21,0,66442,0
66471,-73,-2287,217,-833,-286,-2014,12334,-4,35,-510,-184,35466,-52,34,127,0,0,3423,-32,0,4497,-253,28,10731,-4,0,-21,0,66458,0
66481,-154,-2357,134,-854,-312,-2290,12326,-18,-16,-597,-168,35472,-37,34,127,0,0,3418,-10,0,4497,-253,28,10741,-4,0,-21,0,66489,0
66491,-228,-2412,153,-883,-316,-2447,12318,-27,-10,-673,-264,35461,-32,34,127,0,0,3410,-65,0,4497,-253,28,10751,-4,0,-21,0,66489,0
66501,-219,-2530,171,-909,-326,-2683,12286,-88,-45,-594,-224,35459,-31,34,127,0,0,3410,-10,0,4497,-253,28,10761,-4,0,-21,0,66489,0
66511,-202,-2561,175,-924,-320,-2878,12250,-62,-57,-416,-104,35457,-27,34,127,0,0,3410,10,0,4497,-253,28,10771,-4,0,-20,0,66505,0
66521,-148,-2650,164,-986,-377,-3112,12251,12,70,-431,-72,35464,-49,34,127,0,0,3412,0,0,4497,-253,28,10781,-4,0,-20,0,66505,0
66531,-84,-2783,196,-1045,-394,-3178,12256,15,74,-307,-24,35469,-46,34,127,0,0,3427,142,0,4497,-253,28,10791,-4,0,-20,0,66536,0
66541,-200,-2730,233,-1023,-340,-3220,12284,88,44,94,128,35472,-53,34,127,0,0,3451,241,0,4497,-253,28,10801,-4,0,-19,0,66536,0
66551,-111,-2572,185,-1022,-286,-3289,12361,202,139,344,312,35471,-57,34,127,0,0,3487,340,0,4497,-253,28,10811,-4,0,-19,0,66551,0
66561,277,-2376,90,-979,-372,-3388,12467,251,148,508,600,35462,-47,34,127,0,0,3531,406,0,4497,-253,28,10821,-4,0,-18,0,66551,0
66571,325,-2238,46,-927,-463,-3311,12617,354,136,483,752,35459,-51,34,127,0,0,3581,494,0,4497,-253,28,10831,-4,0,-17,0,66551,0
66581,591,-2037,46,-754,-601,-3139,12792,402,134,512,1000,35462,-51,34,127,0,0,3638,593,0,4497,-253,28,10841,-4,0,-16,0,66583,0
66591,661,-1835,-115,-673,-563,-2985,12997,475,97,601,1152,35460,-84,34,127,0,0,3691,483,0,4497,-253,28,10851,-4,0,-16,0,66583,0
66601,39,-1662,-59,-346,-316,-2407,13228,507,124,466,1024,35458,-92,34,127,0,0,3704,109,0,4497,-253,28,10861,-4,0,-15,0,66583,0
66611,-175,-1626,-4,-56,-144,-1819,13436,427,9,280,616,35450,-75,34,127,0,0,3702,10,0,4497,-253,28,10871,-4,0,-14,0,66583,0
66621,-194,-1373,221,151,-130,-1094,13593,293,-147,174,144,35459,-67,34,127,0,0,3682,-219,0,4497,-253,28,10881,-4,0,-13,0,66614,0
66631,-189,-1320,244,218,-137,-411,13618,-89,-347,-417,-200,35463,-74,34,127,0,0,3662,-197,0,4497,-253,28,10891,-4,0,-11,0,66629,0
66641,-261,-1341,165,393,-155,415,13526,-225,-502,-273,-272,35467,-96,34,127,0,0,3643,-208,0,4497,-253,28,10901,-4,0,-10,0,66629,0
66651,-163,-1315,100,501,-157,1007,13427,-197,-232,-296,-224,35458,-98,34,127,0,0,3625,-142,0,4497,-253,28,10911,-4,0,-8,0,66629,0
66661,-102,-1338,81,621,-74,1864,13349,-169,33,-340,-200,35458,-91,34,127,0,0,3614,-120,0,4497,-253,28,10921,-4,0,-6,0,66661,0
66671,-119,-1368,69,702,6,2387,13277,-146,43,-303,-208,35457,-102,34,127,0,0,3603,-87,0,4497,-253,28,10931,-4,0,-5,0,66661,0
66681,-76,-1434,27,814,181,3144,13225,-95,44,-356,-184,35462,-105,34,127,0,0,3596,-76,0,4497,-253,28,10941,-4,0,-2,0,66661,0
66691,-67,-1503,8,880,323,3643,13184,-103,61,-409,-160,35461,-109,34,127,0,0,3592,-21,0,4497,-253,28,10951,-4,0,0,0,66676,0
66701,7,-1582,17,985,608,4286,13136,-88,6,-273,-56,35463,-82,34,127,0,0,3594,43,0,4497,-253,28,10961,-4,0,2,0,66708,0
66711,11,-1653,43,1071,806,4665,13116,-6,34,-68,-16,35468,-63,34,127,0,0,3592,32,0,4497,-253,28,10971,-4,0,4,0,66708,0
66721,67,-1727,34,1176,1041,5287,13124,5,120,-83,-8,35474,-51,34,127,0,0,3599,43,0,4497,-253,28,10981,-4,0,7,0,66708,0
66731,74,-1789,64,1264,1190,5661,13130,32,42,190,184,35480,-29,34,127,0,0,3616,175,0,4497,-253,28,10991,-4,0,9,0,66708,0
66741,75,-1862,98,1412,1357,6167,13177,143,74,403,344,35485,-18,34,127,0,0,3640,285,0,4497,-253,28,11001,-4,0,12,0,66770,0
66751,83,-1963,120,1507,1469,6469,13271,232,165,528,568,35482,-7,34,127,0,0,3687,472,0,4497,-253,28,11011,-4,0,14,0,66786,0
66761,74,-2109,158,1651,1632,6887,13415,337,187,531,848,35481,-11,34,127,0,0,3748,637,0,4497,-253,28,11021,-4,0,17,0,66786,0
66771,77,-2207,162,1761,1746,7111,13602,444,180,662,1240,35467,-29,34,127,0,0,3825,812,0,4497,-253,28,11031,-4,0,20,0,66786,0
66781,150,-2355,172,1917,1970,7317,13852,601,200,743,1704,35455,-62,34,127,0,0,3913,922,0,4497,-253,28,11041,-4,0,23,0,66786,0
66791,153,-2390,187,1994,2145,7341,14182,766,274,713,2000,35447,-68,34,127,0,0,3999,845,0,4497,-253,28,11051,-4,0,25,0,66786,0
66801,234,-2399,161,1935,2328,7257,14559,849,251,585,2104,35442,-59,34,127,0,0,4080,834,0,4497,-253,28,11061,-4,0,29,0,66786,0
66811,351,-2457,134,1841,2373,7147,14957,877,135,500,2016,35451,-50,34,127,0,0,4148,692,0,4497,-253,28,11071,-4,0,31,0,66801,0
66821,406,-2529,121,1713,2364,6942,15348,837,29,423,1864,35464,-50,34,127,0,0,4203,549,0,4497,-253,28,11081,-4,0,34,0,66801,0
66831,450,-2542,102,1614,2311,6784,15712,782,-77,382,1592,35470,-36,34,127,0,0,4247,428,0,4497,-253,28,11091,-4,0,36,0,66833,0
66841,513,-2575,111,1472,2211,6575,16031,670,-133,370,1360,35469,-42,34,127,0,0,4282,362,0,4497,-253,28,11101,-4,0,39,-1,66833,0
66851,548,-2600,148,1415,2118,6419,16300,569,-179,432,1128,35467,-59,34,127,0,0,4322,384,0,4497,-253,28,11111,-4,0,40,-1,66833,0
66861,568,-2624,221,1370,1884,6018,16536,500,-153,508,1096,35461,-71,34,127,0,0,4354,340,0,4497,-253,28,11121,-4,0,42,-1,66848,0
66871,617,-2558,253,1392,1679,5624,16753,449,-103,506,976,35468,-69,34,127,0,0,4385,307,0,4497,-253,28,11131,-4,0,44,0,66879,0
66881,741,-2383,251,1426,1334,4896,16946,408,-88,515,880,35474,-57,34,127,0,0,4412,252,0,4497,-253,28,11141,-4,0,45,0,66879,0
66891,756,-2193,217,1433,1125,4301,17126,381,-69,474,688,35479,-76,34,127,0,0,4427,153,0,4497,-253,28,11151,-4,0,46,0,66879,0
66901,718,-1925,145,1324,827,3334,17281,316,-73,410,432,35473,-61,34,127,0,0,4427,0,0,4497,-253,28,11161,-4,0,47,0,66879,0
66911,666,-1845,124,1163,647,2703,17384,195,-147,326,216,35474,-56,34,127,0,0,4425,0,0,4497,-253,28,11171,-4,0,48,0,66911,0
66921,655,-1899,81,904,527,1599,17424,29,-214,273,104,35477,-63,34,127,0,0,4423,-54,0,4497,-253,28,11181,-4,0,48,-1,66911,0
66931,586,-1994,65,691,548,782,17406,-28,-246,376,64,35483,-99,34,127,0,0,4416,-76,0,4497,-253,28,11191,-4,0,48,-1,66926,0
66941,619,-2189,41,386,682,-266,17403,-23,-77,44,-32,35476,-131,34,127,0,0,4405,-109,0,4497,-253,28,11201,-4,0,48,-2,66926,0
66951,584,-2254,70,162,837,-961,17376,-52,-19,-158,-120,35475,-138,34,127,0,0,4396,-98,0,4497,-253,28,11211,-4,0,48,-3,66942,0
66961,677,-2245,90,-120,1031,-1834,17330,-134,-72,-241,-168,35466,-131,34,127,0,0,4381,-131,0,4497,-253,28,11221,-4,0,47,-5,66942,0
66971,684,-2111,102,-288,1102,-2313,17275,-151,-73,-315,-240,35469,-125,34,127,0,0,4361,-186,0,4497,-253,28,11231,-4,0,46,-6,66958,0
66981,-1118,-5252,321,-801,-467,-1467,17181,-227,-101,-221,-32,35482,-118,34,127,0,0,4405,593,0,4497,-253,28,11241,-4,0,45,-8,66958,0
66991,-466,-2506,1393,-107,289,-1346,17210,286,203,1176,1168,35482,-110,34,127,0,0,4515,1109,0,4497,-253,28,11251,-4,0,44,-9,67020,0
67001,-322,-1752,1097,283,-632,-1227,17442,567,697,837,1464,35470,-72,34,127,0,0,4579,593,0,4497,-253,28,11261,-4,0,43,-10,67020,0
67011,-261,-1876,910,448,-1454,-617,17713,618,404,833,1744,35451,-68,34,127,0,0,4669,966,0,4497,-253,28,11271,-4,0,42,-11,67020,0
67021,-375,-2031,610,463,-1845,-255,18046,791,186,1039,2368,35453,-54,34,127,0,0,4796,1274,0,4497,-253,28,11281,-4,0,40,-13,67036,0
67031,-418,-2141,87,412,-1670,-146,18485,1041,342,1083,2936,35450,-38,34,127,0,0,4935,1384,0,4497,-253,28,11291,-4,0,39,-14,67036,0
67041,-961,-1678,-545,111,-1368,-610,19032,1265,412,894,3200,35433,-10,34,127,0,0,5053,1153,0,4497,-253,28,11301,-4,0,38,-15,67036,0
67051,-1216,-2073,-364,143,-933,-1025,19625,1310,283,635,3104,35440,4,34,127,0,0,5152,955,0,4497,-253,28,11311,-4,0,37,-17,67036,0
67061,-939,-2343,59,274,-342,-1589,20199,1225,24,505,2824,35461,-19,34,127,0,0,5225,714,0,4497,-253,28,11321,-4,0,35,-19,67036,0
67071,-601,-2383,378,357,-188,-1802,20711,1078,-184,454,2424,35480,-17,34,127,0,0,5282,527,0,4497,-253,28,11331,-4,0,34,-20,67098,0
67081,-226,-2394,434,254,-124,-2206,21152,922,-301,388,1968,35467,-38,34,127,0,0,5312,285,0,4497,-253,28,11341,-4,0,33,-22,67114,0
67091,-260,-2439,431,180,-102,-2434,21513,728,-210,303,1360,35456,-56,34,127,0,0,5315,-10,0,4497,-253,28,11351,-4,0,32,-24,67129,0
67101,-63,-2311,235,47,-182,-2592,21778,515,-338,259,752,35462,-65,34,127,0,0,5302,-164,0,4497,-253,28,11361,-4,0,30,0,67145,0
67111,-239,-1979,267,74,-256,-2608,21941,296,-378,252,120,35480,-88,34,127,0,0,5271,-340,0,4497,-253,28,11371,-4,0,29,0,67145,0
67121,-59,-1946,98,45,-145,-2598,21965,-73,-449,-382,-248,35474,-98,34,127,0,0,5236,-351,0,4497,-253,28,11381,-4,0,27,0,67161,0
67131,505,-2398,299,157,218,-2910,21860,-277,-534,-336,-552,35462,-92,34,127,0,0,5174,-703,0,4497,-253,28,11391,-4,0,26,0,67161,0
67141,212,-1792,392,189,0,-2578,21699,-406,-350,-584,-1064,35451,-96,34,127,0,0,5102,-681,0,4497,-253,28,11401,-4,0,25,0,67161,0
67151,259,-1915,577,132,-17,-2396,21473,-522,-230,-529,-1296,35461,-91,34,127,0,0,5036,-648,0,4497,-253,28,11411,-4,0,25,0,67161,0
67161,45,-1883,285,105,-124,-2036,21208,-604,-203,-485,-1424,35461,-85,34,127,0,0,4976,-593,0,4497,-253,28,11421,-4,0,25,0,67161,0
67171,-136,-2013,144,126,-97,-1853,20925,-631,-118,-446,-1416,35449,-58,34,127,0,0,4924,-505,0,4497,-253,28,11431,-4,0,25,0,67161,0
67181,-94,-2028,185,264,4,-1779,20636,-630,-37,-432,-1376,35449,-53,34,127,0,0,4877,-483,0,4497,-253,28,11441,-4,0,25,0,67161,0
67191,-8,-2020,204,290,-2,-1651,20344,-643,-11,-347,-1352,35465,-72,34,127,0,0,4829,-450,0,4497,-253,28,11451,-4,0,25,0,67176,0
67201,-24,-1990,299,343,-62,-1412,20059,-628,-2,-304,-1216,35484,-77,34,127,0,0,4787,-395,0,4497,-253,28,11461,-4,0,25,0,67207,0
67211,-12,-2015,268,390,-46,-1289,19786,-578,30,-264,-1088,35474,-62,34,127,0,0,4748,-406,0,4497,-253,28,11471,-4,0,25,0,67207,0
67221,12,-1993,286,442,-18,-1113,19538,-537,70,-289,-928,35460,-61,34,127,0,0,4715,-351,0,4497,-253,28,11481,-4,0,25,0,67207,0
67231,70,-2066,382,426,-14,-993,19315,-478,94,-300,-808,35456,-74,34,127,0,0,4691,-274,0,4497,-253,28,11491,-4,0,25,0,67207,0
67241,51,-1975,518,374,-65,-822,19120,-432,100,-337,-704,35469,-77,34,127,0,0,4664,-285,0,4497,-253,28,11501,-4,0,25,0,67239,0
67251,-41,-2068,590,335,-92,-686,18936,-393,70,-324,-600,35468,-62,34,127,0,0,4645,-197,0,4497,-253,28,11511,-4,0,25,0,67239,0
67261,-107,-2049,633,286,-80,-651,18774,-346,61,-292,-424,35461,-71,34,127,0,0,4625,-219,0,4497,-253,28,11521,-4,0,25,0,67239,0
67271,-154,-2008,628,220,-69,-695,18638,-286,101,-349,-352,35453,-72,34,127,0,0,4607,-175,0,4497,-253,28,11531,-4,0,25,0,67270,0
67281,-311,-1995,654,99,-62,-785,18515,-258,70,-319,-320,35463,-108,34,127,0,0,4585,-186,0,4497,-253,28,11541,-4,0,25,0,67270,0
67291,-353,-2004,675,27,-74,-828,18414,-225,60,-405,-392,35459,-87,34,127,0,0,4561,-241,0,4497,-253,28,11551,-4,0,25,0,67270,0
67301,-367,-1984,636,-69,-43,-1018,18298,-260,18,-436,-448,35459,-67,34,127,0,0,4532,-274,0,4497,-253,28,11561,-4,0,25,0,67301,0
67311,-259,-2018,593,-137,-40,-1143,18176,-282,-40,-423,-504,35455,-62,34,127,0,0,4497,-373,0,4497,-253,28,11571,-4,0,25,0,67301,0
67321,-183,-1976,586,-231,-65,-1262,18035,-327,-47,-494,-568,35462,-80,34,127,0,0,4464,-318,0,4497,-253,28,11581,-4,0,25,0,67301,0
67331,-190,-2001,557,-293,-85,-1313,17879,-353,-67,-478,-760,35455,-104,34,127,0,0,4420,-395,0,4497,-253,28,11591,-4,0,25,0,67317,0
67341,-115,-1994,497,-369,-85,-1391,17706,-375,-71,-462,-776,35451,-78,34,127,0,0,4379,-384,0,4497,-253,28,11601,-4,0,25,0,67332,0
67351,-86,-1977,474,-419,-90,-1410,17516,-431,-68,-470,-872,35450,-61,34,127,0,0,4337,-406,0,4497,-253,28,11611,-4,0,25,0,67348,0
67361,-46,-2012,462,-433,-87,-1450,17315,-443,-53,-427,-944,35452,-62,34,127,0,0,4297,-384,0,4497,-253,28,11621,-4,0,25,0,67348,0
67371,-5,-2014,384,-429,-79,-1490,17106,-454,-35,-408,-912,35456,-81,34,127,0,0,4251,-439,0,4497,-253,28,11631,-4,0,25,0,67348,0
67381,65,-2030,309,-423,-43,-1538,16898,-458,-16,-458,-952,35464,-90,34,127,0,0,4209,-417,0,4497,-253,28,11641,-4,0,25,0,67379,0
67391,121,-2014,341,-428,-54,-1528,16680,-483,-16,-462,-944,35467,-77,34,127,0,0,4163,-450,0,4497,-253,28,11651,-4,0,25,0,67379,0
67401,134,-2007,370,-436,-71,-1481,16457,-489,-35,-465,-1000,35466,-59,34,127,0,0,4122,-406,0,4497,-253,28,11661,-4,0,25,0,67395,0
67411,131,-2008,363,-440,-73,-1455,16228,-500,-10,-408,-1000,35457,-77,34,127,0,0,4075,-428,0,4497,-253,28,11671,-4,0,25,0,67395,0
67421,164,-2004,341,-425,-75,-1402,16010,-491,9,-450,-952,35459,-79,34,127,0,0,4034,-406,0,4497,-253,28,11681,-4,0,25,0,67411,0
67431,157,-1997,359,-404,-74,-1382,15789,-484,14,-422,-1000,35462,-79,34,127,0,0,3994,-395,0,4497,-253,28,11691,-4,0,25,0,67426,0
67441,213,-1997,355,-399,-69,-1373,15577,-465,9,-444,-936,35466,-54,34,127,0,0,3955,-373,0,4497,-253,28,11701,-4,0,25,0,67426,0
67451,208,-1993,333,-379,-65,-1366,15371,-461,23,-486,-960,35468,-63,34,127,0,0,3915,-373,0,4497,-253,28,11711,-4,0,25,0,67457,0
67461,222,-1998,311,-338,-53,-1342,15167,-462,17,-542,-1016,35464,-69,34,127,0,0,3875,-417,0,4497,-253,28,11721,-4,0,25,0,67457,0
67471,191,-2000,314,-326,-70,-1329,14953,-481,-18,-495,-1024,35455,-62,34,127,0,0,3836,-384,0,4497,-253,28,11731,-4,0,25,0,67457,0
67481,215,-1983,296,-311,-75,-1336,14744,-457,-22,-505,-920,35445,-71,34,127,0,0,3799,-351,0,4497,-253,28,11741,-4,0,25,0,67457,0
67491,212,-1978,277,-296,-84,-1350,14540,-440,14,-524,-984,35460,-75,34,127,0,0,3757,-406,0,4497,-253,28,11751,-4,0,25,0,67535,0
67501,164,-1983,280,-284,-92,-1375,14335,-456,7,-545,-968,35469,-63,34,127,0,0,3719,-351,0,4497,-253,28,11761,-4,0,25,0,67535,0
67511,143,-1972,284,-259,-81,-1391,14130,-442,-6,-555,-1008,35460,-25,34,127,0,0,3680,-351,0,4497,-253,28,11771,-4,0,25,0,67535,0
67521,126,-2000,290,-224,-93,-1437,13922,-460,-1,-535,-1040,35443,-37,34,127,0,0,3638,-384,0,4497,-253,28,11781,-4,0,25,0,67551,0
67531,140,-1992,295,-207,-71,-1480,13712,-467,-6,-581,-1104,35441,-78,34,127,0,0,3594,-406,0,4497,-253,28,11791,-4,0,25,0,67551,0
67541,154,-1980,317,-194,-83,-1561,13493,-485,-20,-538,-1120,35450,-77,34,127,0,0,3548,-439,0,4497,-253,28,11801,-4,0,25,0,67551,0
67551,180,-1981,323,-201,-84,-1626,13273,-488,-22,-551,-1160,35441,-66,34,127,0,0,3498,-593,0,4497,-253,28,11811,-4,0,25,0,67551,0
67561,159,-1954,318,-207,-90,-1719,13035,-526,-36,-552,-1208,35437,-61,34,127,0,0,3451,-472,0,4497,-253,28,11821,-4,0,25,0,67551,0
67571,152,-1963,341,-223,-107,-1766,12799,-522,-32,-532,-1248,35446,-61,34,127,0,0,3399,-527,0,4497,-253,28,11831,-4,0,25,0,67551,0
67581,132,-1981,364,-259,-113,-1860,12554,-548,-11,-583,-1248,35469,-66,34,127,0,0,3348,-527,0,4497,-253,28,11841,-4,0,25,0,67567,0
67591,161,-1986,390,-274,-99,-1931,12303,-568,-30,-623,-1336,35469,-63,34,127,0,0,3291,-593,0,4497,-253,28,11851,-4,0,25,0,67598,0
67601,176,-1974,408,-313,-118,-2070,12034,-608,-39,-620,-1408,35456,-47,34,127,0,0,3232,-593,0,4497,-253,28,11861,-4,0,25,0,67598,0
67611,189,-1992,433,-340,-120,-2167,11753,-629,-60,-653,-1528,35448,-52,34,127,0,0,3172,-582,0,4497,-253,28,11871,-4,0,25,0,67598,0
67621,212,-1988,489,-390,-188,-2301,11459,-656,-45,-631,-1552,35447,-58,34,127,0,0,3102,-659,0,4497,-253,28,11881,-4,0,25,0,67598,0
67631,198,-1992,475,-432,-233,-2383,11151,-690,-43,-599,-1640,35456,-68,34,127,0,0,3034,-681,0,4497,-253,28,11891,-4,0,25,0,67629,0
67641,286,-1961,447,-461,-285,-2500,10840,-691,-33,-631,-1728,35442,-65,34,127,0,0,2964,-703,0,4497,-253,28,11901,-4,0,25,0,67629,0
67651,238,-1979,407,-529,-340,-2513,10518,-695,-34,-607,-1672,35444,-61,34,127,0,0,2900,-637,0,4497,-253,28,11911,-4,0,25,0,67629,0
67661,435,-1782,459,-629,-775,-2617,10202,-682,0,-632,-1560,35456,-58,34,127,0,0,2843,-538,0,4497,-253,28,11921,-4,0,25,0,67645,0
67671,822,-2214,632,-682,-1128,-2509,9897,-668,33,-601,-1536,35471,-74,34,127,0,0,2788,-527,0,4497,-253,28,11931,-4,0,25,0,67692,0
67681,357,-3142,690,-639,-1042,-2248,9601,-622,41,-508,-1344,35460,-40,34,127,0,0,2750,-351,0,4497,-253,28,11941,-4,0,0,0,67692,0
67691,-61,-2897,577,-582,-869,-2110,9343,-543,82,-428,-1048,35454,-44,34,127,0,0,2735,-131,0,4497,-253,28,11951,-4,0,0,0,67692,0
67701,262,-2242,239,-536,-770,-2215,9135,-423,171,-378,-704,35452,-43,34,127,0,0,2731,-54,0,4497,-253,28,11961,-4,0,0,0,67692,0
67711,481,-2115,126,-523,-884,-2297,8985,-298,216,-398,-392,35459,-42,34,127,0,0,2731,0,0,4497,-253,28,11971,-4,0,1,0,67692,0
67721,377,-2111,9,-619,-1067,-2424,8894,-139,209,-325,-120,35459,-47,34,127,0,0,2733,10,0,4497,-253,28,11981,-4,0,2,0,67707,0
67731,146,-2324,-20,-656,-1083,-2473,8882,5,269,-382,-64,35465,-50,34,127,0,0,2735,32,0,4497,-253,28,11991,-4,0,2,0,67723,0
67741,286,-2449,186,-599,-1127,-2545,8898,43,210,-272,64,35477,-68,34,127,0,0,2764,285,0,4497,-253,28,12001,-4,0,3,0,67723,0
67751,222,-2257,112,-603,-950,-2590,8955,158,108,231,232,35480,-99,34,127,0,0,2790,285,0,4497,-253,28,12011,-4,0,4,0,67723,0
67761,-204,-2427,212,-673,-747,-2820,9042,175,131,294,168,35471,-95,34,127,0,0,2803,131,0,4497,-253,28,12021,-4,0,5,0,67754,0
67771,176,-2598,297,-736,-737,-2847,9117,187,29,373,344,35452,-77,34,127,0,0,2843,428,0,4497,-253,28,12031,-4,0,6,0,67754,0
67781,255,-2093,316,-654,-763,-3288,9237,282,66,469,552,35467,-69,34,127,0,0,2882,395,0,4497,-253,28,12041,-4,0,8,0,67785,0
67791,281,-1946,104,-778,-974,-3373,9387,350,149,424,624,35474,-73,34,127,0,0,2924,428,0,4497,-253,28,12051,-4,0,9,0,67785,0
67801,36,-2306,285,-793,-1241,-3394,9553,367,90,418,704,35478,-92,34,127,0,0,2970,461,0,4497,-253,28,12061,-4,0,11,0,67785,0
67811,39,-2530,273,-700,-1301,-3467,9731,392,51,457,928,35461,-85,34,127,0,0,3041,769,0,4497,-253,28,12071,-4,0,12,0,67817,0
67821,-76,-2277,307,-485,-1238,-4107,9950,526,92,583,1264,35457,-92,34,127,0,0,3109,637,0,4497,-253,28,12081,-4,0,14,0,67817,0
67831,-231,-2109,219,-382,-1268,-4227,10212,603,170,501,1320,35463,-75,34,127,0,0,3172,626,0,4497,-253,28,12091,-4,0,16,0,67817,0
67841,-324,-2450,155,-441,-1334,-4373,10496,634,129,431,1464,35468,-69,34,127,0,0,3243,725,0,4497,-253,28,12101,-4,0,18,0,67817,0
67851,-490,-2827,232,-293,-1240,-4486,10803,701,81,486,1616,35460,-61,34,127,0,0,3317,747,0,4497,-253,28,12111,-4,0,20,0,67926,0
67861,222,-3068,126,-254,-904,-5228,11143,771,107,527,1864,35452,-55,34,127,0,0,3405,845,0,4497,-253,28,12121,-4,0,23,0,67926,0
67871,274,-2760,211,-251,-1096,-5496,11516,830,123,510,1928,35454,-76,34,127,0,0,3489,856,0,4497,-253,28,12131,-4,0,25,0,67926,0
67881,389,-2407,354,-148,-1654,-5357,11906,868,96,540,2096,35455,-61,34,127,0,0,3585,977,0,4497,-253,28,12141,-4,0,28,0,67926,0
67891,506,-2375,112,-122,-1837,-5416,12324,944,81,592,2360,35452,-61,34,127,0,0,3697,1120,0,4497,-253,28,12151,-4,0,30,0,67926,0
67901,983,-2057,71,-310,-2531,-6061,12786,1050,131,654,2616,35445,-56,34,127,0,0,3790,933,0,4497,-253,28,12161,-4,0,34,0,67942,0
67911,1013,-2774,382,-328,-3219,-6189,13268,1063,136,503,2536,35449,-29,34,127,0,0,3884,944,0,4497,-253,28,12171,-4,0,36,0,67942,0
67921,921,-3688,604,42,-3703,-5819,13744,1043,22,521,2704,35454,-51,34,127,0,0,3988,1087,0,4497,-253,28,12181,-4,0,39,0,67942,0
67931,802,-3756,653,217,-3986,-5262,14241,1121,22,700,3072,35448,-35,34,127,0,0,4128,1439,0,4497,-253,28,12191,-4,0,42,0,67942,0
67941,436,-3375,657,329,-4231,-4348,14812,1330,174,958,3640,35433,-45,34,127,0,0,4317,1955,0,4497,-253,28,12201,-4,0,46,0,67942,0
67951,51,-2705,770,400,-4634,-3822,15527,1686,412,1236,4696,35433,-20,34,127,0,0,4565,2537,0,4497,-253,28,12211,-4,0,49,0,67942,0
67961,-168,-2201,491,272,-4989,-2880,16443,2134,665,1328,5592,35450,12,34,127,0,0,4818,2537,0,4497,-253,28,12221,-4,0,54,0,67942,0
67971,-183,-2251,518,20,-5218,-2114,17397,2401,678,1303,6392,35448,40,34,127,0,0,5102,2812,0,4497,-253,28,12231,-4,0,58,0,67957,0
67981,1636,-2171,534,-110,-4727,-1745,18581,2686,531,1197,6968,35421,105,34,127,0,0,5350,2416,0,4497,-253,28,12241,-4,0,64,0,67973,0
67991,1602,-1597,400,-190,-3800,-1951,19844,2741,385,366,5760,35410,141,34,127,0,0,5409,406,0,4497,-253,28,12251,-4,0,68,0,67973,0
68001,943,-704,-93,-243,-2275,-1547,20932,2200,-268,-327,2912,35435,103,34,127,0,0,5306,-1186,0,4497,-253,28,12261,-4,0,74,0,67989,0
68011,455,-554,-196,-176,-1754,-1096,21604,1100,-1230,-1533,-352,35474,11,34,127,0,0,5110,-1999,0,4497,-253,28,12271,-4,0,79,59,68004,0
68021,182,-938,-92,-104,-1405,-219,21526,-601,-2332,-1938,-2408,35467,-90,34,127,0,0,4895,-2164,0,4497,-253,28,12281,-4,0,85,55,68004,0
68031,105,-1264,177,-15,-1419,612,21047,-1235,-2155,-1267,-3680,35451,-83,34,127,0,0,4699,-1911,0,4497,-253,28,12291,-4,0,89,52,68035,0
68041,161,-1366,166,-24,-1135,1775,20360,-1614,-1027,-830,-4048,35441,-53,34,127,0,0,4543,-1527,0,4497,-253,28,12301,-4,0,95,48,68035,0
68051,162,-1410,116,-13,-831,2460,19585,-1712,-519,-362,-3992,35454,5,34,127,0,0,4420,-1230,0,4497,-253,28,12311,-4,0,100,45,68035,0
68061,233,-1426,-1,35,-203,3353,18830,-1619,-85,-220,-3504,35455,-11,34,127,0,0,4326,-900,0,4497,-253,28,12321,-4,0,106,41,68035,0
68071,316,-1291,-66,67,302,3837,18144,-1457,192,-129,-2968,35451,-31,34,127,0,0,4247,-769,0,4497,-253,28,12331,-4,0,111,38,68067,0
68081,513,-1159,-70,312,1124,4490,17542,-1270,361,-119,-2584,35455,-55,34,127,0,0,4163,-845,0,4497,-253,28,12341,-4,0,118,34,68067,0
68091,541,-1054,-62,392,1571,4965,17008,-1137,206,-202,-2488,35462,-72,34,127,0,0,4071,-944,0,4497,-253,28,12351,-4,0,123,31,68067,0
68101,498,-955,-116,448,2064,5755,16514,-1073,205,-344,-2376,35473,-71,34,127,0,0,3988,-823,0,4497,-253,28,12361,-4,0,130,27,68098,0
68111,496,-895,-130,490,2297,6278,16039,-1015,105,-306,-2136,35469,-56,34,127,0,0,3924,-637,0,4497,-253,28,12371,-4,0,135,25,68098,0
68121,540,-894,-192,535,2596,7049,15602,-924,112,-277,-1824,35470,-56,34,127,0,0,3878,-417,0,4497,-253,28,12381,-4,0,142,21,68098,0
68131,545,-1036,-152,603,2810,7482,15226,-777,190,-242,-1416,35484,-77,34,127,0,0,3845,-285,0,4497,-253,28,12391,-4,0,147,19,68129,0
68141,523,-1304,-109,768,3149,8011,14920,-635,254,-275,-1112,35486,-82,34,127,0,0,3821,-219,0,4497,-253,28,12401,-4,0,155,16,68129,0
68151,485,-1387,-86,855,3362,8332,14676,-501,254,-301,-832,35476,-98,34,127,0,0,3803,-175,0,4497,-253,28,12411,-4,0,160,14,68129,0
68161,477,-1471,-2,1039,3616,8826,14486,-388,228,-353,-616,35473,-89,34,127,0,0,3788,-153,0,4497,-253,28,12421,-4,0,168,11,68145,0
68171,495,-1515,-3,1185,3747,9148,14328,-318,164,-338,-384,35482,-84,34,127,0,0,3783,-54,0,4497,-253,28,12431,-4,0,173,9,68176,0
68181,545,-1588,19,1378,3868,9576,14215,-219,146,-282,-144,35488,-72,34,127,0,0,3783,0,0,4497,-253,28,12441,-4,0,181,7,68176,0
68191,585,-1664,35,1511,3887,9872,14172,-48,213,-214,-56,35473,-87,34,127,0,0,3788,32,0,4497,-253,28,12451,-4,0,186,5,68176,0
68201,695,-1793,58,1679,3752,10482,14186,35,256,-247,32,35454,-96,34,127,0,0,3803,208,0,4497,-253,28,12461,-4,0,193,4,68194,0
68211,577,-1789,114,1810,3625,10801,14220,99,143,302,280,35472,-109,34,127,0,0,3836,329,0,4497,-253,28,12471,-4,0,199,2,68204,0
68221,575,-2025,150,2020,3372,11078,14316,240,150,433,456,35486,-122,34,127,0,0,3878,417,0,4497,-253,28,12481,-4,0,206,1,68205,0
68231,612,-2204,176,2088,3247,11186,14451,336,185,533,736,35486,-122,34,127,0,0,3933,527,0,4497,-253,28,12491,-4,0,211,0,68314,0
68241,654,-2489,174,2190,3091,11275,14628,420,155,570,1032,35462,-114,34,127,0,0,3992,571,0,4497,-253,28,12501,-4,0,218,0,68314,0
68251,698,-2680,132,2271,3004,11272,14852,515,176,549,1208,35448,-71,34,127,0,0,4060,692,0,4497,-253,28,12511,-4,0,223,-1,68314,0
68261,772,-2955,61,2384,2854,11149,15109,589,154,566,1416,35449,-66,34,127,0,0,4128,692,0,4497,-253,28,12521,-4,0,230,-1,68314,0
68271,868,-3152,30,2413,2765,10971,15398,654,122,525,1624,35447,-81,34,127,0,0,4201,714,0,4497,-253,28,12531,-4,0,234,-2,68314,0
68281,889,-3585,23,2236,2566,10547,15716,722,119,538,1648,35436,-62,34,127,0,0,4271,714,0,4497,-253,28,12541,-4,0,240,-2,68330,0
68291,647,-4565,10,1925,2209,10259,16050,745,88,534,1736,35438,-71,34,127,0,0,4361,966,0,4497,-253,28,12551,-4,0,244,-2,68330,0
68301,1551,-3470,700,1994,2453,9282,16417,867,87,782,2152,35442,-64,34,127,0,0,4451,856,0,4497,-253,28,12561,-4,0,249,-2,68330,0
68311,1606,-3532,158,1668,2475,8623,16825,897,157,517,1960,35448,-74,34,127,0,0,4500,417,0,4497,-253,28,12571,-4,0,252,-2,68330,0
68321,1175,-3612,432,1572,1646,7154,17205,793,30,271,1328,35435,-68,34,127,0,0,4500,-43,0,4497,-253,28,12581,-4,0,255,-2,68330,0
68331,1966,-3296,485,1577,1033,5918,17501,574,-225,119,568,35437,-39,34,127,0,0,4478,-285,0,4497,-253,28,12591,-4,0,257,-2,68330,0
68341,1992,-2399,475,1458,-159,4242,17675,279,-384,-236,-200,35462,-82,34,127,0,0,4434,-428,0,4497,-253,28,12601,-4,0,259,-2,68330,0
68351,1988,-2099,354,1141,-888,2830,17605,-259,-696,-478,-464,35491,-76,34,127,0,0,4390,-472,0,4497,-253,28,12611,-4,0,259,-2,68330,0
68361,1826,-2282,321,500,-1808,844,17458,-340,-633,-438,-608,35502,-70,34,127,0,0,4359,-296,0,4497,-253,28,12621,-4,0,259,-2,68361,0
68371,1646,-2605,215,11,-2057,-445,17302,-328,-152,-385,-472,35488,-61,34,127,0,0,4343,-120,0,4497,-253,28,12631,-4,0,259,-2,68361,0
68381,1416,-2957,65,-334,-2055,-2147,17155,-295,6,-258,-312,35481,-66,34,127,0,0,4339,-21,0,4497,-253,28,12641,-4,0,257,-3,68361,0
68391,1367,-3135,-211,-579,-1760,-3057,17060,-167,116,-116,-56,35475,-94,34,127,0,0,4343,21,0,4497,-253,28,12651,-4,0,257,-3,68392,0
68401,-620,-6651,201,-1437,-1171,-1829,17043,45,241,553,864,35466,-100,34,127,0,0,4500,1845,0,3967,581,29,1,1,1,257,-3,68392,0
68411,-278,-3523,1519,85,390,-2158,17286,749,629,1565,2440,35442,-69,34,127,0,0,4656,1417,0,3967,581,29,11,1,1,257,-3,68392,0
68421,471,-642,661,44,-1472,-2281,17754,1108,966,1091,3200,35433,-43,34,127,0,0,4717,549,0,3967,581,29,21,1,1,257,-3,68408,0
68431,558,-1983,752,115,-1313,-1560,18354,1406,666,1136,3880,35429,-23,34,127,0,0,4787,769,0,3967,581,29,31,1,1,257,-3,68408,0
68441,-551,-2058,514,534,-1413,-904,19088,1710,521,1165,4648,35424,-9,34,127,0,0,4884,999,0,3967,581,29,41,1,1,257,-3,68424,0
68451,-941,-1892,643,696,-1578,-488,19962,2014,521,1232,5480,35408,30,34,127,0,0,5025,1439,0,3967,581,29,51,1,1,257,-3,68439,0
68461,-1073,-970,-445,372,-1087,-588,20977,2328,540,1440,6584,35391,64,34,127,0,0,5172,1483,0,3967,581,29,61,1,1,257,-3,68439,0
68471,-1327,-948,-1130,-133,-347,-896,22149,2651,575,1249,7080,35397,106,34,127,0,0,5302,1285,0,3967,581,29,71,1,1,257,-3,68455,0
68481,-1218,-2292,-1073,-79,892,-1715,23416,2842,486,934,7096,35400,128,34,127,0,0,5407,1010,0,3967,581,29,81,1,1,257,-3,68471,0
68491,-980,-2551,-474,338,1035,-2079,24707,2773,240,214,5712,35407,130,34,127,0,0,5493,834,0,3967,581,29,91,1,1,257,-3,68486,0
68501,-361,-2372,503,440,559,-2305,25828,2322,-283,-150,4120,35421,85,34,127,0,0,5552,615,0,3967,581,29,101,1,1,257,-3,68486,0
68511,-222,-2544,694,257,37,-2351,26722,1818,-770,-212,2808,35442,-19,34,127,0,0,5594,417,0,3967,581,29,111,1,1,257,-3,68517,0
68521,-181,-2564,374,-36,-736,-2558,27398,1331,-852,-223,1656,35463,-80,34,127,0,0,5603,109,0,3967,581,29,121,1,1,257,-3,68517,0
68531,-289,-2099,336,-33,-1066,-2571,27855,861,-839,-171,664,35460,-110,34,127,0,0,5600,-21,0,3967,581,29,131,1,1,257,-3,68517,0
68541,-423,-2091,206,28,-676,-2790,28112,448,-807,-128,32,35452,-98,34,127,0,0,5585,-197,0,3967,581,29,141,1,1,257,-3,68517,0
68551,-693,-1644,464,126,-231,-2868,28118,-193,-857,-604,-472,35456,-92,34,127,0,0,5548,-351,0,3967,581,29,151,1,1,257,-3,68533,0
68561,-423,-1709,822,76,231,-2896,27977,-333,-804,-416,-608,35465,-113,34,127,0,0,5504,-417,0,3967,581,29,161,1,1,257,-3,68549,0
68571,201,-2257,923,1,121,-2809,27805,-385,-311,-422,-688,35464,-89,34,127,0,0,5458,-450,0,3967,581,29,171,1,1,257,-3,68642,0
68581,19,-1774,703,-116,-8,-2909,27638,-309,-59,10,32,35457,-62,34,127,0,0,5370,-933,680,3967,581,29,181,1,1,257,-3,68658,0
68591,38,-1782,524,-273,-80,-2607,27633,98,319,428,240,35452,-57,34,127,0,0,5304,-659,880,3967,581,29,191,1,1,257,-3,68658,0
68601,671,-1257,337,-271,-380,-1678,27690,45,456,577,160,35453,-73,34,127,0,0,5277,-142,1080,3967,581,29,201,1,1,257,-3,68658,0
68611,299,-1966,136,-301,-432,-1585,27593,-329,-197,682,-96,35453,-106,34,127,0,0,5258,-197,1280,3967,581,29,211,1,1,257,-3,68658,0
68621,-478,-2165,-257,-113,-99,-1960,27299,-785,-678,531,-616,35446,-96,34,127,0,0,5211,-483,1480,3967,581,29,221,1,1,257,-3,68674,0
68631,-744,-2031,-304,45,426,-2303,26857,-1014,-679,627,-680,35450,-90,34,127,0,0,5137,-780,1500,3967,581,29,231,1,1,257,-3,68674,0
68641,-113,-1976,321,201,292,-2161,26418,-934,-280,805,-376,35458,-109,34,127,0,0,5060,-769,1500,3967,581,29,241,1,1,257,-3,68674,0
68651,-36,-1990,600,160,0,-1734,26078,-647,204,1017,-8,35468,-124,33,127,0,0,5005,-527,1500,3967,581,29,251,1,1,257,-3,68674,0
68661,-183,-2052,505,85,-207,-1147,25915,-256,542,1116,144,35457,-114,34,127,0,0,4976,-208,1500,3967,581,29,261,1,1,257,-3,68674,0
68671,-74,-2114,389,74,-157,-1056,25823,-214,491,887,40,35451,-116,34,127,0,0,4959,-164,1500,3967,581,29,271,1,1,257,-3,68674,0
68681,-10,-2115,543,82,25,-1230,25650,-456,-15,803,-168,35452,-125,34,127,0,0,4930,-307,1500,3967,581,29,281,1,1,257,-3,68674,0
68691,-280,-2078,665,44,145,-1383,25357,-721,-392,625,-304,35471,-128,34,127,0,0,4882,-483,1500,3967,581,29,291,1,1,257,-3,68674,0
68701,-601,-1924,781,24,175,-1412,25014,-720,-344,748,-56,35491,-104,34,127,0,0,4827,-560,1500,3967,581,29,301,1,1,257,-3,68705,0
68711,-576,-1796,710,-131,-26,-1165,24799,-333,150,1143,112,35488,-106,34,127,0,0,4790,-329,1500,3967,581,29,311,1,1,257,-3,68705,0
68721,-212,-1869,769,-286,-363,-872,24722,-136,540,917,136,35486,-95,34,127,0,0,4774,-186,1500,3967,581,29,321,1,1,257,-3,68721,0
68731,-382,-1933,598,-316,-450,-964,24635,-234,247,873,24,35468,-105,34,127,0,0,4765,-87,1500,3967,581,29,331,1,1,257,-3,68721,0
68741,-348,-1962,291,-329,-6,-1460,24427,-557,-253,763,-272,35475,-89,34,127,0,0,4728,-395,1500,3967,581,29,341,1,1,257,-3,68721,0
68751,-399,-1971,282,-320,274,-1780,24072,-868,-531,605,-528,35477,-83,34,127,0,0,4673,-593,1500,3967,581,29,351,1,1,257,-3,68752,0
68761,-393,-1916,464,-376,237,-1910,23659,-890,-412,736,-312,35477,-97,34,127,0,0,4598,-758,1500,3967,581,29,361,1,1,257,-3,68752,0
68771,-248,-1902,511,-480,26,-1683,23344,-575,70,1040,104,35477,-116,34,127,0,0,4546,-472,1500,3967,581,29,371,1,1,257,-3,68752,0
68781,194,-2051,485,-533,-341,-1200,23209,-213,560,1132,120,35474,-137,34,127,0,0,4517,-252,1500,3967,581,29,381,1,1,257,-3,68752,0
68791,212,-2022,331,-504,-550,-1201,23087,-308,384,852,-16,35470,-106,34,127,0,0,4497,-164,1500,3967,581,29,391,1,1,257,-3,68783,0
68801,-130,-2014,57,-395,-28,-1555,22863,-575,-186,758,-256,35473,-93,34,127,0,0,4456,-450,1500,3967,581,29,401,1,1,257,-3,68783,0
68811,-173,-1948,86,-332,217,-1823,22525,-804,-425,672,-416,35476,-100,34,127,0,0,4392,-637,1500,3967,581,29,411,1,1,257,-3,68799,0
68821,-138,-1973,415,-314,321,-1848,22152,-803,-291,789,-248,35482,-120,34,127,0,0,4313,-758,1500,3967,581,29,421,1,1,257,-3,68814,0
68831,-163,-1959,492,-346,38,-1619,21872,-520,113,1081,72,35480,-140,34,127,0,0,4258,-516,1500,3967,581,29,431,1,1,257,-3,68814,0
68841,345,-2011,441,-400,-411,-1280,21724,-282,451,1028,48,35472,-126,34,127,0,0,4227,-241,1500,3967,581,29,441,1,1,257,-3,68814,0
68851,92,-2026,259,-403,-375,-1307,21567,-376,242,858,-24,35483,-109,34,127,0,0,4201,-318,1500,3967,581,29,451,1,1,257,-3,68845,0
68861,-192,-1989,67,-308,16,-1664,21329,-589,-176,776,-272,35485,-107,34,127,0,0,4157,-450,1500,3967,581,29,461,1,1,257,-3,68845,0
68871,-59,-1969,173,-264,190,-1887,20991,-802,-354,693,-440,35483,-99,34,127,0,0,4091,-670,1500,3967,581,29,471,1,1,257,-3,68861,0
68881,-25,-1976,471,-272,243,-1916,20617,-810,-268,779,-264,35471,-103,34,127,0,0,4020,-714,1500,3967,581,29,481,1,1,257,-3,68861,0
68891,-10,-1996,503,-305,31,-1782,20306,-625,52,1009,-24,35474,-110,34,127,0,0,3961,-571,1500,3967,581,29,491,1,1,257,-3,68939,0
68901,241,-2005,444,-365,-355,-1583,20095,-417,323,1109,40,35479,-138,34,127,0,0,3924,-351,1500,3967,581,29,501,1,1,257,-3,68939,0
68911,148,-2025,356,-380,-359,-1589,19895,-483,226,871,-128,35473,-119,34,127,0,0,3886,-373,1500,3967,581,29,511,1,1,257,-3,68939,0
68921,-189,-1971,196,-339,-50,-1992,19601,-732,-165,694,-296,35457,-103,34,127,0,0,3834,-560,1500,3967,581,29,521,1,1,257,-3,68939,0
68931,-212,-1928,198,-328,120,-2295,19207,-908,-392,714,-440,35456,-96,34,127,0,0,3761,-714,1600,3967,581,29,531,1,1,257,-3,68939,0
68941,-157,-1943,417,-401,62,-2383,18804,-847,-211,940,-240,35466,-107,34,127,0,0,3682,-769,1830,3967,581,29,541,1,1,257,-3,68955,0
68951,-53,-2004,543,-473,-214,-2236,18493,-611,166,1343,-64,35474,-144,34,127,0,0,3623,-593,2080,3967,581,29,551,1,1,257,-3,68955,0
68961,64,-2005,553,-565,-552,-1985,18293,-404,401,1532,16,35475,-119,34,127,0,0,3583,-351,2310,3967,581,29,561,1,1,257,-3,68986,0
68971,159,-2033,425,-554,-478,-2167,18099,-531,183,1364,-48,35480,-107,34,127,0,0,3541,-417,2570,3967,581,29,571,1,1,257,-3,68986,0
68981,46,-1932,265,-597,-147,-2708,17756,-857,-314,1300,-360,35493,-113,34,127,0,0,3473,-714,2850,3967,581,29,581,1,1,257,-3,69002,0
68991,-25,-1945,369,-622,-51,-2919,17299,-1044,-478,1561,-448,35498,-126,34,127,0,0,3385,-922,2970,3967,581,29,591,1,1,257,-3,69002,0
69001,-21,-2019,575,-700,-196,-2883,16835,-986,-197,1757,-248,35483,-143,34,127,0,0,3302,-834,3100,3967,581,29,601,1,1,257,-3,69002,0
69011,115,-2070,489,-770,-369,-2749,16460,-742,195,2080,-72,35469,-148,34,127,0,0,3229,-692,3220,3967,581,29,611,1,1,257,-3,69002,0
69021,285,-2075,448,-801,-537,-2582,16191,-547,391,2190,24,35475,-163,34,127,0,0,3177,-472,3320,3967,581,29,621,1,1,257,-3,69002,0
69031,514,-2127,343,-815,-543,-2657,15934,-606,195,1992,-40,35495,-143,34,127,0,0,3120,-593,3430,3967,581,29,631,1,1,257,-3,69017,0
69041,509,-1662,231,-862,-577,-3017,15590,-819,-188,1864,-152,35500,-130,34,127,0,0,3052,-736,3530,3967,581,29,641,1,1,257,-3,69049,0
69051,359,-1967,298,-1053,-1045,-3072,15197,-849,-259,2068,-104,35491,-119,34,127,0,0,2975,-802,3630,3967,581,29,651,1,1,257,-3,69049,0
69061,140,-3714,710,-899,-1216,-2539,14909,-516,163,2541,112,35480,-138,34,127,0,0,2924,-461,3710,3967,581,29,661,1,1,257,-3,69049,0
69071,-397,-3347,729,-755,-1063,-2379,14824,-69,634,2258,648,35471,-149,34,127,0,0,2909,-98,3800,3967,581,29,671,1,1,257,-3,69064,0
69081,63,-2364,125,-784,-831,-2603,14853,78,582,2229,824,35466,-119,34,127,0,0,2917,76,3890,3967,581,29,681,1,1,257,-3,69064,0
69091,120,-2072,72,-816,-933,-2756,14884,72,164,2363,840,35454,-73,34,127,0,0,2922,76,3990,3967,581,29,691,1,1,257,-3,69095,0
69101,159,-2125,-11,-890,-1297,-2977,14920,76,12,2426,848,35445,-29,34,127,0,0,2931,98,4100,3967,581,29,701,1,1,257,-3,69095,0
69111,-124,-2041,-162,-930,-1263,-3062,14979,166,51,2343,1184,35447,-18,34,127,0,0,2939,87,4220,3967,581,29,711,1,1,257,-3,69095,0
69121,-66,-2833,95,-868,-1005,-3069,15088,255,143,2515,1384,35455,-40,34,127,0,0,2961,219,4350,3967,581,29,721,1,1,257,-3,69095,0
69131,-143,-2887,393,-805,-841,-3194,15220,330,139,2561,1688,35453,-27,34,127,0,0,2988,263,4490,3967,581,29,731,1,1,257,-3,69127,0
69141,-45,-2540,211,-936,-620,-3489,15430,535,165,2657,2176,35440,-7,34,127,0,0,3034,472,4650,3967,581,29,741,1,1,257,-3,69142,0
69151,82,-2386,128,-1066,-797,-3505,15750,776,364,2836,2856,35430,17,34,127,0,0,3095,648,4850,3967,581,29,751,1,1,257,-3,69142,0
69161,88,-2439,355,-955,-1161,-3424,16161,949,391,2974,3160,35412,70,34,127,0,0,3179,823,5100,3967,581,29,761,1,1,257,-3,69142,0
69171,-233,-2329,345,-773,-1365,-3543,16619,1037,267,3105,3464,35407,115,34,127,0,0,3265,911,5400,3967,581,29,771,1,1,257,-3,69174,0
69181,-188,-2344,-23,-715,-1536,-3969,17130,1167,187,3258,3840,35387,151,34,127,0,0,3364,988,5730,3967,581,29,781,1,1,257,-3,69174,0
69191,-140,-2449,-4,-652,-1469,-4118,17690,1242,199,3487,4152,35377,208,34,127,0,0,3467,1065,6080,3967,581,29,791,1,1,257,-3,69174,0
69201,-523,-2707,-61,-445,-1260,-4243,18280,1320,146,3697,4336,35363,236,34,127,0,0,3579,1120,6490,3967,581,29,801,1,1,257,-3,69189,0
69211,-554,-2598,-192,-344,-1127,-4475,18894,1367,103,3845,4456,35350,293,34,127,0,0,3693,1164,6640,3967,581,29,811,1,1,257,-3,69189,0
69221,-234,-2307,-86,-288,-956,-4876,19539,1437,100,3949,4704,35333,337,34,127,0,0,3814,1219,6760,3967,581,29,821,1,1,257,-3,69220,0
69231,141,-2223,-14,-190,-993,-5149,20195,1445,78,4040,4664,35316,398,34,127,0,0,3937,1230,6850,3967,581,29,831,1,1,257,-3,69220,0
69241,335,-2504,-28,-154,-1257,-5469,20846,1420,16,3983,4680,35309,420,34,127,0,0,4056,1164,6910,3967,581,29,841,1,1,257,-3,69220,0
69251,443,-2691,73,-65,-1167,-5675,21498,1440,-16,4000,4808,35307,425,34,127,0,0,4181,1263,6920,3967,581,29,851,1,1,257,-3,69236,0
69261,848,-2289,-27,-609,-2005,-5770,22148,1423,-4,4046,4704,35306,446,34,127,0,0,4306,1230,6710,3967,581,29,861,1,1,257,-3,69252,0
69271,1214,-2876,449,-471,-2455,-5837,22789,1406,-16,3825,4400,35309,437,34,127,0,0,4436,1318,6080,3967,581,29,871,1,1,257,-3,69252,0
69281,998,-3450,570,-198,-2858,-5927,23414,1363,-45,3405,4216,35330,404,34,127,0,0,4557,1208,5330,3967,581,29,881,1,1,257,-3,69267,0
69291,863,-3499,533,-140,-3144,-5935,24032,1362,-54,2951,4032,35351,355,34,127,0,0,4666,1109,4700,3967,581,29,891,1,1,257,-3,69267,0
69301,630,-3261,747,-21,-3558,-5600,24675,1466,31,2582,4456,35356,296,34,127,0,0,4772,1065,4440,3967,581,29,901,1,1,257,-3,69283,0
69311,-37,-2665,972,170,-4019,-4962,25450,1829,303,2392,5448,35363,268,34,127,0,0,4908,1329,4080,3967,581,29,911,1,1,257,-3,69299,0
69321,-63,-2091,605,152,-4482,-3528,26443,2343,672,2175,6736,35359,234,34,127,0,0,5077,1724,3530,3967,581,29,921,1,1,257,-3,69299,0
69331,-246,-2115,729,145,-4611,-2617,27708,2988,945,1937,8008,35361,247,34,127,0,0,5293,2208,0,3967,581,29,931,1,1,257,-3,69330,0
69341,537,-2076,453,286,-4922,-1128,29199,3349,988,1265,-384,35352,293,34,127,0,0,5576,2988,0,3967,581,29,941,1,1,257,-3,69330,0
69351,1688,-2298,-152,-172,-4583,-182,29312,-1681,-2050,-10936,-9024,35258,283,34,127,0,0,5838,2570,0,3967,581,29,951,1,1,257,-3,69330,0
69361,534,-1050,52,-64,-2683,-1264,27822,-3239,-6207,513,-4504,35298,598,34,127,0,0,5897,362,0,3967,581,29,961,1,1,257,-3,69345,0
69371,1080,-479,-417,-121,-1620,-770,26744,-2035,-2055,1099,-2784,35338,420,34,127,0,0,5824,-834,0,3967,581,29,971,0,1,257,-3,69361,0
69381,922,-363,-466,58,168,-476,26015,-1471,1560,151,-2984,35436,284,34,127,0,0,5625,-2087,0,3967,581,29,981,0,1,257,-3,69361,0
69391,578,-631,-379,211,674,85,25373,-1492,831,-1073,-4384,35454,-68,34,127,0,0,5365,-2636,0,3967,581,29,991,0,1,257,-3,69392,0
69401,269,-1036,-76,342,1026,1023,24515,-2030,-271,-1268,-5248,35430,-79,34,127,0,0,5119,-2427,0,3967,581,29,1001,0,1,257,-3,69392,0
69411,144,-1215,90,343,1036,1738,23504,-2280,-732,-827,-5456,35425,23,34,127,0,0,4910,-2032,0,3967,581,29,1011,0,1,257,-3,69408,0
69421,336,-1249,140,372,1140,2716,22480,-2218,-315,-431,-5160,35431,55,34,127,0,0,4743,-1593,0,3967,581,29,1021,0,1,257,-3,69408,0
69431,380,-1191,161,350,1235,3277,21519,-2068,110,-227,-4648,35429,61,34,127,0,0,4612,-1307,0,3967,581,29,1031,0,1,257,-3,69439,0
69441,521,-1145,18,326,1457,4096,20635,-1889,272,-116,-3992,35442,14,34,127,0,0,4500,-1120,0,3967,581,29,1041,0,1,257,-3,69439,0
69451,584,-1094,-13,295,1669,4577,19834,-1707,304,-79,-3496,35449,-29,34,127,0,0,4396,-1054,0,3967,581,29,1051,0,1,257,-3,69439,0
69461,647,-1030,-16,325,2036,5228,19129,-1480,342,-83,-3112,35465,-69,34,127,0,0,4300,-966,0,3967,581,29,1061,0,1,257,-3,69439,0
69471,637,-990,-72,352,2215,5664,18517,-1295,363,-203,-2832,35462,-79,34,127,0,0,4201,-944,0,3967,581,29,1071,0,1,257,-3,69470,0
69481,564,-1024,-184,362,2421,6412,17971,-1171,304,-251,-2560,35459,-74,34,127,0,0,4113,-889,0,3967,581,29,1081,0,1,257,-3,69470,0
69491,549,-1090,-144,386,2475,6928,17475,-1061,216,-258,-2152,35459,-75,34,127,0,0,4047,-659,0,3967,581,29,1091,0,1,257,-3,69470,0
69501,547,-1280,-90,475,2570,7618,17035,-927,201,-176,-1664,35467,-75,34,127,0,0,4010,-384,0,3967,581,29,1101,0,1,257,-3,69486,0
69511,524,-1359,-92,540,2670,8018,16671,-748,256,-142,-1096,35462,-73,34,127,0,0,3985,-197,0,3967,581,29,1111,0,1,257,-3,69502,0
69521,510,-1427,-76,636,2842,8526,16395,-551,313,-127,-616,35456,-72,34,127,0,0,3974,-98,0,3967,581,29,1121,0,1,257,-3,69502,0
69531,545,-1465,-72,719,2970,8848,16203,-366,322,-73,-96,35453,-75,34,127,0,0,3970,0,0,3967,581,29,1131,0,1,257,-3,69517,0
69541,538,-1575,-42,929,3177,9260,16145,0,411,215,168,35461,-85,34,127,0,0,3970,10,0,3967,581,29,1141,0,1,257,-3,69548,0
69551,590,-1638,-34,1028,3295,9514,16213,165,518,100,80,35460,-81,34,127,0,0,3972,10,0,3967,581,29,1151,0,1,257,-3,69548,0
69561,519,-1752,23,1182,3361,9848,16254,53,182,243,136,35445,-46,34,127,0,0,3977,32,0,3967,581,29,1161,0,1,257,-3,69548,0
69571,495,-1850,24,1246,3346,10076,16286,84,-82,410,240,35438,-41,34,127,0,0,3983,98,0,3967,581,29,1171,0,1,257,-3,69564,0
69581,569,-2034,54,1308,3378,10348,16334,123,16,631,400,35456,-46,34,127,0,0,4001,219,0,3967,581,29,1181,0,1,257,-3,69564,0
69591,534,-2199,71,1373,3420,10464,16437,265,140,585,560,35468,-69,34,127,0,0,4034,329,0,3967,581,29,1191,0,1,257,-3,69595,0
69601,502,-2455,77,1428,3533,10465,16580,337,183,576,792,35456,-74,34,127,0,0,4071,417,0,3967,581,29,1201,0,1,257,-3,69595,0
69611,538,-2608,83,1431,3599,10417,16759,414,142,637,1008,35450,-75,34,127,0,0,4117,450,0,3967,581,29,1211,0,1,257,-3,69595,0
69621,631,-2841,75,1402,3678,10243,16972,502,138,643,1288,35453,-91,34,127,0,0,4177,604,0,3967,581,29,1221,0,1,257,-3,69595,0
69631,673,-2982,88,1385,3662,10075,17230,592,146,657,1496,35470,-73,34,127,0,0,4234,615,0,3967,581,29,1231,0,1,257,-3,69658,0
69641,726,-3190,121,1344,3540,9657,17519,658,150,648,1704,35462,-68,34,127,0,0,4297,626,0,3967,581,29,1241,0,1,257,-3,69673,0
69651,771,-3290,171,1296,3420,9275,17847,745,131,630,1840,35450,-46,34,127,0,0,4361,637,0,3967,581,29,1251,0,1,257,-3,69673,0
69661,972,-3601,172,1119,3145,8643,18201,797,116,617,1960,35448,-34,34,127,0,0,4436,769,0,3967,581,29,1261,0,1,257,-3,69673,0
69671,1098,-3677,227,979,2889,8207,18583,849,103,646,2160,35458,-53,34,127,0,0,4517,845,0,3967,581,29,1271,0,1,257,-3,69720,0
69681,1273,-3153,448,739,2511,7109,19003,953,116,628,2176,35454,-40,34,127,0,0,4574,516,0,3967,581,29,1281,0,1,257,-3,69720,0
69691,1344,-3038,499,496,2110,6309,19418,883,75,355,1848,35433,-60,34,127,0,0,4601,230,0,3967,581,29,1291,0,1,257,-3,69720,0
69701,1424,-2868,522,306,1119,5159,19776,740,-113,243,1280,35437,-48,34,127,0,0,4605,54,0,3967,581,29,1301,0,1,257,-3,69736,0
69711,1510,-2696,475,250,345,4495,20049,536,-272,223,816,35455,-82,34,127,0,0,4603,21,0,3967,581,29,1311,0,1,257,-3,69736,0
69721,1521,-2317,583,309,-876,3296,20243,383,-308,313,520,35463,-89,34,127,0,0,4603,0,0,3967,581,29,1321,0,1,257,-3,69736,0
69731,1540,-2104,630,322,-1676,2439,20380,267,-265,350,344,35448,-83,34,127,0,0,4603,0,0,3967,581,29,1331,0,1,257,-3,69736,0
69741,1443,-2008,699,254,-2649,1185,20468,166,-208,398,232,35442,-83,34,127,0,0,4601,-21,0,3967,581,29,1341,0,1,257,-3,69736,0
69751,1317,-2168,627,199,-3102,330,20529,136,-146,434,216,35460,-99,34,127,0,0,4601,0,0,3967,581,29,1351,0,1,257,-3,69736,0
69761,307,-3824,-66,-47,-3379,-755,20573,91,-75,574,248,35496,-126,34,127,0,0,4609,54,0,3967,581,29,1361,0,1,257,-3,69736,0
69771,449,-5733,-393,-985,-3147,-601,20638,193,-5,1030,1128,35492,-123,34,127,0,0,4765,1757,0,7020,2753,30,3,1,1,313,-1,69767,0
69781,-269,-3509,493,-362,-1103,-2365,20853,522,315,907,2264,35477,-98,34,127,0,0,4948,1823,0,7020,2753,30,13,1,1,313,-1,69783,0
69791,-296,-2134,800,129,-853,-2759,21304,1178,721,1658,3520,35448,-82,34,127,0,0,5073,1208,0,7020,2753,30,23,1,1,313,-1,69783,0
69801,931,-1912,414,-154,-163,-2428,21940,1470,840,1132,4008,35438,-22,34,127,0,0,5154,780,0,7020,2753,30,33,1,1,313,-1,69783,0
69811,-268,-2371,804,261,183,-1980,22644,1565,478,771,3880,35436,21,34,127,0,0,5203,516,0,7020,2753,30,43,1,1,313,-1,69798,0
69821,-1307,-1494,716,831,-103,-1326,23355,1581,140,712,4008,35435,44,34,127,0,0,5297,988,0,7020,2753,30,53,1,1,313,-1,69798,0
69831,-1163,-1323,321,702,-54,-1295,24116,1741,100,973,4656,35432,25,34,127,0,0,5442,1483,0,7020,2753,30,63,1,1,313,-1,69814,0
69841,-1098,-1378,-604,211,834,-1580,25005,2058,349,1121,5296,35436,6,34,127,0,0,5589,1428,0,7020,2753,30,73,1,1,313,-1,69845,0
69851,-1068,-2000,-808,94,1661,-2033,25990,2200,437,756,5320,35430,26,34,127,0,0,5697,1021,0,7020,2753,30,83,1,1,313,-1,69845,0
69861,-733,-2810,-120,632,2021,-2735,26960,2067,152,178,4296,35424,50,34,127,0,0,5770,714,0,7020,2753,30,93,1,1,313,-1,69845,0
69871,-85,-2896,495,781,1560,-2971,27803,1746,-268,-13,3120,35428,27,34,127,0,0,5813,406,0,7020,2753,30,103,1,1,313,-1,69845,0
69881,249,-2347,588,644,624,-3129,28464,1327,-591,-70,1976,35456,-34,34,127,0,0,5820,32,0,7020,2753,30,113,1,1,313,-1,69876,0
69891,702,-1956,-44,-27,-75,-3013,28924,888,-731,-89,952,35468,-97,34,127,0,0,5807,-186,0,7020,2753,30,123,1,1,313,-1,69876,0
69901,63,-2340,-229,-221,-19,-4014,29198,459,-737,-446,-328,35461,-90,34,127,0,0,5708,-1109,0,7020,2753,30,133,1,1,313,-1,69876,0
69911,-701,-1335,-489,-105,-131,-3839,29057,-515,-1145,-1098,-1616,35461,-97,34,127,0,0,5585,-1219,0,7020,2753,30,143,1,1,313,-1,69923,0
69921,-959,-2039,-143,160,201,-3891,28771,-601,-1106,-143,-256,35470,-100,34,127,0,0,5473,-1153,700,7020,2753,30,153,1,1,313,-1,69923,0
69931,417,-1739,185,152,-186,-2965,28518,-558,-155,526,-192,35480,-98,34,127,0,0,5416,-549,900,7020,2753,30,163,1,1,313,-1,69923,0
69941,202,-2284,356,118,-703,-2850,28150,-948,-140,442,-976,35461,-72,34,127,0,0,5354,-659,1100,7020,2753,30,173,1,1,313,-1,69939,0
69951,-305,-2102,0,213,-161,-3144,27587,-1350,-609,516,-1728,35453,-72,34,127,0,0,5264,-955,1300,7020,2753,30,183,1,1,313,-1,69939,0
69961,-425,-1854,130,359,450,-3378,26924,-1475,-576,632,-1768,35465,-95,34,127,0,0,5152,-1142,1500,7020,2753,30,193,1,1,313,-1,69939,0
69971,-390,-1770,526,349,201,-3098,26313,-1265,-97,783,-1160,35489,-109,34,127,0,0,5049,-1010,1500,7020,2753,30,203,1,1,313,-1,69970,0
69981,-230,-1756,454,167,-190,-2462,25886,-948,389,856,-264,35486,-117,34,127,0,0,4970,-714,1500,7020,2753,30,213,1,1,313,-1,69970,0
69991,-350,-1747,286,129,-396,-2050,25612,-449,690,1323,24,35471,-129,34,127,0,0,4924,-417,1500,7020,2753,30,223,1,1,313,-1,69986,0
70001,170,-2021,216,145,-399,-1876,25466,-347,629,943,-16,35461,-118,34,127,0,0,4902,-219,1500,7020,2753,30,233,1,1,313,-1,69986,0
70011,28,-2155,206,230,-111,-2080,25185,-769,-105,647,-568,35473,-115,34,127,0,0,4853,-538,1500,7020,2753,30,243,1,1,313,-1,69986,0
70021,-254,-2195,126,427,425,-2443,24692,-1174,-715,657,-1192,35486,-112,34,127,0,0,4770,-823,1500,7020,2753,30,253,1,1,313,-1,70017,0
70031,-120,-1823,252,428,645,-2448,24147,-1173,-460,716,-888,35486,-117,34,127,0,0,4677,-900,1500,7020,2753,30,263,1,1,313,-1,70017,0
70041,-9,-1842,498,257,51,-1971,23710,-851,168,865,-152,35478,-125,34,127,0,0,4603,-714,1500,7020,2753,30,273,1,1,313,-1,70017,0
70051,-151,-1966,624,128,-334,-1321,23515,-250,722,1358,152,35483,-133,34,127,0,0,4570,-263,1500,7020,2753,30,283,1,1,313,-1,70111,0
70061,83,-2113,471,65,-623,-977,23480,-67,766,898,160,35482,-142,34,127,0,0,4565,-43,1500,7020,2753,30,293,1,1,313,-1,70126,0
70071,-25,-2117,299,66,-229,-1158,23383,-301,97,873,-24,35471,-123,34,127,0,0,4550,-197,1500,7020,2753,30,303,1,1,313,-1,70126,0
70081,68,-2130,433,100,239,-1662,23127,-675,-399,661,-352,35459,-114,34,127,0,0,4502,-538,1500,7020,2753,30,313,1,1,313,-1,70126,0
70091,-137,-2084,641,60,344,-1784,22733,-908,-515,642,-496,35459,-100,34,127,0,0,4423,-802,1500,7020,2753,30,323,1,1,313,-1,70126,0
70101,-601,-2026,688,-16,161,-1598,22363,-737,-228,897,-112,35470,-120,34,127,0,0,4350,-692,1500,7020,2753,30,333,1,1,313,-1,70142,0
70111,-321,-1936,556,-157,-148,-1217,22197,-203,442,1256,136,35462,-120,34,127,0,0,4317,-274,1500,7020,2753,30,343,1,1,313,-1,70142,0
70121,207,-1992,496,-216,-620,-1061,22145,-117,640,900,128,35455,-118,34,127,0,0,4308,-54,1500,7020,2753,30,353,1,1,313,-1,70142,0
70131,-80,-1982,278,-263,-363,-1233,22025,-351,79,849,-32,35461,-114,34,127,0,0,4286,-263,1500,7020,2753,30,363,1,1,313,-1,70142,0
70141,-215,-1973,115,-201,143,-1792,21763,-675,-410,673,-368,35474,-119,34,127,0,0,4236,-516,1500,7020,2753,30,373,1,1,313,-1,70142,0
70151,-98,-1988,257,-176,283,-2004,21379,-896,-521,667,-528,35492,-98,34,127,0,0,4159,-780,1500,7020,2753,30,383,1,1,313,-1,70142,0
70161,-274,-2024,471,-229,163,-1898,20991,-796,-251,831,-216,35490,-99,34,127,0,0,4084,-736,1500,7020,2753,30,393,1,1,313,-1,70142,0
70171,-118,-2018,443,-273,-110,-1644,20740,-425,258,1211,40,35495,-79,34,127,0,0,4038,-428,1500,7020,2753,30,403,1,1,313,-1,70189,0
70181,329,-2020,311,-309,-500,-1342,20624,-223,543,983,72,35486,-109,34,127,0,0,4020,-164,1500,7020,2753,30,413,1,1,313,-1,70189,0
70191,288,-2003,170,-257,-336,-1476,20473,-409,195,844,-48,35473,-111,34,127,0,0,3992,-285,1560,7020,2753,30,423,1,1,313,-1,70189,0
70201,184,-1917,30,-195,74,-1917,20187,-728,-339,704,-312,35455,-105,34,127,0,0,3937,-527,1760,7020,2753,30,433,1,1,313,-1,70189,0
70211,158,-1941,131,-205,199,-2053,19797,-874,-468,867,-280,35450,-92,34,127,0,0,3864,-736,2000,7020,2753,30,443,1,1,313,-1,70205,0
70221,-83,-2107,433,-216,-1,-1704,19464,-622,-100,1407,-32,35468,-102,34,127,0,0,3801,-593,2240,7020,2753,30,453,1,1,313,-1,70205,0
70231,401,-2137,442,-245,-305,-1317,19339,-156,523,1623,248,35485,-123,34,127,0,0,3781,-164,2450,7020,2753,30,463,1,1,313,-1,70220,0
70241,446,-2031,251,-231,-444,-1086,19313,-56,609,1482,296,35477,-108,34,127,0,0,3770,-98,2640,7020,2753,30,473,1,1,313,-1,70236,0
70251,235,-1988,142,-186,-324,-1147,19259,-139,126,1628,208,35468,-61,34,127,0,0,3761,-109,2840,7020,2753,30,483,1,1,313,-1,70236,0
70261,464,-1896,190,-104,-97,-1380,19135,-349,-192,1701,64,35458,-38,34,127,0,0,3739,-263,3070,7020,2753,30,493,1,1,313,-1,70236,0
70271,451,-1929,271,-107,-32,-1506,18910,-553,-338,1733,-40,35470,-57,34,127,0,0,3693,-461,3320,7020,2753,30,503,1,1,313,-1,70267,0
70281,60,-2017,321,-157,-71,-1523,18646,-567,-282,1979,32,35471,-108,34,127,0,0,3645,-494,3600,7020,2753,30,513,1,1,313,-1,70267,0
70291,58,-2079,329,-179,-167,-1383,18459,-329,72,2326,192,35462,-110,34,127,0,0,3610,-307,3880,7020,2753,30,523,1,1,313,-1,70267,0
70301,235,-2026,384,-175,-345,-1184,18366,-175,341,2343,384,35465,-93,34,127,0,0,3592,-197,4120,7020,2753,30,533,1,1,313,-1,70298,0
70311,316,-2009,339,-169,-436,-1157,18315,-110,261,2489,368,35464,-81,34,127,0,0,3579,-98,4250,7020,2753,30,543,1,1,313,-1,70298,0
70321,303,-1929,212,-196,-488,-1343,18243,-198,27,2563,288,35455,-72,34,127,0,0,3563,-153,4380,7020,2753,30,553,1,1,313,-1,70298,0
70331,146,-1932,254,-190,-436,-1501,18110,-337,-150,2610,168,35441,-86,34,127,0,0,3544,-208,4520,7020,2753,30,563,1,1,313,-1,70314,0
70341,-7,-1964,297,-188,-569,-1732,17924,-436,-226,2688,120,35443,-88,34,127,0,0,3506,-351,4660,7020,2753,30,573,1,1,313,-1,70345,0
70351,203,-1970,451,-171,-781,-1818,17724,-449,-127,2755,128,35465,-112,34,127,0,0,3467,-373,4810,7020,2753,30,583,1,1,313,-1,70345,0
70361,-138,-2386,489,-250,-873,-1820,17553,-340,13,2912,224,35458,-99,34,127,0,0,3434,-329,4950,7020,2753,30,593,1,1,313,-1,70345,0
70371,-161,-2528,516,-275,-814,-1904,17426,-253,148,2979,320,35449,-85,34,127,0,0,3412,-219,5100,7020,2753,30,603,1,1,313,-1,70345,0
70381,-287,-2407,471,-298,-657,-2116,17325,-205,140,3017,464,35441,-83,34,127,0,0,3392,-164,5260,7020,2753,30,613,1,1,313,-1,70392,0
70391,-116,-2309,421,-328,-656,-2246,17251,-153,94,3169,528,35455,-97,34,127,0,0,3375,-175,5440,7020,2753,30,623,1,1,313,-1,70392,0
70401,-215,-2157,322,-409,-815,-2413,17180,-147,50,3243,592,35454,-93,34,127,0,0,3364,-131,5630,7020,2753,30,633,1,1,313,-1,70392,0
70411,-143,-2218,251,-499,-802,-2551,17131,-102,43,3390,664,35436,-49,34,127,0,0,3355,-76,5840,7020,2753,30,643,1,1,313,-1,70392,0
70421,-61,-2329,242,-531,-630,-2832,17089,-101,50,3461,768,35423,-12,34,127,0,0,3346,-76,6060,7020,2753,30,653,1,1,313,-1,70470,0
70431,-33,-2276,269,-576,-583,-2960,17043,-83,6,3643,808,35428,9,34,127,0,0,3335,-109,6290,7020,2753,30,663,1,1,313,-1,70486,0
70441,127,-2304,356,-643,-614,-3119,17004,-78,10,3787,864,35438,25,34,127,0,0,3331,-54,6540,7020,2753,30,673,1,1,313,-1,70486,0
70451,238,-2392,376,-629,-713,-3156,17004,23,75,3827,1136,35422,44,34,127,0,0,3331,21,6800,7020,2753,30,683,1,1,313,-1,70486,0
70461,311,-2313,401,-541,-893,-3389,17012,3,101,4121,1128,35404,75,34,127,0,0,3331,10,7080,7020,2753,30,693,1,1,313,-1,70486,0
70471,276,-2121,356,-504,-936,-3568,17025,42,15,4229,1264,35397,92,34,127,0,0,3333,32,7380,7020,2753,30,703,1,1,313,-1,70486,0
70481,21,-2194,371,-481,-1037,-3555,17057,95,45,4336,1592,35403,90,34,127,0,0,3342,87,7680,7020,2753,30,713,1,1,313,-1,70486,0
70491,-28,-2514,288,-547,-1080,-3424,17154,270,159,4504,2104,35395,108,33,127,0,0,3357,186,8020,7020,2753,30,723,1,1,313,-1,70486,0
70501,-59,-2614,254,-411,-1074,-3512,17372,579,355,4637,3072,35368,133,34,127,0,0,3401,439,8380,7020,2753,30,733,1,1,313,-1,70486,0
70511,170,-2549,79,-386,-1187,-3529,17758,962,558,5053,4040,35330,198,34,127,0,0,3471,747,8810,7020,2753,30,743,1,1,313,-1,70501,0
70521,218,-2348,-49,-511,-1642,-3231,18297,1258,627,5394,4760,35305,275,34,127,0,0,3572,1054,9380,7020,2753,30,753,1,1,313,-1,70501,0
70531,-49,-2375,-112,-440,-1814,-3218,18919,1419,449,5666,5192,35272,396,34,127,0,0,3691,1208,10100,7020,2753,30,763,1,1,313,-1,70517,0
70541,-231,-2615,-157,-62,-1834,-3480,19618,1582,303,6073,5856,35232,536,34,127,0,0,3821,1351,10730,7020,2753,30,773,1,1,313,-1,70533,0
70551,-396,-2660,-97,102,-1697,-3690,20375,1688,268,6366,6016,35182,689,34,127,0,0,3959,1417,11140,7020,2753,30,783,1,1,313,-1,70533,0
70561,-533,-2201,60,112,-1488,-3920,21144,1685,132,6556,6208,35150,806,34,127,0,0,4097,1428,11570,7020,2753,30,793,1,1,313,-1,70548,0
70571,-697,-2232,25,140,-1436,-4078,21901,1650,-1,6797,6208,35126,888,34,127,0,0,4242,1450,11960,7020,2753,30,803,1,1,313,-1,70564,0
70581,-58,-2524,-103,212,-1179,-4518,22644,1644,-51,6977,6216,35114,967,34,127,0,0,4390,1483,12280,7020,2753,30,813,1,1,313,-1,70564,0
70591,297,-2610,-67,297,-1197,-4914,23432,1793,60,7121,6688,35096,1015,34,127,0,0,4541,1527,12550,7020,2753,30,823,1,1,313,-1,70564,0
70601,904,-3122,358,417,-1658,-4815,24321,2022,286,7196,7048,35092,1053,34,127,0,0,4697,1549,12330,7020,2753,30,833,1,1,313,-1,70611,0
70611,886,-2337,-13,61,-2302,-4876,25314,2239,393,6973,7480,35072,1115,34,127,0,0,4862,1669,11590,7020,2753,30,843,1,1,313,-1,70611,0
70621,1066,-3049,602,212,-2935,-4845,26323,2182,245,6521,6784,35057,1178,34,127,0,0,5031,1702,10720,7020,2753,30,853,1,1,313,-1,70611,0
70631,1099,-3383,734,307,-3565,-5133,27260,1989,-115,5995,6136,35056,1200,34,127,0,0,5194,1571,9670,7020,2753,30,863,1,1,313,-1,70611,0
70641,646,-3558,904,322,-3875,-5464,28081,1730,-363,5299,5360,35120,1129,34,127,0,0,5330,1373,8430,7020,2753,30,873,1,1,313,-1,70642,0
70651,718,-3512,856,219,-4089,-5523,28784,1486,-443,4473,4592,35204,945,34,127,0,0,5458,1307,6790,7020,2753,30,883,1,1,313,-1,70642,0
70661,423,-2908,972,173,-4767,-5215,29405,1317,-382,3506,4200,35273,727,34,127,0,0,5576,1153,5600,7020,2753,30,893,1,1,313,-1,70642,0
70671,64,-2380,997,250,-5368,-4728,30008,1350,-202,2864,4208,35312,519,34,127,0,0,5690,1175,4610,7020,2753,30,903,1,1,313,-1,70673,0
70681,-192,-1832,874,242,-5817,-3582,30700,1626,134,2354,4944,35341,377,34,127,0,0,5820,1329,3630,7020,2753,30,913,1,1,313,-1,70673,0
70691,-595,-1344,1025,243,-6189,-2714,31600,2157,571,1870,6096,35367,254,34,127,0,0,5985,1680,2260,7020,2753,30,923,1,1,313,-1,70689,0
70701,324,-1860,66,70,-6409,-1095,32692,2399,854,-1331,-2304,35355,201,34,127,0,0,6183,1900,0,7020,2753,30,933,1,1,313,-1,70689,0
70711,2202,-2914,-430,-306,-5488,-1010,32173,-1879,-2614,-3756,-5304,35345,237,34,127,0,0,6312,1087,0,7020,2753,30,943,1,1,313,-1,70720,0
70721,906,-1186,-208,-196,-3431,-552,31091,-2615,-4264,-1931,-6968,35342,288,34,127,0,0,6288,-340,0,7020,2753,30,953,0,1,313,-1,70720,0
70731,957,-740,-409,55,-2045,-820,29873,-2575,-1244,-67,-5576,35369,299,34,127,0,0,6136,-1680,0,7020,2753,30,963,0,1,313,-1,70720,0
70741,563,-558,-376,258,-939,-310,28774,-2370,18,-187,-5784,35409,205,34,127,0,0,5895,-2515,0,7020,2753,30,973,0,1,313,-1,70720,0
70751,490,-795,-233,375,-289,131,27658,-2525,209,-888,-6432,35416,52,34,127,0,0,5618,-2757,0,7020,2753,30,983,0,1,313,-1,70751,0
