state_time,accelx,accely,accelz,gyrox,gyroy,gyroz,mot_ang,mot_vel,mot_acc,mot_cur,mot_volt,batt_volt,batt_curr,temperature,status_mn,status_ex,status_re,ank_ang,ank_vel,ank_torque,peak_ank_torque,step_energy,step_count,step_time,gait_state,movement,speed,incline,sys_time,eventFlags
254167,78,-2040,204,-57,-14,24,13955,5,19,130,8,35398,-83,35,127,0,0,3755,32,0,1784,449,111,8559,-4,0,-20,0,254224,0
254177,70,-2043,211,-57,-11,16,13960,12,6,180,104,35392,-82,34,127,0,0,3757,21,0,1784,449,111,8569,-4,0,-20,0,254224,0
254187,82,-2040,197,-59,-9,14,13979,46,16,135,64,35389,-67,34,127,0,0,3761,32,0,1784,449,111,8579,-4,0,-20,0,254224,0
254197,71,-2041,210,-59,-17,20,14003,52,41,78,72,35386,-74,35,127,0,0,3763,10,0,1784,449,111,8589,-4,0,-20,0,254224,0
254207,80,-2046,216,-55,-16,-3,14004,-14,-36,134,56,35378,-85,35,127,0,0,3766,43,0,1784,449,111,8599,-4,0,-20,0,254240,0
254217,91,-2043,211,-57,-11,-9,14007,6,-41,207,24,35378,-85,35,127,0,0,3766,21,0,1784,449,111,8609,-4,0,-20,0,254240,0
254227,72,-2042,218,-53,-8,-14,14007,2,2,201,40,35381,-72,35,127,0,0,3766,10,0,1784,449,111,8619,-4,0,-20,0,254240,0
254237,76,-2042,212,-58,-16,-18,14009,13,-3,243,56,35384,-87,35,127,0,0,3766,-10,0,1784,449,111,8629,-4,0,-20,0,254240,0
254247,89,-2046,213,-59,-9,-19,14010,0,6,239,88,35390,-96,35,127,0,0,3768,21,0,1784,449,111,8639,-4,0,-20,0,254240,0
254257,79,-2042,203,-59,-14,-26,14011,8,-1,244,88,35393,-99,35,127,0,0,3766,-21,0,1784,449,111,8649,-4,0,-20,0,254240,0
254267,83,-2041,190,-51,-16,-31,14011,3,0,243,88,35400,-94,34,127,0,0,3768,0,0,1784,449,111,8659,-4,0,-20,0,254255,0
254277,75,-2038,197,-53,-17,-34,14012,9,0,276,104,35417,-111,35,127,0,0,3770,0,0,1784,449,111,8669,-4,0,-20,0,254255,0
254287,80,-2042,198,-50,-19,-37,14017,9,7,268,96,35426,-119,35,127,0,0,3768,0,0,1784,449,111,8679,-4,0,-20,0,254287,0
254297,77,-2037,208,-42,-10,-46,14016,-5,-7,244,96,35414,-119,35,127,0,0,3768,10,0,1784,449,111,8689,-4,0,-20,0,254287,0
254307,101,-2037,209,-40,-7,-50,14019,0,0,258,96,35393,-105,34,127,0,0,3770,10,0,1784,449,111,8699,-4,0,-20,0,254287,0
254317,86,-2043,210,-47,-9,-47,14023,6,7,301,72,35384,-91,35,127,0,0,3768,-10,0,1784,449,111,8709,-4,0,-20,0,254287,0
254327,104,-2040,213,-49,-17,-51,14027,8,3,266,104,35390,-104,34,127,0,0,3770,10,0,1784,449,111,8719,-4,0,-20,0,254302,0
254337,107,-2039,213,-49,-17,-62,14032,7,3,185,56,35399,-104,35,127,0,0,3770,21,0,1784,449,111,8729,-4,0,-20,0,254318,0
254347,90,-2048,218,-45,-13,-58,14035,-1,-6,192,48,35387,-110,34,127,0,0,3770,0,0,1784,449,111,8739,-4,0,-20,0,254334,0
254357,90,-2051,223,-49,-10,-53,14035,-2,-15,187,48,35374,-104,34,127,0,0,3770,-10,0,1784,449,111,8749,-4,0,-20,0,254334,0
254367,81,-2045,212,-49,-8,-56,14036,5,-3,194,48,35372,-90,34,127,0,0,3770,-10,0,1784,449,111,8759,-4,0,-20,0,254334,0
254377,85,-2038,199,-47,-14,-49,14038,5,-2,155,8,35384,-104,35,127,0,0,3770,0,0,1784,449,111,8769,-4,0,-20,0,254365,0
254387,87,-2042,194,-48,-18,-48,14038,6,0,181,40,35381,-104,35,127,0,0,3770,0,0,1784,449,111,8779,-4,0,-20,0,254365,0
254397,88,-2043,200,-45,-13,-53,14040,2,3,166,40,35379,-102,35,127,0,0,3768,-32,0,1784,449,111,8789,-4,0,-20,0,254412,0
254407,86,-2048,204,-40,-12,-54,14039,0,-3,129,40,35367,-93,35,127,0,0,3768,-21,0,1784,449,111,8799,-4,0,-20,0,254412,0
254417,86,-2041,203,-36,-15,-46,14042,-5,0,129,32,35374,-90,35,127,0,0,3768,-21,0,1784,449,111,8809,-4,0,-20,0,254427,0
254427,105,-2034,206,-39,-13,-49,14042,-11,-3,89,0,35380,-95,35,127,0,0,3770,21,0,1784,449,111,8819,-4,0,-20,0,254427,0
254437,105,-2042,209,-37,-14,-38,14043,5,1,108,8,35370,-86,35,127,0,0,3770,10,0,1784,449,111,8829,-4,0,-20,0,254427,0
254447,97,-2037,207,-33,-16,-40,14043,5,3,148,32,35367,-91,35,127,0,0,3770,0,0,1784,449,111,8839,-4,0,-20,0,254427,0
254457,80,-2031,210,-38,-14,-36,14044,-4,-4,80,40,35385,-106,35,127,0,0,3770,0,0,1784,449,111,8849,-4,0,-20,0,254427,0
254467,82,-2041,210,-35,-9,-42,14045,11,8,102,-8,35398,-110,35,127,0,0,3768,-32,0,1784,449,111,8859,-4,0,-20,0,254458,0
254477,80,-2040,210,-37,-6,-34,14042,2,4,93,-144,35396,-102,35,127,0,0,3770,-10,0,1784,449,111,8869,-4,0,-20,0,254458,0
254487,12,-2048,222,-32,-25,-25,14043,16,1,167,32,35380,-94,35,127,0,0,3768,-21,0,1784,449,111,8879,-4,0,-20,0,254474,0
254497,106,-2049,199,-38,-7,-43,14045,-12,15,59,-8,35371,-97,34,127,0,0,3770,10,0,1784,449,111,8889,-4,0,-20,0,254474,0
254507,62,-2040,203,-35,-9,-34,14043,2,-3,40,48,35382,-98,35,127,0,0,3768,10,0,1784,449,111,8899,-4,0,-20,0,254521,0
254517,100,-2042,203,-36,-2,-36,14046,4,2,78,24,35385,-86,35,127,0,0,3770,0,0,1784,449,111,8909,-4,0,-20,0,254537,0
254527,84,-2042,210,-37,-16,-37,14044,-5,2,108,64,35380,-92,34,127,0,0,3770,0,0,1784,449,111,8919,-4,0,-20,0,254537,0
254537,83,-2044,213,-35,-7,-43,14046,-7,-5,88,24,35372,-90,35,127,0,0,3770,0,0,1784,449,111,8929,-4,0,-20,0,254552,0
254547,88,-2042,209,-36,-9,-39,14046,0,-4,75,72,35375,-107,35,127,0,0,3770,10,0,1784,449,111,8939,-4,0,-20,0,254583,0
254557,89,-2042,206,-37,-7,-46,14046,-9,0,76,24,35377,-91,35,127,0,0,3768,-21,0,1784,449,111,8949,-4,0,-20,0,254583,0
254567,94,-2038,209,-34,-5,-45,14047,3,-3,78,24,35380,-83,34,127,0,0,3770,0,0,1784,449,111,8959,-4,0,-20,0,254583,0
254577,89,-2046,223,-35,-9,-42,14046,-3,0,89,-8,35382,-90,34,127,0,0,3768,-32,0,1784,449,111,8969,-4,0,-20,0,254583,0
254587,85,-2044,217,-40,-13,-43,14046,5,0,75,24,35388,-106,35,127,0,0,3768,-21,0,1784,449,111,8979,-4,0,-20,0,254583,0
254597,74,-2039,213,-42,-10,-45,14046,-7,-2,61,24,35387,-106,35,127,0,0,3770,0,0,1784,449,111,8989,-4,0,-20,0,254583,0
254607,85,-2040,209,-42,-12,-43,14048,4,0,73,-8,35378,-92,35,127,0,0,3770,21,0,1784,449,111,8999,-4,0,-20,0,254583,0
254617,91,-2048,221,-46,-11,-44,14047,4,0,109,24,35383,-80,35,127,0,0,3770,0,0,1784,449,111,9009,-4,0,-20,0,254583,0
254627,89,-2051,213,-44,-10,-42,14045,-15,-4,70,-8,35384,-91,35,127,0,0,3770,10,0,1784,449,111,9019,-4,0,-20,0,254615,0
254637,82,-2042,206,-45,-7,-44,14049,14,-2,84,24,35390,-90,35,127,0,0,3770,0,0,1784,449,111,9029,-4,0,-20,0,254630,0
254647,82,-2044,211,-41,-14,-45,14045,-9,6,63,40,35385,-103,35,127,0,0,3770,0,0,1784,449,111,9039,-4,0,-20,0,254630,0
254657,85,-2043,209,-41,-13,-45,14048,11,0,76,24,35375,-92,35,127,0,0,3770,0,0,1784,449,111,9049,-4,0,-20,0,254630,0
254667,78,-2045,207,-39,-14,-46,14047,12,-1,94,24,35374,-101,35,127,0,0,3770,10,0,1784,449,111,9059,-4,0,-20,0,254677,0
254677,101,-2041,212,-44,-1,-48,14049,-4,1,110,8,35375,-104,35,127,0,0,3770,-10,0,1784,449,111,9069,-4,0,-20,0,254677,0
254687,79,-2046,213,-48,-7,-44,14047,3,-2,79,24,35378,-105,34,127,0,0,3770,0,0,1784,449,111,9079,-4,0,-20,0,254677,0
254697,83,-2034,218,-43,-10,-42,14046,-8,-6,54,24,35374,-99,34,127,0,0,3768,-21,0,1784,449,111,9089,-4,0,-20,0,254677,0
254707,115,-2045,218,-49,-9,-46,14047,-5,0,50,24,35374,-88,35,127,0,0,3770,-10,0,1784,449,111,9099,-4,0,-20,0,254677,0
254717,93,-2039,221,-55,-10,-42,14048,7,0,97,16,35382,-99,34,127,0,0,3768,-10,0,1784,449,111,9109,-4,0,-20,0,254708,0
254727,90,-2040,214,-48,0,-42,14046,-7,-3,66,24,35381,-97,35,127,0,0,3768,-21,0,1784,449,111,9119,-4,0,-20,0,254708,0
254737,77,-2046,212,-45,-6,-44,14048,1,-1,55,-8,35383,-90,34,127,0,0,3768,-21,0,1784,449,111,9129,-4,0,-20,0,254708,0
254747,82,-2040,213,-46,-11,-42,14047,7,7,84,24,35381,-92,34,127,0,0,3770,0,0,1784,449,111,9139,-4,0,-20,0,254724,0
254757,85,-2045,203,-52,-8,-43,14046,-12,-2,51,24,35390,-101,35,127,0,0,3770,0,0,1784,449,111,9149,-4,0,-20,0,254740,0
254767,94,-2044,195,-50,-6,-43,14048,0,3,69,24,35392,-105,35,127,0,0,3770,0,0,1784,449,111,9159,-4,0,-20,0,254740,0
254777,86,-2051,207,-52,-7,-39,14047,3,-1,55,40,35385,-98,34,127,0,0,3768,-10,0,1784,449,111,9169,-4,0,-20,0,254771,0
254787,133,-2042,209,-49,-4,-51,14050,10,-3,87,24,35374,-88,35,127,0,0,3770,-21,0,1784,449,111,9179,-4,0,-20,0,254771,0
254797,94,-2043,212,-47,-10,-34,14047,-1,1,66,24,35376,-106,34,127,0,0,3768,-21,0,1784,449,111,9189,-4,0,-20,0,254787,0
254807,124,-2042,214,-57,-5,-34,14047,-9,-5,60,24,35386,-91,35,127,0,0,3770,0,0,1784,449,111,9199,-4,0,-20,0,254787,0
254817,94,-2039,206,-46,-6,-28,14048,-4,4,50,24,35396,-84,35,127,0,0,3770,-10,0,1784,449,111,9209,-4,0,-20,0,254802,0
254827,84,-2050,204,-42,-5,-22,14048,11,-2,53,-16,35399,-99,35,127,0,0,3770,0,0,1784,449,111,9219,-4,0,-20,0,254818,0
254837,88,-2039,206,-43,-14,-11,14047,3,6,82,24,35406,-111,35,127,0,0,3770,0,0,1784,449,111,9229,-4,0,-20,0,254818,0
254847,111,-2048,216,-36,-14,0,14049,7,-1,72,64,35406,-116,35,127,0,0,3770,0,0,1784,449,111,9239,-4,0,-20,0,254818,0
254857,87,-2044,196,-39,-7,-8,14051,11,2,147,72,35398,-90,35,127,0,0,3770,-32,0,1784,449,111,9249,-4,0,-20,0,254849,0
254867,119,-2042,200,-35,-16,1,14056,4,12,157,56,35399,-93,35,127,0,0,3777,21,0,1784,449,111,9259,-4,0,-20,0,254849,0
254877,96,-2044,210,-31,-6,9,14059,-7,-5,232,88,35399,-94,35,127,0,0,3777,32,0,1784,449,111,9269,-4,0,-20,0,254849,0
254887,86,-2035,201,-28,-11,16,14061,-1,-5,268,56,35394,-103,34,127,0,0,3779,43,0,1784,449,111,9279,-4,0,-20,0,254880,0
254897,85,-2039,201,-25,-5,8,14067,15,-2,342,72,35391,-99,35,127,0,0,3781,21,0,1784,449,111,9289,-4,0,-20,0,254880,0
254907,87,-2032,210,-30,-9,5,14071,8,6,382,96,35387,-86,34,127,0,0,3781,10,0,1784,449,111,9299,-4,0,-20,0,254896,0
254917,78,-2049,216,-20,-10,13,14070,2,-6,399,128,35387,-85,34,127,0,0,3783,21,0,1784,449,111,9309,-4,0,-20,0,254896,0
254927,82,-2046,211,-31,-12,6,14076,13,3,459,96,35389,-88,35,127,0,0,3788,21,0,1784,449,111,9319,-4,0,-20,0,254911,0
254937,69,-2051,210,-27,-10,5,14080,9,6,480,112,35390,-86,34,127,0,0,3785,0,0,1784,449,111,9329,-4,0,-20,0,254911,0
254947,66,-2037,204,-24,-6,5,14081,0,-1,476,144,35388,-85,35,127,0,0,3788,21,0,1784,449,111,9339,-4,0,-20,0,254927,0
254957,81,-2046,209,-23,-10,-11,14089,10,0,513,144,35393,-79,35,127,0,0,3790,10,0,1784,449,111,9349,-4,0,-20,0,254943,0
254967,91,-2046,223,-23,-9,-11,14106,44,26,449,112,35406,-96,35,127,0,0,3792,0,0,1784,449,111,9359,-4,0,-20,0,254943,0
254977,81,-2043,225,-26,-17,-3,14130,40,35,301,112,35415,-83,35,127,0,0,3792,10,0,1784,449,111,9369,-4,0,-20,0,254958,0
254987,78,-2041,216,-21,-9,-8,14129,-13,-46,335,136,35413,-80,34,127,0,0,3792,-10,0,1784,449,111,9379,-4,0,-20,0,255021,0
254997,79,-2040,214,-23,-9,-13,14129,5,-41,349,152,35396,-77,34,127,0,0,3794,10,0,1784,449,111,9389,-4,0,-20,0,255021,0
255007,98,-2030,220,-27,-6,-12,14134,6,7,394,144,35398,-90,34,127,0,0,3796,10,0,1784,449,111,9399,-4,0,-20,0,255021,0
255017,83,-2030,213,-21,-12,-5,14136,8,2,435,128,35393,-95,35,127,0,0,3796,0,0,1784,449,111,9409,-4,0,-20,0,255021,0
255027,67,-2040,205,-24,-12,-8,14136,5,-4,438,128,35386,-82,34,127,0,0,3796,0,0,1784,449,111,9419,-4,0,-20,0,255021,0
255037,57,-2030,204,-21,-5,-16,14139,10,-5,464,120,35384,-65,34,127,0,0,3796,-10,0,1784,449,111,9429,-4,0,-20,0,255036,0
255047,78,-2038,210,-21,-4,-20,14143,15,10,476,104,35384,-86,35,127,0,0,3801,10,0,1784,449,111,9439,-4,0,-20,0,255036,0
255057,68,-2037,215,-12,-11,-21,14145,0,-1,481,88,35398,-114,35,127,0,0,3801,-10,0,1784,449,111,9449,-4,0,-20,0,255036,0
255067,61,-2042,223,-15,-7,-27,14148,5,-6,476,120,35418,-140,35,127,0,0,3801,-10,0,1784,449,111,9459,-4,0,-20,0,255068,0
255077,75,-2045,217,-17,-4,-20,14149,4,-1,470,184,35419,-134,35,127,0,0,3803,32,0,1784,449,111,9469,-4,0,-20,0,255083,0
255087,79,-2044,217,-17,-6,-32,14163,42,25,450,160,35413,-132,35,127,0,0,3801,-21,0,1784,449,111,9479,-4,0,-20,0,255083,0
255097,78,-2042,221,-23,-10,-25,14189,46,48,257,64,35402,-118,35,127,0,0,3801,-10,0,1784,449,111,9489,-4,0,-20,0,255083,0
255107,80,-2042,217,-19,-13,-29,14191,-5,-24,277,88,35398,-103,34,127,0,0,3801,-21,0,1784,449,111,9499,-4,0,-20,0,255083,0
255117,70,-2046,211,-21,-6,-32,14192,3,-49,309,40,35393,-104,34,127,0,0,3801,-32,0,1784,449,111,9509,-4,0,-20,0,255083,0
255127,86,-2043,217,-17,-6,-32,14191,-6,-5,282,88,35388,-96,35,127,0,0,3803,21,0,1784,449,111,9519,-4,0,-20,0,255115,0
255137,85,-2038,218,-14,-9,-30,14193,3,2,344,96,35397,-113,35,127,0,0,3805,0,0,1784,449,111,9529,-4,0,-20,0,255115,0
255147,85,-2043,210,-19,-9,-22,14194,-6,5,351,64,35402,-99,35,127,0,0,3807,21,0,1784,449,111,9539,-4,0,-20,0,255115,0
255157,64,-2043,215,-18,-10,-22,14198,14,-4,384,64,35399,-104,35,127,0,0,3805,-10,0,1784,449,111,9549,-4,0,-20,0,255146,0
255167,74,-2049,225,-18,-9,-19,14197,0,3,376,96,35386,-123,35,127,0,0,3807,21,0,1784,449,111,9559,-4,0,-20,0,255146,0
255177,83,-2042,217,-23,-9,-15,14199,0,-3,370,96,35391,-131,35,127,0,0,3807,21,0,1784,449,111,9569,-4,0,-20,0,255146,0
255187,70,-2043,215,-21,-12,-16,14201,11,0,404,120,35392,-150,34,127,0,0,3810,21,0,1784,449,111,9579,-4,0,-20,0,255208,0
255197,70,-2031,214,-16,-12,-12,14205,14,8,429,136,35391,-144,35,127,0,0,3810,10,0,1784,449,111,9589,-4,0,-20,0,255208,0
255207,81,-2040,217,-12,-14,-14,14210,14,3,424,160,35383,-137,35,127,0,0,3810,-21,0,1784,449,111,9599,-4,0,-20,0,255208,0
255217,72,-2036,217,-14,-14,-13,14216,13,-5,383,112,35374,-143,35,127,0,0,3812,0,0,1784,449,111,9609,-4,0,-20,0,255208,0
255227,67,-2039,220,-10,-5,-16,14227,37,8,378,112,35382,-140,35,127,0,0,3814,21,0,1784,449,111,9619,-4,0,-20,0,255240,0
255237,73,-2041,221,-14,-14,-5,14254,59,43,266,88,35386,-138,35,127,0,0,3814,10,0,1784,449,111,9629,-4,0,-20,0,255240,0
255247,91,-2039,226,-17,-11,-15,14256,-18,-18,254,80,35394,-123,35,127,0,0,3814,-10,0,1784,449,111,9639,-4,0,-20,0,255240,0
255257,47,-2046,220,-18,-2,-8,14258,24,-49,282,72,35398,-134,35,127,0,0,3814,-21,0,1784,449,111,9649,-4,0,-20,0,255240,0
255267,72,-2045,229,-12,-3,-18,14257,0,3,344,48,35406,-151,35,127,0,0,3816,-10,0,1784,449,111,9659,-4,0,-20,0,255240,0
255277,69,-2040,225,-20,-15,-20,14257,-10,-5,361,120,35412,-160,35,127,0,0,3816,-10,0,1784,449,111,9669,-4,0,-20,0,255333,0
255287,67,-2042,228,-24,-8,-21,14258,-6,-1,328,128,35398,-121,35,127,0,0,3818,32,0,1784,449,111,9679,-4,0,-20,0,255333,0
255297,67,-2041,231,-23,-9,-23,14260,-6,3,380,112,35389,-108,35,127,0,0,3818,10,0,1784,449,111,9689,-4,0,-20,0,255333,0
255307,61,-2040,229,-28,-17,-32,14261,1,-1,407,112,35381,-122,34,127,0,0,3821,32,0,1784,449,111,9699,-4,0,-20,0,255333,0
255317,71,-2037,225,-31,-15,-41,14262,4,-2,439,96,35382,-142,35,127,0,0,3818,0,0,1784,449,111,9709,-4,0,-20,0,255333,0
255327,67,-2045,224,-28,-7,-43,14264,6,4,450,128,35382,-143,34,127,0,0,3818,-43,0,1784,449,111,9719,-4,0,-20,0,255349,0
255337,40,-2044,217,-28,-13,-44,14263,4,-3,395,112,35378,-148,34,127,0,0,3821,10,0,1784,449,111,9729,-4,0,-20,0,255349,0
255347,73,-2039,222,-34,-12,-48,14265,-3,4,410,144,35379,-138,35,127,0,0,3818,10,0,1784,449,111,9739,-4,0,-20,0,255349,0
255357,62,-2044,222,-27,-4,-52,14264,4,-2,383,152,35383,-170,34,127,0,0,3823,43,0,1784,449,111,9749,-4,0,-20,0,255349,0
255367,53,-2045,224,-30,-8,-47,14266,8,1,440,128,35390,-155,35,127,0,0,3821,21,0,1784,449,111,9759,-4,0,-20,0,255349,0
255377,68,-2042,225,-37,-8,-56,14265,-4,-5,429,144,35406,-154,35,127,0,0,3821,10,0,1784,449,111,9769,-4,0,-20,0,255349,0
255387,78,-2046,222,-31,-15,-58,14266,-4,-3,431,128,35402,-153,35,127,0,0,3821,10,0,1784,449,111,9779,-4,0,-20,0,255411,0
255397,57,-2043,220,-33,-14,-51,14265,1,0,413,104,35401,-138,35,127,0,0,3818,-10,0,1784,449,111,9789,-4,0,-20,0,255411,0
255407,76,-2043,225,-38,-19,-53,14265,-2,0,396,104,35385,-147,35,127,0,0,3821,32,0,1784,449,111,9799,-4,0,-20,0,255411,0
255417,100,-2038,219,-35,-12,-63,14266,0,2,413,128,35376,-115,35,127,0,0,3818,10,0,1784,449,111,9809,-4,0,-20,0,255411,0
255427,84,-2042,221,-36,-4,-63,14265,1,3,377,184,35372,-122,35,127,0,0,3821,21,0,1784,449,111,9819,-4,0,-20,0,255411,0
255437,93,-2038,220,-37,-9,-60,14266,0,1,414,128,35375,-146,35,127,0,0,3823,32,0,1784,449,111,9829,-4,0,-20,0,255427,0
255447,65,-2044,227,-30,-11,-52,14267,11,-3,442,128,35391,-150,35,127,0,0,3821,-10,0,1784,449,111,9839,-4,0,-20,0,255427,0
255457,75,-2031,217,-29,-10,-58,14266,-5,-11,423,128,35384,-148,34,127,0,0,3816,-21,0,1784,449,111,9849,-4,0,-20,0,255443,0
255467,97,-2044,220,-35,-11,-54,14266,-7,-2,378,104,35383,-119,35,127,0,0,3818,-10,0,1784,449,111,9859,-4,0,-20,0,255443,0
255477,88,-2041,225,-38,-17,-50,14267,0,-1,413,128,35380,-119,35,127,0,0,3818,0,0,1784,449,111,9869,-4,0,-20,0,255458,0
255487,86,-2041,219,-32,-13,-57,14266,-7,2,396,136,35386,-138,34,127,0,0,3818,10,0,1784,449,111,9879,-4,0,-20,0,255474,0
255497,72,-2040,225,-34,-15,-51,14266,-2,-7,389,136,35389,-152,35,127,0,0,3818,0,0,1784,449,111,9889,-4,0,-20,0,255474,0
255507,77,-2037,225,-34,-12,-54,14266,0,-2,353,112,35383,-153,34,127,0,0,3818,10,0,1784,449,111,9899,-4,0,-20,0,255489,0
255517,80,-2040,222,-33,-16,-51,14267,6,1,403,88,35384,-131,35,127,0,0,3818,-21,0,1784,449,111,9909,-4,0,-20,0,255505,0
255527,52,-2045,217,-32,-12,-49,14264,-5,-4,357,104,35382,-151,34,127,0,0,3818,21,0,1784,449,111,9919,-4,0,-20,0,255505,0
255537,80,-2043,219,-31,-4,-48,14267,-9,4,377,104,35380,-141,35,127,0,0,3816,-21,0,1784,449,111,9929,-4,0,-20,0,255505,0
255547,83,-2045,225,-31,-9,-47,14264,-6,4,333,120,35371,-103,34,127,0,0,3821,21,0,1784,449,111,9939,-4,0,-20,0,255536,0
255557,94,-2042,224,-23,-8,-44,14266,1,-3,353,104,35372,-101,34,127,0,0,3818,21,0,1784,449,111,9949,-4,0,-20,0,255536,0
255567,81,-2042,223,-30,-10,-44,14265,-6,7,355,120,35375,-123,35,127,0,0,3818,10,0,1784,449,111,9959,-4,0,-20,0,255536,0
255577,83,-2040,227,-31,-7,-40,14269,12,1,414,88,35383,-157,34,127,0,0,3818,-21,0,1784,449,111,9969,-4,0,-20,0,255568,0
255587,72,-2040,232,-26,-1,-40,14266,-1,6,410,104,35377,-144,35,127,0,0,3821,10,0,1784,449,111,9979,-4,0,-20,0,255568,0
255597,108,-2036,229,-30,-2,-41,14268,-1,-2,402,96,35381,-131,35,127,0,0,3818,10,0,1784,449,111,9989,-4,0,-20,0,255568,0
255607,96,-2035,230,-29,-4,-36,14267,1,6,394,104,35385,-158,35,127,0,0,3818,-10,0,1784,449,111,9999,-4,0,-20,0,255599,0
255617,70,-2039,228,-29,-5,-33,14265,-1,-4,339,104,35394,-160,35,127,0,0,3816,-10,0,1784,449,111,10009,-4,0,-20,0,255614,0
255627,86,-2040,219,-22,-3,-37,14265,2,-1,323,144,35386,-148,34,127,0,0,3818,21,0,1784,449,111,10019,-4,0,-20,0,255614,0
255637,55,-2042,228,-29,-9,-34,14266,-1,3,353,112,35369,-145,34,127,0,0,3816,-21,0,1784,449,111,10029,-4,0,-20,0,255614,0
255647,89,-2030,226,-27,-4,-35,14265,-2,-2,369,104,35378,-136,35,127,0,0,3816,-21,0,1784,449,111,10039,-4,0,-20,0,255614,0
255657,44,-2042,239,-29,-8,-30,14266,3,-7,366,104,35385,-162,34,127,0,0,3821,10,0,1784,449,111,10049,-4,0,-20,0,255708,0
255667,68,-2046,246,-31,-13,-25,14268,-3,3,407,96,35387,-168,35,127,0,0,3818,0,0,1784,449,111,10059,-4,0,-20,0,255708,0
255677,70,-2049,229,-34,-6,-39,14264,-9,-5,332,80,35378,-168,35,127,0,0,3818,32,0,1784,449,111,10069,-4,0,-20,0,255724,0
255687,71,-2046,230,-36,-7,-42,14269,18,6,384,96,35376,-159,35,127,0,0,3816,-54,0,1784,449,111,10079,-4,0,-20,0,255724,0
255697,37,-2045,240,-40,-11,-34,14264,0,-3,330,120,35385,-164,35,127,0,0,3818,10,0,1784,449,111,10089,-4,0,-20,0,255724,0
255707,66,-2040,243,-46,-16,-39,14266,1,2,340,112,35393,-164,35,127,0,0,3816,-10,0,1784,449,111,10099,-4,0,-20,0,255724,0
255717,43,-2050,232,-43,-14,-53,14266,6,2,338,112,35388,-158,34,127,0,0,3816,-21,0,1784,449,111,10109,-4,0,-20,0,255724,0
255727,49,-2036,223,-44,-17,-58,14265,3,-7,317,72,35383,-155,34,127,0,0,3816,0,0,1784,449,111,10119,-4,0,-20,0,255724,0
255737,45,-2038,239,-56,-24,-72,14265,4,1,378,88,35384,-168,35,127,0,0,3816,-43,0,1784,449,111,10129,-4,0,-20,0,255724,0
255747,53,-2043,229,-56,-17,-88,14264,-13,-10,309,88,35393,-160,35,127,0,0,3816,-21,0,1784,449,111,10139,-4,0,-20,0,255724,0
255757,52,-2029,225,-57,-12,-97,14265,7,1,318,48,35398,-124,35,127,0,0,3814,-54,0,1784,449,111,10149,-4,0,-20,0,255739,0
255767,59,-2037,226,-58,3,-125,14261,-1,-3,217,48,35422,-98,35,127,0,0,3812,-21,0,1784,449,111,10159,-4,0,-20,0,255755,0
255777,77,-2035,232,-56,-5,-114,14261,3,-2,146,56,35422,-124,34,127,0,0,3807,-43,0,1784,449,111,10169,-4,0,-20,0,255755,0
255787,82,-2029,234,-61,0,-119,14253,-24,-1,34,-24,35419,-145,35,127,0,0,3805,-21,0,1784,449,111,10179,-4,0,-20,0,255786,0
255797,76,-2046,226,-69,-11,-115,14253,-4,-8,-40,-8,35386,-148,34,127,0,0,3805,-21,0,1784,449,111,10189,-4,0,-20,0,255786,0
255807,85,-2040,227,-62,-10,-115,14249,-7,7,-126,-64,35373,-134,34,127,0,0,3801,-32,0,1784,449,111,10199,-4,0,-20,0,255786,0
255817,77,-2039,232,-65,-2,-111,14243,-9,-8,-194,-40,35375,-137,35,127,0,0,3801,0,0,1784,449,111,10209,-4,0,-20,0,255802,0
255827,85,-2046,225,-68,-10,-94,14244,-13,10,-241,-24,35392,-159,34,127,0,0,3799,0,0,1784,449,111,10219,-4,0,-20,0,255833,0
255837,74,-2036,217,-70,-13,-93,14241,4,2,-229,-104,35389,-157,35,127,0,0,3796,-43,0,1784,449,111,10229,-4,0,-20,0,255833,0
255847,86,-2042,216,-64,-5,-100,14235,-25,-11,-326,-64,35387,-143,35,127,0,0,3796,0,0,1784,449,111,10239,-4,0,-20,0,255849,0
255857,65,-2046,220,-59,-6,-96,14230,-7,-8,-315,-48,35380,-131,35,127,0,0,3794,-21,0,1784,449,111,10249,-4,0,-20,0,255849,0
255867,79,-2040,227,-56,-12,-102,14228,-12,4,-343,-64,35383,-148,35,127,0,0,3792,-43,0,1784,449,111,10259,-4,0,-20,0,255849,0
255877,87,-2036,230,-64,-9,-99,14211,-54,-27,-292,-120,35392,-156,35,127,0,0,3790,-21,0,1784,449,111,10269,-4,0,-20,0,255849,0
255887,76,-2037,228,-55,-6,-106,14185,-44,-43,-179,-40,35401,-115,35,127,0,0,3785,-43,0,1784,449,111,10279,-4,0,-20,0,255896,0
255897,111,-2040,236,-59,-10,-94,14184,-5,35,-294,-64,35400,-110,35,127,0,0,3785,-32,0,1784,449,111,10289,-4,0,-20,0,255896,0
255907,99,-2041,239,-61,-16,-95,14181,-7,44,-334,-80,35404,-110,35,127,0,0,3783,-21,0,1784,449,111,10299,-4,0,-20,0,255896,0
255917,86,-2045,221,-64,-12,-98,14177,-16,-11,-380,-128,35402,-137,34,127,0,0,3783,-10,0,1784,449,111,10309,-4,0,-20,0,255896,0
255927,82,-2046,226,-57,-11,-94,14171,2,-3,-351,-88,35398,-115,34,127,0,0,3781,-21,0,1784,449,111,10319,-4,0,-20,0,255896,0
255937,103,-2043,229,-61,-8,-85,14171,-9,8,-418,-136,35397,-101,35,127,0,0,3779,-21,0,1784,449,111,10329,-4,0,-20,0,255943,0
255947,88,-2043,217,-56,-6,-85,14154,-42,-19,-414,-120,35402,-122,35,127,0,0,3774,-43,0,1784,449,111,10339,-4,0,-20,0,255943,0
255957,81,-2042,212,-62,-9,-78,14124,-64,-54,-253,-104,35406,-135,35,127,0,0,3777,-10,0,1784,449,111,10349,-4,0,-20,0,255943,0
255967,74,-2043,224,-57,-4,-76,14121,23,18,-208,-88,35391,-113,34,127,0,0,3774,-32,0,1784,449,111,10359,-4,0,-20,0,255943,0
255977,91,-2037,230,-62,-12,-69,14119,-13,65,-281,-72,35390,-102,34,127,0,0,3774,0,0,1784,449,111,10369,-4,0,-20,0,255958,0
255987,83,-2047,226,-69,-10,-66,14122,10,10,-261,-72,35405,-93,35,127,0,0,3774,-21,0,1784,449,111,10379,-4,0,-20,0,255989,0
255997,65,-2036,222,-63,-5,-73,14119,1,3,-268,-72,35409,-120,34,127,0,0,3774,0,0,1784,449,111,10389,-4,0,-20,0,255989,0
256007,97,-2038,233,-63,-9,-71,14119,-7,-5,-278,-72,35406,-105,35,127,0,0,3774,0,0,1784,449,111,10399,-4,0,-20,0,255989,0
256017,68,-2041,227,-77,-6,-74,14120,1,6,-299,-96,35390,-90,35,127,0,0,3772,-32,0,1784,449,111,10409,-4,0,-20,0,255989,0
256027,78,-2043,233,-80,-3,-81,14114,-6,-13,-344,-72,35390,-79,35,127,0,0,3770,-10,0,1784,449,111,10419,-4,0,-20,0,256005,0
256037,99,-2039,231,-79,-7,-77,14114,0,4,-368,-112,35398,-82,35,127,0,0,3770,10,0,1784,449,111,10429,-4,0,-20,0,256005,0
256047,95,-2040,219,-85,-6,-76,14114,-6,4,-360,-104,35404,-99,35,127,0,0,3768,-32,0,1784,449,111,10439,-4,0,-20,0,256021,0
256057,92,-2054,216,-85,-4,-72,14111,-4,-5,-396,-128,35393,-83,35,127,0,0,3770,10,0,1784,449,111,10449,-4,0,-20,0,256036,0
256067,92,-2050,212,-79,-6,-70,14108,-7,-6,-396,-120,35387,-86,35,127,0,0,3768,0,0,1784,449,111,10459,-4,0,-20,0,256052,0
256077,94,-2043,208,-78,-9,-65,14103,-7,-5,-365,-104,35382,-82,34,127,0,0,3768,-10,0,1784,449,111,10469,-4,0,-20,0,256052,0
256087,98,-2041,214,-79,-7,-64,14094,-28,-16,-365,-88,35386,-78,34,127,0,0,3763,-43,0,1784,449,111,10479,-4,0,-20,0,256099,0
256097,82,-2044,210,-73,-9,-52,14076,-40,-24,-281,-96,35391,-93,35,127,0,0,3766,-32,0,1784,449,111,10489,-4,0,-20,0,256099,0
256107,94,-2037,207,-69,-6,-50,14064,-12,-7,-214,-56,35389,-104,35,127,0,0,3766,0,0,1784,449,111,10499,-4,0,-20,0,256099,0
256117,100,-2046,214,-69,-7,-34,14068,4,50,-223,-104,35389,-108,34,127,0,0,3766,-21,0,1784,449,111,10509,-4,0,-20,0,256099,0
256127,78,-2042,220,-66,-7,-26,14065,4,12,-226,-24,35390,-109,35,127,0,0,3768,54,0,1784,449,111,10519,-4,0,-20,0,256099,0
256137,111,-2037,217,-70,-4,-35,14067,-5,0,-186,-40,35392,-93,35,127,0,0,3766,0,0,1784,449,111,10529,-4,0,-20,0,256146,0
256147,111,-2034,216,-63,4,-30,14066,0,1,-202,-24,35392,-100,35,127,0,0,3766,-10,0,1784,449,111,10539,-4,0,-20,0,256146,0
256157,77,-2036,218,-60,-2,-24,14066,-5,-2,-187,-32,35392,-95,35,127,0,0,3768,21,0,1784,449,111,10549,-4,0,-20,0,256146,0
256167,87,-2037,219,-59,-4,-26,14069,3,4,-133,-8,35386,-114,34,127,0,0,3768,-21,0,1784,449,111,10559,-4,0,-20,0,256146,0
256177,77,-2044,217,-63,-3,-19,14067,0,1,-134,-40,35388,-105,35,127,0,0,3768,-21,0,1784,449,111,10569,-4,0,-20,0,256146,0
256187,81,-2034,210,-62,-5,-22,14069,3,-2,-134,-40,35394,-92,34,127,0,0,3770,0,0,1784,449,111,10579,-4,0,-20,0,256177,0
256197,97,-2036,213,-53,-2,-15,14070,13,7,-78,-24,35393,-96,34,127,0,0,3768,-21,0,1784,449,111,10589,-4,0,-20,0,256177,0
256207,92,-2039,217,-53,0,-18,14068,5,-2,-96,-16,35401,-100,35,127,0,0,3770,0,0,1784,449,111,10599,-4,0,-20,0,256177,0
256217,90,-2044,211,-54,-8,-10,14070,0,-3,-109,-8,35387,-103,34,127,0,0,3768,-21,0,1784,449,111,10609,-4,0,-20,0,256208,0
256227,100,-2036,208,-48,-5,-1,14070,10,5,-102,-16,35384,-91,35,127,0,0,3770,0,0,1784,449,111,10619,-4,0,-20,0,256208,0
256237,97,-2041,204,-49,-10,12,14068,-11,-1,-76,56,35382,-87,35,127,0,0,3772,21,0,1784,449,111,10629,-4,0,-20,0,256208,0
256247,99,-2038,204,-49,-23,20,14070,-5,-3,-79,48,35389,-108,35,127,0,0,3772,43,0,1784,449,111,10639,-4,0,-20,0,256224,0
256257,95,-2039,202,-42,-23,29,14073,0,4,11,24,35392,-95,34,127,0,0,3777,43,0,1784,449,111,10649,-4,0,-20,0,256271,0
256267,71,-2048,205,-40,-14,22,14076,16,-1,70,88,35389,-100,34,127,0,0,3777,21,0,1784,449,111,10659,-4,0,-20,0,256271,0
256277,73,-2042,204,-30,-14,25,14081,19,10,164,88,35379,-108,34,127,0,0,3779,0,0,1784,449,111,10669,-4,0,-20,0,256271,0
256287,94,-2040,211,-26,-15,19,14094,27,20,184,48,35381,-109,34,127,0,0,3781,-21,0,1784,449,111,10679,-4,0,-20,0,256271,0
256297,72,-2045,215,-24,-15,27,14109,34,17,144,40,35384,-111,35,127,0,0,3785,32,0,1784,449,111,10689,-4,0,-20,0,256271,0
256307,76,-2039,211,-18,-21,31,14127,30,7,136,32,35395,-107,35,127,0,0,3788,21,0,1784,449,111,10699,-4,0,-20,0,256286,0
256317,68,-2042,211,-18,-10,16,14125,-6,-36,198,80,35388,-120,35,127,0,0,3790,32,0,1784,449,111,10709,-4,0,-20,0,256317,0
256327,85,-2038,213,-19,-14,23,14134,20,-14,267,48,35391,-101,35,127,0,0,3790,-32,0,1784,449,111,10719,-4,0,-20,0,256317,0
256337,67,-2046,218,-21,-7,10,14134,4,3,283,160,35386,-114,35,127,0,0,3792,10,0,1784,449,111,10729,-4,0,-20,0,256317,0
256347,81,-2033,219,-23,-12,15,14143,19,5,318,128,35393,-98,35,127,0,0,3796,10,0,1784,449,111,10739,-4,0,-20,0,256349,0
256357,77,-2043,224,-14,-11,15,14149,11,14,334,104,35383,-83,34,127,0,0,3801,76,0,1784,449,111,10749,-4,0,-20,0,256349,0
256367,52,-2041,215,-16,-15,6,14161,34,8,361,104,35380,-81,34,127,0,0,3799,21,0,1784,449,111,10759,-4,0,-20,0,256364,0
256377,72,-2039,225,-18,-21,9,14189,66,39,208,72,35378,-94,35,127,0,0,3801,0,0,1784,449,111,10769,-4,0,-20,0,256364,0
256387,72,-2036,222,-25,-20,-2,14194,-18,-16,212,96,35388,-120,34,127,0,0,3801,0,0,1784,449,111,10779,-4,0,-20,0,256364,0
256397,26,-2047,221,-20,-9,-18,14197,12,-58,269,80,35387,-111,34,127,0,0,3803,-21,0,1784,449,111,10789,-4,0,-20,0,256380,0
256407,60,-2037,234,-22,-13,-31,14197,0,-11,306,104,35384,-77,35,127,0,0,3803,0,0,1784,449,111,10799,-4,0,-20,0,256427,0
256417,47,-2044,229,-23,-10,-42,14199,2,2,261,88,35383,-92,34,127,0,0,3803,-10,0,1784,449,111,10809,-4,0,-20,0,256442,0
256427,50,-2033,221,-29,-1,-48,14198,9,-3,262,72,35385,-88,35,127,0,0,3803,0,0,1784,449,111,10819,-4,0,-20,0,256442,0
256437,50,-2038,223,-28,-2,-59,14198,2,-1,319,96,35381,-108,35,127,0,0,3803,-21,0,1784,449,111,10829,-4,0,-20,0,256442,0
256447,80,-2050,233,-32,-7,-61,14199,-5,3,299,72,35374,-115,35,127,0,0,3803,-43,0,1784,449,111,10839,-4,0,-20,0,256458,0
256457,64,-2047,233,-31,-7,-59,14200,7,-3,306,96,35370,-124,35,127,0,0,3803,-21,0,1784,449,111,10849,-4,0,-20,0,256458,0
256467,77,-2051,231,-31,-2,-70,14199,-4,-2,309,96,35374,-146,35,127,0,0,3803,-21,0,1784,449,111,10859,-4,0,-20,0,256458,0
256477,64,-2039,224,-34,-6,-72,14199,-6,-3,269,72,35389,-138,34,127,0,0,3803,0,0,1784,449,111,10869,-4,0,-20,0,256458,0
256487,71,-2043,232,-35,-5,-71,14199,0,-2,245,72,35395,-106,34,127,0,0,3803,21,0,1784,449,111,10879,-4,0,-20,0,256458,0
256497,87,-2048,231,-42,-10,-79,14199,-4,5,240,72,35395,-94,35,127,0,0,3803,32,0,1784,449,111,10889,-4,0,-20,0,256505,0
256507,88,-2040,223,-49,-13,-78,14200,-1,1,265,40,35396,-108,34,127,0,0,3803,0,0,1784,449,111,10899,-4,0,-20,0,256536,0
256517,87,-2036,220,-49,-13,-80,14198,-1,-6,213,48,35395,-144,35,127,0,0,3801,10,0,1784,449,111,10909,-4,0,-20,0,256536,0
256527,88,-2033,220,-46,-9,-81,14198,-9,-2,185,48,35378,-141,34,127,0,0,3801,10,0,1784,449,111,10919,-4,0,-20,0,256536,0
256537,74,-2039,226,-51,-10,-89,14199,1,2,223,88,35383,-145,34,127,0,0,3801,-10,0,1784,449,111,10929,-4,0,-20,0,256552,0
256547,72,-2036,226,-52,0,-92,14197,-11,-4,208,56,35395,-143,35,127,0,0,3801,0,0,1784,449,111,10939,-4,0,-20,0,256552,0
256557,73,-2036,233,-50,5,-103,14199,7,-1,197,48,35409,-140,34,127,0,0,3801,-10,0,1784,449,111,10949,-4,0,-20,0,256552,0
256567,65,-2038,232,-56,2,-117,14196,-2,0,149,32,35404,-134,35,127,0,0,3796,-54,0,1784,449,111,10959,-4,0,-20,0,256552,0
256577,69,-2037,230,-65,1,-120,14192,-7,-10,59,16,35392,-123,35,127,0,0,3796,0,0,1784,449,111,10969,-4,0,-20,0,256552,0
256587,70,-2043,224,-70,-5,-112,14192,-5,2,29,-16,35381,-121,35,127,0,0,3792,-32,0,1784,449,111,10979,-4,0,-20,0,256567,0
256597,66,-2042,230,-71,3,-134,14186,-24,-2,-76,-16,35381,-104,35,127,0,0,3792,0,0,1784,449,111,10989,-4,0,-20,0,256599,0
256607,49,-2041,223,-73,-5,-136,14186,-3,-5,-122,-80,35381,-105,35,127,0,0,3788,-32,0,1784,449,111,10999,-4,0,-20,0,256599,0
256617,60,-2035,225,-79,5,-157,14175,-23,-16,-205,-80,35374,-130,34,127,0,0,3783,-32,0,1784,449,111,11009,-4,0,-20,0,256599,0
256627,87,-2050,229,-82,-1,-156,14166,-17,-15,-317,-56,35385,-129,35,127,0,0,3781,-10,0,1784,449,111,11019,-4,0,-20,0,256599,0
256637,87,-2035,224,-95,-5,-154,14147,-56,-13,-261,-56,35388,-145,34,127,0,0,3774,-98,0,1784,449,111,11029,-4,0,-20,0,256630,0
256647,92,-2043,221,-81,1,-171,14119,-56,-41,-188,-80,35387,-118,35,127,0,0,3772,-54,0,1784,449,111,11039,-4,0,-20,0,256630,0
256657,110,-2049,222,-80,-7,-154,14112,-5,21,-325,-32,35384,-104,35,127,0,0,3772,0,0,1784,449,111,11049,-4,0,-20,0,256630,0
256667,102,-2043,226,-85,-21,-143,14112,-11,55,-370,-96,35374,-95,35,127,0,0,3768,-21,0,1784,449,111,11059,-4,0,-20,0,256677,0
256677,89,-2043,220,-90,-20,-139,14102,-29,-8,-408,-96,35377,-91,35,127,0,0,3766,-21,0,1784,449,111,11069,-4,0,-20,0,256677,0
256687,106,-2043,208,-88,-15,-134,14080,-55,-33,-330,-112,35376,-110,35,127,0,0,3763,-32,0,1784,449,111,11079,-4,0,-20,0,256677,0
256697,85,-2041,202,-85,-7,-136,14056,-35,-29,-268,-88,35369,-89,35,127,0,0,3759,-54,0,1784,449,111,11089,-4,0,-20,0,256677,0
256707,142,-2030,202,-90,-22,-109,14058,0,46,-386,-184,35370,-87,35,127,0,0,3757,-32,0,1784,449,111,11099,-4,0,-20,0,256677,0
256717,103,-2037,201,-80,-22,-97,14053,-5,31,-402,-160,35373,-87,35,127,0,0,3755,-54,0,1784,449,111,11109,-4,0,-20,0,256708,0
256727,112,-2036,197,-72,-23,-88,14049,-10,-5,-484,-176,35378,-81,35,127,0,0,3752,-32,0,1784,449,111,11119,-4,0,-20,0,256708,0
256737,124,-2040,209,-63,-24,-73,14042,-24,-6,-518,-152,35374,-77,35,127,0,0,3752,10,0,1784,449,111,11129,-4,0,-20,0,256708,0
256747,115,-2044,208,-65,-35,-54,14030,-35,-15,-513,-128,35374,-70,35,127,0,0,3750,10,0,1784,449,111,11139,-4,0,-20,0,256802,0
256757,105,-2039,189,-51,-26,-52,14014,-34,-16,-383,-104,35379,-84,35,127,0,0,3752,10,0,1784,449,111,11149,-4,0,-20,0,256802,0
256767,87,-2038,182,-47,-19,-51,14004,-19,-6,-345,-64,35388,-92,35,127,0,0,3752,32,0,1784,449,111,11159,-4,0,-20,0,256802,0
256777,120,-2041,189,-30,-19,-46,14006,1,36,-323,-80,35386,-80,34,127,0,0,3750,-10,0,1784,449,111,11169,-4,0,-20,0,256817,0
256787,98,-2039,190,-27,-16,-46,14002,-3,12,-365,-96,35378,-92,34,127,0,0,3750,0,0,1784,449,111,11179,-4,0,-20,0,256817,0
256797,100,-2046,203,-15,-15,-42,14004,4,-5,-330,-120,35378,-87,35,127,0,0,3750,-21,0,1784,449,111,11189,-4,0,-20,0,256817,0
256807,78,-2038,214,-10,-16,-44,14001,-7,0,-337,-72,35384,-114,34,127,0,0,3750,-21,0,1784,449,111,11199,-4,0,-20,0,256817,0
256817,94,-2043,210,-16,-17,-33,14001,-7,0,-384,-64,35385,-109,35,127,0,0,3748,-21,0,1784,449,111,11209,-4,0,-20,0,256817,0
256827,128,-2042,220,-13,-8,-34,14003,2,0,-353,-72,35380,-96,34,127,0,0,3752,10,0,1784,449,111,11219,-4,0,-20,0,256817,0
256837,96,-2037,212,-10,-15,-23,14003,-7,3,-316,-112,35381,-98,34,127,0,0,3750,0,0,1784,449,111,11229,-4,0,-20,0,256817,0
256847,99,-2041,209,-3,-13,-28,14004,9,-4,-309,-104,35396,-93,35,127,0,0,3750,-32,0,1784,449,111,11239,-4,0,-20,0,256817,0
256857,75,-2041,209,2,-10,-20,14003,4,-4,-328,-64,35408,-111,35,127,0,0,3752,0,0,1784,449,111,11249,-4,0,-20,0,256849,0
256867,84,-2044,209,7,-10,-23,14002,-3,5,-333,-64,35403,-93,35,127,0,0,3752,0,0,1784,449,111,11259,-4,0,-20,0,256849,0
256877,77,-2041,210,7,-15,-16,14005,14,10,-293,-80,35398,-107,35,127,0,0,3750,-32,0,1784,449,111,11269,-4,0,-20,0,256849,0
256887,81,-2045,213,5,-10,-32,14002,0,-5,-306,-72,35396,-106,34,127,0,0,3752,-10,0,1784,449,111,11279,-4,0,-20,0,256880,0
256897,73,-2046,211,14,-8,-30,14005,4,4,-263,-56,35397,-99,35,127,0,0,3752,-32,0,1784,449,111,11289,-4,0,-20,0,256880,0
256907,96,-2046,216,15,-9,-37,14003,2,1,-254,-48,35395,-84,35,127,0,0,3752,-21,0,1784,449,111,11299,-4,0,-20,0,256880,0
256917,96,-2037,225,11,-3,-39,14001,-18,-6,-284,0,35376,-77,35,127,0,0,3755,43,0,1784,449,111,11309,-4,0,-20,0,256911,0
256927,118,-2033,229,4,-15,-35,14007,2,4,-201,-32,35384,-68,34,127,0,0,3757,0,0,1784,449,111,11319,-4,0,-20,0,256911,0
256937,99,-2038,228,3,-12,-39,14004,-7,-7,-201,-16,35388,-97,35,127,0,0,3757,32,0,1784,449,111,11329,-4,0,-20,0,256911,0
256947,108,-2043,226,0,-11,-41,14007,-1,-10,-186,0,35392,-105,34,127,0,0,3759,21,0,1784,449,111,11339,-4,0,-20,0,256927,0
256957,101,-2044,240,-11,-21,-44,14005,-10,3,-147,0,35393,-101,34,127,0,0,3759,21,0,1784,449,111,11349,-4,0,-20,0,256958,0
256967,89,-2044,245,-13,-18,-36,14007,-7,-4,-148,0,35395,-85,35,127,0,0,3757,0,0,1784,449,111,11359,-4,0,-20,0,256958,0
256977,76,-2032,227,-17,-13,-52,14009,7,-4,-138,-8,35404,-109,34,127,0,0,3757,-10,0,1784,449,111,11369,-4,0,-20,0,256958,0
256987,80,-2043,226,-16,-10,-60,14006,-5,1,-144,0,35392,-107,35,127,0,0,3759,0,0,1784,449,111,11379,-4,0,-20,0,256958,0
256997,73,-2036,232,-19,-12,-66,14010,7,-1,-79,-16,35402,-95,35,127,0,0,3757,-21,0,1784,449,111,11389,-4,0,-20,0,256989,0
257007,97,-2036,230,-21,-11,-66,14006,-17,-10,-154,-32,35403,-94,35,127,0,0,3757,0,0,1784,449,111,11399,-4,0,-20,0,256989,0
257017,107,-2042,227,-33,-15,-70,14006,1,-5,-195,-40,35405,-121,35,127,0,0,3755,0,0,1784,449,111,11409,-4,0,-20,0,256989,0
257027,100,-2040,231,-30,-13,-70,14005,-7,7,-210,-24,35408,-135,35,127,0,0,3755,21,0,1784,449,111,11419,-4,0,-20,0,257036,0
257037,106,-2037,240,-35,-18,-75,14008,-3,-1,-162,-48,35394,-108,35,127,0,0,3757,10,0,1784,449,111,11429,-4,0,-20,0,257036,0
257047,83,-2049,232,-40,-17,-62,14006,-8,-6,-207,-16,35389,-100,35,127,0,0,3755,21,0,1784,449,111,11439,-4,0,-20,0,257036,0
257057,109,-2039,229,-40,-14,-69,14006,-1,-4,-194,-32,35389,-107,35,127,0,0,3755,0,0,1784,449,111,11449,-4,0,-20,0,257067,0
257067,107,-2040,218,-44,-16,-68,14006,1,-1,-214,-24,35396,-98,35,127,0,0,3755,0,0,1784,449,111,11459,-4,0,-20,0,257067,0
257077,71,-2043,217,-37,-13,-63,14009,5,-1,-134,-80,35400,-92,34,127,0,0,3755,-54,0,1784,449,111,11469,-4,0,-20,0,257067,0
257087,82,-2043,234,-37,-16,-65,14006,-1,-6,-179,-64,35395,-69,35,127,0,0,3755,-32,0,1784,449,111,11479,-4,0,-20,0,257067,0
257097,99,-2042,223,-35,-9,-67,14007,2,-2,-206,-32,35395,-68,35,127,0,0,3757,21,0,1784,449,111,11489,-4,0,-20,0,257083,0
257107,102,-2041,217,-38,-10,-67,14006,-5,5,-185,-32,35398,-78,34,127,0,0,3757,-10,0,1784,449,111,11499,-4,0,-20,0,257083,0
257117,109,-2036,229,-40,-12,-73,14004,-12,-6,-208,-64,35404,-95,34,127,0,0,3755,21,0,1784,449,111,11509,-4,0,-20,0,257177,0
257127,109,-2040,232,-41,-9,-62,14005,-7,-1,-218,-104,35395,-94,34,127,0,0,3755,10,0,1784,449,111,11519,-4,0,-20,0,257177,0
257137,105,-2038,239,-45,-13,-57,14006,1,5,-251,-48,35389,-94,35,127,0,0,3755,0,0,1784,449,111,11529,-4,0,-20,0,257177,0
257147,92,-2045,241,-56,-12,-57,14004,2,2,-260,-56,35388,-96,35,127,0,0,3755,21,0,1784,449,111,11539,-4,0,-20,0,257192,0
257157,101,-2044,243,-59,-14,-55,14005,-4,-3,-269,-32,35389,-104,35,127,0,0,3752,0,0,1784,449,111,11549,-4,0,-20,0,257192,0
257167,94,-2043,236,-66,-15,-61,14004,0,-2,-295,-8,35383,-104,34,127,0,0,3752,0,0,1784,449,111,11559,-4,0,-20,0,257192,0
257177,84,-2044,238,-68,-18,-71,14003,-7,-3,-318,-72,35377,-103,35,127,0,0,3755,21,0,1784,449,111,11569,-4,0,-20,0,257192,0
257187,68,-2043,224,-62,-13,-74,14004,3,-2,-288,-80,35380,-105,35,127,0,0,3750,-21,0,1784,449,111,11579,-4,0,-20,0,257192,0
257197,79,-2033,202,-65,-14,-93,14000,-10,-4,-366,-48,35387,-105,35,127,0,0,3748,-10,0,1784,449,111,11589,-4,0,-20,0,257192,0
257207,90,-2044,205,-57,-13,-97,14001,2,-5,-374,-128,35387,-91,35,127,0,0,3748,-32,0,1784,449,111,11599,-4,0,-20,0,257192,0
257217,85,-2046,219,-54,-3,-105,13998,-1,0,-382,-112,35383,-78,35,127,0,0,3746,-43,0,1784,449,111,11609,-4,0,-20,0,257192,0
257227,113,-2037,223,-53,-3,-100,13995,-16,-5,-485,-152,35398,-85,34,127,0,0,3746,0,0,1784,449,111,11619,-4,0,-20,0,257208,0
257237,115,-2042,219,-50,-8,-101,13990,-5,-8,-480,-136,35403,-99,35,127,0,0,3741,-10,0,1784,449,111,11629,-4,0,-20,0,257239,0
257247,121,-2041,221,-52,-5,-99,13987,-4,1,-538,-128,35400,-95,34,127,0,0,3739,-43,0,1784,449,111,11639,-4,0,-20,0,257239,0
257257,119,-2055,225,-47,-6,-84,13983,-10,2,-546,-152,35384,-104,34,127,0,0,3741,-10,0,1784,449,111,11649,-4,0,-20,0,257239,0
257267,123,-2043,227,-49,-11,-82,13980,-1,1,-561,-168,35381,-93,35,127,0,0,3739,-21,0,1784,449,111,11659,-4,0,-20,0,257239,0
257277,118,-2043,215,-48,-9,-70,13970,-30,-14,-535,-152,35386,-114,34,127,0,0,3737,-21,0,1784,449,111,11669,-4,0,-20,0,257270,0
257287,118,-2038,213,-47,-16,-61,13948,-55,-38,-408,-104,35392,-95,35,127,0,0,3737,-10,0,1784,449,111,11679,-4,0,-20,0,257270,0
257297,103,-2041,206,-37,-11,-55,13929,-29,-14,-378,-112,35394,-77,35,127,0,0,3737,21,0,1784,449,111,11689,-4,0,-20,0,257270,0
257307,107,-2032,214,-36,-9,-49,13932,11,55,-370,-64,35390,-57,35,127,0,0,3735,-21,0,1784,449,111,11699,-4,0,-20,0,257317,0
257317,83,-2035,206,-27,-11,-45,13929,-4,27,-368,-88,35392,-71,35,127,0,0,3737,-32,0,1784,449,111,11709,-4,0,-20,0,257317,0
257327,96,-2030,203,-21,-15,-51,13931,8,1,-362,-96,35392,-75,35,127,0,0,3737,-21,0,1784,449,111,11719,-4,0,-20,0,257317,0
257337,104,-2030,217,-18,-7,-36,13929,-1,-2,-371,-88,35379,-59,35,127,0,0,3737,0,0,1784,449,111,11729,-4,0,-20,0,257317,0
257347,118,-2028,226,-14,-9,-36,13930,-7,5,-348,-72,35381,-52,35,127,0,0,3737,-10,0,1784,449,111,11739,-4,0,-20,0,257317,0
257357,103,-2030,217,-11,-18,-29,13929,-5,1,-363,-104,35392,-55,34,127,0,0,3735,-32,0,1784,449,111,11749,-4,0,-20,0,257348,0
257367,117,-2037,219,-13,-16,-27,13929,-5,-3,-395,-56,35398,-68,34,127,0,0,3737,0,0,1784,449,111,11759,-4,0,-20,0,257348,0
257377,109,-2040,216,7,-7,-25,13930,-5,5,-357,-104,35390,-66,34,127,0,0,3737,-10,0,1784,449,111,11769,-4,0,-20,0,257348,0
257387,107,-2039,202,8,-4,-23,13931,10,-2,-328,-72,35377,-64,35,127,0,0,3739,0,0,1784,449,111,11779,-4,0,-20,0,257380,0
257397,121,-2039,217,12,-2,-17,13931,-5,-1,-315,-104,35386,-38,34,127,0,0,3739,10,0,1784,449,111,11789,-4,0,-20,0,257380,0
257407,94,-2045,219,12,1,-11,13931,12,-5,-323,-104,35397,-42,35,127,0,0,3739,10,0,1784,449,111,11799,-4,0,-20,0,257380,0
257417,96,-2046,222,16,2,2,13930,1,3,-327,-96,35396,-36,35,127,0,0,3739,0,0,1784,449,111,11809,-4,0,-20,0,257411,0
257427,96,-2053,223,18,0,0,13931,20,6,-312,-104,35384,-65,35,127,0,0,3739,0,0,1784,449,111,11819,-4,0,-20,0,257411,0
257437,109,-2040,227,19,-3,15,13932,11,5,-288,-72,35386,-55,35,127,0,0,3739,0,0,1784,449,111,11829,-4,0,-20,0,257411,0
257447,116,-2034,230,19,-4,31,13931,-2,5,-253,-48,35393,-76,35,127,0,0,3744,21,0,1784,449,111,11839,-4,0,-20,0,257427,0
257457,121,-2041,230,18,-11,37,13935,5,5,-186,-32,35399,-61,35,127,0,0,3744,21,0,1784,449,111,11849,-4,0,-20,0,257442,0
257467,120,-2039,232,25,1,40,13937,8,-3,-102,-16,35396,-51,34,127,0,0,3748,21,0,1784,449,111,11859,-4,0,-20,0,257442,0
257477,131,-2041,236,28,-12,57,13940,-2,3,-74,48,35388,-52,35,127,0,0,3750,65,0,1784,449,111,11869,-4,0,-20,0,257458,0
257487,98,-2032,239,20,-10,71,13946,4,1,21,16,35382,-52,35,127,0,0,3755,65,0,1784,449,111,11879,-4,0,-20,0,257536,0
257497,90,-2029,237,14,-12,69,13951,22,1,162,88,35386,-61,35,127,0,0,3757,32,0,1784,449,111,11889,-4,0,-20,0,257536,0
257507,104,-2035,243,12,-1,69,13964,28,17,161,88,35381,-45,35,127,0,0,3759,32,0,1784,449,111,11899,-4,0,-20,0,257536,0
257517,70,-2029,238,9,-6,72,13991,71,34,102,88,35377,-59,35,127,0,0,3761,10,0,1784,449,111,11909,-4,0,-20,0,257536,0
257527,113,-2035,251,4,-7,58,14007,16,13,123,56,35378,-70,35,127,0,0,3768,21,0,1784,449,111,11919,-4,0,-20,0,257552,0
257537,61,-2040,248,-10,7,45,14010,6,-55,258,80,35378,-82,35,127,0,0,3770,43,0,1784,449,111,11929,-4,0,-20,0,257556,0
257547,59,-2046,248,-10,10,33,14015,20,-15,318,88,35373,-93,35,127,0,0,3770,0,0,1784,449,111,11939,-4,0,-20,0,257556,0
257557,62,-2055,253,-19,4,16,14023,16,13,295,144,35368,-94,35,127,0,0,3770,10,0,1784,449,111,11949,-4,0,-20,0,257556,0
257567,65,-2044,258,-26,4,1,14036,32,7,233,80,35377,-96,34,127,0,0,3772,0,0,1784,449,111,11959,-4,0,-20,0,257556,0
257577,59,-2049,263,-40,10,-29,14054,47,17,193,24,35391,-98,35,127,0,0,3772,0,0,1784,449,111,11969,-4,0,-20,0,257556,0
257587,68,-2048,268,-46,5,-38,14057,3,-16,220,40,35395,-74,35,127,0,0,3774,-10,0,1784,449,111,11979,-4,0,-20,0,257571,0
257597,24,-2038,264,-62,-2,-55,14059,7,-34,240,48,35393,-54,34,127,0,0,3774,-21,0,1784,449,111,11989,-4,0,-20,0,257571,0
257607,39,-2034,257,-68,-4,-62,14058,0,-6,223,48,35388,-56,35,127,0,0,3774,0,0,1784,449,111,11999,-4,0,-20,0,257587,0
257617,43,-2039,259,-76,-5,-83,14059,2,-3,217,48,35384,-78,35,127,0,0,3774,-10,0,1784,449,111,12009,-4,0,-20,0,257618,0
257627,48,-2043,250,-80,-4,-95,14060,7,-2,196,8,35382,-77,35,127,0,0,3774,0,0,1784,449,111,12019,-4,0,-20,0,257618,0
257637,96,-2025,251,-90,-10,-97,14057,-1,7,161,64,35377,-73,34,127,0,0,3772,0,0,1784,449,111,12029,-4,0,-20,0,257618,0
257647,102,-2036,255,-90,-6,-100,14058,3,-2,100,24,35375,-90,34,127,0,0,3772,-10,0,1784,449,111,12039,-4,0,-20,0,257618,0
257657,106,-2025,236,-99,0,-110,14054,-9,3,24,8,35387,-101,35,127,0,0,3770,32,0,1784,449,111,12049,-4,0,-20,0,257650,0
257667,80,-2038,232,-103,-4,-106,14055,1,1,27,8,35394,-108,34,127,0,0,3766,-65,0,1784,449,111,12059,-4,0,-20,0,257665,0
257677,81,-2040,222,-96,-5,-103,14049,-9,-8,-81,8,35385,-95,34,127,0,0,3763,-54,0,1784,449,111,12069,-4,0,-20,0,257665,0
257687,119,-2031,218,-100,-4,-96,14046,-9,-2,-161,-40,35372,-97,35,127,0,0,3763,-10,0,1784,449,111,12079,-4,0,-20,0,257665,0
257697,98,-2039,220,-99,-8,-88,14047,1,5,-168,-48,35372,-105,35,127,0,0,3763,0,0,1784,449,111,12089,-4,0,-20,0,257665,0
257707,88,-2042,223,-92,-4,-89,14043,-8,-1,-178,-72,35382,-89,35,127,0,0,3763,10,0,1784,449,111,12099,-4,0,-20,0,257728,0
257717,107,-2037,225,-87,-3,-91,14040,-7,-1,-182,-64,35382,-80,34,127,0,0,3761,10,0,1784,449,111,12109,-4,0,-20,0,257728,0
257727,102,-2051,226,-85,-12,-80,14035,-22,-4,-248,-64,35384,-68,35,127,0,0,3759,0,0,1784,449,111,12119,-4,0,-20,0,257728,0
257737,111,-2034,228,-84,-2,-78,14023,-28,-16,-220,-88,35381,-75,35,127,0,0,3755,-32,0,1784,449,111,12129,-4,0,-20,0,257728,0
257747,110,-2041,227,-85,-10,-74,14007,-16,-29,-92,-48,35379,-86,35,127,0,0,3755,-54,0,1784,449,111,12139,-4,0,-20,0,257743,0
257757,92,-2042,217,-79,-18,-59,14007,2,26,-161,-72,35376,-92,34,127,0,0,3755,-54,0,1784,449,111,12149,-4,0,-20,0,257743,0
257767,92,-2037,222,-77,-16,-54,14005,-3,27,-201,-56,35382,-98,34,127,0,0,3757,0,0,1784,449,111,12159,-4,0,-20,0,257743,0
257777,97,-2039,218,-69,-12,-49,14006,8,0,-167,0,35374,-79,35,127,0,0,3755,-21,0,1784,449,111,12169,-4,0,-20,0,257759,0
257787,128,-2035,224,-71,-13,-51,14003,-6,4,-180,-24,35378,-68,35,127,0,0,3757,10,0,1784,449,111,12179,-4,0,-20,0,257774,0
257797,107,-2037,217,-65,-11,-36,14005,2,-3,-181,-32,35378,-77,35,127,0,0,3755,-32,0,1784,449,111,12189,-4,0,-20,0,257774,0
257807,107,-2045,221,-67,-12,-34,14004,0,-1,-189,-24,35387,-75,35,127,0,0,3755,0,0,1784,449,111,12199,-4,0,-20,0,257806,0
257817,93,-2034,221,-57,-11,-29,14003,-10,-6,-216,-88,35392,-109,35,127,0,0,3755,-10,0,1784,449,111,12209,-4,0,-20,0,257806,0
257827,79,-2037,222,-53,-13,-21,14000,4,-7,-218,-48,35398,-111,35,127,0,0,3755,10,0,1784,449,111,12219,-4,0,-20,0,257806,0
257837,122,-2033,220,-57,-7,-25,14003,0,10,-135,-40,35403,-129,35,127,0,0,3757,21,0,1784,449,111,12229,-4,0,-20,0,257853,0
257847,107,-2040,218,-47,-4,-13,14001,-11,-4,-167,-48,35395,-106,35,127,0,0,3757,0,0,1784,449,111,12239,-4,0,-20,0,257868,0
257857,98,-2044,220,-53,-4,-6,14003,16,-7,-154,16,35388,-80,35,127,0,0,3759,32,0,1784,449,111,12249,-4,0,-20,0,257868,0
257867,91,-2041,229,-52,-9,-10,14002,-16,0,-131,-24,35387,-89,35,127,0,0,3757,21,0,1784,449,111,12259,-4,0,-20,0,257868,0
257877,88,-2049,218,-46,-6,-14,14005,8,2,-120,0,35386,-77,35,127,0,0,3759,-10,0,1784,449,111,12269,-4,0,-20,0,257884,0
257887,67,-2049,219,-42,-5,-10,14003,3,6,-99,-32,35386,-82,34,127,0,0,3757,-10,0,1784,449,111,12279,-4,0,-20,0,257899,0
257897,89,-2046,226,-45,0,-8,14004,3,-2,-70,-40,35376,-76,34,127,0,0,3757,-32,0,1784,449,111,12289,-4,0,-20,0,257899,0
257907,88,-2040,227,-39,-7,-10,14001,-8,-3,-112,40,35375,-71,35,127,0,0,3759,43,0,1784,449,111,12299,-4,0,-20,0,257899,0
257917,100,-2043,225,-42,-12,1,14010,3,12,-58,-16,35383,-77,35,127,0,0,3763,32,0,1784,449,111,12309,-4,0,-20,0,257899,0
257927,69,-2044,230,-46,-12,11,14010,11,3,57,40,35401,-74,34,127,0,0,3761,0,0,1784,449,111,12319,-4,0,-20,0,257899,0
257937,83,-2047,223,-45,-7,7,14010,0,-12,71,-8,35401,-73,35,127,0,0,3761,-21,0,1784,449,111,12329,-4,0,-20,0,257946,0
257947,101,-2042,230,-45,-12,4,14010,0,-3,146,0,35395,-68,35,127,0,0,3763,-10,0,1784,449,111,12339,-4,0,-20,0,257946,0
257957,93,-2028,222,-41,-12,5,14017,16,4,169,32,35394,-86,35,127,0,0,3766,0,0,1784,449,111,12349,-4,0,-20,0,257946,0
257967,90,-2031,226,-43,-9,12,14020,3,2,182,56,35393,-99,35,127,0,0,3768,21,0,1784,449,111,12359,-4,0,-20,0,257962,0
257977,73,-2032,220,-45,-6,4,14029,34,1,251,64,35389,-88,34,127,0,0,3772,10,0,1784,449,111,12369,-4,0,-20,0,257962,0
257987,74,-2040,228,-46,-8,-2,14045,37,25,147,32,35383,-89,34,127,0,0,3770,0,0,1784,449,111,12379,-4,0,-20,0,257962,0
257997,77,-2037,228,-39,-11,-11,14051,2,-5,117,40,35378,-72,35,127,0,0,3772,0,0,1784,449,111,12389,-4,0,-20,0,257993,0
258007,79,-2041,220,-45,-12,-13,14054,-2,-30,181,64,35384,-71,35,127,0,0,3774,0,0,1784,449,111,12399,-4,0,-20,0,257993,0
258017,65,-2036,230,-42,-9,-12,14057,3,-10,193,56,35382,-61,34,127,0,0,3774,0,0,1784,449,111,12409,-4,0,-20,0,257993,0
258027,85,-2052,229,-42,-9,-14,14058,-7,5,214,48,35398,-64,35,127,0,0,3774,0,0,1784,449,111,12419,-4,0,-20,0,258040,0
258037,74,-2055,234,-43,-11,-22,14058,3,2,219,48,35404,-69,34,127,0,0,3779,65,0,1784,449,111,12429,-4,0,-20,0,258040,0
258047,73,-2050,225,-48,-13,-23,14065,21,8,296,64,35408,-90,35,127,0,0,3777,-21,0,1784,449,111,12439,-4,0,-20,0,258040,0
258057,69,-2052,221,-48,-10,-34,14063,3,0,253,96,35396,-95,34,127,0,0,3777,10,0,1784,449,111,12449,-4,0,-20,0,258040,0
258067,91,-2016,223,-44,-13,-27,14062,-20,-6,246,88,35383,-114,34,127,0,0,3779,43,0,1784,449,111,12459,-4,0,-20,0,258056,0
258077,77,-2031,224,-44,-12,-38,14067,7,8,309,72,35387,-98,35,127,0,0,3781,21,0,1784,449,111,12469,-4,0,-20,0,258056,0
258087,57,-2033,238,-41,-3,-36,14067,4,-4,353,64,35397,-109,34,127,0,0,3779,-10,0,1784,449,111,12479,-4,0,-20,0,258071,0
258097,69,-2041,240,-49,-13,-44,14066,-7,-12,297,80,35398,-96,35,127,0,0,3779,0,0,1784,449,111,12489,-4,0,-20,0,258071,0
258107,85,-2050,228,-52,-10,-50,14069,1,4,302,80,35396,-89,35,127,0,0,3779,0,0,1784,449,111,12499,-4,0,-20,0,258087,0
258117,75,-2048,230,-56,-13,-55,14067,9,11,325,64,35393,-88,35,127,0,0,3779,-21,0,1784,449,111,12509,-4,0,-20,0,258103,0
258127,51,-2038,221,-50,-12,-53,14066,-4,-1,279,80,35405,-104,35,127,0,0,3779,32,0,1784,449,111,12519,-4,0,-20,0,258118,0
258137,89,-2037,221,-52,-15,-65,14068,-6,2,298,80,35408,-123,35,127,0,0,3779,0,0,1784,449,111,12529,-4,0,-20,0,258118,0
258147,79,-2043,229,-54,-10,-61,14068,8,1,321,64,35398,-103,35,127,0,0,3779,-10,0,1784,449,111,12539,-4,0,-20,0,258134,0
258157,95,-2041,224,-52,-12,-60,14067,-4,-4,286,80,35386,-65,35,127,0,0,3779,21,0,1784,449,111,12549,-4,0,-20,0,258149,0
258167,114,-2039,221,-57,-12,-53,14069,5,4,318,64,35390,-63,35,127,0,0,3779,-10,0,1784,449,111,12559,-4,0,-20,0,258149,0
258177,91,-2047,227,-52,-15,-51,14065,-11,1,264,88,35396,-75,34,127,0,0,3779,43,0,1784,449,111,12569,-4,0,-20,0,258149,0
258187,124,-2033,226,-53,-9,-45,14070,-4,-3,292,72,35393,-98,34,127,0,0,3779,-10,0,1784,449,111,12579,-4,0,-20,0,258181,0
258197,61,-2033,226,-53,-16,-33,14068,8,-3,314,152,35386,-82,35,127,0,0,3779,-21,0,1784,449,111,12589,-4,0,-20,0,258181,0
258207,117,-2041,226,-54,-14,-38,14069,-5,-4,288,40,35392,-95,34,127,0,0,3779,-21,0,1784,449,111,12599,-4,0,-20,0,258181,0
258217,67,-2045,223,-50,-13,-24,14069,18,0,281,40,35403,-94,35,127,0,0,3779,-10,0,1784,449,111,12609,-4,0,-20,0,258274,0
258227,62,-2035,217,-46,-3,-28,14069,-3,3,249,64,35400,-95,34,127,0,0,3779,0,0,1784,449,111,12619,-4,0,-20,0,258274,0
258237,115,-2046,212,-45,-4,-37,14071,1,6,306,64,35398,-101,34,127,0,0,3779,-10,0,1784,449,111,12629,-4,0,-20,0,258290,0
258247,67,-2036,212,-44,-7,-37,14070,6,10,326,64,35391,-100,35,127,0,0,3779,-10,0,1784,449,111,12639,-4,0,-20,0,258290,0
258257,88,-2032,217,-43,-6,-43,14069,-9,-7,278,112,35394,-128,35,127,0,0,3777,0,0,1784,449,111,12649,-4,0,-20,0,258290,0
258267,105,-2047,215,-41,-3,-46,14069,-8,6,228,88,35386,-109,35,127,0,0,3779,21,0,1784,449,111,12659,-4,0,-20,0,258290,0
258277,84,-2039,223,-37,-6,-44,14069,9,2,285,64,35379,-94,34,127,0,0,3779,10,0,1784,449,111,12669,-4,0,-20,0,258290,0
258287,69,-2039,230,-38,-7,-43,14068,-9,3,282,80,35375,-81,34,127,0,0,3779,0,0,1784,449,111,12679,-4,0,-20,0,258290,0
258297,59,-2035,222,-34,-10,-33,14071,8,-2,288,104,35384,-76,35,127,0,0,3779,-32,0,1784,449,111,12689,-4,0,-20,0,258290,0
258307,68,-2038,230,-40,-14,-48,14069,-7,-1,277,72,35389,-89,35,127,0,0,3779,0,0,1784,449,111,12699,-4,0,-20,0,258290,0
258317,92,-2048,223,-40,-9,-43,14069,-6,-8,262,88,35388,-81,35,127,0,0,3779,0,0,1784,449,111,12709,-4,0,-20,0,258290,0
258327,89,-2042,221,-32,-6,-48,14069,0,4,265,8,35399,-87,35,127,0,0,3779,-10,0,1784,449,111,12719,-4,0,-20,0,258306,0
258337,114,-2037,224,-38,-12,-42,14070,6,1,284,72,35408,-101,34,127,0,0,3779,-10,0,1784,449,111,12729,-4,0,-20,0,258306,0
258347,81,-2048,228,-38,-3,-43,14069,-4,-2,287,72,35416,-124,34,127,0,0,3779,0,0,1784,449,111,12739,-4,0,-20,0,258384,0
258357,90,-2040,225,-32,-10,-41,14068,-12,0,292,112,35397,-109,34,127,0,0,3777,-21,0,1784,449,111,12749,-4,0,-20,0,258399,0
258367,92,-2042,222,-30,-8,-49,14068,-8,3,275,80,35386,-93,35,127,0,0,3779,0,0,1784,449,111,12759,-4,0,-20,0,258399,0
258377,78,-2037,227,-33,-5,-38,14071,2,3,293,40,35380,-71,34,127,0,0,3779,-21,0,1784,449,111,12769,-4,0,-20,0,258399,0
258387,64,-2039,225,-26,-10,-38,14071,11,1,320,96,35378,-87,35,127,0,0,3779,-10,0,1784,449,111,12779,-4,0,-20,0,258399,0
258397,80,-2038,227,-28,-10,-44,14068,-15,-6,279,112,35377,-90,34,127,0,0,3779,32,0,1784,449,111,12789,-4,0,-20,0,258399,0
258407,118,-2038,223,-24,-7,-47,14071,-10,2,279,72,35371,-87,34,127,0,0,3779,21,0,1784,449,111,12799,-4,0,-20,0,258399,0
258417,79,-2032,220,-27,-16,-41,14071,3,-1,285,72,35369,-90,35,127,0,0,3777,-10,0,1784,449,111,12809,-4,0,-20,0,258399,0
258427,106,-2029,221,-37,-9,-43,14069,-8,-4,297,72,35378,-99,34,127,0,0,3779,-32,0,1784,449,111,12819,-4,0,-20,0,258399,0
258437,72,-2045,220,-28,-11,-35,14069,-4,0,278,72,35392,-97,35,127,0,0,3779,0,0,1784,449,111,12829,-4,0,-20,0,258446,0
258447,83,-2035,225,-29,-11,-36,14071,0,4,298,104,35394,-79,34,127,0,0,3779,-10,0,1784,449,111,12839,-4,0,-20,0,258446,0
258457,67,-2039,224,-25,-14,-32,14070,7,3,274,72,35392,-85,34,127,0,0,3779,0,0,1784,449,111,12849,-4,0,-20,0,258462,0
258467,76,-2044,228,-21,-12,-35,14071,3,1,290,72,35387,-97,35,127,0,0,3777,-21,0,1784,449,111,12859,-4,0,-20,0,258462,0
258477,66,-2044,228,-21,-5,-38,14070,-2,0,274,72,35382,-113,34,127,0,0,3779,0,0,1784,449,111,12869,-4,0,-20,0,258462,0
258487,86,-2041,226,-22,-16,-40,14072,-1,-1,303,72,35378,-103,34,127,0,0,3779,0,0,1784,449,111,12879,-4,0,-20,0,258462,0
258497,94,-2041,238,-24,-11,-36,14071,-10,2,307,72,35386,-81,35,127,0,0,3781,21,0,1784,449,111,12889,-4,0,-20,0,258477,0
258507,75,-2044,237,-25,-14,-38,14073,18,2,363,48,35390,-91,35,127,0,0,3781,-32,0,1784,449,111,12899,-4,0,-20,0,258509,0
258517,48,-2044,231,-27,-12,-34,14072,14,-5,350,96,35392,-80,35,127,0,0,3779,-54,0,1784,449,111,12909,-4,0,-20,0,258509,0
258527,88,-2048,236,-32,-15,-44,14072,-7,-2,335,128,35380,-77,34,127,0,0,3781,0,0,1784,449,111,12919,-4,0,-20,0,258509,0
258537,81,-2045,223,-28,-13,-40,14073,-1,10,347,128,35367,-68,34,127,0,0,3781,0,0,1784,449,111,12929,-4,0,-20,0,258524,0
258547,94,-2038,227,-28,-3,-44,14073,2,-1,383,112,35376,-67,35,127,0,0,3783,0,0,1784,449,111,12939,-4,0,-20,0,258524,0
258557,91,-2035,229,-35,-12,-36,14073,0,-2,380,128,35387,-99,34,127,0,0,3781,-10,0,1784,449,111,12949,-4,0,-20,0,258540,0
258567,93,-2034,228,-26,-18,-36,14072,-11,-7,353,80,35388,-98,34,127,0,0,3783,32,0,1784,449,111,12959,-4,0,-20,0,258540,0
258577,86,-2040,225,-27,-16,-36,14074,-4,-2,358,88,35385,-105,34,127,0,0,3785,54,0,1784,449,111,12969,-4,0,-20,0,258634,0
258587,83,-2039,228,-25,-11,-34,14076,9,11,426,144,35376,-91,35,127,0,0,3783,0,0,1784,449,111,12979,-4,0,-20,0,258634,0
258597,75,-2038,237,-31,-11,-37,14078,0,1,423,128,35383,-93,35,127,0,0,3781,-43,0,1784,449,111,12989,-4,0,-20,0,258649,0
258607,88,-2036,231,-35,-10,-40,14076,-8,-12,398,96,35381,-107,35,127,0,0,3783,0,0,1784,449,111,12999,-4,0,-20,0,258649,0
258617,70,-2038,230,-35,-10,-41,14080,5,2,412,104,35372,-95,34,127,0,0,3785,10,0,1784,449,111,13009,-4,0,-20,0,258649,0
258627,68,-2045,237,-35,-8,-39,14081,8,3,452,120,35371,-98,34,127,0,0,3785,0,0,1784,449,111,13019,-4,0,-20,0,258649,0
258637,82,-2039,228,-38,-10,-46,14083,2,5,428,120,35375,-90,35,127,0,0,3785,0,0,1784,449,111,13029,-4,0,-20,0,258649,0
258647,72,-2048,228,-37,-12,-51,14083,6,-3,436,80,35385,-104,34,127,0,0,3783,-21,0,1784,449,111,13039,-4,0,-20,0,258649,0
258657,74,-2041,236,-36,-8,-50,14083,8,1,432,120,35378,-85,34,127,0,0,3785,0,0,1784,449,111,13049,-4,0,-20,0,258649,0
258667,83,-2044,232,-37,-14,-46,14083,-1,4,412,120,35377,-74,35,127,0,0,3785,0,0,1784,449,111,13059,-4,0,-20,0,258649,0
258677,77,-2036,221,-39,-9,-54,14085,17,1,429,112,35383,-77,34,127,0,0,3785,0,0,1784,449,111,13069,-4,0,-20,0,258649,0
258687,80,-2041,227,-36,-8,-50,14084,-5,-1,409,120,35401,-91,35,127,0,0,3785,0,0,1784,449,111,13079,-4,0,-20,0,258665,0
258697,82,-2042,232,-36,-13,-48,14083,-1,-2,395,80,35404,-96,34,127,0,0,3785,21,0,1784,449,111,13089,-4,0,-20,0,258665,0
258707,84,-2048,227,-32,-4,-47,14084,-1,3,416,120,35393,-101,34,127,0,0,3785,-10,0,1784,449,111,13099,-4,0,-20,0,258712,0
258717,80,-2034,227,-36,-9,-44,14084,3,4,414,152,35389,-84,35,127,0,0,3785,0,0,1784,449,111,13109,-4,0,-20,0,258712,0
258727,99,-2035,230,-35,-12,-53,14086,-1,1,399,112,35387,-98,35,127,0,0,3785,0,0,1784,449,111,13119,-4,0,-20,0,258727,0
258737,82,-2039,222,-36,-10,-47,14084,-5,-2,375,56,35384,-92,35,127,0,0,3785,-10,0,1784,449,111,13129,-4,0,-20,0,258727,0
258747,53,-2043,231,-27,-7,-48,14085,19,1,397,128,35384,-92,35,127,0,0,3785,0,0,1784,449,111,13139,-4,0,-20,0,258727,0
258757,94,-2040,226,-33,-15,-47,14085,-9,6,401,112,35398,-79,35,127,0,0,3781,-43,0,1784,449,111,13149,-4,0,-20,0,258727,0
258767,108,-2041,229,-37,-10,-45,14083,-12,-12,359,120,35404,-96,35,127,0,0,3785,43,0,1784,449,111,13159,-4,0,-20,0,258759,0
258777,82,-2037,228,-33,-6,-42,14086,8,8,385,104,35406,-111,35,127,0,0,3785,0,0,1784,449,111,13169,-4,0,-20,0,258759,0
258787,87,-2044,237,-28,-5,-40,14085,-6,11,360,128,35386,-115,34,127,0,0,3785,21,0,1784,449,111,13179,-4,0,-20,0,258774,0
258797,98,-2042,228,-31,-5,-43,14087,6,-3,387,112,35378,-100,34,127,0,0,3781,-21,0,1784,449,111,13189,-4,0,-20,0,258774,0
258807,95,-2033,232,-29,-3,-44,14086,-5,5,369,80,35389,-80,35,127,0,0,3785,-10,0,1784,449,111,13199,-4,0,-20,0,258806,0
258817,79,-2035,234,-30,-11,-34,14087,3,-1,398,112,35393,-83,35,127,0,0,3783,-21,0,1784,449,111,13209,-4,0,-20,0,258806,0
258827,99,-2037,233,-32,-12,-39,14087,-4,3,385,112,35387,-79,34,127,0,0,3785,0,0,1784,449,111,13219,-4,0,-20,0,258806,0
258837,72,-2032,227,-32,-8,-33,14089,-1,-5,402,112,35385,-85,35,127,0,0,3785,-10,0,1784,449,111,13229,-4,0,-20,0,258806,0
258847,69,-2038,230,-29,-2,-33,14089,1,2,396,104,35389,-94,34,127,0,0,3781,-43,0,1784,449,111,13239,-4,0,-20,0,258837,0
258857,70,-2033,230,-28,-8,-34,14089,4,-5,357,112,35399,-107,35,127,0,0,3783,-32,0,1784,449,111,13249,-4,0,-20,0,258837,0
258867,88,-2035,232,-36,-8,-29,14090,-8,-2,373,104,35399,-107,34,127,0,0,3785,0,0,1784,449,111,13259,-4,0,-20,0,258837,0
258877,78,-2042,242,-33,-6,-29,14093,5,3,401,104,35387,-109,34,127,0,0,3785,0,0,1784,449,111,13269,-4,0,-20,0,258852,0
258887,85,-2038,240,-33,-13,-26,14095,5,6,373,128,35390,-66,35,127,0,0,3785,0,0,1784,449,111,13279,-4,0,-20,0,258868,0
258897,88,-2044,236,-36,-8,-24,14099,10,6,336,88,35395,-82,35,127,0,0,3785,0,0,1784,449,111,13289,-4,0,-20,0,258868,0
258907,79,-2043,237,-36,-10,-22,14100,3,-4,361,80,35393,-69,35,127,0,0,3785,-10,0,1784,449,111,13299,-4,0,-20,0,258899,0
258917,66,-2039,240,-34,-13,-19,14109,33,12,376,80,35392,-73,35,127,0,0,3788,-32,0,1784,449,111,13309,-4,0,-20,0,258899,0
258927,98,-2048,239,-41,-17,-16,14120,9,19,282,96,35385,-75,35,127,0,0,3790,21,0,1784,449,111,13319,-4,0,-20,0,258899,0
258937,69,-2045,231,-37,-9,-21,14123,8,-16,330,88,35382,-74,35,127,0,0,3790,-21,0,1784,449,111,13329,-4,0,-20,0,258930,0
258947,77,-2044,233,-36,-12,-26,14123,8,-20,318,88,35382,-80,35,127,0,0,3792,32,0,1784,449,111,13339,-4,0,-20,0,258930,0
258957,78,-2044,239,-38,-8,-22,14127,16,7,369,104,35384,-72,34,127,0,0,3794,21,0,1784,449,111,13349,-4,0,-20,0,258930,0
258967,74,-2048,242,-39,-8,-20,14129,11,6,390,56,35388,-87,34,127,0,0,3792,-32,0,1784,449,111,13359,-4,0,-20,0,258946,0
258977,57,-2045,235,-37,-7,-15,14129,18,-8,374,96,35388,-94,35,127,0,0,3792,-21,0,1784,449,111,13369,-4,0,-20,0,258946,0
258987,87,-2039,243,-43,-5,-23,14131,12,1,388,96,35399,-97,35,127,0,0,3794,-10,0,1784,449,111,13379,-4,0,-20,0,258993,0
258997,77,-2039,237,-43,-10,-18,14129,-4,-1,392,120,35390,-104,35,127,0,0,3794,0,0,1784,449,111,13389,-4,0,-20,0,258993,0
259007,75,-2038,228,-39,-11,-14,14133,17,2,413,152,35388,-106,35,127,0,0,3796,10,0,1784,449,111,13399,-4,0,-20,0,259009,0
259017,84,-2034,239,-46,-12,-14,14135,-1,8,433,136,35392,-111,34,127,0,0,3796,0,0,1784,449,111,13409,-4,0,-20,0,259024,0
259027,81,-2042,231,-51,-16,-15,14135,-12,-5,440,136,35402,-104,35,127,0,0,3796,10,0,1784,449,111,13419,-4,0,-20,0,259024,0
259037,84,-2039,231,-43,-10,-12,14138,10,0,491,104,35404,-90,35,127,0,0,3799,0,0,1784,449,111,13429,-4,0,-20,0,259024,0
259047,76,-2047,249,-47,-8,-4,14143,0,10,465,160,35401,-89,34,127,0,0,3801,32,0,1784,449,111,13439,-4,0,-20,0,259024,0
259057,79,-2046,235,-44,-12,-7,14144,1,-6,472,160,35412,-91,35,127,0,0,3801,21,0,1784,449,111,13449,-4,0,-20,0,259040,0
259067,82,-2038,228,-52,-9,-7,14149,9,2,493,176,35419,-118,34,127,0,0,3803,10,0,1784,449,111,13459,-4,0,-20,0,259087,0
259077,85,-2045,237,-48,-4,-9,14163,37,23,451,152,35420,-128,35,127,0,0,3803,10,0,1784,449,111,13469,-4,0,-20,0,259087,0
259087,83,-2042,236,-49,-9,-5,14191,70,54,302,112,35403,-118,34,127,0,0,3805,21,0,1784,449,111,13479,-4,0,-20,0,259087,0
259097,98,-2044,243,-48,-13,-1,14201,-10,-10,285,56,35397,-123,34,127,0,0,3803,-10,0,1784,449,111,13489,-4,0,-20,0,259087,0
259107,61,-2038,229,-52,-6,-10,14199,9,-69,330,96,35408,-121,35,127,0,0,3807,32,0,1784,449,111,13499,-4,0,-20,0,259087,0
259117,94,-2039,243,-55,-9,-5,14205,5,1,387,128,35419,-134,35,127,0,0,3810,21,0,1784,449,111,13509,-4,0,-20,0,259087,0
259127,61,-2037,241,-57,-14,-4,14205,3,6,405,96,35415,-127,35,127,0,0,3810,21,0,1784,449,111,13519,-4,0,-20,0,259118,0
259137,53,-2035,232,-54,-7,-11,14207,10,-8,432,160,35402,-118,35,127,0,0,3810,0,0,1784,449,111,13529,-4,0,-20,0,259118,0
259147,64,-2032,236,-57,-5,-21,14211,4,11,402,152,35401,-132,35,127,0,0,3812,21,0,1784,449,111,13539,-4,0,-20,0,259118,0
259157,58,-2039,238,-55,-5,-26,14220,25,10,387,136,35401,-130,34,127,0,0,3810,0,0,1784,449,111,13549,-4,0,-20,0,259180,0
259167,82,-2038,242,-59,-8,-31,14239,53,23,317,128,35397,-127,34,127,0,0,3812,0,0,1784,449,111,13559,-4,0,-20,0,259180,0
259177,84,-2046,239,-60,-8,-35,14256,7,20,202,80,35390,-119,35,127,0,0,3812,-10,0,1784,449,111,13569,-4,0,-20,0,259180,0
259187,58,-2039,234,-64,-6,-44,14254,5,-61,256,64,35385,-128,35,127,0,0,3812,-10,0,1784,449,111,13579,-4,0,-20,0,259180,0
259197,79,-2045,233,-64,-9,-46,14255,-1,-32,244,80,35384,-146,35,127,0,0,3814,21,0,1784,449,111,13589,-4,0,-20,0,259180,0
259207,76,-2044,233,-66,-1,-42,14255,-5,11,268,80,35386,-151,34,127,0,0,3814,10,0,1784,449,111,13599,-4,0,-20,0,259196,0
259217,53,-2039,232,-63,-9,-39,14258,17,-8,288,48,35393,-154,34,127,0,0,3814,-21,0,1784,449,111,13609,-4,0,-20,0,259196,0
259227,47,-2038,229,-65,-7,-41,14254,-1,0,270,56,35388,-151,35,127,0,0,3812,-21,0,1784,449,111,13619,-4,0,-20,0,259212,0
259237,71,-2037,236,-73,-8,-46,14255,2,2,237,80,35391,-154,34,127,0,0,3814,10,0,1784,449,111,13629,-4,0,-20,0,259212,0
259247,62,-2046,237,-68,-5,-48,14254,1,8,269,40,35385,-163,35,127,0,0,3814,0,0,1784,449,111,13639,-4,0,-20,0,259227,0
259257,84,-2044,227,-67,-8,-48,14254,-3,0,253,96,35385,-146,34,127,0,0,3814,21,0,1784,449,111,13649,-4,0,-20,0,259243,0
259267,95,-2038,228,-66,-4,-45,14255,-7,1,276,80,35387,-136,34,127,0,0,3814,-10,0,1784,449,111,13659,-4,0,-20,0,259243,0
259277,63,-2033,228,-65,-10,-42,14255,7,1,281,40,35392,-141,35,127,0,0,3812,-21,0,1784,449,111,13669,-4,0,-20,0,259259,0
259287,68,-2041,224,-65,-10,-40,14254,-10,2,283,80,35400,-154,34,127,0,0,3814,0,0,1784,449,111,13679,-4,0,-20,0,259274,0
259297,72,-2041,223,-65,-12,-44,14255,0,-2,247,88,35393,-139,34,127,0,0,3812,-21,0,1784,449,111,13689,-4,0,-20,0,259274,0
259307,87,-2041,226,-57,-5,-43,14254,-2,5,201,96,35390,-136,35,127,0,0,3814,32,0,1784,449,111,13699,-4,0,-20,0,259274,0
259317,88,-2042,234,-59,-2,-42,14255,-1,-1,252,56,35387,-149,34,127,0,0,3814,0,0,1784,449,111,13709,-4,0,-20,0,259321,0
259327,65,-2037,223,-61,-7,-37,14256,20,0,275,40,35387,-148,35,127,0,0,3812,-32,0,1784,449,111,13719,-4,0,-20,0,259321,0
259337,55,-2046,234,-56,-5,-32,14255,0,2,245,56,35384,-149,35,127,0,0,3814,0,0,1784,449,111,13729,-4,0,-20,0,259337,0
259347,53,-2039,231,-58,-11,-33,14256,5,2,266,40,35374,-144,35,127,0,0,3812,-21,0,1784,449,111,13739,-4,0,-20,0,259352,0
259357,82,-2046,232,-61,-4,-38,14254,0,6,263,112,35378,-139,35,127,0,0,3814,21,0,1784,449,111,13749,-4,0,-20,0,259368,0
259367,85,-2045,235,-61,-13,-37,14256,-12,-3,256,88,35388,-160,35,127,0,0,3814,21,0,1784,449,111,13759,-4,0,-20,0,259368,0
259377,94,-2037,227,-62,-8,-36,14256,6,2,253,88,35391,-153,35,127,0,0,3814,10,0,1784,449,111,13769,-4,0,-20,0,259368,0
259387,81,-2040,222,-55,-3,-35,14256,8,-5,267,80,35386,-153,34,127,0,0,3814,-10,0,1784,449,111,13779,-4,0,-20,0,259368,0
259397,72,-2039,224,-57,-12,-22,14254,-4,-4,247,96,35380,-145,35,127,0,0,3814,0,0,1784,449,111,13789,-4,0,-20,0,259368,0
259407,79,-2038,220,-54,-6,-27,14255,0,2,252,80,35384,-148,35,127,0,0,3814,10,0,1784,449,111,13799,-4,0,-20,0,259415,0
259417,93,-2048,223,-56,-12,-24,14255,-3,-1,261,80,35385,-141,35,127,0,0,3814,21,0,1784,449,111,13809,-4,0,-20,0,259430,0
259427,76,-2043,224,-53,-6,-18,14255,0,4,277,80,35379,-120,34,127,0,0,3816,32,0,1784,449,111,13819,-4,0,-20,0,259430,0
259437,92,-2037,224,-58,-14,-13,14257,6,1,334,96,35370,-127,34,127,0,0,3818,43,0,1784,449,111,13829,-4,0,-20,0,259430,0
259447,64,-2040,228,-56,-5,-9,14258,1,-3,368,120,35374,-134,35,127,0,0,3816,10,0,1784,449,111,13839,-4,0,-20,0,259430,0
259457,63,-2043,223,-53,-13,-17,14257,-7,-2,323,96,35385,-151,34,127,0,0,3816,0,0,1784,449,111,13849,-4,0,-20,0,259430,0
259467,65,-2041,233,-53,-12,-19,14258,10,1,359,120,35387,-142,34,127,0,0,3818,0,0,1784,449,111,13859,-4,0,-20,0,259462,0
259477,63,-2040,229,-51,-4,-23,14262,8,0,392,144,35389,-136,35,127,0,0,3821,21,0,1784,449,111,13869,-4,0,-20,0,259462,0
259487,62,-2031,224,-44,-9,-20,14263,10,3,427,96,35389,-137,34,127,0,0,3821,21,0,1784,449,111,13879,-4,0,-20,0,259462,0
259497,65,-2039,222,-49,-10,-27,14264,-3,1,458,128,35396,-139,35,127,0,0,3821,0,0,1784,449,111,13889,-4,0,-20,0,259477,0
259507,66,-2038,229,-55,-4,-31,14262,-5,-8,429,144,35395,-150,35,127,0,0,3823,32,0,1784,449,111,13899,-4,0,-20,0,259493,0
259517,76,-2044,229,-50,-7,-31,14266,12,5,468,152,35391,-148,35,127,0,0,3821,-10,0,1784,449,111,13909,-4,0,-20,0,259493,0
259527,71,-2042,228,-56,-12,-32,14265,-6,3,449,128,35381,-142,35,127,0,0,3823,0,0,1784,449,111,13919,-4,0,-20,0,259508,0
259537,83,-2040,216,-50,-7,-40,14266,-2,-8,456,112,35378,-145,34,127,0,0,3823,43,0,1784,449,111,13929,-4,0,-20,0,259524,0
259547,68,-2049,214,-44,-10,-30,14267,0,0,471,112,35375,-136,34,127,0,0,3823,21,0,1784,449,111,13939,-4,0,-20,0,259524,0
259557,70,-2052,223,-44,-8,-35,14268,7,-5,491,144,35381,-129,34,127,0,0,3823,0,0,1784,449,111,13949,-4,0,-20,0,259524,0
259567,71,-2050,220,-48,-10,-34,14269,0,5,477,176,35371,-132,35,127,0,0,3823,21,0,1784,449,111,13959,-4,0,-20,0,259555,0
259577,73,-2049,224,-42,-6,-25,14271,10,5,466,152,35374,-139,34,127,0,0,3825,10,0,1784,449,111,13969,-4,0,-20,0,259555,0
259587,61,-2037,217,-44,-15,-28,14273,10,0,516,128,35382,-159,35,127,0,0,3823,-10,0,1784,449,111,13979,-4,0,-20,0,259571,0
259597,56,-2038,220,-37,-10,-24,14271,0,-4,473,176,35381,-138,35,127,0,0,3825,32,0,1784,449,111,13989,-4,0,-20,0,259587,0
259607,76,-2037,222,-33,-12,-22,14273,-1,5,454,168,35381,-129,35,127,0,0,3825,32,0,1784,449,111,13999,-4,0,-20,0,259602,0
259617,77,-2037,227,-35,-10,-15,14276,4,3,503,192,35382,-131,35,127,0,0,3825,0,0,1784,449,111,14009,-4,0,-20,0,259602,0
259627,70,-2034,222,-34,-17,-15,14282,17,11,502,176,35389,-146,35,127,0,0,3827,21,0,1784,449,111,14019,-4,0,-20,0,259633,0
259637,66,-2030,225,-32,-3,-17,14294,33,17,463,104,35386,-145,35,127,0,0,3825,-32,0,1784,449,111,14029,-4,0,-20,0,259633,0
259647,62,-2043,225,-37,-16,-14,14310,33,23,337,112,35381,-144,35,127,0,0,3829,43,0,1784,449,111,14039,-4,0,-20,0,259633,0
259657,63,-2035,226,-33,-14,-17,14322,19,-5,413,96,35380,-146,34,127,0,0,3829,-10,0,1784,449,111,14049,-4,0,-20,0,259633,0
259667,60,-2039,230,-35,-11,-20,14320,-2,-34,419,144,35386,-138,35,127,0,0,3829,10,0,1784,449,111,14059,-4,0,-20,0,259665,0
259677,67,-2052,224,-28,-4,-24,14323,5,-15,442,128,35387,-127,34,127,0,0,3832,0,0,1784,449,111,14069,-4,0,-20,0,259665,0
259687,69,-2044,228,-27,-8,-23,14324,1,2,460,96,35384,-114,34,127,0,0,3832,0,0,1784,449,111,14079,-4,0,-20,0,259665,0
259697,64,-2037,220,-23,-8,-15,14325,2,-8,468,128,35379,-109,35,127,0,0,3832,0,0,1784,449,111,14089,-4,0,-20,0,259680,0
259707,72,-2044,228,-30,-10,-21,14324,0,2,464,128,35385,-122,35,127,0,0,3832,-10,0,1784,449,111,14099,-4,0,-20,0,259696,0
259717,55,-2039,227,-34,-10,-18,14325,6,-4,457,128,35387,-134,35,127,0,0,3832,10,0,1784,449,111,14109,-4,0,-20,0,259727,0
259727,72,-2040,230,-27,-10,-16,14326,0,3,463,120,35389,-127,34,127,0,0,3834,21,0,1784,449,111,14119,-4,0,-20,0,259727,0
259737,62,-2042,225,-23,-17,-21,14328,6,-1,510,144,35380,-125,34,127,0,0,3834,10,0,1784,449,111,14129,-4,0,-20,0,259727,0
259747,59,-2037,233,-30,-10,-18,14333,6,8,510,88,35382,-119,35,127,0,0,3832,-32,0,1784,449,111,14139,-4,0,-20,0,259727,0
259757,61,-2041,226,-31,-8,-19,14332,1,-10,480,136,35388,-129,35,127,0,0,3836,21,0,1784,449,111,14149,-4,0,-20,0,259727,0
259767,66,-2044,230,-24,-8,-21,14334,9,1,496,128,35393,-115,35,127,0,0,3834,-21,0,1784,449,111,14159,-4,0,-20,0,259758,0
259777,64,-2040,229,-28,-8,-19,14334,6,3,501,160,35395,-97,35,127,0,0,3836,21,0,1784,449,111,14169,-4,0,-20,0,259774,0
259787,66,-2048,233,-26,-16,-17,14336,1,-2,486,200,35398,-99,35,127,0,0,3838,21,0,1784,449,111,14179,-4,0,-20,0,259774,0
259797,69,-2040,225,-28,-11,-13,14340,6,7,513,216,35395,-98,35,127,0,0,3836,10,0,1784,449,111,14189,-4,0,-20,0,259774,0
259807,70,-2036,230,-29,-14,-8,14352,25,16,478,184,35398,-87,35,127,0,0,3840,32,0,1784,449,111,14199,-4,0,-20,0,259805,0
259817,66,-2040,231,-23,-11,3,14383,87,48,356,72,35397,-87,35,127,0,0,3838,-54,0,1784,449,111,14209,-4,0,-20,0,259805,0
259827,93,-2044,238,-28,-17,-3,14392,-5,3,286,120,35397,-62,34,127,0,0,3843,0,0,1784,449,111,14219,-4,0,-20,0,259805,0
259837,45,-2046,217,-23,-10,-3,14394,8,-72,380,96,35399,-66,35,127,0,0,3843,0,0,1784,449,111,14229,-4,0,-20,0,259821,0
259847,68,-2038,233,-22,-12,0,14397,7,-4,396,88,35399,-63,35,127,0,0,3845,32,0,1784,449,111,14239,-4,0,-20,0,259821,0
259857,60,-2036,238,-17,-16,-4,14400,15,-1,444,144,35406,-86,35,127,0,0,3849,10,0,1784,449,111,14249,-4,0,-20,0,259837,0
259867,49,-2045,232,-25,-13,-2,14408,17,10,431,152,35407,-82,35,127,0,0,3847,0,0,1784,449,111,14259,-4,0,-20,0,259852,0
259877,59,-2038,238,-26,-5,-5,14427,48,22,337,120,35409,-99,34,127,0,0,3849,21,0,1784,449,111,14269,-4,0,-20,0,259868,0
259887,56,-2036,243,-29,-16,-3,14442,18,20,250,112,35404,-99,35,127,0,0,3851,54,0,1784,449,111,14279,-4,0,-20,0,259883,0
259897,46,-2036,238,-33,-7,-19,14443,0,-41,365,136,35405,-67,35,127,0,0,3854,21,0,1784,449,111,14289,-4,0,-20,0,259883,0
259907,44,-2042,229,-36,-8,-19,14444,2,-26,328,144,35401,-82,35,127,0,0,3854,43,0,1784,449,111,14299,-4,0,-20,0,259883,0
259917,55,-2034,224,-35,-5,-21,14446,4,0,367,96,35400,-91,35,127,0,0,3851,0,0,1784,449,111,14309,-4,0,-20,0,259915,0
259927,56,-2039,225,-36,-11,-28,14445,-2,-3,379,120,35401,-102,34,127,0,0,3854,0,0,1784,449,111,14319,-4,0,-20,0,259915,0
259937,51,-2029,234,-29,-3,-29,14448,17,1,425,104,35398,-93,34,127,0,0,3856,-10,0,1784,449,111,14329,-4,0,-20,0,259930,0
259947,53,-2050,237,-35,-6,-28,14449,2,3,407,152,35390,-76,35,127,0,0,3854,-21,0,1784,449,111,14339,-4,0,-20,0,259930,0
259957,63,-2026,245,-35,-13,-35,14448,0,-4,388,152,35393,-75,35,127,0,0,3856,10,0,1784,449,111,14349,-4,0,-20,0,259930,0
259967,132,-2097,236,-41,-31,-59,14448,-4,-2,391,152,35401,-70,35,127,0,0,3856,32,0,1784,449,111,14359,-4,0,-20,0,259961,0
259977,672,-2082,39,-139,-15,-460,14454,18,4,483,144,35397,-66,35,127,0,0,3854,-54,0,1784,449,111,14369,-4,0,-20,0,259961,0
259987,483,-1997,126,-168,16,-596,14449,-29,-7,316,-8,35390,-67,35,127,0,0,3832,-263,0,1784,449,111,14379,-4,0,-20,0,259961,0
259997,24,-2092,389,-127,-61,-139,14410,-105,-93,-244,-64,35391,-75,34,127,0,0,3827,-10,0,1784,449,111,14389,-4,0,-20,0,259977,0
260007,77,-2187,202,-95,-12,-153,14376,-47,-61,-86,-24,35392,-82,35,127,0,0,3827,0,0,1784,449,111,14399,-4,0,-20,0,259993,0
260017,696,-2026,-37,-153,47,-512,14384,20,102,-195,-40,35397,-84,34,127,0,0,3821,-87,0,1784,449,111,14409,-4,0,-20,0,259993,0
260027,539,-2009,90,-179,-4,-597,14366,-57,26,-429,-208,35402,-83,34,127,0,0,3801,-186,0,1784,449,111,14419,-4,0,-20,0,260008,0
260037,159,-2016,252,-216,-83,-395,14309,-169,-126,-500,-256,35392,-53,35,127,0,0,3790,-131,0,1784,449,111,14429,-4,0,-20,0,260008,0
260047,168,-2120,231,-156,-24,-376,14225,-178,-138,-381,-200,35398,-60,35,127,0,0,3779,-76,0,1784,449,111,14439,-4,0,-20,0,260024,0
260057,536,-2016,42,-136,48,-528,14165,-124,-6,-375,-208,35397,-87,34,127,0,0,3768,-109,0,1784,449,111,14449,-4,0,-20,0,260102,0
260067,624,-2019,114,-172,6,-586,14110,-128,50,-410,-288,35394,-96,34,127,0,0,3750,-186,0,1784,449,111,14459,-4,0,-20,0,260102,0
260077,401,-2027,173,-203,-47,-552,14042,-163,-15,-441,-328,35395,-111,34,127,0,0,3735,-153,0,1784,449,111,14469,-4,0,-20,0,260118,0
260087,292,-2048,178,-173,-32,-473,13968,-170,-38,-511,-312,35391,-93,35,127,0,0,3724,-76,0,1784,449,111,14479,-4,0,-20,0,260118,0
260097,381,-2039,99,-134,7,-428,13893,-158,-12,-438,-248,35391,-92,34,127,0,0,3711,-109,0,1784,449,111,14489,-4,0,-20,0,260118,0
260107,472,-2023,119,-130,10,-454,13830,-113,28,-445,-248,35386,-69,34,127,0,0,3700,-131,0,1784,449,111,14499,-4,0,-20,0,260118,0
260117,472,-2033,143,-133,-29,-446,13784,-95,63,-550,-232,35386,-52,35,127,0,0,3691,-109,0,1784,449,111,14509,-4,0,-20,0,260118,0
260127,368,-2015,137,-143,-40,-395,13731,-148,18,-548,-248,35388,-53,34,127,0,0,3682,-76,0,1784,449,111,14519,-4,0,-20,0,260118,0
260137,321,-2076,104,-117,-9,-393,13664,-154,-50,-431,-208,35394,-66,35,127,0,0,3673,-87,0,1784,449,111,14529,-4,0,-20,0,260118,0
260147,346,-2066,130,-93,10,-408,13612,-106,-5,-453,-200,35396,-85,35,127,0,0,3665,-76,0,1784,449,111,14539,-4,0,-20,0,260118,0
260157,374,-2050,193,-108,-27,-414,13572,-102,51,-534,-280,35403,-81,35,127,0,0,3654,-98,0,1784,449,111,14549,-4,0,-20,0,260133,0
260167,289,-2044,208,-126,-24,-451,13514,-113,-10,-462,-264,35404,-83,34,127,0,0,3643,-120,0,1784,449,111,14559,-4,0,-20,0,260165,0
260177,202,-2050,219,-137,-12,-472,13462,-97,-19,-515,-272,35403,-114,35,127,0,0,3629,-142,0,1784,449,111,14569,-4,0,-20,0,260165,0
260187,230,-2044,218,-150,-14,-492,13411,-126,9,-565,-272,35389,-124,34,127,0,0,3618,-109,0,1784,449,111,14579,-4,0,-20,0,260180,0
260197,246,-2006,201,-184,-19,-556,13348,-152,-24,-552,-264,35378,-119,34,127,0,0,3610,-65,0,1784,449,111,14589,-4,0,-20,0,260180,0
260207,232,-1995,195,-215,-17,-615,13281,-154,-31,-485,-288,35385,-98,35,127,0,0,3590,-142,0,1784,449,111,14599,-4,0,-20,0,260180,0
260217,224,-1998,210,-249,-5,-670,13215,-155,-10,-593,-336,35394,-108,34,127,0,0,3574,-175,0,1784,449,111,14609,-4,0,-20,0,260211,0
260227,228,-2042,228,-256,1,-671,13134,-196,-30,-548,-352,35399,-114,35,127,0,0,3559,-164,0,1784,449,111,14619,-4,0,-20,0,260211,0
260237,268,-2074,243,-287,-11,-678,13044,-185,-52,-498,-352,35385,-78,34,127,0,0,3539,-186,0,1784,449,111,14629,-4,0,-20,0,260211,0
260247,308,-2052,261,-306,-26,-676,12961,-203,8,-560,-368,35386,-58,34,127,0,0,3524,-164,0,1784,449,111,14639,-4,0,-20,0,260227,0
260257,295,-2046,249,-339,-41,-677,12877,-201,-17,-479,-400,35380,-26,35,127,0,0,3506,-175,0,1784,449,111,14649,-4,0,-20,0,260274,0
260267,285,-2051,255,-356,-44,-657,12788,-201,-11,-522,-344,35387,-34,34,127,0,0,3489,-153,0,1784,449,111,14659,-4,0,-20,0,260290,0
260277,284,-2067,230,-357,-72,-633,12698,-194,3,-479,-368,35375,-48,34,127,0,0,3471,-164,0,1784,449,111,14669,-4,0,-20,0,260290,0
260287,281,-2069,211,-367,-84,-603,12615,-173,14,-519,-320,35371,-88,35,127,0,0,3458,-131,0,1784,449,111,14679,-4,0,-20,0,260290,0
260297,298,-2008,162,-381,-96,-591,12536,-173,28,-461,-304,35373,-111,35,127,0,0,3445,-142,0,1784,449,111,14689,-4,0,-20,0,260290,0
260307,238,-2028,153,-386,-109,-562,12471,-133,35,-580,-312,35379,-107,35,127,0,0,3432,-120,0,1784,449,111,14699,-4,0,-20,0,260290,0
260317,241,-2048,119,-353,-82,-537,12402,-150,18,-539,-296,35385,-84,34,127,0,0,3421,-131,0,1784,449,111,14709,-4,0,-20,0,260290,0
260327,268,-2049,118,-327,-88,-505,12328,-170,-22,-445,-232,35391,-75,34,127,0,0,3412,-109,0,1784,449,111,14719,-4,0,-20,0,260305,0
260337,310,-2033,130,-301,-115,-454,12282,-90,41,-481,-256,35386,-49,35,127,0,0,3403,-98,0,1784,449,111,14729,-4,0,-20,0,260321,0
260347,416,-2031,173,-273,-92,-438,12244,-69,64,-504,-224,35384,-48,35,127,0,0,3401,-43,0,1784,449,111,14739,-4,0,-20,0,260321,0
260357,343,-1995,100,-289,-94,-406,12203,-99,14,-431,-176,35375,-43,35,127,0,0,3396,0,0,1784,449,111,14749,-4,0,-20,0,260336,0
260367,298,-1969,73,-278,-45,-400,12168,-65,10,-417,-184,35377,-59,35,127,0,0,3388,-76,0,1784,449,111,14759,-4,0,-20,0,260368,0
260377,325,-1991,111,-245,-28,-369,12133,-68,14,-410,-176,35390,-71,35,127,0,0,3383,-43,0,1784,449,111,14769,-4,0,-20,0,260368,0
260387,357,-2004,106,-233,-53,-335,12122,-11,42,-578,-224,35396,-79,35,127,0,0,3375,-76,0,1784,449,111,14779,-4,0,-20,0,260368,0
260397,332,-1986,109,-231,-49,-327,12101,-56,36,-602,-200,35398,-98,35,127,0,0,3368,-76,0,1784,449,111,14789,-4,0,-20,0,260368,0
260407,326,-1980,75,-229,-23,-337,12062,-87,-62,-546,-208,35394,-90,35,127,0,0,3361,-98,0,1784,449,111,14799,-4,0,-20,0,260477,0
260417,306,-2018,100,-225,-2,-315,12028,-90,-23,-563,-256,35392,-80,35,127,0,0,3353,-120,0,1784,449,111,14809,-4,0,-20,0,260477,0
260427,269,-2016,135,-212,3,-305,11980,-93,-21,-526,-248,35392,-91,35,127,0,0,3348,-32,0,1784,449,111,14819,-4,0,-20,0,260477,0
260437,310,-2042,141,-202,-6,-290,11932,-107,-25,-467,-208,35389,-100,34,127,0,0,3339,-54,0,1784,449,111,14829,-4,0,-20,0,260477,0
260447,285,-2050,129,-190,-13,-269,11900,-64,32,-590,-248,35375,-127,34,127,0,0,3333,-43,0,1784,449,111,14839,-4,0,-20,0,260493,0
260457,277,-2029,132,-187,-1,-273,11863,-68,25,-503,-184,35370,-127,35,127,0,0,3328,-65,0,1784,449,111,14849,-4,0,-20,0,260493,0
260467,330,-2056,101,-191,-4,-261,11843,-40,24,-624,-216,35372,-133,34,127,0,0,3324,-21,0,1784,449,111,14859,-4,0,-20,0,260493,0
260477,308,-2030,106,-170,-6,-254,11802,-97,-5,-444,-192,35378,-119,35,127,0,0,3317,-32,0,1784,449,111,14869,-4,0,-20,0,260493,0
260487,301,-2037,96,-165,-4,-243,11776,-49,-25,-407,-192,35378,-101,34,127,0,0,3315,-65,0,1784,449,111,14879,-4,0,-20,0,260493,0
260497,310,-2037,101,-166,12,-251,11744,-73,20,-374,-120,35371,-99,34,127,0,0,3309,-43,0,1784,449,111,14889,-4,0,-20,0,260493,0
260507,299,-2025,96,-168,9,-253,11734,-4,27,-519,-160,35372,-94,35,127,0,0,3304,-43,0,1784,449,111,14899,-4,0,-20,0,260493,0
260517,304,-2021,117,-168,21,-260,11730,-18,60,-630,-232,35385,-114,34,127,0,0,3302,-10,0,1784,449,111,14909,-4,0,-20,0,260508,0
260527,277,-2032,120,-165,15,-256,11719,-31,-5,-697,-208,35390,-114,34,127,0,0,3298,-21,0,1784,449,111,14919,-4,0,-20,0,260508,0
260537,282,-2052,130,-170,17,-275,11693,-57,-48,-552,-192,35399,-106,35,127,0,0,3295,-65,0,1784,449,111,14929,-4,0,-20,0,260524,0
260547,301,-2048,130,-176,17,-294,11668,-47,-30,-566,-184,35389,-101,35,127,0,0,3289,-54,0,1784,449,111,14939,-4,0,-20,0,260524,0
260557,312,-2050,149,-189,17,-317,11654,-27,24,-648,-168,35390,-105,35,127,0,0,3284,-87,0,1784,449,111,14949,-4,0,-20,0,260540,0
260567,320,-2037,146,-205,8,-338,11620,-96,-21,-552,-216,35389,-107,35,127,0,0,3282,-21,0,1784,449,111,14959,-4,0,-20,0,260567,0
260577,268,-2033,158,-215,1,-379,11580,-65,-53,-421,-216,35386,-93,35,127,0,0,3276,-87,0,1784,449,111,14969,-4,0,-20,0,260567,0
260587,328,-2052,158,-225,-6,-406,11543,-78,5,-408,-176,35382,-64,35,127,0,0,3267,-98,0,1784,449,111,14979,-4,0,-20,0,260567,0
260597,322,-2045,138,-247,-25,-432,11530,-15,42,-589,-192,35384,-51,35,127,0,0,3262,-65,0,1784,449,111,14989,-4,0,-20,0,260599,0
260607,326,-2041,149,-257,-21,-459,11521,-27,64,-737,-272,35379,-17,35,127,0,0,3256,-76,0,1784,449,111,14999,-4,0,-20,0,260599,0
260617,312,-1994,136,-281,-36,-494,11482,-115,-50,-618,-264,35380,-11,35,127,0,0,3249,-65,0,1784,449,111,15009,-4,0,-20,0,260599,0
260627,279,-2035,132,-279,-37,-501,11434,-97,-79,-548,-184,35375,-13,35,127,0,0,3238,-87,0,1784,449,111,15019,-4,0,-20,0,260599,0
260637,323,-2057,130,-282,-52,-512,11379,-117,-30,-469,-224,35383,-29,34,127,0,0,3232,-87,0,1784,449,111,15029,-4,0,-20,0,260630,0
260647,384,-2055,106,-295,-62,-528,11323,-117,-12,-404,-176,35388,-26,35,127,0,0,3225,-65,0,1784,449,111,15039,-4,0,-20,0,260630,0
260657,400,-2037,95,-308,-52,-542,11288,-85,37,-488,-200,35383,-29,34,127,0,0,3218,-54,0,1784,449,111,15049,-4,0,-20,0,260646,0
260667,367,-2021,94,-315,-40,-552,11260,-33,59,-499,-184,35377,-44,34,127,0,0,3210,-120,0,1784,449,111,15059,-4,0,-20,0,260646,0
260677,423,-2068,66,-308,-47,-507,11240,-63,36,-635,-224,35377,-74,35,127,0,0,3210,-54,0,1784,449,111,15069,-4,0,-20,0,260677,0
260687,403,-2105,81,-288,-53,-459,11199,-89,-27,-439,-184,35382,-66,34,127,0,0,3208,-10,0,1784,449,111,15079,-4,0,-20,0,260677,0
260697,458,-2077,93,-259,-28,-430,11187,-9,11,-439,-128,35385,-87,35,127,0,0,3205,-21,0,1784,449,111,15089,-4,0,-20,0,260677,0
260707,468,-2018,73,-260,-23,-416,11188,-10,81,-476,-128,35372,-91,34,127,0,0,3208,0,0,1784,449,111,15099,-4,0,-20,0,260692,0
260717,361,-2085,41,-264,-14,-368,11189,3,29,-448,-128,35381,-132,34,127,0,0,3210,10,0,1784,449,111,15109,-4,0,-20,0,260708,0
260727,387,-2117,43,-272,-33,-290,11191,10,-1,-389,-56,35383,-157,35,127,0,0,3221,175,0,1784,449,111,15119,-4,0,-20,0,260708,0
260737,313,-2039,50,-268,19,-288,11214,68,46,-109,48,35390,-170,34,127,0,0,3232,109,0,1784,449,111,15129,-4,0,-20,0,260708,0
260747,403,-2031,20,-286,52,-330,11235,41,39,159,128,35387,-145,34,127,0,0,3240,109,0,1784,449,111,15139,-4,0,-20,0,260739,0
260757,408,-2017,75,-299,61,-382,11278,123,29,241,136,35385,-121,35,127,0,0,3249,65,0,1784,449,111,15149,-4,0,-20,0,260739,0
260767,441,-1974,133,-322,48,-423,11327,96,62,212,120,35388,-103,35,127,0,0,3258,65,0,1784,449,111,15159,-4,0,-20,0,260739,0
260777,389,-1951,169,-354,-21,-473,11358,40,-27,227,88,35398,-93,35,127,0,0,3262,54,0,1784,449,111,15169,-4,0,-20,0,260755,0
260787,368,-1990,195,-362,-71,-534,11359,6,-94,387,176,35398,-85,35,127,0,0,3265,21,0,1784,449,111,15179,-4,0,-20,0,260833,0
260797,347,-1991,184,-371,-144,-625,11364,12,-45,432,144,35392,-83,35,127,0,0,3267,0,0,1784,449,111,15189,-4,0,-20,0,260833,0
260807,298,-1953,160,-400,-188,-673,11372,7,10,415,136,35395,-82,35,127,0,0,3267,0,0,1784,449,111,15199,-4,0,-20,0,260849,0
260817,220,-1793,109,-533,-314,-803,11374,4,-10,376,120,35392,-89,35,127,0,0,3267,43,0,1784,449,111,15209,-4,0,-20,0,260849,0
260827,316,-2014,92,-552,-332,-954,11378,-2,-12,336,120,35390,-84,34,127,0,0,3260,-43,0,1784,449,111,15219,-4,0,-20,0,260849,0
260837,221,-2352,95,-475,-236,-1076,11368,-47,-23,70,-48,35389,-79,34,127,0,0,3245,-175,0,1784,449,111,15229,-4,0,-20,0,260849,0
260847,263,-2310,178,-489,-215,-1179,11324,-83,-106,-173,-64,35386,-70,35,127,0,0,3232,-131,0,1784,449,111,15239,-4,0,-20,0,260849,0
260857,150,-2268,200,-590,-306,-1295,11298,-64,-29,-388,-120,35394,-83,35,127,0,0,3225,-76,0,1784,449,111,15249,-4,0,-20,0,260849,0
260867,48,-2312,195,-618,-292,-1458,11267,-57,22,-376,-160,35393,-76,35,127,0,0,3216,-109,0,1784,449,111,15259,-4,0,-20,0,260849,0
260877,20,-2361,80,-638,-324,-1662,11248,-51,22,-636,-232,35394,-66,35,127,0,0,3208,-43,0,1784,449,111,15269,-4,0,-20,0,260849,0
260887,-35,-2337,89,-655,-312,-1851,11201,-113,-32,-471,-224,35401,-71,35,127,0,0,3199,-76,0,1784,449,111,15279,-4,0,0,0,260880,0
260897,14,-2324,122,-688,-327,-2102,11163,-84,-38,-527,-288,35404,-92,35,127,0,0,3190,-98,0,1784,449,111,15289,-4,0,0,0,260880,0
260907,23,-2307,126,-720,-354,-2299,11119,-68,1,-536,-224,35405,-141,34,127,0,0,3179,-109,0,1784,449,111,15299,-4,0,0,0,260911,0
260917,55,-2347,46,-788,-384,-2497,11081,-102,12,-605,-280,35391,-154,34,127,0,0,3175,-76,0,1784,449,111,15309,-4,0,1,0,260911,0
260927,-14,-2349,73,-806,-401,-2664,11047,-63,18,-589,-224,35383,-143,35,127,0,0,3172,-10,0,1784,449,111,15319,-4,0,1,0,260911,0
260937,33,-2415,59,-876,-382,-2854,11014,-77,20,-479,-160,35390,-129,34,127,0,0,3168,-32,0,1784,449,111,15329,-4,0,2,0,260911,0
260947,16,-2438,79,-903,-377,-3036,10991,-24,12,-417,-136,35401,-104,35,127,0,0,3166,-21,0,1784,449,111,15339,-4,0,2,0,260927,0
260957,60,-2424,110,-929,-357,-3325,10986,-9,63,-476,-128,35414,-93,35,127,0,0,3170,32,0,1784,449,111,15349,-4,0,3,0,260974,0
260967,101,-2420,109,-944,-381,-3433,10991,8,52,-370,-96,35408,-81,35,127,0,0,3175,43,0,1784,449,111,15359,-4,0,4,0,260974,0
260977,214,-2467,67,-957,-448,-3471,10993,13,12,-279,8,35398,-69,35,127,0,0,3186,142,0,1784,449,111,15369,-4,0,5,0,260974,0
260987,237,-2438,100,-933,-525,-3505,11024,108,49,106,176,35391,-96,35,127,0,0,3210,230,0,1784,449,111,15379,-4,0,6,0,260974,0
260997,98,-2220,170,-800,-500,-3468,11097,197,143,285,232,35389,-93,35,127,0,0,3232,208,0,1784,449,111,15389,-4,0,7,0,260989,0
261007,163,-2216,24,-763,-406,-3377,11193,204,125,296,192,35390,-89,35,127,0,0,3236,32,0,1784,449,111,15399,-4,0,8,0,260989,0
261017,178,-2173,236,-537,-492,-2859,11248,70,-28,113,0,35397,-103,34,127,0,0,3232,-32,0,1784,449,111,15409,-4,0,10,0,260989,0
261027,-96,-2080,323,-377,-695,-2459,11226,-90,-227,-48,-88,35397,-99,34,127,0,0,3210,-230,0,1784,449,111,15419,-4,0,12,0,261005,0
261037,-120,-1984,385,-204,-942,-1703,11161,-157,-231,-346,-216,35401,-98,35,127,0,0,3190,-153,0,1784,449,111,15429,-4,0,14,0,261020,0
261047,-220,-1928,381,-87,-1090,-1180,11090,-133,-87,-422,-256,35395,-89,35,127,0,0,3175,-153,0,1784,449,111,15439,-4,0,16,0,261052,0
261057,-254,-1833,299,87,-1193,-359,11033,-113,13,-518,-232,35395,-111,35,127,0,0,3161,-131,0,1784,449,111,15449,-4,0,19,0,261052,0
261067,-253,-1772,241,200,-1170,168,10968,-129,14,-426,-240,35397,-118,35,127,0,0,3150,-120,0,1784,449,111,15459,-4,0,21,0,261052,0
261077,-337,-1761,208,384,-1040,983,10915,-94,13,-440,-216,35398,-110,34,127,0,0,3148,-21,0,1784,449,111,15469,-4,0,25,0,261052,0
261087,-303,-1796,209,517,-842,1513,10888,-54,71,-428,-104,35393,-94,34,127,0,0,3142,-65,0,1784,449,111,15479,-4,0,28,0,261067,0
261097,-313,-1817,163,734,-433,2182,10872,-20,67,-481,-80,35396,-92,35,127,0,0,3146,43,0,1784,449,111,15489,-4,0,32,0,261083,0
261107,-247,-1840,150,839,-123,2619,10876,2,67,-443,-168,35398,-78,34,127,0,0,3144,-43,0,1784,449,111,15499,-4,0,35,0,261099,0
261117,-253,-1873,154,1009,312,3247,10873,11,18,-439,-120,35399,-79,35,127,0,0,3148,21,0,1784,449,111,15509,-4,0,40,0,261099,0
261127,-175,-1906,147,1112,595,3628,10879,7,-1,-326,8,35403,-71,35,127,0,0,3164,175,0,1784,449,111,15519,-4,0,44,0,261099,0
261137,-141,-1962,110,1300,985,4090,10906,67,61,57,104,35402,-74,35,127,0,0,3175,142,0,1784,449,111,15529,-4,0,50,0,261130,0
261147,-94,-2004,112,1416,1238,4345,10963,136,99,160,168,35407,-64,35,127,0,0,3197,219,0,1784,449,111,15539,-4,0,53,0,261130,0
261157,-28,-2024,115,1565,1574,4728,11028,149,70,374,320,35405,-87,35,127,0,0,3223,230,0,1784,449,111,15549,-4,0,59,0,261130,0
261167,1,-2039,106,1640,1761,4956,11115,226,67,436,416,35403,-87,35,127,0,0,3251,307,0,1784,449,111,15559,-4,0,63,0,261224,0
261177,58,-2082,111,1700,1964,5308,11237,268,110,472,504,35390,-104,34,127,0,0,3284,329,0,1784,449,111,15569,-4,0,70,6,261224,0
261187,89,-2108,134,1720,2059,5524,11375,316,88,494,664,35385,-118,34,127,0,0,3326,417,0,1784,449,111,15579,-4,0,74,4,261224,0
261197,130,-2157,160,1705,2131,5816,11535,370,81,526,840,35382,-114,35,127,0,0,3377,527,0,1784,449,111,15589,-4,0,80,1,261224,0
261207,173,-2192,176,1666,2122,6015,11726,433,101,564,984,35382,-96,35,127,0,0,3434,571,0,1784,449,111,15599,-4,0,84,0,261239,0
261217,234,-2243,209,1583,2043,6305,11944,501,105,588,1208,35378,-71,34,127,0,0,3498,659,0,1784,449,111,15609,-4,0,91,0,261239,0
261227,273,-2273,211,1537,1976,6466,12195,582,115,612,1424,35377,-74,34,127,0,0,3570,725,0,1784,449,111,15619,-4,0,95,-1,261239,0
261237,282,-2272,175,1487,1861,6664,12482,653,138,618,1688,35377,-84,35,127,0,0,3647,769,0,1784,449,111,15629,-4,0,101,-2,261239,0
261247,312,-2260,151,1460,1802,6765,12808,740,146,602,1888,35379,-75,34,127,0,0,3730,867,0,1784,449,111,15639,-4,0,105,-3,261239,0
261257,386,-2252,158,1442,1710,6845,13128,800,137,616,1984,35378,-68,34,127,0,0,3807,802,0,1784,449,111,15649,-4,0,111,-3,261239,0
261267,436,-2269,179,1436,1681,6828,13508,850,108,536,2056,35386,-40,35,127,0,0,3880,725,0,1784,449,111,15659,-4,0,115,-3,261239,0
261277,457,-2252,166,1430,1632,6712,13891,845,48,469,1944,35386,-45,35,127,0,0,3937,527,0,1784,449,111,15669,-4,0,120,-3,261270,0
261287,457,-2228,160,1401,1581,6627,14262,794,-24,367,1688,35386,-10,35,127,0,0,3979,406,0,1784,449,111,15679,-4,0,124,-4,261270,0
261297,461,-2224,154,1376,1461,6480,14595,703,-106,307,1368,35373,-24,34,127,0,0,4010,340,0,1784,449,111,15689,-4,0,129,-4,261270,0
261307,453,-2241,139,1380,1366,6365,14881,608,-168,298,1024,35371,-26,34,127,0,0,4029,197,0,1784,449,111,15699,-4,0,132,-4,261302,0
261317,451,-2268,136,1405,1238,6210,15112,474,-189,304,800,35385,-51,35,127,0,0,4049,208,0,1784,449,111,15709,-4,0,137,-3,261302,0
261327,481,-2273,122,1454,1177,6102,15296,374,-191,357,584,35391,-57,34,127,0,0,4073,252,0,1784,449,111,15719,-4,0,140,-3,261302,0
261337,617,-2271,46,1498,1124,5873,15455,343,-133,411,504,35392,-54,35,127,0,0,4093,241,0,1784,449,111,15729,-4,0,144,-3,261317,0
261347,768,-2253,57,1492,1154,5595,15592,301,-86,429,416,35387,-41,34,127,0,0,4106,131,0,1784,449,111,15739,-4,0,146,-3,261333,0
261357,845,-2214,120,1402,1136,5237,15714,244,-87,323,200,35389,-53,34,127,0,0,4104,-32,0,1784,449,111,15749,-4,0,149,-3,261333,0
261367,951,-2297,168,1327,1113,4953,15785,104,-137,121,40,35399,-73,35,127,0,0,4102,-32,0,1784,449,111,15759,-4,0,151,-3,261349,0
261377,974,-2253,167,1246,1095,4250,15780,-49,-223,14,-16,35399,-104,35,127,0,0,4089,-131,0,1784,449,111,15769,-4,0,154,-3,261364,0
261387,1096,-2237,179,1195,1077,3698,15742,-87,-214,-173,-168,35383,-104,35,127,0,0,4069,-252,0,1784,449,111,15779,-4,0,155,-2,261364,0
261397,1145,-2157,166,1137,1034,2764,15686,-159,-95,-412,-296,35386,-111,35,127,0,0,4040,-296,0,1784,449,111,15789,-4,0,156,-2,261380,0
261407,1150,-2072,114,1079,986,2001,15590,-229,-118,-441,-392,35385,-92,35,127,0,0,4016,-241,0,1784,449,111,15799,-4,0,157,-2,261380,0
261417,1195,-1988,26,871,1048,772,15486,-240,-92,-502,-448,35391,-84,35,127,0,0,3988,-241,0,1784,449,111,15809,-4,0,158,-3,261395,0
261427,1191,-1997,-3,659,1230,-142,15362,-270,-53,-460,-448,35392,-70,35,127,0,0,3966,-208,0,1784,449,111,15819,-4,0,158,-3,261427,0
261437,1206,-2119,-40,290,1641,-1509,15248,-254,-20,-526,-504,35380,-49,35,127,0,0,3941,-208,0,1784,449,111,15829,-4,0,157,-3,261427,0
261447,1274,-2139,-89,69,1944,-2408,15124,-265,-2,-531,-504,35380,-57,35,127,0,0,3915,-285,0,1784,449,111,15839,-4,0,157,-3,261427,0
261457,1425,-1963,-176,-265,2317,-3595,15001,-277,-16,-525,-528,35384,-59,35,127,0,0,3886,-296,0,1784,449,111,15849,-4,0,155,-4,261427,0
261467,1464,-1731,-204,-476,2494,-4251,14868,-306,-20,-540,-624,35393,-86,34,127,0,0,3854,-318,0,1784,449,111,15859,-4,0,154,-5,261458,0
261477,-5191,-6946,477,-1404,-594,-1355,14708,-381,-59,-462,-568,35396,-108,34,127,0,0,3875,373,0,1784,449,111,15869,-4,0,152,-5,261458,0
261487,-1135,-859,3129,925,862,-997,14625,119,46,1414,1192,35385,-93,35,127,0,0,4001,999,0,1784,449,111,15879,-4,0,150,-6,261458,0
261497,-1139,-2244,2634,712,-1093,1576,14855,548,802,762,2008,35383,-67,35,127,0,0,4214,2493,0,1784,449,111,15889,-4,0,149,-6,261505,0
261507,-574,-1875,1157,969,-1789,1903,15309,1306,986,2206,4584,35359,-34,35,127,0,0,4557,3493,0,1784,449,111,15899,-4,0,148,-6,261505,0
261517,98,-1717,-2091,277,-582,-1165,16219,2239,1340,1507,5688,35339,35,35,127,0,0,4776,2043,0,1784,449,111,15909,-4,0,147,-6,261505,0
261527,-1826,-2344,-1669,-24,333,-2003,17272,2278,1185,420,4968,35326,70,34,127,0,0,4882,1032,0,1784,449,111,15919,-4,0,146,-6,261520,0
261537,-1961,-3033,920,272,769,-1729,18199,1940,5,149,4232,35336,76,35,127,0,0,4992,1120,0,1784,449,111,15929,-4,0,145,-7,261552,0
261547,-982,-2655,1467,297,393,-1747,18986,1666,-525,284,3864,35360,17,34,127,0,0,5106,1153,0,1784,449,111,15939,-4,0,144,-7,261567,0
261557,379,-2490,-44,50,364,-2685,19703,1535,-398,400,3448,35366,-39,34,127,0,0,5189,758,0,1784,449,111,15949,-4,0,143,-7,261583,0
261567,195,-2357,-170,4,298,-3254,20336,1307,-290,225,2560,35366,-48,35,127,0,0,5209,175,0,1784,449,111,15959,-4,0,142,-7,261583,0
261577,-355,-1988,492,-73,-116,-3153,20819,966,-449,134,1608,35367,-64,34,127,0,0,5209,-32,0,1784,449,111,15969,-4,0,140,-7,261583,0
261587,-313,-2139,703,-135,-306,-2979,21152,642,-578,133,904,35380,-66,35,127,0,0,5198,-87,0,1784,449,111,15979,-4,0,139,-7,261583,0
261597,149,-1855,329,-71,-477,-2816,21360,381,-528,216,400,35376,-93,34,127,0,0,5194,-76,0,1784,449,111,15989,-4,0,138,-7,261583,0
261607,154,-1967,377,-33,-402,-2657,21462,160,-444,209,0,35377,-108,34,127,0,0,5178,-142,0,1784,449,111,15999,-4,0,136,-7,261583,0
261617,-133,-2096,672,136,-234,-2466,21456,-55,-412,52,-72,35382,-98,35,127,0,0,5163,-208,0,1784,449,111,16009,-4,0,135,-7,261598,0
261627,-211,-1890,652,152,-112,-2347,21399,-155,-306,-191,-128,35394,-104,35,127,0,0,5145,-197,0,1784,449,111,16019,-4,0,134,-7,261661,0
261637,-187,-1730,326,-17,53,-2146,21326,-182,-129,-244,-192,35391,-50,34,127,0,0,5128,-186,0,1784,449,111,16029,-4,0,132,-7,261661,0
261647,-57,-1946,201,-45,78,-2043,21244,-164,-50,-290,-224,35385,-57,34,127,0,0,5115,-120,0,1784,449,111,16039,-4,0,131,-7,261661,0
261657,-25,-1923,79,-4,-43,-1896,21175,-142,20,-368,-248,35376,-74,35,127,0,0,5095,-153,0,1784,449,111,16049,-4,0,129,-7,261661,0
261667,-86,-2023,112,6,-145,-1746,21097,-184,13,-346,-240,35389,-122,34,127,0,0,5082,-131,0,1784,449,111,16059,-4,0,128,-7,261677,0
261677,-215,-2212,279,8,-338,-1584,21027,-155,-12,-387,-208,35392,-131,35,127,0,0,5071,-87,0,1784,449,111,16069,-4,0,127,-7,261677,0
261687,1,-2396,413,130,71,-1944,20957,-165,16,-433,-360,35384,-101,35,127,0,0,5031,-417,0,1784,449,111,16079,-4,0,126,-7,261677,0
261697,-89,-2137,347,5,134,-1824,20849,-277,-80,-593,-672,35385,-89,35,127,0,0,4985,-439,0,1784,449,111,16089,-4,0,124,-7,261677,0
261707,125,-2126,602,19,118,-1830,20697,-361,-166,-531,-800,35398,-70,35,127,0,0,4941,-472,0,1784,449,111,16099,-4,0,123,-7,261723,0
261717,-10,-1858,245,-65,-74,-1515,20510,-427,-144,-489,-976,35397,-47,35,127,0,0,4895,-450,0,1784,449,111,16109,-4,0,123,-7,261723,0
261727,-82,-1988,157,-16,-94,-1375,20296,-484,-122,-381,-928,35390,-59,35,127,0,0,4858,-362,0,1784,449,111,16119,-4,0,123,-7,261723,0
261737,-107,-1950,95,73,-34,-1328,20080,-478,-62,-346,-856,35379,-69,35,127,0,0,4827,-329,0,1784,449,111,16129,-4,0,123,-7,261723,0
261747,-16,-2013,232,75,-40,-1275,19870,-465,0,-335,-832,35379,-99,34,127,0,0,4790,-373,0,1784,449,111,16139,-4,0,123,-7,261723,0
261757,-72,-2004,382,78,-103,-1147,19670,-433,29,-359,-816,35391,-92,35,127,0,0,4759,-329,0,1784,449,111,16149,-4,0,123,-7,261723,0
261767,-105,-2065,393,61,-124,-1092,19477,-420,34,-321,-728,35399,-91,35,127,0,0,4728,-307,0,1784,449,111,16159,-4,0,123,-7,261755,0
261777,-153,-2052,415,55,-87,-1104,19295,-391,35,-371,-656,35398,-108,35,127,0,0,4699,-296,0,1784,449,111,16169,-4,0,123,-7,261755,0
261787,-135,-2037,460,35,-83,-1120,19122,-380,36,-386,-624,35397,-82,35,127,0,0,4669,-340,0,1784,449,111,16179,-4,0,123,-7,261770,0
261797,-156,-2009,464,-25,-107,-1166,18951,-372,18,-385,-576,35395,-79,35,127,0,0,4640,-340,0,1784,449,111,16189,-4,0,123,-7,261786,0
261807,-205,-2005,463,-58,-119,-1179,18787,-358,21,-443,-632,35389,-71,35,127,0,0,4607,-340,0,1784,449,111,16199,-4,0,123,-7,261802,0
261817,-206,-1920,469,-85,-92,-1245,18625,-353,7,-435,-688,35387,-78,35,127,0,0,4572,-373,0,1784,449,111,16209,-4,0,123,-7,261802,0
261827,-112,-1904,444,-130,-83,-1292,18452,-377,-14,-430,-728,35384,-64,35,127,0,0,4537,-329,0,1784,449,111,16219,-4,0,123,-7,261802,0
261837,-11,-1929,403,-188,-87,-1344,18278,-381,-18,-423,-768,35377,-66,35,127,0,0,4495,-439,0,1784,449,111,16229,-4,0,123,-7,261833,0
261847,-1,-1952,373,-218,-98,-1373,18094,-418,-16,-452,-816,35381,-75,35,127,0,0,4456,-384,0,1784,449,111,16239,-4,0,123,-7,261833,0
261857,-20,-2012,377,-211,-98,-1380,17907,-421,-30,-453,-864,35377,-80,34,127,0,0,4414,-395,0,1784,449,111,16249,-4,0,123,-7,261833,0
261867,50,-2036,406,-205,-91,-1388,17706,-440,-39,-456,-936,35374,-89,34,127,0,0,4372,-406,0,1784,449,111,16259,-4,0,123,-7,261848,0
261877,107,-2069,370,-205,-83,-1411,17496,-463,-41,-444,-1000,35382,-87,35,127,0,0,4326,-439,0,1784,449,111,16269,-4,0,123,-7,261864,0
261887,103,-2045,355,-214,-83,-1418,17280,-469,-25,-440,-992,35390,-53,35,127,0,0,4282,-461,0,1784,449,111,16279,-4,0,123,-7,261864,0
261897,18,-2024,268,-206,-87,-1419,17059,-487,-15,-446,-1032,35384,-50,35,127,0,0,4240,-406,0,1784,449,111,16289,-4,0,123,-7,261864,0
261907,-7,-2026,226,-184,-71,-1418,16836,-483,-8,-420,-1000,35382,-37,35,127,0,0,4196,-461,0,1784,449,111,16299,-4,0,123,-7,261880,0
261917,-7,-1995,216,-143,-68,-1459,16612,-500,6,-433,-1032,35388,-56,34,127,0,0,4152,-461,0,1784,449,111,16309,-4,0,123,-7,261895,0
261927,52,-1977,231,-118,-63,-1522,16384,-510,-12,-429,-1000,35396,-45,35,127,0,0,4108,-472,0,1784,449,111,16319,-4,0,123,-7,261911,0
261937,44,-1985,245,-118,-34,-1612,16156,-507,-2,-444,-1000,35389,-42,34,127,0,0,4062,-450,0,1784,449,111,16329,-4,0,123,-7,261911,0
261947,32,-2023,286,-132,-15,-1656,15929,-505,-1,-468,-1064,35383,-47,34,127,0,0,4014,-505,0,1784,449,111,16339,-4,0,123,-7,261926,0
261957,88,-2038,402,-130,-8,-1733,15701,-496,-9,-465,-1128,35385,-60,35,127,0,0,3963,-516,0,1784,449,111,16349,-4,0,123,-7,261926,0
261967,130,-2023,454,-146,-14,-1771,15470,-500,0,-506,-1208,35390,-88,35,127,0,0,3913,-516,0,1784,449,111,16359,-4,0,123,-7,261973,0
261977,180,-1982,480,-194,-49,-1829,15233,-529,-12,-557,-1296,35383,-83,35,127,0,0,3860,-538,0,1784,449,111,16369,-4,0,123,-7,261973,0
261987,162,-1980,468,-226,-57,-1852,14980,-571,-41,-604,-1376,35382,-71,34,127,0,0,3803,-582,0,1784,449,111,16379,-4,0,123,-7,261973,0
261997,148,-2017,369,-262,-74,-1826,14711,-599,-62,-586,-1344,35380,-64,34,127,0,0,3750,-505,0,1784,449,111,16389,-4,0,123,-7,261989,0
262007,175,-2012,341,-245,-63,-1821,14441,-592,-24,-569,-1384,35385,-66,35,127,0,0,3702,-505,0,1784,449,111,16399,-4,0,123,-7,261989,0
262017,274,-1995,290,-225,-49,-1874,14168,-595,-4,-528,-1448,35398,-74,35,127,0,0,3645,-549,0,1784,449,111,16409,-4,0,123,-7,261989,0
262027,328,-1983,259,-213,-42,-1881,13897,-586,-3,-525,-1464,35402,-58,34,127,0,0,3592,-560,0,1784,449,111,16419,-4,0,123,-7,262020,0
262037,375,-2002,244,-180,-53,-1850,13622,-615,-1,-550,-1456,35399,-44,34,127,0,0,3539,-549,0,1784,449,111,16429,-4,0,123,-7,262020,0
262047,392,-1988,201,-156,-63,-1854,13345,-608,-11,-576,-1424,35390,-56,35,127,0,0,3487,-538,0,1784,449,111,16439,-4,0,123,-7,262020,0
262057,362,-1968,173,-121,-64,-1817,13069,-607,0,-562,-1400,35391,-56,35,127,0,0,3434,-527,0,1784,449,111,16449,-4,0,123,-7,262036,0
262067,347,-1948,207,-105,-86,-1800,12791,-614,-1,-541,-1408,35391,-46,35,127,0,0,3381,-549,0,1784,449,111,16459,-4,0,123,-7,262067,0
262077,355,-1982,257,-77,-93,-1792,12514,-609,-1,-527,-1392,35386,-48,35,127,0,0,3333,-461,0,1784,449,111,16469,-4,0,123,-7,262067,0
262087,341,-1980,300,-88,-98,-1799,12247,-583,16,-534,-1424,35393,-48,34,127,0,0,3282,-516,0,1784,449,111,16479,-4,0,123,-7,262067,0
262097,370,-2005,373,-145,-190,-1776,11974,-600,10,-520,-1320,35392,-62,35,127,0,0,3232,-483,0,1784,449,111,16489,-4,0,123,-7,262067,0
262107,333,-2088,425,-174,-228,-1729,11712,-576,16,-515,-1272,35398,-71,34,127,0,0,3190,-450,0,1784,449,111,16499,-4,0,123,-7,262098,0
262117,493,-2039,557,-111,-565,-1762,11459,-556,38,-537,-1192,35391,-59,34,127,0,0,3153,-362,0,1784,449,111,16509,-4,0,123,-7,262098,0
262127,502,-2340,578,-75,-548,-1709,11220,-512,43,-470,-1064,35393,-40,35,127,0,0,3115,-362,0,1784,449,111,16519,-4,0,123,-7,262130,0
262137,156,-2306,514,-106,-517,-1628,11006,-436,72,-501,-880,35383,-59,35,127,0,0,3087,-274,0,1784,449,111,16529,-4,0,123,-7,262130,0
262147,260,-2139,395,-143,-447,-1716,10819,-380,109,-464,-720,35384,-60,35,127,0,0,3069,-219,0,1784,449,111,16539,-4,0,123,-7,262130,0
262157,345,-1974,313,-182,-491,-1835,10664,-317,110,-525,-584,35382,-73,35,127,0,0,3049,-208,0,1784,449,111,16549,-4,0,123,-7,262130,0
262167,323,-1987,308,-211,-569,-1882,10529,-292,101,-553,-568,35389,-63,34,127,0,0,3027,-219,0,1784,449,111,16559,-4,0,123,-7,262145,0
262177,217,-1979,271,-294,-602,-2016,10409,-257,62,-589,-528,35390,-61,34,127,0,0,3005,-175,0,1784,449,111,16569,-4,0,123,-7,262208,0
262187,243,-2035,287,-336,-544,-2172,10292,-233,32,-562,-456,35393,-59,34,127,0,0,2981,-274,0,1784,449,111,16579,-4,0,123,-7,262208,0
262197,387,-2221,351,-301,-523,-2249,10189,-238,41,-650,-512,35374,-74,34,127,0,0,2961,-197,0,1784,449,111,16589,-4,0,123,-7,262208,0
262207,393,-2186,401,-293,-578,-2214,10083,-228,15,-619,-496,35370,-76,35,127,0,0,2944,-142,0,1784,449,111,16599,-4,0,123,-7,262208,0
262217,478,-2132,439,-328,-697,-2204,9978,-225,-5,-508,-344,35377,-99,35,127,0,0,2937,-76,0,1784,449,111,16609,-4,0,123,-7,262208,0
262227,459,-2192,453,-326,-790,-2225,9895,-149,37,-391,-256,35383,-66,35,127,0,0,2935,-32,0,1784,449,111,16619,-4,0,123,-7,262223,0
262237,508,-2326,576,-284,-937,-2306,9865,-29,150,-438,-176,35385,-47,35,127,0,0,2935,10,0,1784,449,111,16629,-4,0,123,-7,262223,0
262247,295,-2437,549,-300,-1044,-2246,9866,5,170,-523,-112,35391,-36,35,127,0,0,2944,109,0,1784,449,111,16639,-4,0,123,-7,262223,0
262257,395,-2545,496,-323,-1080,-2170,9883,67,97,-207,64,35398,-40,35,127,0,0,2966,241,0,1784,449,111,16649,-4,0,123,-7,262301,0
262267,428,-2382,365,-324,-1113,-2193,9937,143,115,263,288,35402,-50,35,127,0,0,3010,417,0,1784,449,111,16659,-4,0,123,-7,262301,0
262277,394,-2138,277,-284,-1203,-2339,10039,248,162,447,520,35391,-38,34,127,0,0,3052,472,0,1784,449,111,16669,-4,0,7,0,262317,0
262287,322,-2125,221,-304,-1270,-2416,10184,350,167,475,688,35377,-34,34,127,0,0,3102,505,0,1784,449,111,16679,-4,0,8,0,262317,0
262297,253,-2210,237,-402,-1376,-2503,10368,423,155,385,840,35374,-46,35,127,0,0,3159,582,0,1784,449,111,16689,-4,0,9,0,262317,0
262307,125,-2284,274,-408,-1302,-2661,10569,470,109,444,1024,35379,-104,35,127,0,0,3218,582,0,1784,449,111,16699,-4,0,10,0,262317,0
262317,204,-2267,308,-378,-1257,-2900,10807,556,115,492,1232,35380,-122,35,127,0,0,3284,626,0,1784,449,111,16709,-4,0,12,0,262317,0
262327,-93,-2142,292,-433,-1275,-2871,11070,588,118,496,1336,35377,-95,34,127,0,0,3350,670,0,1784,449,111,16719,-4,0,13,0,262317,0
262337,49,-2540,123,-637,-1052,-2955,11360,658,94,573,1624,35367,-81,34,127,0,0,3436,889,0,1784,449,111,16729,-4,0,15,0,262317,0
262347,206,-2334,175,-492,-804,-3670,11693,764,137,607,1856,35375,-62,35,127,0,0,3520,791,0,1784,449,111,16739,-4,0,16,0,262317,0
262357,-483,-1720,156,-576,-1097,-3373,12061,798,147,480,1824,35389,-80,35,127,0,0,3594,812,0,1784,449,111,16749,-4,0,19,0,262348,0
262367,113,-2186,-67,-815,-1126,-3434,12433,833,7,622,2192,35390,-81,35,127,0,0,3700,1043,0,1784,449,111,16759,-4,0,20,0,262348,0
262377,-68,-2406,-94,-715,-908,-4225,12851,946,138,596,2384,35383,-62,35,127,0,0,3799,1010,0,1784,449,111,16769,-4,0,23,0,262348,0
262387,19,-2173,-76,-721,-1013,-4824,13300,1004,163,546,2424,35374,-66,34,127,0,0,3878,812,0,1784,449,111,16779,-4,0,25,0,262364,0
262397,-190,-2194,-24,-720,-1315,-4801,13752,972,63,425,2392,35369,-54,35,127,0,0,3968,933,0,1784,449,111,16789,-4,0,28,0,262379,0
262407,-89,-2792,-173,-563,-1221,-5037,14205,1013,-3,560,2568,35366,-52,34,127,0,0,4067,1010,0,1784,449,111,16799,-4,0,30,0,262395,0
262417,252,-2899,-57,-187,-1169,-5893,14687,1072,56,519,2584,35364,-51,34,127,0,0,4168,988,0,1784,449,111,16809,-4,0,34,0,262395,0
262427,566,-2608,182,-95,-1571,-6294,15179,1087,82,461,2496,35375,-35,35,127,0,0,4247,780,0,1784,449,111,16819,-4,0,36,0,262411,0
262437,711,-2950,563,136,-2447,-6104,15659,1043,-7,449,2384,35373,-36,35,127,0,0,4337,911,0,1784,449,111,16829,-4,0,40,0,262411,0
262447,618,-3582,481,259,-2930,-5787,16122,1016,-66,623,2496,35372,-30,34,127,0,0,4449,1142,0,1784,449,111,16839,-4,0,42,0,262426,0
262457,582,-3814,384,501,-3249,-5409,16612,1120,20,916,3056,35369,-29,34,127,0,0,4594,1483,0,1784,449,111,16849,-4,0,46,0,262458,0
262467,460,-3652,449,494,-3572,-5174,17183,1305,207,980,3488,35359,-14,35,127,0,0,4746,1527,0,1784,449,111,16859,-4,0,49,0,262458,0
262477,237,-3189,773,294,-4466,-4396,17828,1465,303,1021,3960,35356,-25,35,127,0,0,4928,1889,0,1784,449,111,16869,-4,0,54,0,262458,0
262487,250,-2891,921,188,-4831,-3817,18573,1726,326,1264,4736,35351,-4,35,127,0,0,5145,2164,0,1784,449,111,16879,-4,0,58,0,262458,0
262497,-194,-2252,1065,51,-5672,-2671,19459,2021,470,1098,5280,35345,31,34,127,0,0,5370,2263,0,1784,449,111,16889,-4,0,64,0,262489,0
262507,1543,-2401,755,-80,-5383,-2588,20437,2215,443,1085,4968,35343,42,34,127,0,0,5567,1845,0,1784,449,111,16899,-4,0,69,0,262489,0
262517,916,-1677,232,-270,-4421,-2646,21330,1758,54,-719,1016,35368,41,35,127,0,0,5552,-329,0,1784,449,111,16909,-4,0,75,0,262489,0
262527,508,-1462,27,-202,-4121,-2203,21502,-436,-1507,-3840,-1960,35372,-28,34,127,0,0,5409,-1516,0,1784,449,111,16919,-4,0,80,0,262504,0
262537,-97,-1299,185,75,-3418,-2079,21136,-731,-2608,505,528,35375,-8,34,127,0,0,5187,-2263,0,1784,449,111,16929,-4,0,87,61,262504,0
262547,-8,-1330,314,-13,-3725,-1053,21183,212,-138,-46,-1008,35371,-55,35,127,0,0,4976,-2032,0,1784,449,111,16939,-4,0,91,58,262536,0
262557,3,-1700,282,163,-3769,-145,20952,-682,312,-1213,-2360,35370,-31,35,127,0,0,4807,-1713,0,1784,449,111,16949,-4,0,98,54,262536,0
262567,-178,-1570,114,254,-3743,371,20493,-1129,-1034,-1036,-3152,35368,-46,35,127,0,0,4658,-1483,0,1784,449,111,16959,-4,0,103,52,262536,0
262577,59,-1534,14,264,-3484,1109,19892,-1376,-702,-603,-3320,35370,-17,35,127,0,0,4532,-1208,0,1784,449,111,16969,-4,0,111,48,262567,0
262587,191,-1539,-27,295,-3086,1475,19249,-1412,-340,-426,-3384,35361,-18,35,127,0,0,4409,-1252,0,1784,449,111,16979,-4,0,115,45,262567,0
262597,346,-1517,4,358,-2280,1920,18604,-1413,-72,-449,-3416,35369,-16,35,127,0,0,4271,-1373,0,1784,449,111,16989,-4,0,123,41,262567,0
262607,453,-1455,0,437,-1680,2159,17946,-1459,-19,-572,-3656,35362,-48,35,127,0,0,4113,-1604,0,1784,449,111,16999,-4,0,128,39,262598,0
262617,414,-1331,-42,501,-860,2643,17244,-1599,-115,-692,-4032,35355,-48,34,127,0,0,3935,-1779,0,1784,449,111,17009,-4,0,136,35,262598,0
262627,360,-1293,-74,519,-399,3048,16468,-1757,-238,-697,-4368,35348,-42,34,127,0,0,3761,-1746,0,1784,449,111,17019,-4,0,141,32,262598,0
262637,334,-1276,-172,574,253,3706,15633,-1849,-254,-584,-4392,35353,-20,35,127,0,0,3612,-1450,0,1784,449,111,17029,-4,0,148,29,262692,0
262647,363,-1296,-221,612,742,4116,14809,-1785,-100,-400,-3976,35365,-1,35,127,0,0,3506,-1021,0,1784,449,111,17039,-4,0,154,27,262692,0
262657,439,-1413,-305,685,1613,4617,14073,-1555,186,-224,-3384,35378,-12,35,127,0,0,3425,-747,0,1784,449,111,17049,-4,0,162,23,262692,0
262667,508,-1509,-308,724,2231,4894,13440,-1327,374,-182,-2792,35372,-27,35,127,0,0,3366,-571,0,1784,449,111,17059,-4,0,167,21,262692,0
262677,656,-1631,-164,749,3109,5293,12908,-1115,391,-182,-2272,35369,-63,35,127,0,0,3317,-450,0,1784,449,111,17069,-4,0,175,18,262692,0
262687,736,-1676,-25,754,3576,5574,12462,-915,349,-221,-1832,35373,-67,35,127,0,0,3273,-428,0,1784,449,111,17079,-4,0,181,16,262692,0
262697,863,-1741,67,718,4034,6052,12090,-782,312,-299,-1504,35381,-77,35,127,0,0,3234,-406,0,1784,449,111,17089,-4,0,189,14,262692,0
262707,981,-1798,126,684,4178,6401,11781,-637,259,-334,-1232,35377,-57,35,127,0,0,3210,-263,0,1784,449,111,17099,-4,0,194,12,262692,0
262717,1077,-1886,160,640,4238,6881,11527,-521,224,-367,-936,35378,-74,35,127,0,0,3188,-197,0,1784,449,111,17109,-4,0,203,10,262692,0
262727,1094,-1932,159,627,4196,7151,11317,-443,191,-366,-696,35388,-71,35,127,0,0,3177,-76,0,1784,449,111,17119,-4,0,208,8,262708,0
262737,1059,-1993,190,612,4084,7486,11150,-330,166,-342,-392,35400,-74,35,127,0,0,3172,-54,0,1784,449,111,17129,-4,0,217,7,262723,0
262747,1096,-2057,202,635,4070,7598,11041,-190,186,-359,-208,35396,-54,34,127,0,0,3175,32,0,1784,449,111,17139,-4,0,222,5,262723,0
262757,1045,-2151,154,638,4085,7783,10990,-72,220,-249,-72,35381,-69,34,127,0,0,3177,10,0,1784,449,111,17149,-4,0,230,4,262723,0
262767,1078,-2166,131,621,4095,7966,11000,47,226,-230,0,35376,-75,35,127,0,0,3188,120,0,1784,449,111,17159,-4,0,235,3,262754,0
262777,1043,-2162,115,641,4190,8122,11026,72,151,104,168,35386,-87,34,127,0,0,3210,241,0,1784,449,111,17169,-4,0,243,2,262754,0
262787,1023,-2165,94,661,4234,8185,11097,200,110,348,344,35392,-88,35,127,0,0,3243,318,0,1784,449,111,17179,-4,0,249,1,262770,0
262797,1078,-2184,128,696,4222,8275,11212,256,177,445,512,35388,-85,35,127,0,0,3284,417,0,1784,449,111,17189,-4,0,256,1,262786,0
262807,1079,-2188,168,721,4132,8352,11358,350,142,527,744,35385,-108,35,127,0,0,3337,494,0,1784,449,111,17199,-4,0,261,0,262786,0
262817,1093,-2206,206,737,3881,8470,11537,430,129,542,992,35390,-104,35,127,0,0,3392,582,0,1784,449,111,17209,-4,0,268,0,262786,0
262827,1130,-2221,204,773,3658,8528,11754,505,137,564,1184,35402,-94,35,127,0,0,3458,670,0,1784,449,111,17219,-4,0,273,0,262833,0
262837,1070,-2283,215,855,3252,8570,12002,570,134,540,1376,35385,-41,35,127,0,0,3524,670,0,1784,449,111,17229,-4,0,280,0,262848,0
262847,1045,-2299,220,931,2938,8571,12278,623,114,550,1464,35385,-47,35,127,0,0,3585,626,0,1784,449,111,17239,-4,0,284,0,262848,0
262857,1076,-2313,224,1033,2473,8583,12573,658,82,512,1544,35375,-56,35,127,0,0,3647,637,0,1784,449,111,17249,-4,0,290,-1,262848,0
262867,1020,-2353,207,1087,2204,8528,12874,672,41,514,1624,35378,-64,34,127,0,0,3708,626,0,1784,449,111,17259,-4,0,293,-1,262848,0
262877,921,-2427,226,1176,1810,8320,13186,693,32,473,1584,35383,-75,34,127,0,0,3770,582,0,1784,449,111,17269,-4,0,299,-1,262848,0
262887,905,-2518,240,1230,1643,8111,13497,680,18,454,1576,35388,-69,35,127,0,0,3821,527,0,1784,449,111,17279,-4,0,302,-1,262879,0
262897,851,-2591,224,1205,1449,7811,13802,658,-14,405,1528,35389,-82,35,127,0,0,3871,494,0,1784,449,111,17289,-4,0,306,-1,262879,0
262907,933,-2727,242,1221,1348,7606,14098,640,-30,446,1480,35388,-67,35,127,0,0,3926,505,0,1784,449,111,17299,-4,0,309,-1,262879,0
262917,1087,-2771,289,1311,1039,7264,14390,634,-24,420,1432,35389,-63,34,127,0,0,3977,494,0,1784,449,111,17309,-4,0,313,-1,262911,0
262927,1125,-2733,348,1314,727,6912,14675,619,-19,420,1280,35385,-72,34,127,0,0,4012,351,0,1784,449,111,17319,-4,0,315,-1,262911,0
262937,1270,-2748,359,1284,153,6233,14943,566,-43,336,1040,35394,-57,35,127,0,0,4040,274,0,1784,449,111,17329,-4,0,318,-1,262911,0
262947,1372,-2743,339,1215,-206,5677,15174,483,-95,304,680,35404,-75,35,127,0,0,4042,10,0,1784,449,111,17339,-4,0,319,-1,262926,0
262957,1372,-2673,350,1124,-744,4876,15358,356,-166,227,296,35412,-66,35,127,0,0,4042,-32,0,1784,449,111,17349,-4,0,321,-1,262942,0
262967,1368,-2558,369,1073,-1065,4228,15473,189,-225,67,72,35403,-73,34,127,0,0,4042,0,0,1784,449,111,17359,-4,0,322,-1,262942,0
262977,1382,-2387,265,993,-1375,2982,15480,-38,-344,-23,16,35396,-68,35,127,0,0,4036,-43,0,1784,449,111,17369,-4,0,322,-1,263067,0
262987,1340,-2318,157,903,-1492,2043,15462,-27,-268,-67,-88,35390,-64,35,127,0,0,4023,-164,0,1784,449,111,17379,-4,0,322,-1,263067,0
262997,1391,-2278,17,633,-1420,560,15416,-148,-96,-315,-176,35390,-67,34,127,0,0,3999,-263,0,1784,449,111,17389,-4,0,321,-1,263067,0
263007,1243,-2285,-25,433,-1217,-424,15348,-159,-110,-441,-352,35386,-43,34,127,0,0,3972,-307,0,1784,449,111,17399,-4,0,320,-2,263067,0
263017,1229,-2438,-116,85,-728,-1807,15257,-229,-86,-613,-504,35380,-42,35,127,0,0,3941,-274,0,1784,449,111,17409,-4,0,320,-2,263067,0
263027,1172,-2526,-120,-105,-301,-2683,15131,-279,-111,-536,-504,35381,-58,35,127,0,0,3919,-230,0,1784,449,111,17419,-4,0,320,-2,263082,0
263037,1253,-2527,-126,-354,369,-3899,15006,-282,-66,-462,-432,35384,-62,35,127,0,0,3902,-164,0,1784,449,111,17429,-4,0,320,-2,263082,0
263047,1328,-2401,-144,-483,813,-4647,14892,-247,21,-472,-488,35385,-94,35,127,0,0,3875,-263,0,1784,449,111,17439,-4,0,320,-2,263082,0
263057,-2148,-8586,-828,-2022,-128,-3049,14764,-290,0,-386,-80,35379,-101,35,127,0,0,3966,1197,0,2654,984,112,1,1,1,320,-2,263082,0
263067,-1143,-4878,1765,233,3355,-3272,14863,585,372,1936,2512,35376,-105,35,127,0,0,4137,1571,0,2654,984,112,11,1,1,320,-2,263082,0
263077,824,1368,1893,1001,563,-3598,15375,1307,1305,1390,3736,35369,-75,35,127,0,0,4234,977,0,2654,984,112,21,1,1,320,-2,263082,0
263087,-120,-1454,1370,243,-1360,-1934,16091,1664,1179,1196,4792,35355,-9,34,127,0,0,4412,1988,0,2654,984,112,31,1,1,320,-2,263082,0
263097,-257,-2070,460,-159,-891,-1446,17067,2384,850,2062,6744,35334,41,35,127,0,0,4664,2515,0,2654,984,112,41,1,1,320,-2,263082,0
263107,-805,-1313,-848,-686,-891,-2207,18350,2960,1117,1410,7624,35328,133,35,127,0,0,4858,1856,0,2654,984,112,51,1,1,320,-2,263082,0
263117,-1103,-2337,-1973,-644,507,-3587,19750,3097,822,631,7400,35338,169,35,127,0,0,4976,1142,0,2654,984,112,61,1,1,320,-2,263114,0
263127,-738,-2594,-903,-181,1222,-4095,21086,2852,105,395,6808,35352,175,35,127,0,0,5051,703,0,2654,984,112,71,1,1,320,-2,263114,0
263137,-181,-2432,594,19,1012,-4203,22290,2573,-390,394,6120,35360,108,34,127,0,0,5104,516,0,2654,984,112,81,1,1,320,-2,263114,0
263147,579,-2708,669,-209,651,-4291,23386,2323,-456,98,4520,35363,29,34,127,0,0,5135,252,0,2654,984,112,91,1,1,320,-2,263114,0
263157,1365,-2449,255,-351,-80,-4451,24299,1852,-548,-231,2632,35387,-29,35,127,0,0,5126,-109,0,2654,984,112,101,1,1,320,-2,263161,0
263167,1231,-2057,-517,-543,-414,-4556,24942,1207,-874,-505,888,35398,-46,34,127,0,0,5073,-571,0,2654,984,112,111,1,1,320,-2,263161,0
263177,398,-1819,-545,-460,-624,-4073,25226,269,-1177,-1498,-488,35395,-76,34,127,0,0,5014,-582,0,2654,984,112,121,1,1,320,-2,263161,0
263187,167,-2404,-357,-302,-250,-4165,25085,-388,-1538,-592,-912,35379,-101,35,127,0,0,4937,-802,540,2654,984,112,131,1,1,320,-2,263161,0
263197,-339,-1425,324,88,63,-4052,24947,-213,-801,346,72,35386,-132,34,127,0,0,4822,-1131,740,2654,984,112,141,1,1,320,-2,263176,0
263207,2798,-2788,309,-117,-60,-2970,24827,-337,101,488,-104,35398,-131,35,127,0,0,4792,-329,940,2654,984,112,151,1,1,320,-2,263207,0
263217,1769,-2181,330,-79,-710,-2608,24459,-1029,-440,415,-1304,35401,-79,35,127,0,0,4735,-604,1140,2654,984,112,161,1,1,320,-2,263207,0
263227,-98,-2159,-251,23,-294,-2872,23809,-1560,-1049,463,-2216,35396,-73,34,127,0,0,4631,-1098,1340,2654,984,112,171,1,1,320,-2,263207,0
263237,-1030,-2037,-824,447,623,-3286,23109,-1476,-658,614,-1728,35404,-63,35,127,0,0,4508,-1241,1500,2654,984,112,181,1,1,320,-2,263239,0
263247,-590,-1947,-94,534,437,-2944,22574,-1020,233,819,-520,35405,-112,35,127,0,0,4398,-1054,1500,2654,984,112,191,1,1,320,-2,263239,0
263257,386,-2086,790,283,-363,-1963,22290,-543,774,1271,-24,35402,-120,34,127,0,0,4333,-615,1500,2654,984,112,201,1,1,320,-2,263239,0
263267,432,-2038,462,183,-901,-1635,22165,-223,825,1088,48,35397,-124,34,127,0,0,4311,-197,1500,2654,984,112,211,1,1,320,-2,263239,0
263277,-18,-1993,-344,303,-247,-1949,21987,-503,214,811,-176,35397,-115,35,127,0,0,4275,-406,1500,2654,984,112,221,1,1,320,-2,263286,0
263287,-89,-1939,-66,531,266,-2330,21611,-970,-554,654,-984,35401,-124,35,127,0,0,4201,-769,1500,2654,984,112,231,1,1,320,-2,263286,0
263297,151,-1892,532,609,688,-2454,21098,-1162,-640,714,-1112,35405,-119,35,127,0,0,4100,-1032,1500,2654,984,112,241,1,1,320,-2,263286,0
263307,375,-1866,695,432,223,-2246,20625,-970,-125,748,-352,35390,-116,34,127,0,0,4014,-834,1500,2654,984,112,251,1,1,320,-2,263286,0
263317,229,-2012,839,132,-236,-1510,20347,-427,511,1334,96,35391,-122,34,127,0,0,3966,-417,1500,2654,984,112,261,1,1,320,-2,263286,0
263327,454,-2026,711,10,-523,-1134,20300,-36,846,968,216,35389,-138,35,127,0,0,3955,-76,1500,2654,984,112,271,1,1,320,-2,263301,0
263337,87,-1977,237,-26,-385,-1284,20231,-220,331,914,24,35396,-123,35,127,0,0,3941,-186,1500,2654,984,112,281,1,1,320,-2,263332,0
263347,61,-2013,103,54,-10,-1657,20010,-602,-400,718,-272,35386,-86,35,127,0,0,3902,-461,1500,2654,984,112,291,1,1,320,-2,263332,0
263357,253,-1918,341,201,289,-2068,19616,-950,-632,625,-624,35383,-61,35,127,0,0,3827,-769,1500,2654,984,112,301,1,1,320,-2,263332,0
263367,96,-1905,252,111,301,-1996,19193,-887,-314,780,-256,35398,-87,34,127,0,0,3748,-802,1570,2654,984,112,311,1,1,320,-2,263416,0
263377,22,-2018,296,-19,-188,-1466,18929,-397,225,1390,104,35399,-100,35,127,0,0,3702,-395,1710,2654,984,112,321,1,1,320,-2,263416,0
263387,419,-2101,380,-16,-570,-1171,18897,5,673,1073,328,35393,-125,34,127,0,0,3695,-21,1820,2654,984,112,331,1,1,320,-2,263432,0
263397,292,-1923,183,-36,-574,-1191,18883,-54,487,1143,208,35376,-125,34,127,0,0,3693,-21,1950,2654,984,112,341,1,1,320,-2,263432,0
263407,346,-2034,134,-10,-325,-1473,18787,-305,-133,1197,16,35368,-114,35,127,0,0,3671,-252,2090,2654,984,112,351,1,1,320,-2,263432,0
263417,418,-1833,241,-8,-22,-2007,18525,-698,-483,1023,-256,35374,-130,35,127,0,0,3621,-538,2230,2654,984,112,361,1,1,320,-2,263447,0
263427,151,-1896,314,-56,19,-2238,18120,-937,-604,1106,-376,35381,-116,35,127,0,0,3548,-780,2300,2654,984,112,371,1,1,320,-2,263447,0
263437,-220,-2049,400,-111,-181,-2272,17726,-804,-268,1391,-152,35386,-120,34,127,0,0,3473,-714,2360,2654,984,112,381,1,1,320,-2,263447,0
263447,-272,-2294,334,-182,-420,-2059,17486,-381,319,1814,112,35381,-123,34,127,0,0,3427,-406,2430,2654,984,112,391,1,1,320,-2,263447,0
263457,223,-2230,583,-254,-812,-2010,17391,-196,595,1534,176,35388,-133,35,127,0,0,3410,-175,2500,2654,984,112,401,1,1,320,-2,263447,0
263467,545,-2531,742,-114,-1148,-2083,17311,-168,290,1501,184,35397,-148,35,127,0,0,3392,-164,2610,2654,984,112,411,1,1,320,-2,263447,0
263477,-16,-2486,589,-58,-974,-2232,17215,-227,2,1579,160,35399,-123,35,127,0,0,3375,-186,2720,2654,984,112,421,1,1,320,-2,263463,0
263487,-73,-2148,361,-177,-853,-2314,17136,-140,-5,1626,280,35394,-81,35,127,0,0,3361,-120,2840,2654,984,112,431,1,1,320,-2,263463,0
263497,60,-2307,185,-183,-847,-2273,17130,31,165,1648,488,35383,-59,35,127,0,0,3359,10,2980,2654,984,112,441,1,1,320,-2,263478,0
263507,63,-2249,101,-123,-976,-2402,17155,58,210,1797,520,35382,-47,35,127,0,0,3368,43,3130,2654,984,112,451,1,1,320,-2,263494,0
263517,-61,-2127,109,-209,-1038,-2694,17170,31,35,1895,536,35378,-54,35,127,0,0,3368,0,3310,2654,984,112,461,1,1,320,-2,263494,0
263527,-176,-2441,250,-287,-1013,-2836,17201,87,6,1888,856,35373,-46,35,127,0,0,3375,65,3510,2654,984,112,471,1,1,320,-2,263510,0
263537,-285,-2701,593,-228,-1112,-3150,17260,141,79,2135,944,35369,-35,34,127,0,0,3388,109,3740,2654,984,112,481,1,1,320,-2,263510,0
263547,-393,-2780,685,-198,-1186,-3303,17357,251,125,2114,1376,35358,-42,35,127,0,0,3405,164,4010,2654,984,112,491,1,1,320,-2,263541,0
263557,-618,-2953,712,-346,-1226,-3454,17534,445,233,2330,1928,35348,-28,35,127,0,0,3438,329,4330,2654,984,112,501,1,1,320,-2,263541,0
263567,-888,-2870,667,-494,-1204,-3551,17826,749,371,2640,2896,35330,-11,35,127,0,0,3495,549,4710,2654,984,112,511,1,1,320,-2,263541,0
263577,-636,-2706,509,-597,-1419,-3743,18277,1103,531,2915,3728,35321,44,35,127,0,0,3583,900,5190,2654,984,112,521,1,1,320,-2,263556,0
263587,-621,-2743,458,-699,-1515,-3833,18864,1364,561,3226,4504,35300,90,34,127,0,0,3691,1120,5830,2654,984,112,531,1,1,320,-2,263556,0
263597,-730,-2685,555,-765,-1700,-4148,19562,1595,477,3589,5112,35281,181,35,127,0,0,3823,1307,6640,2654,984,112,541,1,1,320,-2,263588,0
263607,-796,-2651,538,-841,-1745,-4380,20341,1762,362,4060,5704,35238,278,35,127,0,0,3963,1461,7650,2654,984,112,551,1,1,320,-2,263588,0
263617,-1210,-2821,436,-1023,-1838,-4685,21192,1926,295,4548,6336,35201,377,35,127,0,0,4122,1571,8430,2654,984,112,561,1,1,320,-2,263588,0
263627,-1418,-2794,318,-1127,-1786,-5029,22107,2036,259,5005,6712,35169,499,35,127,0,0,4300,1768,9170,2654,984,112,571,1,1,320,-2,263603,0
263637,-1752,-2139,-92,-1114,-1876,-5739,23070,2165,215,5453,7184,35129,638,34,127,0,0,4486,1878,9980,2654,984,112,581,1,1,320,-2,263603,0
263647,-1760,-1950,-51,-920,-2270,-6321,24132,2415,272,5925,7840,35090,802,34,127,0,0,4677,1900,10850,2654,984,112,591,1,1,320,-2,263619,0
263657,-1601,-2872,-256,-777,-2423,-6874,25309,2676,415,6365,8640,35040,939,34,127,0,0,4871,1944,11570,2654,984,112,601,1,1,320,-2,263635,0
263667,-1608,-3366,-169,-678,-2302,-7323,26581,2840,415,6548,8632,34986,1097,34,127,0,0,5084,2164,11150,2654,984,112,611,1,1,320,-2,263650,0
263677,-943,-3800,-67,-474,-2793,-8065,27851,2730,192,6313,7712,34952,1263,35,127,0,0,5295,2076,10430,2654,984,112,621,1,1,320,-2,263666,0
263687,-994,-3789,-6,-558,-2251,-9078,28963,2301,-314,5698,6760,34958,1352,35,127,0,0,5495,1988,9340,2654,984,112,631,1,1,320,-2,263666,0
263697,-433,-3935,-20,-770,-3147,-10176,29831,1738,-783,4921,4920,35019,1279,35,127,0,0,5655,1582,6340,2654,984,112,641,1,1,320,-2,263697,0
263707,42,-4278,454,-1135,-3475,-10194,30357,885,-1116,3178,2064,35141,1026,35,127,0,0,5754,933,3810,2654,984,112,651,1,1,320,-2,263697,0
263717,-814,-4922,572,-1102,-4153,-11068,30481,41,-1447,1803,304,35247,671,35,127,0,0,5783,197,2420,2654,984,112,661,1,1,320,-2,263697,0
