state_time,accelx,accely,accelz,gyrox,gyroy,gyroz,mot_ang,mot_vel,mot_acc,mot_cur,mot_volt,batt_volt,batt_curr,temperature,status_mn,status_ex,status_re,ank_ang,ank_vel,ank_torque,peak_ank_torque,step_energy,step_count,step_time,gait_state,movement,speed,incline,sys_time,eventFlags
515290,56,-2049,204,-52,-5,-48,15172,6,-3,-64,-24,35260,-62,36,127,0,0,3980,10,0,17806,8131,237,25594,-4,0,20,0,515264,0
515300,62,-2055,207,-46,-11,-45,15174,5,10,-30,-24,35269,-65,36,127,0,0,3977,-32,0,17806,8131,237,25604,-4,0,20,0,515280,0
515310,46,-2049,208,-53,-10,-38,15171,-3,-10,-66,8,35274,-75,35,127,0,0,3979,5,0,17806,8131,237,25614,-4,0,20,0,515295,0
515320,74,-2047,207,-52,-6,-45,15171,-9,2,-54,-24,35271,-74,36,127,0,0,3977,-21,0,17806,8131,237,25624,-4,0,20,0,515295,0
515330,53,-2046,194,-48,-7,-44,15168,-11,-7,-90,-16,35254,-70,36,127,0,0,3977,-5,0,17806,8131,237,25634,-4,0,20,0,515295,0
515340,71,-2049,195,-45,-6,-48,15169,-4,2,-116,-24,35256,-84,36,127,0,0,3980,32,0,17806,8131,237,25644,-4,0,20,0,515342,0
515350,84,-2044,205,-52,-12,-41,15169,-2,6,-102,8,35263,-86,36,127,0,0,3979,49,0,17806,8131,237,25654,-4,0,20,0,515342,0
515360,72,-2038,203,-45,-10,-43,15170,4,6,-70,-24,35265,-80,35,127,0,0,3980,27,0,17806,8131,237,25664,-4,0,20,0,515342,0
515370,57,-2039,204,-50,-11,-39,15171,9,3,-13,-24,35251,-69,36,127,0,0,3977,-38,0,17806,8131,237,25674,-4,0,20,0,515358,0
515380,42,-2042,208,-59,-10,-46,15169,0,-6,-67,-16,35247,-66,36,127,0,0,3980,5,0,17806,8131,237,25684,-4,0,20,0,515358,0
515390,86,-2043,209,-61,-7,-46,15168,-12,2,-99,-24,35263,-74,35,127,0,0,3977,10,0,17806,8131,237,25694,-4,0,20,0,515358,0
515400,70,-2043,202,-60,-6,-47,15168,1,6,-124,-16,35283,-72,36,127,0,0,3980,49,0,17806,8131,237,25704,-4,0,20,0,515405,0
515410,75,-2037,202,-58,-12,-55,15170,-1,2,-59,-16,35283,-65,36,127,0,0,3977,-5,0,17806,8131,237,25714,-4,0,20,0,515405,0
515420,47,-2042,199,-60,-11,-48,15169,0,-6,-78,16,35264,-56,36,127,0,0,3975,0,0,17806,8131,237,25724,-4,0,20,0,515405,0
515430,55,-2050,194,-56,-3,-57,15169,-5,-3,-97,-24,35254,-83,36,127,0,0,3977,-27,0,17806,8131,237,25734,-4,0,20,0,515420,0
515440,46,-2047,201,-56,-4,-58,15171,20,3,-42,-24,35253,-95,35,127,0,0,3977,-27,0,17806,8131,237,25744,-4,0,20,0,515420,0
515450,47,-2043,204,-59,-7,-59,15165,-15,-8,-110,-8,35261,-77,36,127,0,0,3977,16,0,17806,8131,237,25754,-4,0,20,0,515420,0
515460,58,-2052,204,-56,-5,-55,15167,-13,-3,-111,-32,35266,-40,36,127,0,0,3978,10,0,17806,8131,237,25764,-4,0,20,0,515452,0
515470,54,-2038,204,-65,-16,-53,15165,0,0,-146,-8,35270,-40,36,127,0,0,3973,16,0,17806,8131,237,25774,-4,0,20,0,515452,0
515480,64,-2040,204,-63,-8,-65,15166,2,-4,-139,-56,35271,-60,36,127,0,0,3972,-54,0,17806,8131,237,25784,-4,0,20,0,515467,0
515490,60,-2043,197,-58,-10,-62,15163,-11,-1,-173,-32,35266,-78,36,127,0,0,3968,-43,0,17806,8131,237,25794,-4,0,20,0,515467,0
515500,71,-2038,186,-61,-11,-59,15162,2,0,-189,-48,35252,-81,36,127,0,0,3972,-32,0,17806,8131,237,25804,-4,0,20,0,515467,0
515510,58,-2050,198,-63,-3,-63,15162,-3,3,-183,-48,35258,-85,36,127,0,0,3969,-60,0,17806,8131,237,25814,-4,0,20,0,515498,0
515520,65,-2042,199,-52,-7,-65,15161,0,-1,-217,-48,35262,-82,36,127,0,0,3972,-10,0,17806,8131,237,25824,-4,0,20,0,515498,0
515530,58,-2049,201,-58,-12,-56,15158,-14,4,-278,-96,35262,-83,35,127,0,0,3974,32,0,17806,8131,237,25834,-4,0,20,0,515498,0
515540,30,-2050,197,-57,-8,-70,15157,18,-6,-189,-40,35251,-79,35,127,0,0,3966,-32,0,17806,8131,237,25844,-4,0,20,0,515514,0
515550,74,-2045,202,-55,-7,-68,15152,-13,0,-272,-32,35253,-80,36,127,0,0,3969,21,0,17806,8131,237,25854,-4,0,20,0,515530,0
515560,79,-2042,199,-55,-7,-62,15153,-13,3,-293,-40,35254,-90,35,127,0,0,3969,27,0,17806,8131,237,25864,-4,0,20,0,515530,0
515570,83,-2035,200,-54,-11,-54,15154,-3,2,-282,-56,35253,-97,36,127,0,0,3967,-10,0,17806,8131,237,25874,-4,0,20,0,515546,0
515580,73,-2041,191,-55,-11,-53,15152,-4,-3,-319,-72,35249,-99,36,127,0,0,3964,-32,0,17806,8131,237,25884,-4,0,20,0,515554,0
515590,62,-2045,187,-50,-6,-47,15151,0,3,-343,-72,35243,-79,36,127,0,0,3968,-5,0,17806,8131,237,25894,-4,0,20,0,515554,0
515600,65,-2046,199,-47,-15,-49,15151,-2,4,-314,-72,35250,-88,36,127,0,0,3968,16,0,17806,8131,237,25904,-4,0,20,0,515616,0
515610,72,-2045,194,-48,-8,-39,15151,12,-1,-319,-72,35252,-86,35,127,0,0,3968,5,0,17806,8131,237,25914,-4,0,20,0,515632,0
515620,60,-2044,196,-43,-10,-41,15152,3,-1,-301,-24,35251,-79,36,127,0,0,3966,10,0,17806,8131,237,25924,-4,0,20,0,515632,0
515630,97,-2043,190,-40,-10,-44,15150,-21,1,-322,-48,35244,-77,35,127,0,0,3967,5,0,17806,8131,237,25934,-4,0,20,0,515632,0
515640,74,-2041,204,-42,-7,-38,15150,1,-3,-307,-72,35236,-89,35,127,0,0,3968,0,0,17806,8131,237,25944,-4,0,20,0,515632,0
515650,47,-2040,201,-45,-7,-39,15151,3,1,-294,-72,35241,-103,36,127,0,0,3968,0,0,17806,8131,237,25954,-4,0,20,0,515632,0
515660,58,-2047,204,-39,-11,-39,15148,-10,-6,-309,-72,35245,-86,35,127,0,0,3968,0,0,17806,8131,237,25964,-4,0,20,0,515632,0
515670,71,-2044,200,-42,-9,-46,15151,3,-1,-302,-72,35244,-67,36,127,0,0,3964,-32,0,17806,8131,237,25974,-4,0,20,0,515632,0
515680,66,-2044,200,-39,-12,-41,15149,3,1,-324,-72,35256,-92,36,127,0,0,3971,49,0,17806,8131,237,25984,-4,0,20,0,515725,0
515690,59,-2044,199,-40,-12,-37,15150,-9,2,-275,-48,35265,-103,36,127,0,0,3967,-10,0,17806,8131,237,25994,-4,0,20,0,515725,0
515700,60,-2040,195,-41,-11,-48,15150,4,-2,-292,-72,35263,-108,35,127,0,0,3968,0,0,17806,8131,237,26004,-4,0,20,0,515725,0
515710,59,-2047,195,-43,-15,-47,15149,-3,-3,-297,-72,35245,-96,35,127,0,0,3968,0,0,17806,8131,237,26014,-4,0,20,0,515741,0
515720,65,-2043,196,-42,-9,-49,15150,0,-3,-271,-72,35237,-91,36,127,0,0,3968,-16,0,17806,8131,237,26024,-4,0,20,0,515741,0
515730,61,-2048,191,-40,-11,-47,15149,-6,-4,-278,-48,35240,-95,35,127,0,0,3967,0,0,17806,8131,237,26034,-4,0,20,0,515741,0
515740,83,-2041,198,-46,-15,-43,15151,-6,0,-279,-56,35246,-88,36,127,0,0,3967,-10,0,17806,8131,237,26044,-4,0,20,0,515741,0
515750,76,-2040,194,-37,-7,-45,15149,-6,-3,-311,-48,35243,-75,36,127,0,0,3967,32,0,17806,8131,237,26054,-4,0,20,0,515741,0
515760,78,-2040,194,-36,-15,-47,15149,-4,-1,-287,-24,35239,-66,36,127,0,0,3969,38,0,17806,8131,237,26064,-4,0,20,0,515741,0
515770,76,-2040,204,-40,-13,-53,15152,-7,-2,-292,-80,35244,-82,36,127,0,0,3968,10,0,17806,8131,237,26074,-4,0,20,0,515741,0
515780,52,-2040,197,-43,-10,-50,15148,3,-11,-311,-48,35260,-91,36,127,0,0,3973,76,0,17806,8131,237,26084,-4,0,20,0,515741,0
515790,112,-2035,197,-35,-9,-52,15151,-1,6,-253,-56,35274,-82,36,127,0,0,3967,21,0,17806,8131,237,26094,-4,0,20,0,515772,0
515800,92,-2042,198,-38,-10,-53,15149,-7,-2,-282,-72,35272,-92,35,127,0,0,3968,0,0,17806,8131,237,26104,-4,0,20,0,515772,0
515810,64,-2048,194,-35,-16,-51,15150,3,-3,-286,-96,35262,-98,35,127,0,0,3969,-5,0,17806,8131,237,26114,-4,0,20,0,515772,0
515820,58,-2045,189,-36,-11,-55,15149,-1,-3,-281,-72,35268,-114,36,127,0,0,3964,-32,0,17806,8131,237,26124,-4,0,20,0,515804,0
515830,40,-2045,196,-34,-8,-50,15147,-1,0,-317,-64,35263,-103,35,127,0,0,3968,-5,0,17806,8131,237,26134,-4,0,20,0,515804,0
515840,63,-2045,202,-36,-12,-54,15151,8,1,-281,-72,35255,-86,35,127,0,0,3968,-27,0,17806,8131,237,26144,-4,0,20,0,515819,0
515850,69,-2041,211,-34,-12,-54,15147,-7,0,-299,-112,35245,-88,36,127,0,0,3967,-16,0,17806,8131,237,26154,-4,0,20,0,515819,0
515860,70,-2040,202,-33,-7,-56,15146,0,-8,-354,-64,35261,-81,35,127,0,0,3968,38,0,17806,8131,237,26164,-4,0,20,0,515850,0
515870,82,-2041,195,-37,-10,-45,15149,4,10,-325,-96,35265,-82,36,127,0,0,3969,27,0,17806,8131,237,26174,-4,0,20,0,515850,0
515880,55,-2042,198,-34,-5,-45,15147,6,7,-336,-88,35261,-76,36,127,0,0,3966,0,0,17806,8131,237,26184,-4,0,20,0,515850,0
515890,75,-2040,198,-32,-8,-43,15145,-1,-1,-354,-88,35243,-68,36,127,0,0,3969,32,0,17806,8131,237,26194,-4,0,20,0,515850,0
515900,58,-2038,200,-33,-14,-44,15147,3,3,-339,-88,35257,-78,36,127,0,0,3969,32,0,17806,8131,237,26204,-4,0,20,0,515882,0
515910,84,-2044,196,-35,-9,-39,15149,8,-1,-309,-96,35266,-80,36,127,0,0,3966,-32,0,17806,8131,237,26214,-4,0,20,0,515882,0
515920,57,-2045,206,-32,-15,-39,15143,-7,-4,-353,-56,35264,-77,36,127,0,0,3964,32,0,17806,8131,237,26224,-4,0,20,0,515882,0
515930,71,-2043,205,-33,-6,-49,15145,0,1,-348,-88,35259,-69,36,127,0,0,3969,21,0,17806,8131,237,26234,-4,0,20,0,515913,0
515940,32,-2048,204,-29,-8,-42,15145,4,6,-293,-64,35257,-96,36,127,0,0,3968,5,0,17806,8131,237,26244,-4,0,20,0,515929,0
515950,70,-2044,205,-34,-6,-50,15145,-3,-1,-302,-88,35264,-97,35,127,0,0,3966,-32,0,17806,8131,237,26254,-4,0,20,0,515929,0
515960,60,-2046,211,-33,-3,-51,15145,11,-2,-351,-64,35256,-103,36,127,0,0,3968,38,0,17806,8131,237,26264,-4,0,20,0,515929,0
515970,81,-2043,206,-42,-12,-58,15146,0,1,-341,-88,35254,-93,36,127,0,0,3969,43,0,17806,8131,237,26274,-4,0,20,0,515960,0
515980,52,-2044,203,-39,-10,-59,15144,4,-3,-320,-64,35254,-97,36,127,0,0,3968,32,0,17806,8131,237,26284,-4,0,20,0,515960,0
515990,73,-2047,202,-41,-14,-55,15144,-3,-2,-337,-88,35260,-109,36,127,0,0,3966,5,0,17806,8131,237,26294,-4,0,20,0,515975,0
516000,54,-2040,200,-35,-6,-54,15142,0,-11,-377,-80,35263,-93,35,127,0,0,3969,82,0,17806,8131,237,26304,-4,0,20,0,515975,0
516010,70,-2043,205,-43,-10,-51,15146,7,5,-301,-88,35266,-87,35,127,0,0,3966,-27,0,17806,8131,237,26314,-4,0,20,0,515991,0
516020,59,-2047,206,-39,-9,-52,15140,-10,-3,-349,-104,35264,-91,36,127,0,0,3963,-16,0,17806,8131,237,26324,-4,0,20,0,515991,0
516030,83,-2039,198,-42,-17,-50,15137,-13,-13,-410,-96,35271,-87,35,127,0,0,3963,32,0,17806,8131,237,26334,-4,0,20,0,516007,0
516040,72,-2041,202,-42,-8,-46,15135,3,1,-329,-88,35271,-83,36,127,0,0,3960,-49,0,17806,8131,237,26344,-4,0,20,0,516022,0
516050,51,-2045,205,-42,-10,-42,15134,2,8,-328,-88,35268,-91,36,127,0,0,3967,-21,0,17806,8131,237,26354,-4,0,20,0,516022,0
516060,41,-2050,205,-39,-12,-37,15134,-7,1,-334,-88,35266,-84,36,127,0,0,3963,10,0,17806,8131,237,26364,-4,0,20,0,516085,0
516070,64,-2047,195,-42,-6,-43,15134,2,-1,-329,-88,35271,-105,36,127,0,0,3967,5,0,17806,8131,237,26374,-4,0,20,0,516085,0
516080,42,-2043,209,-40,-8,-44,15135,1,3,-318,-64,35272,-94,36,127,0,0,3962,-10,0,17806,8131,237,26384,-4,0,20,0,516100,0
516090,75,-2049,211,-42,-4,-49,15134,0,-2,-334,-88,35272,-85,36,127,0,0,3967,27,0,17806,8131,237,26394,-4,0,20,0,516100,0
516100,69,-2053,210,-48,-9,-47,15134,-4,0,-304,-88,35258,-85,35,127,0,0,3963,-21,0,17806,8131,237,26404,-4,0,20,0,516100,0
516110,58,-2049,199,-55,-8,-43,15134,-3,0,-330,-64,35257,-83,35,127,0,0,3962,-21,0,17806,8131,237,26414,-4,0,20,0,516100,0
516120,78,-2043,195,-49,-7,-36,15132,-8,-2,-346,-64,35263,-104,36,127,0,0,3962,5,0,17806,8131,237,26424,-4,0,20,0,516100,0
516130,69,-2046,202,-50,-8,-45,15134,-8,0,-362,-64,35264,-90,36,127,0,0,3962,10,0,17806,8131,237,26434,-4,0,20,0,516100,0
516140,66,-2045,196,-50,-7,-41,15131,-2,-5,-338,-64,35265,-67,36,127,0,0,3969,71,0,17806,8131,237,26444,-4,0,20,0,516116,0
516150,86,-2040,203,-52,-15,-38,15135,0,5,-288,-88,35270,-70,36,127,0,0,3967,21,0,17806,8131,237,26454,-4,0,20,0,516132,0
516160,69,-2044,200,-48,-4,-39,15131,-6,-6,-307,-56,35281,-81,36,127,0,0,3966,43,0,17806,8131,237,26464,-4,0,20,0,516132,0
516170,74,-2043,193,-50,-13,-41,15133,1,-2,-294,-88,35272,-90,35,127,0,0,3967,-5,0,17806,8131,237,26474,-4,0,20,0,516132,0
516180,48,-2046,198,-41,-9,-30,15130,-10,-5,-314,-80,35266,-76,35,127,0,0,3970,98,0,17806,8131,237,26484,-4,0,20,0,516163,0
516190,80,-2036,198,-42,-9,-34,15131,3,0,-278,-56,35258,-71,36,127,0,0,3962,21,0,17806,8131,237,26494,-4,0,20,0,516163,0
516200,85,-2041,196,-44,-4,-43,15132,2,5,-298,-104,35267,-82,35,127,0,0,3964,-38,0,17806,8131,237,26504,-4,0,20,0,516163,0
516210,40,-2053,208,-42,-8,-32,15129,-3,-5,-288,-48,35273,-84,36,127,0,0,3962,-27,0,17806,8131,237,26514,-4,0,20,0,516194,0
516220,73,-2045,206,-39,-11,-41,15129,-5,3,-311,-80,35273,-90,36,127,0,0,3970,38,0,17806,8131,237,26524,-4,0,20,0,516194,0
516230,77,-2042,200,-40,-10,-34,15128,1,5,-251,-80,35266,-90,36,127,0,0,3967,27,0,17806,8131,237,26534,-4,0,20,0,516194,0
516240,54,-2040,195,-44,-10,-29,15126,2,-3,-257,-48,35264,-114,36,127,0,0,3966,43,0,17806,8131,237,26544,-4,0,20,0,516225,0
516250,75,-2046,196,-41,-1,-44,15126,-1,-1,-245,-48,35270,-104,36,127,0,0,3966,27,0,17806,8131,237,26554,-4,0,20,0,516225,0
516260,69,-2045,196,-36,-7,-39,15125,-11,0,-245,-24,35272,-93,36,127,0,0,3964,32,0,17806,8131,237,26564,-4,0,20,0,516225,0
516270,77,-2041,195,-37,0,-32,15129,9,4,-237,-32,35270,-85,36,127,0,0,3968,38,0,17806,8131,237,26574,-4,0,20,0,516272,0
516280,50,-2044,195,-39,-9,-34,15126,-12,-2,-224,-32,35259,-90,36,127,0,0,3961,-10,0,17806,8131,237,26584,-4,0,20,0,516288,0
516290,57,-2047,199,-34,-6,-38,15128,8,-6,-200,-32,35265,-98,36,127,0,0,3948,-203,0,17806,8131,237,26594,-4,0,20,0,516288,0
516300,132,-2040,219,-34,-3,-45,15126,11,-6,-225,-48,35260,-93,35,127,0,0,3969,-71,0,17806,8131,237,26604,-4,0,20,0,516288,0
516310,57,-2045,207,-35,-10,-29,15127,-8,6,-207,-56,35250,-92,35,127,0,0,3966,10,0,17806,8131,237,26614,-4,0,20,0,516288,0
516320,58,-2041,201,-40,-9,-34,15128,9,-5,-165,-48,35252,-106,36,127,0,0,3969,10,0,17806,8131,237,26624,-4,0,20,0,516288,0
516330,71,-2044,195,-35,-9,-36,15129,-7,-3,-196,-32,35269,-99,36,127,0,0,3968,43,0,17806,8131,237,26634,-4,0,20,0,516303,0
516340,65,-2040,191,-33,-4,-34,15130,-1,5,-171,-56,35285,-103,36,127,0,0,3969,-5,0,17806,8131,237,26644,-4,0,20,0,516366,0
516350,50,-2047,193,-35,-12,-34,15130,1,0,-158,-8,35282,-92,36,127,0,0,3967,5,0,17806,8131,237,26654,-4,0,20,0,516366,0
516360,69,-2039,195,-35,-5,-32,15130,-5,1,-176,-32,35264,-90,36,127,0,0,3968,0,0,17806,8131,237,26664,-4,0,20,0,516382,0
516370,56,-2046,203,-32,-13,-40,15131,2,-5,-165,-32,35252,-99,35,127,0,0,3964,-32,0,17806,8131,237,26674,-4,0,20,0,516382,0
516380,68,-2040,201,-36,-8,-42,15131,4,-10,-178,-32,35266,-93,36,127,0,0,3971,21,0,17806,8131,237,26684,-4,0,20,0,516382,0
516390,76,-2042,203,-31,-10,-48,15135,12,5,-89,-40,35266,-93,36,127,0,0,3971,16,0,17806,8131,237,26694,-4,0,20,0,516397,0
516400,58,-2047,206,-34,-9,-48,15137,7,3,-118,-40,35261,-79,36,127,0,0,3968,-16,0,17806,8131,237,26704,-4,0,20,0,516397,0
516410,47,-2043,194,-40,-5,-52,15130,-23,-22,-205,-16,35252,-94,36,127,0,0,3967,32,0,17806,8131,237,26714,-4,0,20,0,516397,0
516420,81,-2043,196,-33,-8,-54,15138,16,7,-137,-48,35262,-94,36,127,0,0,3968,-49,0,17806,8131,237,26724,-4,0,20,0,516397,0
516430,24,-2040,211,-32,-8,-40,15137,1,7,-173,-40,35272,-88,36,127,0,0,3968,-49,0,17806,8131,237,26734,-4,0,20,0,516413,0
516440,41,-2038,205,-37,-3,-38,15136,13,-15,-172,-64,35280,-86,35,127,0,0,3969,-5,0,17806,8131,237,26744,-4,0,20,0,516428,0
516450,47,-2045,199,-34,-8,-36,15136,14,8,-159,-40,35273,-103,35,127,0,0,3968,-27,0,17806,8131,237,26754,-4,0,20,0,516444,0
516460,59,-2036,194,-33,-8,-41,15134,0,2,-182,-24,35261,-118,36,127,0,0,3967,-21,0,17806,8131,237,26764,-4,0,20,0,516444,0
516470,50,-2042,198,-29,-3,-39,15138,16,8,-126,-24,35255,-99,35,127,0,0,3970,-38,0,17806,8131,237,26774,-4,0,20,0,516444,0
516480,64,-2041,204,-28,-4,-35,15137,-6,-1,-166,-24,35248,-82,35,127,0,0,3967,0,0,17806,8131,237,26784,-4,0,20,0,516444,0
516490,47,-2045,198,-28,-10,-39,15140,21,0,-134,-8,35255,-95,36,127,0,0,3969,-32,0,17806,8131,237,26794,-4,0,20,0,516460,0
516500,58,-2040,211,-29,-14,-34,15138,-7,13,-155,-8,35275,-88,35,127,0,0,3969,16,0,17806,8131,237,26804,-4,0,20,0,516507,0
516510,88,-2042,210,-36,-13,-53,15140,4,-1,-124,-8,35277,-82,36,127,0,0,3972,43,0,17806,8131,237,26814,-4,0,20,0,516507,0
516520,77,-2042,204,-29,-3,-46,15145,8,8,-87,-16,35265,-68,36,127,0,0,3972,5,0,17806,8131,237,26824,-4,0,20,0,516507,0
516530,74,-2035,201,-40,-14,-49,15141,-8,-8,-132,-56,35243,-70,36,127,0,0,3968,-27,0,17806,8131,237,26834,-4,0,20,0,516507,0
516540,70,-2047,205,-39,-10,-56,15140,12,-12,-164,0,35248,-96,35,127,0,0,3972,38,0,17806,8131,237,26844,-4,0,20,0,516507,0
516550,87,-2043,202,-32,-14,-48,15143,-7,15,-168,-16,35262,-78,36,127,0,0,3972,49,0,17806,8131,237,26854,-4,0,20,0,516522,0
516560,60,-2045,198,-33,-10,-43,15144,11,-4,-129,-40,35265,-76,36,127,0,0,3970,0,0,17806,8131,237,26864,-4,0,20,0,516538,0
516570,71,-2045,205,-30,-9,-47,15140,-6,-20,-186,-32,35261,-60,36,127,0,0,3967,0,0,17806,8131,237,26874,-4,0,20,0,516538,0
516580,74,-2039,205,-36,-13,-50,15139,-11,-1,-235,-32,35255,-85,36,127,0,0,3970,38,0,17806,8131,237,26884,-4,0,20,0,516585,0
516590,86,-2038,199,-42,-1,-51,15141,-1,7,-191,-56,35256,-84,35,127,0,0,3968,-10,0,17806,8131,237,26894,-4,0,20,0,516600,0
516600,70,-2041,197,-32,-10,-49,15142,11,2,-141,-56,35249,-81,36,127,0,0,3968,-65,0,17806,8131,237,26904,-4,0,20,0,516600,0
516610,52,-2034,201,-28,-11,-41,15139,-12,-6,-197,-24,35237,-76,35,127,0,0,3970,32,0,17806,8131,237,26914,-4,0,20,0,516600,0
516620,83,-2041,199,-28,-7,-48,15144,12,10,-141,-16,35232,-85,35,127,0,0,3966,-65,0,17806,8131,237,26924,-4,0,20,0,516600,0
516630,58,-2041,210,-28,-11,-46,15137,-17,-5,-177,0,35240,-101,36,127,0,0,3966,-16,0,17806,8131,237,26934,-4,0,20,0,516600,0
516640,105,-2044,211,-34,-4,-53,15143,-2,-1,-197,-40,35254,-92,36,127,0,0,3967,-43,0,17806,8131,237,26944,-4,0,20,0,516616,0
516650,48,-2041,211,-33,-14,-43,15139,-10,0,-236,-32,35256,-85,36,127,0,0,3967,-5,0,17806,8131,237,26954,-4,0,20,0,516663,0
516660,83,-2038,210,-33,-16,-44,15139,-1,-4,-207,-8,35252,-82,36,127,0,0,3969,32,0,17806,8131,237,26964,-4,0,20,0,516663,0
516670,45,-2048,211,-40,-15,-56,15141,-18,2,-205,-8,35249,-79,35,127,0,0,3972,76,0,17806,8131,237,26974,-4,0,20,0,516663,0
516680,72,-2037,198,-39,-15,-56,15144,2,-5,-125,-16,35245,-83,36,127,0,0,3972,32,0,17806,8131,237,26984,-4,0,20,0,516663,0
516690,75,-2035,208,-35,-11,-64,15143,-4,-5,-124,-40,35245,-87,35,127,0,0,3970,21,0,17806,8131,237,26994,-4,0,20,0,516678,0
516700,71,-2035,203,-39,-13,-65,15142,0,-7,-168,-8,35240,-78,35,127,0,0,3966,-16,0,17806,8131,237,27004,-4,0,20,0,516678,0
516710,81,-2044,203,-39,-10,-63,15142,-4,0,-192,-32,35252,-95,35,127,0,0,3967,-43,0,17806,8131,237,27014,-4,0,20,0,516678,0
516720,83,-2040,207,-38,-6,-60,15142,4,0,-185,-32,35267,-90,36,127,0,0,3973,21,0,17806,8131,237,27024,-4,0,20,0,516710,0
516730,97,-2043,204,-30,-13,-52,15141,-11,0,-184,-8,35275,-83,36,127,0,0,3969,60,0,17806,8131,237,27034,-4,0,20,0,516710,0
516740,89,-2036,210,-34,-14,-47,15141,-10,0,-215,-56,35260,-66,36,127,0,0,3974,71,0,17806,8131,237,27044,-4,0,20,0,516725,0
516750,73,-2041,212,-37,-12,-43,15141,-4,0,-193,-32,35249,-86,36,127,0,0,3973,93,0,17806,8131,237,27054,-4,0,20,0,516725,0
516760,50,-2047,211,-40,-14,-42,15140,-8,6,-203,-32,35254,-101,36,127,0,0,3963,-16,0,17806,8131,237,27064,-4,0,20,0,516725,0
516770,50,-2044,200,-38,-12,-48,15140,10,-3,-199,-56,35266,-87,36,127,0,0,3968,-54,0,17806,8131,237,27074,-4,0,20,0,516741,0
516780,36,-2047,203,-33,-8,-51,15141,12,3,-178,-8,35263,-71,36,127,0,0,3966,-49,0,17806,8131,237,27084,-4,0,20,0,516756,0
516790,94,-2043,208,-34,-6,-55,15140,-12,-2,-236,-56,35255,-78,36,127,0,0,3968,0,0,17806,8131,237,27094,-4,0,20,0,516803,0
516800,69,-2048,208,-37,-10,-53,15141,8,-4,-223,-32,35250,-90,36,127,0,0,3967,0,0,17806,8131,237,27104,-4,0,20,0,516803,0
516810,59,-2042,207,-35,-13,-53,15140,-9,1,-202,-56,35255,-83,36,127,0,0,3968,-21,0,17806,8131,237,27114,-4,0,20,0,516803,0
516820,58,-2048,205,-34,-11,-55,15141,0,-4,-198,-56,35248,-76,35,127,0,0,3968,-32,0,17806,8131,237,27124,-4,0,20,0,516819,0
516830,49,-2042,206,-37,-7,-54,15143,11,2,-138,-56,35243,-86,36,127,0,0,3974,0,0,17806,8131,237,27134,-4,0,20,0,516819,0
516840,37,-2052,208,-33,-11,-52,15141,-8,8,-130,-56,35240,-95,35,127,0,0,3971,16,0,17806,8131,237,27144,-4,0,20,0,516819,0
516850,65,-2039,208,-35,-10,-55,15141,1,0,-197,-80,35253,-94,36,127,0,0,3969,0,0,17806,8131,237,27154,-4,0,20,0,516819,0
516860,49,-2051,210,-39,-12,-63,15139,-1,-2,-222,-48,35264,-94,36,127,0,0,3968,0,0,17806,8131,237,27164,-4,0,20,0,516850,0
516870,65,-2037,213,-43,-17,-54,15137,-16,3,-258,-72,35258,-75,36,127,0,0,3969,21,0,17806,8131,237,27174,-4,0,20,0,516850,0
516880,64,-2038,211,-45,-11,-62,15139,-4,-2,-254,-48,35252,-101,36,127,0,0,3968,16,0,17806,8131,237,27184,-4,0,20,0,516866,0
516890,72,-2041,206,-41,-10,-61,15137,-8,4,-260,-96,35243,-96,35,127,0,0,3970,5,0,17806,8131,237,27194,-4,0,20,0,516866,0
516900,56,-2044,198,-42,-13,-62,15134,-10,-8,-257,-40,35250,-87,36,127,0,0,3964,38,0,17806,8131,237,27204,-4,0,20,0,516866,0
516910,76,-2039,202,-43,-16,-63,15136,0,1,-283,-72,35257,-73,36,127,0,0,3966,-27,0,17806,8131,237,27214,-4,0,20,0,516928,0
516920,66,-2046,206,-42,-17,-67,15135,9,6,-265,-64,35257,-84,36,127,0,0,3962,-43,0,17806,8131,237,27224,-4,0,20,0,516928,0
516930,60,-2044,206,-44,-11,-62,15132,-7,-6,-293,-64,35260,-104,36,127,0,0,3962,-43,0,17806,8131,237,27234,-4,0,20,0,516928,0
516940,67,-2045,207,-47,-12,-58,15130,-3,-1,-333,-104,35251,-107,36,127,0,0,3968,27,0,17806,8131,237,27244,-4,0,20,0,516928,0
516950,61,-2042,201,-38,-11,-63,15125,-16,-10,-295,-72,35246,-98,35,127,0,0,3963,27,0,17806,8131,237,27254,-4,0,20,0,516928,0
516960,56,-2044,203,-34,-7,-60,15118,-20,-4,-265,-80,35250,-107,35,127,0,0,3964,32,0,17806,8131,237,27264,-4,0,20,0,516928,0
516970,75,-2039,210,-34,-16,-65,15109,-22,-13,-219,-64,35262,-113,35,127,0,0,3961,-5,0,17806,8131,237,27274,-4,0,20,0,516944,0
516980,69,-2037,211,-46,-13,-64,15099,-19,-11,-180,-40,35278,-123,36,127,0,0,3961,0,0,17806,8131,237,27284,-4,0,20,0,516944,0
516990,73,-2039,212,-44,-19,-58,15097,-5,23,-234,-40,35281,-116,35,127,0,0,3961,21,0,17806,8131,237,27294,-4,0,20,0,516975,0
517000,55,-2040,213,-43,-13,-54,15099,9,17,-214,-64,35271,-114,36,127,0,0,3959,-16,0,17806,8131,237,27304,-4,0,20,0,516975,0
517010,48,-2050,216,-46,-13,-58,15096,10,-3,-182,-56,35262,-127,35,127,0,0,3959,-49,0,17806,8131,237,27314,-4,0,20,0,516975,0
517020,80,-2045,214,-40,-10,-61,15095,-10,-1,-200,-56,35260,-115,36,127,0,0,3959,-21,0,17806,8131,237,27324,-4,0,20,0,517006,0
517030,65,-2047,218,-48,-6,-43,15096,3,4,-213,-56,35267,-106,36,127,0,0,3962,5,0,17806,8131,237,27334,-4,0,20,0,517006,0
517040,59,-2048,210,-46,-10,-46,15095,1,5,-191,-56,35264,-85,36,127,0,0,3959,-5,0,17806,8131,237,27344,-4,0,20,0,517006,0
517050,72,-2034,203,-49,-19,-42,15093,-4,-5,-215,-56,35264,-109,36,127,0,0,3959,0,0,17806,8131,237,27354,-4,0,20,0,517022,0
517060,80,-2044,199,-48,-14,-39,15094,-9,-2,-202,-56,35271,-117,36,127,0,0,3959,-5,0,17806,8131,237,27364,-4,0,20,0,517053,0
517070,42,-2044,209,-45,-13,-35,15096,1,3,-183,-56,35269,-108,36,127,0,0,3962,-10,0,17806,8131,237,27374,-4,0,20,0,517053,0
517080,31,-2043,217,-51,-14,-30,15096,5,1,-200,-56,35263,-119,35,127,0,0,3959,10,0,17806,8131,237,27384,-4,0,20,0,517053,0
517090,66,-2044,220,-47,-3,-39,15095,-1,2,-238,-56,35246,-127,35,127,0,0,3962,38,0,17806,8131,237,27394,-4,0,20,0,517053,0
517100,43,-2049,222,-57,-10,-32,15095,6,6,-206,-32,35264,-141,35,127,0,0,3958,16,0,17806,8131,237,27404,-4,0,20,0,517085,0
517110,67,-2049,219,-67,-3,-38,15094,-3,3,-207,-32,35276,-120,35,127,0,0,3961,10,0,17806,8131,237,27414,-4,0,20,0,517085,0
517120,68,-2039,217,-63,-8,-33,15095,-5,1,-205,-56,35267,-111,35,127,0,0,3959,10,0,17806,8131,237,27424,-4,0,20,0,517085,0
517130,73,-2044,214,-68,-8,-38,15095,10,-3,-200,-56,35264,-115,36,127,0,0,3962,16,0,17806,8131,237,27434,-4,0,20,0,517116,0
517140,60,-2046,207,-77,-3,-28,15095,3,8,-166,-56,35269,-121,36,127,0,0,3962,0,0,17806,8131,237,27444,-4,0,20,0,517116,0
517150,101,-2035,204,-71,2,-33,15094,0,-2,-186,-32,35277,-118,36,127,0,0,3961,54,0,17806,8131,237,27454,-4,0,20,0,517116,0
517160,94,-2035,186,-67,-3,-24,15095,-5,1,-192,-32,35271,-111,36,127,0,0,3961,21,0,17806,8131,237,27464,-4,0,20,0,517210,0
517170,92,-2039,188,-64,-2,-14,15095,1,3,-189,-32,35260,-112,36,127,0,0,3961,32,0,17806,8131,237,27474,-4,0,20,0,517210,0
517180,76,-2037,177,-59,5,4,15094,-4,-6,-179,-32,35262,-121,35,127,0,0,3961,16,0,17806,8131,237,27484,-4,0,20,0,517210,0
517190,91,-2035,185,-44,3,32,15094,-1,-3,-191,-32,35260,-119,36,127,0,0,3961,21,0,17806,8131,237,27494,-4,0,20,0,517210,0
517200,89,-2041,183,-44,-11,42,15096,4,3,-150,-8,35260,-114,36,127,0,0,3963,32,0,17806,8131,237,27504,-4,0,20,0,517210,0
517210,89,-2043,184,-35,-10,64,15098,4,7,-8,8,35252,-96,36,127,0,0,3969,16,0,17806,8131,237,27514,-4,0,20,0,517225,0
517220,83,-2037,205,-29,-10,71,15108,32,13,160,64,35253,-108,36,127,0,0,3975,43,0,17806,8131,237,27524,-4,0,20,0,517225,0
517230,75,-2044,198,-30,-7,91,15123,37,24,226,72,35260,-113,35,127,0,0,3977,21,0,17806,8131,237,27534,-4,0,20,0,517225,0
517240,70,-2042,193,-29,-6,95,15152,80,45,145,64,35259,-101,36,127,0,0,3978,0,0,17806,8131,237,27544,-4,0,20,0,517225,0
517250,104,-2041,212,-32,-14,106,15168,16,1,133,80,35259,-87,36,127,0,0,3989,76,0,17806,8131,237,27554,-4,0,20,0,517225,0
517260,32,-2042,211,-29,-5,134,15168,5,-56,292,112,35271,-73,35,127,0,0,3990,82,0,17806,8131,237,27564,-4,0,20,0,517225,0
517270,60,-2040,205,-32,-5,133,15180,29,-6,356,144,35288,-98,35,127,0,0,3991,21,0,17806,8131,237,27574,-4,0,20,0,517241,0
517280,84,-2047,202,-37,-10,145,15198,52,29,376,160,35300,-99,35,127,0,0,3999,16,0,17806,8131,237,27584,-4,0,20,0,517272,0
517290,65,-2035,189,-27,-15,163,15230,69,44,329,160,35287,-96,35,127,0,0,4005,60,0,17806,8131,237,27594,-4,0,20,0,517272,0
517300,60,-2042,178,-26,-2,154,15242,14,-13,511,200,35269,-99,36,127,0,0,4012,10,0,17806,8131,237,27604,-4,0,20,0,517272,0
517310,63,-2053,219,-20,5,153,15259,53,-32,588,232,35268,-93,35,127,0,0,4018,38,0,17806,8131,237,27614,-4,0,20,0,517272,0
517320,27,-2041,253,-28,-3,163,15303,104,59,435,216,35276,-75,36,127,0,0,4022,27,0,17806,8131,237,27624,-4,0,20,0,517303,0
517330,10,-2043,266,-62,-5,140,15348,113,60,404,168,35277,-64,36,127,0,0,4033,49,0,17806,8131,237,27634,-4,0,20,0,517303,0
517340,25,-2042,257,-85,-16,152,15389,65,-4,371,136,35267,-49,36,127,0,0,4040,82,0,17806,8131,237,27644,-4,0,20,0,517303,0
517350,-59,-2032,242,-101,3,101,15422,78,-26,397,152,35266,-56,36,127,0,0,4042,49,0,17806,8131,237,27654,-4,0,20,0,517334,0
517360,7,-2046,256,-117,1,62,15436,5,-44,466,120,35276,-42,36,127,0,0,4049,0,0,17806,8131,237,27664,-4,0,20,0,517334,0
517370,-77,-2046,254,-153,-3,11,15437,11,-72,618,160,35275,-31,36,127,0,0,4050,5,0,17806,8131,237,27674,-4,0,20,0,517334,0
517380,-52,-2050,254,-171,-2,-33,15446,18,-1,595,144,35272,-27,36,127,0,0,4053,27,0,17806,8131,237,27684,-4,0,20,0,517381,0
517390,-122,-2033,255,-204,-15,-87,15450,21,12,624,176,35261,-32,36,127,0,0,4051,5,0,17806,8131,237,27694,-4,0,20,0,517381,0
517400,-101,-2039,251,-230,-20,-142,15458,15,6,492,120,35264,-35,35,127,0,0,4047,-21,0,17806,8131,237,27704,-4,0,20,0,517381,0
517410,-86,-2048,245,-254,12,-275,15457,-4,-17,421,120,35265,-24,36,127,0,0,4044,-32,0,17806,8131,237,27714,-4,0,20,0,517381,0
517420,-91,-2016,254,-279,5,-311,15451,-29,-18,265,16,35250,-31,36,127,0,0,4036,-76,0,17806,8131,237,27724,-4,0,20,0,517381,0
517430,-106,-2046,284,-333,-3,-404,15422,-81,-60,71,-16,35256,-42,36,127,0,0,4020,-93,0,17806,8131,237,27734,-4,0,20,0,517413,0
517440,-112,-2047,275,-359,-6,-473,15402,-33,-26,-229,-128,35261,-46,36,127,0,0,4008,-148,0,17806,8131,237,27744,-4,0,20,0,517413,0
517450,-103,-2045,291,-408,-14,-577,15376,-76,13,-401,-216,35264,-41,35,127,0,0,3992,-230,0,17806,8131,237,27754,-4,0,20,0,517413,0
517460,-99,-2044,262,-450,-23,-659,15316,-132,-82,-461,-256,35258,-41,36,127,0,0,3973,-175,0,17806,8131,237,27764,-4,0,20,0,517444,0
517470,-118,-2058,261,-488,-16,-791,15243,-183,-82,-513,-320,35250,-56,36,127,0,0,3950,-247,0,17806,8131,237,27774,-4,0,20,0,517444,0
517480,-160,-2034,237,-522,-21,-892,15148,-220,-72,-548,-416,35253,-66,35,127,0,0,3930,-252,0,17806,8131,237,27784,-4,0,20,0,517444,0
517490,-137,-2033,223,-574,-35,-1056,15046,-242,-57,-559,-496,35260,-81,36,127,0,0,3901,-247,0,17806,8131,237,27794,-4,0,20,0,517459,0
517500,-211,-2025,231,-600,-33,-1177,14928,-264,-50,-634,-640,35260,-99,36,127,0,0,3862,-395,0,17806,8131,237,27804,-4,0,20,0,517475,0
517510,-185,-2031,232,-657,-34,-1401,14789,-319,-66,-610,-760,35250,-96,36,127,0,0,3825,-472,0,17806,8131,237,27814,-4,0,20,0,517491,0
517520,-209,-2027,235,-684,-51,-1533,14639,-347,-63,-731,-904,35252,-98,36,127,0,0,3786,-390,0,17806,8131,237,27824,-4,0,20,0,517491,0
517530,-323,-2020,226,-740,-84,-1784,14466,-401,-56,-804,-1112,35248,-74,35,127,0,0,3733,-494,0,17806,8131,237,27834,-4,0,20,0,517522,0
517540,-311,-2012,264,-776,-97,-2026,14260,-463,-102,-731,-1288,35252,-56,36,127,0,0,3671,-659,0,17806,8131,237,27844,-4,0,20,0,517522,0
517550,-345,-1973,263,-849,-98,-2378,14020,-559,-128,-769,-1496,35238,-55,36,127,0,0,3607,-648,0,17806,8131,237,27854,-4,0,20,0,517569,0
517560,-469,-1982,288,-917,-115,-2652,13744,-630,-138,-804,-1712,35234,-52,36,127,0,0,3535,-675,0,17806,8131,237,27864,-4,0,20,0,517569,0
517570,-494,-2001,318,-1004,-104,-3141,13425,-722,-154,-745,-1952,35239,-67,36,127,0,0,3443,-917,0,17806,8131,237,27874,-4,0,20,0,517584,0
517580,-439,-1985,320,-1073,-115,-3462,13065,-830,-160,-839,-2272,35237,-40,36,127,0,0,3338,-1021,0,17806,8131,237,27884,-4,0,20,0,517584,0
517590,-629,-1772,-13,-1291,-319,-3857,12640,-968,-204,-821,-2520,35228,-46,35,127,0,0,3228,-1104,0,17806,8131,237,27894,-4,0,20,0,517584,0
517600,-919,-2037,-137,-1718,-724,-4205,12162,-1094,-226,-845,-2776,35220,-35,35,127,0,0,3112,-1208,0,17806,8131,237,27904,-4,0,20,0,517584,0
517610,-5,-4579,398,-1152,-645,-4190,11639,-1152,-196,-612,-2672,35223,-40,36,127,0,0,3028,-856,0,17806,8131,237,27914,-4,0,20,0,517584,0
517620,-331,-4773,410,-716,-864,-3623,11140,-1060,-40,-378,-2104,35239,-29,35,127,0,0,3005,-87,0,17806,8131,237,27924,-4,0,0,0,517584,0
517630,-502,-3159,504,-653,-1148,-3406,10739,-782,231,-133,-1168,35249,-32,35,127,0,0,3026,236,0,17806,8131,237,27934,-4,0,1,0,517678,0
517640,-29,-3088,404,-698,-1251,-3493,10502,-494,485,-82,-184,35247,-51,36,127,0,0,3082,549,0,17806,8131,237,27944,-4,0,2,0,517694,0
517650,-170,-3073,285,-655,-1620,-3346,10443,71,695,696,488,35249,-83,35,127,0,0,3146,714,0,17806,8131,237,27954,-4,0,4,0,517694,0
517660,391,-3151,190,-551,-1842,-3265,10598,410,832,479,1024,35252,-69,36,127,0,0,3232,840,0,17806,8131,237,27964,-4,0,5,0,517694,0
517670,149,-2739,193,-360,-1984,-2808,10838,583,525,635,1592,35257,-58,35,127,0,0,3337,1032,0,17806,8131,237,27974,-4,0,7,0,517694,0
517680,459,-2267,180,-261,-2122,-2412,11165,797,323,830,2232,35247,-40,35,127,0,0,3472,1329,0,17806,8131,237,27984,-4,0,8,0,517709,0
517690,319,-1832,102,30,-1962,-1771,11603,1030,393,843,2600,35234,-37,36,127,0,0,3582,1087,0,17806,8131,237,27994,-4,0,10,0,517709,0
517700,683,-1863,-228,163,-1447,-1677,12098,1096,308,461,2344,35232,-45,35,127,0,0,3629,390,0,17806,8131,237,28004,-4,0,12,0,517709,0
517710,344,-1589,-195,407,-1026,-1118,12548,922,-10,138,1376,35230,-34,36,127,0,0,3613,-181,0,17806,8131,237,28014,-4,0,15,0,517709,0
517720,25,-1511,-16,569,-890,-618,12877,633,-353,-1,392,35231,-74,35,127,0,0,3579,-357,0,17806,8131,237,28024,-4,0,16,0,517709,0
517730,-134,-1575,198,704,-856,254,13042,210,-567,-429,-144,35237,-85,35,127,0,0,3566,-71,0,17806,8131,237,28034,-4,0,19,0,517709,0
517740,-86,-1504,210,757,-750,645,13006,-143,-702,-276,-88,35259,-95,36,127,0,0,3567,43,0,17806,8131,237,28044,-4,0,22,0,517709,0
517750,-73,-1403,34,812,-538,1185,12958,-42,-372,119,24,35278,-53,36,127,0,0,3566,21,0,17806,8131,237,28054,-4,0,25,0,517741,0
517760,88,-1384,-107,838,-357,1607,12971,34,126,-30,0,35266,-54,36,127,0,0,3569,32,0,17806,8131,237,28064,-4,0,28,0,517741,0
517770,-13,-1302,-112,903,-92,2224,12974,4,101,99,64,35254,-72,36,127,0,0,3572,54,0,17806,8131,237,28074,-4,0,31,0,517756,0
517780,-46,-1283,-101,943,53,2602,12987,34,-12,269,144,35250,-92,36,127,0,0,3590,159,0,17806,8131,237,28084,-4,0,34,0,517756,0
517790,-15,-1353,-45,956,283,3150,13019,87,52,549,392,35254,-88,36,127,0,0,3618,329,0,17806,8131,237,28094,-4,0,38,0,517756,0
517800,-4,-1418,-18,969,435,3503,13114,254,156,641,672,35262,-60,36,127,0,0,3672,499,0,17806,8131,237,28104,-4,0,41,0,517787,0
517810,133,-1476,0,975,653,4020,13259,338,221,698,1040,35257,-34,36,127,0,0,3744,736,0,17806,8131,237,28114,-4,0,46,0,517787,0
517820,171,-1487,11,986,756,4329,13466,501,211,726,1512,35262,-45,36,127,0,0,3824,895,0,17806,8131,237,28124,-4,0,49,0,517787,0
517830,304,-1518,38,974,839,4735,13750,673,262,791,1976,35261,-38,35,127,0,0,3924,988,0,17806,8131,237,28134,-4,0,53,0,517819,0
517840,391,-1531,72,993,857,4974,14113,843,297,797,2344,35258,-42,35,127,0,0,4037,1126,0,17806,8131,237,28144,-4,0,56,0,517834,0
517850,481,-1538,-4,991,836,5271,14554,1021,307,748,2640,35244,-13,36,127,0,0,4160,1208,0,17806,8131,237,28154,-4,0,61,0,517834,0
517860,544,-1534,-15,998,842,5411,15059,1153,273,690,2984,35237,-18,36,127,0,0,4282,1301,0,17806,8131,237,28164,-4,0,64,0,517834,0
517870,601,-1517,-82,987,875,5496,15627,1285,245,693,3136,35241,-26,35,127,0,0,4412,1268,0,17806,8131,237,28174,-4,0,68,20,517834,0
517880,645,-1514,-124,976,921,5499,16222,1309,177,694,3280,35253,-8,36,127,0,0,4536,1329,0,17806,8131,237,28184,-4,0,71,18,517850,0
517890,717,-1552,-165,898,1099,5372,16831,1332,82,639,3224,35242,-13,35,127,0,0,4639,1065,0,17806,8131,237,28194,-4,0,75,16,517866,0
517900,692,-1611,-160,851,1266,5232,17429,1292,0,556,3000,35242,-25,35,127,0,0,4726,856,0,17806,8131,237,28204,-4,0,77,14,517944,0
517910,682,-1784,-91,781,1511,4969,17983,1186,-107,484,2720,35238,-48,36,127,0,0,4796,725,0,17806,8131,237,28214,-4,0,81,12,517944,0
517920,640,-1885,-86,733,1659,4788,18484,1069,-187,450,2416,35248,-38,35,127,0,0,4862,626,0,17806,8131,237,28224,-4,0,83,11,517944,0
517930,581,-1944,-46,627,1797,4555,18937,966,-199,412,2136,35239,-41,35,127,0,0,4918,587,0,17806,8131,237,28234,-4,0,86,10,517944,0
517940,581,-1955,-12,566,1844,4410,19337,853,-190,485,1968,35225,-65,36,127,0,0,4984,681,0,17806,8131,237,28244,-4,0,87,9,517944,0
517950,612,-1937,-34,457,1873,4142,19712,793,-150,540,1936,35232,-65,35,127,0,0,5042,659,0,17806,8131,237,28254,-4,0,90,8,517944,0
517960,581,-1914,-61,361,1881,3921,20067,770,-94,599,1896,35245,-61,36,127,0,0,5109,626,0,17806,8131,237,28264,-4,0,91,7,517944,0
517970,560,-1901,-70,206,1901,3570,20413,760,-55,685,1880,35240,-36,36,127,0,0,5180,670,0,17806,8131,237,28274,-4,0,93,6,517944,0
517980,577,-1902,-55,88,1915,3293,20755,753,-24,671,1904,35232,-42,36,127,0,0,5238,593,0,17806,8131,237,28284,-4,0,94,5,517959,0
517990,548,-1891,-46,-58,1965,2851,21099,764,-5,641,1864,35244,-44,36,127,0,0,5309,615,0,17806,8131,237,28294,-4,0,95,4,517959,0
518000,560,-1891,-55,-115,2022,2561,21436,720,-6,586,1792,35267,-47,35,127,0,0,5363,571,0,17806,8131,237,28304,-4,0,96,4,517991,0
518010,513,-1815,-43,-197,2078,2108,21755,690,-44,620,1752,35272,-26,35,127,0,0,5414,565,0,17806,8131,237,28314,-4,0,96,3,517991,0
518020,461,-1747,-25,-241,2083,1791,22063,674,-56,600,1600,35252,-40,36,127,0,0,5464,483,0,17806,8131,237,28324,-4,0,97,2,518006,0
518030,451,-1635,-52,-300,2054,1297,22356,638,-51,576,920,35239,-56,36,127,0,0,5494,351,0,17806,8131,237,28334,-4,0,97,2,518006,0
518040,433,-1551,-67,-318,1996,1063,22517,112,-238,-1092,-688,35250,-70,36,127,0,0,5536,395,0,17806,8131,237,28344,-4,0,97,1,518006,0
518050,360,-1468,-86,-291,1956,466,22346,-429,-929,-555,-1200,35266,-36,36,127,0,0,5572,296,0,17806,8131,237,28354,-4,0,96,0,518037,0
518060,426,-1412,-99,-293,1868,251,22102,-590,-771,-617,-1520,35257,-29,35,127,0,0,5597,313,0,17806,8131,237,28364,-4,0,96,0,518037,0
518070,422,-1516,-69,-290,1764,-153,21803,-685,-237,-607,-1808,35249,-51,35,127,0,0,5620,208,0,17806,8131,237,28374,-4,0,95,-2,518037,0
518080,378,-1579,-19,-230,1656,-412,21459,-791,-193,-627,-2152,35257,-67,36,127,0,0,5642,197,0,17806,8131,237,28384,-4,0,94,-3,518053,0
518090,355,-1692,14,-207,1448,-695,21048,-942,-208,-729,-2608,35269,-74,36,127,0,0,5664,203,0,17806,8131,237,28394,-4,0,93,-5,518053,0
518100,312,-1717,62,-227,1272,-826,20555,-1155,-280,-868,-3200,35264,-34,35,127,0,0,5694,263,0,17806,8131,237,28404,-4,0,92,-6,518100,0
518110,284,-1787,115,-240,1005,-1029,19937,-1434,-397,-906,-3952,35243,-14,36,127,0,0,5732,324,0,17806,8131,237,28414,-4,0,91,-8,518116,0
518120,253,-1842,129,-248,823,-1132,19173,-1776,-515,-1092,-5016,35231,26,35,127,0,0,5774,401,0,3739,327,238,0,1,4,90,-9,518116,0
518130,227,-1955,110,-266,532,-1307,18219,-2224,-636,-1287,-6144,35220,62,36,127,0,0,5810,384,0,3739,327,238,10,1,0,88,-11,518116,0
518140,192,-1985,106,-273,358,-1421,17047,-2742,-783,-1409,-7456,35198,118,36,127,0,0,5852,379,0,3739,327,238,20,1,0,87,-12,518116,0
518150,132,-2087,112,-334,172,-1550,15597,-3386,-951,-1611,-8992,35175,210,36,127,0,0,5886,357,0,3739,327,238,30,1,0,85,-15,518116,0
518160,85,-2160,196,-344,36,-1625,13885,-3930,-1055,-1980,-10840,35157,298,35,127,0,0,5920,329,0,3739,327,238,40,1,0,84,-16,518131,0
518170,31,-2276,126,-414,-52,-1843,11892,-4532,-1051,-922,-9928,35159,319,36,127,0,0,5953,280,0,3739,327,238,50,1,0,82,-18,518147,0
518180,-129,-2010,111,-351,-157,-1956,9960,-4054,-467,228,-8056,35192,211,36,127,0,0,5965,170,0,3739,327,238,60,1,0,80,-20,518147,0
518190,-48,-2020,87,-285,-252,-2111,8319,-3452,720,217,-6936,35231,55,36,127,0,0,5979,60,0,3739,327,238,70,1,0,78,-22,518209,0
518200,-77,-2129,103,-195,-321,-2083,6911,-2948,1002,-37,-6456,35257,-87,36,127,0,0,5988,71,0,3739,327,238,80,1,0,77,-24,518209,0
518210,-164,-2266,138,-56,-522,-1965,5680,-2639,789,-494,-6432,35258,-70,35,127,0,0,6004,181,0,3739,327,238,90,1,0,75,-27,518209,0
518220,-257,-2230,158,76,-681,-1966,4492,-2636,425,-770,-6736,35235,-2,36,127,0,0,6021,181,0,3739,327,238,100,1,0,74,-28,518209,0
518230,-221,-2172,187,131,-950,-1941,3228,-2843,-76,-799,-6136,35214,50,35,127,0,0,6051,285,0,3739,327,238,110,1,0,72,-31,518209,0
518240,-262,-2140,190,119,-1076,-2008,2051,-2410,-21,435,-3448,35217,-5,35,127,0,0,6069,214,0,3739,327,238,120,1,0,70,-33,518225,0
518250,-243,-2096,142,72,-1215,-2055,1235,-1535,873,870,-1448,35248,-88,36,127,0,0,6091,225,0,3739,327,238,130,1,0,68,-36,518225,0
518260,-216,-2094,135,80,-1309,-2108,772,-824,1397,525,-216,35285,-156,36,127,0,0,6114,219,0,3739,327,238,140,1,0,67,-37,518225,0
518270,-261,-2082,184,154,-1454,-2203,646,24,1308,1196,312,35288,-126,35,127,0,0,6127,137,0,3739,327,238,150,1,0,65,-40,518319,0
518280,-176,-2136,220,211,-1596,-2032,750,239,1132,300,264,35266,-99,36,127,0,0,6144,181,0,3739,327,238,160,1,0,64,-42,518319,0
518290,-332,-2157,278,362,-1801,-1938,854,224,413,308,248,35254,-81,35,127,0,0,6156,148,0,3739,327,238,170,1,0,62,-45,518319,0
518300,-311,-2109,265,437,-2005,-1769,929,151,-62,446,288,35251,-87,36,127,0,0,6172,131,0,3739,327,238,180,1,0,61,-47,518319,0
518310,-325,-2025,260,513,-2336,-1473,1017,221,-30,517,480,35253,-108,35,127,0,0,6200,241,0,3739,327,238,190,1,0,59,-50,518319,0
518320,-334,-2001,220,534,-2617,-1237,1138,288,87,604,640,35247,-104,35,127,0,0,6240,379,0,3739,327,238,200,1,0,58,-52,518334,0
518330,1717,-3415,1705,1028,-1093,-1273,1295,361,133,559,688,35249,-119,36,127,0,0,6221,-362,0,3739,327,238,210,1,0,57,-55,518334,0
518340,613,-6332,-1667,582,-558,-3779,1354,-240,-59,-2194,-2568,35244,-68,35,127,0,0,5918,-3180,0,3739,327,238,220,1,0,56,-57,518334,0
518350,-50,-1213,1933,868,125,-3440,911,-1053,-1230,-623,-1904,35236,-24,36,127,0,0,5565,-3493,0,3739,327,238,230,1,0,54,-60,518334,0
518360,-434,-812,1327,364,521,-3040,503,-810,-906,-38,-1072,35236,0,36,127,0,0,5274,-2839,0,3739,327,238,240,1,0,53,-61,518334,0
518370,155,-2811,244,-254,830,-4107,321,-77,495,1527,1488,35250,-24,36,127,0,0,4959,-3224,0,3739,327,238,250,1,0,52,-64,518350,0
518380,306,-3526,54,-537,-197,-2217,672,1008,1476,1708,3432,35259,-31,36,127,0,0,4734,-2136,0,3739,327,238,260,1,0,51,-65,518365,0
518390,-1486,-3015,35,-10,-1355,-2133,1350,1650,1667,1367,4592,35243,7,36,127,0,0,4547,-1928,0,3739,327,238,270,1,0,50,-67,518365,0
518400,-1408,-2633,-888,276,-822,-2130,2243,2115,1018,1383,5912,35208,71,36,127,0,0,4373,-1719,0,3739,327,238,280,1,0,49,-68,518365,0
518410,-1170,-2051,-834,10,734,-2509,3383,2663,883,1428,7280,35190,116,36,127,0,0,4193,-1752,0,3739,327,238,290,1,0,48,-70,518381,0
518420,-277,-2021,-780,-43,1207,-2630,4762,3179,929,1680,8856,35174,185,36,127,0,0,4017,-1763,0,3739,327,238,300,1,0,48,-70,518397,0
518430,101,-1866,-197,91,1096,-2655,6365,3705,883,1804,10440,35154,272,35,127,0,0,3836,-1845,0,3739,327,238,310,1,0,47,-71,518397,0
518440,979,-1762,-52,271,872,-2472,8309,4531,1082,2099,11360,35119,401,35,127,0,0,3665,-1752,0,3739,327,238,320,1,0,47,-71,518428,0
518450,1530,-1889,175,400,796,-2141,10285,3963,813,-1746,5432,35169,193,36,127,0,0,3483,-1757,0,3739,327,238,330,1,0,46,-72,518428,0
518460,-841,-7944,2587,823,-452,-1280,11386,1814,-1662,-2504,1304,35242,-46,35,127,0,0,3358,-1153,0,3739,327,238,340,1,0,46,-73,518428,0
518470,1547,-1021,2397,1973,146,-742,11842,806,-3002,-604,248,35294,-236,36,127,0,0,3342,-241,0,3739,327,238,350,1,0,46,-73,518444,0
518480,23,-1451,966,-267,-572,-341,11917,-226,-1895,-1607,-672,35300,-225,36,127,0,0,3291,-505,0,3739,327,238,360,1,0,45,-72,518459,0
518490,-817,-2658,190,-1054,-1343,-149,11748,-378,-1283,-342,-352,35260,-84,36,127,0,0,3292,38,0,3739,327,238,370,1,0,45,-72,518459,0
518500,-1596,-1882,-1425,-646,-710,-731,11626,-207,-347,-216,-216,35258,-89,36,127,0,0,3281,-186,0,3739,327,238,380,1,0,45,-71,518506,0
518510,-186,-1926,-2243,220,749,-1488,11546,-173,192,-463,-400,35268,-64,35,127,0,0,3235,-401,0,3739,327,238,390,1,0,45,-70,518506,0
518520,466,-1922,-1349,684,1207,-1473,11435,-283,20,-730,-768,35266,-39,36,127,0,0,3183,-499,0,3739,327,238,400,1,0,45,-69,518506,0
518530,1165,-2074,398,881,70,-990,11260,-407,-194,-512,-752,35257,-45,35,127,0,0,3154,-269,0,3739,327,238,410,1,0,45,-69,518506,0
518540,815,-2043,996,659,-62,-609,11082,-386,-130,-433,-632,35236,-79,35,127,0,0,3139,-153,0,3739,327,238,420,1,0,45,-68,518506,0
518550,666,-2129,1320,228,48,-421,10926,-332,37,-334,-400,35257,-115,36,127,0,0,3131,-82,0,3739,327,238,430,1,0,45,-67,518522,0
518560,838,-2062,1071,19,26,-276,10815,-219,124,-338,-216,35274,-96,36,127,0,0,3126,-5,0,3739,327,238,440,1,0,45,-67,518537,0
518570,902,-1983,573,-146,-134,12,10752,-107,173,-264,-112,35266,-60,36,127,0,0,3122,-54,0,3739,327,238,450,1,0,45,-67,518537,0
518580,667,-1966,222,-183,-202,147,10748,29,204,-364,-72,35249,-44,36,127,0,0,3121,32,0,3739,327,238,460,1,0,45,-67,518553,0
518590,296,-1957,-158,-124,-166,201,10747,-23,132,-380,-80,35243,-29,36,127,0,0,3127,54,0,3739,327,238,470,1,0,45,-67,518569,0
518600,246,-2007,-210,-53,-49,194,10753,13,6,-262,-24,35260,-40,36,127,0,0,3131,76,0,3739,327,238,480,1,0,45,-67,518569,0
518610,299,-1973,-82,76,43,166,10759,11,10,-110,8,35256,-37,36,127,0,0,3135,43,0,3739,327,238,490,1,0,45,-67,518584,0
518620,296,-1987,8,128,25,166,10762,8,-1,-12,24,35247,-37,36,127,0,0,3137,32,0,3739,327,238,500,1,0,45,-67,518650,0
518630,215,-2015,166,171,12,125,10768,10,-3,57,16,35242,-35,36,127,0,0,3137,-27,0,3739,327,238,510,1,0,45,-67,518650,0
518640,187,-2012,259,164,7,71,10769,10,-8,106,32,35249,-26,36,127,0,0,3143,21,0,3739,327,238,520,1,0,45,-67,518650,0
518650,127,-2030,381,107,-6,-26,10777,18,8,140,56,35243,-30,35,127,0,0,3137,-5,0,3739,327,238,530,1,0,45,-67,518650,0
518660,115,-2037,406,40,-46,-94,10790,21,22,-37,8,35230,-23,35,127,0,0,3145,49,0,3739,327,238,540,1,0,45,-67,518650,0
518670,37,-2075,456,-51,-126,-250,10790,-2,-13,23,-16,35229,-48,36,127,0,0,3139,-5,0,3739,327,238,550,1,0,45,-67,518650,0
518680,-8,-2031,408,-109,-128,-425,10789,-9,-26,-44,-56,35237,-52,35,127,0,0,3135,-76,0,3739,327,238,560,1,0,45,-67,518650,0
518690,-14,-2029,270,-171,-79,-688,10775,-58,-38,-299,-112,35248,-30,36,127,0,0,3113,-164,0,3739,327,238,570,1,0,45,-67,518666,0
518700,-99,-2021,171,-184,-57,-896,10737,-90,-77,-511,-272,35254,-34,35,127,0,0,3095,-247,0,3739,327,238,580,1,0,45,-67,518697,0
518710,-120,-2009,170,-203,-74,-1199,10694,-121,-52,-805,-480,35254,-9,35,127,0,0,3061,-346,0,3739,327,238,590,1,0,45,-67,518697,0
518720,-200,-2020,235,-208,-96,-1442,10592,-272,-137,-795,-616,35258,-35,36,127,0,0,3020,-351,0,3739,327,238,600,1,0,45,-67,518697,0
518730,-295,-1994,242,-253,-112,-1879,10451,-320,-195,-668,-848,35253,-30,36,127,0,0,2970,-505,0,3739,327,238,610,1,0,45,-67,518713,0
518740,-329,-1988,229,-328,-104,-2209,10284,-383,-72,-701,-1040,35241,-53,36,127,0,0,2912,-631,0,3739,327,238,620,1,0,45,-67,518713,0
518750,-370,-1983,336,-398,-65,-2739,10083,-478,-95,-751,-1232,35235,-72,36,127,0,0,2847,-670,0,3739,327,238,630,1,0,45,-67,518713,0
518760,-260,-1938,341,-416,-49,-3112,9844,-551,-185,-725,-1512,35246,-52,35,127,0,0,2758,-895,0,3739,327,238,640,1,0,45,-67,518744,0
518770,-102,-1888,336,-504,-107,-3592,9555,-666,-164,-796,-1776,35260,-42,36,127,0,0,2668,-966,0,3739,327,238,650,1,0,45,-67,518744,0
518780,-82,-1874,323,-571,-204,-3843,9217,-776,-196,-754,-2040,35252,-34,36,127,0,0,2564,-1049,0,3739,327,238,660,1,0,45,-67,518744,0
518790,-13,-1933,263,-612,-262,-4197,8829,-885,-192,-723,-2248,35238,-40,36,127,0,0,2455,-1153,0,3739,327,238,670,1,0,45,-67,518775,0
518800,140,-1910,205,-630,-272,-4380,8397,-966,-180,-732,-2424,35234,-43,36,127,0,0,2346,-1131,0,3739,327,238,680,1,0,45,-67,518775,0
518810,435,-1615,387,-664,-436,-4597,7934,-1041,-151,-672,-2536,35238,-40,36,127,0,0,2223,-1224,0,3739,327,238,690,1,0,45,-67,518775,0
518820,790,-1933,594,-681,-644,-4753,7443,-1105,-110,-710,-2768,35243,-34,36,127,0,0,2092,-1318,0,3739,327,238,700,1,0,45,-67,518822,0
518830,984,-2506,638,-708,-755,-4529,6911,-1182,-130,-652,-2872,35233,-28,36,127,0,0,1975,-1153,0,3739,327,238,710,1,0,45,-67,518837,0
518840,721,-2223,566,-677,-691,-4434,6372,-1167,-93,-475,-2784,35230,-36,36,127,0,0,1869,-1016,0,3739,327,238,720,1,0,45,-67,518837,0
518850,779,-1723,231,-750,-889,-4430,5859,-1106,36,-472,-2648,35224,-43,35,127,0,0,1775,-939,0,3739,327,238,730,1,0,45,-67,518837,0
518860,758,-1853,20,-760,-1049,-4486,5374,-1061,101,-585,-2640,35229,-29,36,127,0,0,1677,-966,0,3739,327,238,740,1,4,90,-9,518837,0
518870,530,-2132,185,-798,-1043,-4526,4891,-1066,54,-566,-2576,35227,-26,35,127,0,0,1593,-889,0,3739,327,238,750,1,4,90,-9,518837,0
518880,615,-2072,174,-862,-911,-4597,4414,-1043,14,-534,-2496,35233,-33,35,127,0,0,1509,-812,0,3739,327,238,760,1,4,90,-9,518853,0
518890,936,-1794,-34,-982,-837,-4592,3946,-1031,25,-510,-2400,35254,-52,36,127,0,0,1437,-714,0,3739,327,238,770,1,4,90,-9,518884,0
518900,1215,-1635,-202,-942,-819,-4518,3489,-986,28,-426,-2240,35265,-57,36,127,0,0,1366,-675,0,3739,327,238,780,1,4,90,-9,518884,0
518910,1282,-1572,-290,-829,-900,-4360,3054,-942,75,-446,-2160,35252,-55,35,127,0,0,1295,-675,0,3739,327,238,790,1,4,90,-9,518884,0
518920,1147,-1712,-222,-844,-871,-4265,2641,-888,87,-466,-2024,35238,-70,36,127,0,0,1235,-659,0,3739,327,238,800,1,4,90,-9,518916,0
518930,980,-1850,-54,-908,-753,-4251,2248,-844,72,-442,-1928,35243,-69,35,127,0,0,1186,-543,0,3739,327,238,810,1,4,90,-9,518916,0
518940,858,-1951,-88,-1012,-680,-4285,1879,-799,90,-489,-1808,35257,-64,35,127,0,0,1134,-477,0,3739,327,238,820,1,4,90,-9,518916,0
518950,838,-2299,53,-1141,-663,-4373,1530,-756,83,-479,-1704,35265,-69,36,127,0,0,1092,-411,0,3739,327,238,830,1,4,90,-9,518931,0
518960,780,-2527,223,-1163,-613,-4457,1203,-697,81,-428,-1472,35257,-54,36,127,0,0,1068,-274,0,3739,327,238,840,1,4,90,-9,518931,0
518970,987,-2347,455,-1095,-506,-4637,913,-610,113,-334,-1112,35269,-95,36,127,0,0,1051,-148,0,3739,327,238,850,1,4,90,-9,518962,0
518980,1232,-1972,412,-1029,-586,-4739,672,-485,165,-282,-776,35276,-85,36,127,0,0,1037,-142,0,3739,327,238,860,1,4,90,-9,518962,0
518990,1481,-1543,213,-957,-846,-4664,492,-348,217,-355,-528,35270,-73,36,127,0,0,1041,-10,0,3739,327,238,870,1,4,90,-9,518962,0
519000,1501,-1189,32,-915,-981,-4644,359,-251,214,-294,-208,35262,-58,36,127,0,0,1039,5,0,3739,327,238,880,1,4,90,-9,518962,0
519010,1486,-1111,-175,-865,-1178,-4638,291,-111,213,-226,-96,35258,-36,36,127,0,0,1040,49,0,3739,327,238,890,1,4,90,-9,519009,0
519020,1454,-1254,-182,-882,-1182,-4618,294,23,261,-306,-72,35262,-75,35,127,0,0,1039,0,0,3739,327,238,900,1,4,90,-9,519009,0
519030,1330,-1599,-143,-1001,-1070,-4588,294,-23,124,-313,-72,35265,-88,36,127,0,0,1039,0,0,3739,327,238,910,1,4,90,-9,519025,0
519040,1164,-1729,-63,-1105,-875,-4619,296,0,-17,-329,-80,35245,-118,35,127,0,0,1042,32,0,3739,327,238,920,1,4,90,-9,519025,0
519050,1119,-1785,-120,-1333,-759,-4660,296,5,13,-202,8,35248,-117,35,127,0,0,1052,137,0,3739,327,238,930,1,4,90,-9,519025,0
519060,1361,-1876,-11,-1418,-707,-4795,325,97,45,246,232,35263,-120,36,127,0,0,1071,236,0,3739,327,238,940,1,4,90,-9,519025,0
519070,1617,-2280,19,-1464,-863,-4857,411,211,156,350,392,35278,-105,35,127,0,0,1107,373,0,3739,327,238,950,1,4,90,-9,519056,0
519080,1839,-2690,183,-1426,-893,-4888,531,290,174,537,688,35275,-86,35,127,0,0,1145,444,0,3739,327,238,960,1,4,90,-9,519072,0
519090,2035,-3218,362,-1340,-886,-4739,695,398,147,597,1040,35257,-84,36,127,0,0,1205,560,0,3739,327,238,970,1,4,90,-9,519072,0
519100,2097,-2946,441,-1348,-1052,-4387,911,520,190,743,1512,35251,-77,35,127,0,0,1291,895,0,3739,327,238,980,1,4,90,-9,519072,0
519110,1970,-2758,412,-1405,-1215,-3815,1210,723,249,949,2216,35256,-54,36,127,0,0,1410,1197,0,3739,327,238,990,1,4,90,-9,519072,0
519120,1787,-2744,266,-1270,-1238,-3433,1633,1010,400,987,2856,35259,-27,36,127,0,0,1565,1554,0,3739,327,238,1000,1,4,90,-9,519103,0
519130,1493,-2391,-71,-1034,-1088,-2878,2190,1319,493,1060,3608,35246,3,35,127,0,0,1742,1807,0,3739,327,238,1010,1,4,90,-9,519103,0
519140,1256,-2118,-207,-924,-982,-2385,2876,1594,503,1001,4256,35236,4,36,127,0,0,1951,2191,0,3739,327,238,1020,1,4,90,-9,519119,0
519150,1218,-1746,-263,-810,-899,-1498,3678,1834,472,1037,4896,35236,22,36,127,0,0,2210,2625,0,3739,327,238,1030,1,4,90,-9,519119,0
519160,1200,-1617,-253,-719,-891,-881,4592,2080,432,1172,5624,35232,67,36,127,0,0,2491,2790,0,3739,327,238,1040,1,4,90,-9,519134,0
519170,948,-1229,-113,-474,-1068,145,5608,2309,405,1188,6416,35221,94,36,127,0,0,2805,3202,0,3739,327,238,1050,1,4,90,-9,519166,0
519180,1085,-438,-18,-239,-961,678,6774,2696,474,1425,7360,35204,149,36,127,0,0,3160,3592,0,3739,327,238,1060,1,4,90,-9,519166,0
519190,-214,1432,126,382,-512,1750,8150,3149,703,1332,7880,35194,163,36,127,0,0,3436,2708,0,3739,327,238,1070,1,4,90,-9,519166,0
519200,627,1780,-1086,401,251,2497,9596,3151,554,450,7080,35199,150,36,127,0,0,3596,1461,0,3739,327,238,1080,1,4,90,-9,519181,0
519210,545,1885,-1502,284,1616,2366,10936,2830,-76,-250,4272,35210,59,36,127,0,0,3528,-823,0,3739,327,238,1090,0,4,90,-9,519181,0
519220,351,1424,-1135,354,1531,3788,11879,1659,-931,-1556,1048,35259,-85,36,127,0,0,3407,-1170,0,3739,327,238,1100,0,4,90,-9,519212,0
519230,-382,407,-372,478,853,5837,12189,169,-1989,-2224,-688,35290,-137,36,127,0,0,3333,-626,0,3739,327,238,1110,0,4,90,-9,519212,0
519240,-724,-147,184,684,513,6458,12011,-427,-2215,-382,-680,35294,-148,36,127,0,0,3312,-120,0,3739,327,238,1120,0,4,90,-9,519212,0
519250,-333,-954,324,944,424,7300,11830,-367,-909,-260,-312,35272,-102,36,127,0,0,3322,109,0,3739,327,238,1130,0,4,90,-9,519212,0
519260,111,-1251,122,1059,635,7808,11719,-141,129,246,192,35258,-83,36,127,0,0,3343,252,0,3739,327,238,1140,0,4,90,-9,519259,0
519270,216,-859,-116,1291,842,8328,11796,220,508,341,296,35270,-93,36,127,0,0,3368,252,0,3739,327,238,1150,0,4,90,-9,519259,0
519280,528,-556,-178,1384,923,8563,11895,230,409,392,416,35276,-79,36,127,0,0,3399,291,0,3739,327,238,1160,0,4,90,-9,519259,0
519290,817,-364,-330,1532,802,9144,12010,251,55,487,480,35268,-90,36,127,0,0,3437,362,0,3739,327,238,1170,0,4,90,-9,519259,0
519300,927,-350,-319,1600,572,9542,12135,297,48,592,680,35255,-72,36,127,0,0,3481,527,0,3739,327,238,1180,0,4,90,-9,519259,0
519310,1004,-515,-153,1746,7,10144,12285,353,68,651,984,35260,-85,36,127,0,0,3550,763,0,3739,327,238,1190,0,4,90,-9,519290,0
519320,1007,-747,-68,1882,-385,10474,12489,489,151,846,1496,35267,-57,36,127,0,0,3648,1043,0,3739,327,238,1200,0,4,90,-9,519290,0
519330,967,-929,4,2003,-753,10767,12790,736,286,1003,2232,35262,-38,36,127,0,0,3774,1356,0,3739,327,238,1210,0,4,90,-9,519290,0
519340,933,-1042,11,2031,-778,10822,13213,1010,421,1075,3008,35241,-11,36,127,0,0,3930,1593,0,3739,327,238,1220,0,4,90,-9,519322,0
519350,1062,-1034,-143,2081,-404,10641,13772,1311,496,1061,3656,35224,-13,36,127,0,0,4101,1675,0,3739,327,238,1230,0,4,90,-9,519322,0
519360,1187,-1095,-244,2139,81,10441,14446,1560,481,946,4128,35230,-4,36,127,0,0,4276,1686,0,3739,327,238,1240,0,4,90,-9,519322,0
519370,1315,-1186,-416,2250,1028,9949,15217,1753,405,794,4368,35236,3,35,127,0,0,4446,1620,0,3739,327,238,1250,0,4,90,-9,519400,0
519380,1371,-1261,-451,2236,1727,9562,16044,1829,298,671,4376,35237,12,35,127,0,0,4597,1510,0,3739,327,238,1260,0,4,90,-9,519415,0
519390,1496,-1456,-361,2142,2727,8950,16866,1784,102,550,4160,35225,-21,36,127,0,0,4721,1224,0,3739,327,238,1270,0,4,90,-9,519415,0
519400,1504,-1566,-231,2054,3324,8504,17630,1642,-118,499,3872,35223,-36,35,127,0,0,4848,1235,0,3739,327,238,1280,0,4,90,-9,519415,0
519410,1816,-1918,-118,1754,4188,7750,18343,1541,-212,556,3744,35228,-32,36,127,0,0,4964,1219,0,3739,327,238,1290,0,4,90,-9,519415,0
519420,1796,-2079,10,1526,4541,7260,19034,1498,-137,543,3608,35231,-16,36,127,0,0,5080,1137,0,3739,327,238,1300,0,4,90,-9,519415,0
519430,1961,-2521,278,1094,4843,6384,19709,1482,-78,596,3624,35217,-8,36,127,0,0,5219,1351,0,3739,327,238,1310,0,4,90,-9,519415,0
519440,2066,-2776,492,831,4899,5694,20382,1486,-31,733,3736,35218,-15,36,127,0,0,5354,1367,0,3739,327,238,1320,0,4,90,-9,519415,0
519450,2239,-3171,693,424,4717,4559,21059,1509,4,783,3928,35231,-19,36,127,0,0,5505,1510,0,3739,327,238,1330,0,4,90,-9,519415,0
519460,2227,-3315,823,240,4358,3810,21713,1325,-22,38,1664,35259,-31,36,127,0,0,5638,1329,0,3739,327,238,1340,0,4,90,-9,519431,0
519470,2220,-3317,853,112,3465,2779,22109,597,-520,-1348,-592,35265,-56,36,127,0,0,5750,1104,0,3739,327,238,1350,0,4,90,-9,519494,0
519480,2289,-3073,685,44,2666,2047,21942,-553,-1608,-1087,-1904,35260,-86,36,127,0,0,5844,884,0,3739,327,238,1360,0,4,90,-9,519494,0
519490,2202,-2494,690,-1,1246,1225,21553,-1002,-1491,-1202,-3032,35249,-71,35,127,0,0,5908,653,0,3739,327,238,1370,0,4,90,-9,519494,0
519500,2164,-2332,534,-25,388,803,20967,-1400,-780,-1155,-3960,35225,-5,36,127,0,0,5954,439,0,3739,327,238,1380,0,4,90,-9,519494,0
519510,1652,-2001,353,69,-1153,539,20201,-1801,-720,-1090,-4672,35211,39,35,127,0,0,6011,532,0,3739,327,238,1390,0,4,90,-9,519494,0
519520,1437,-1931,281,180,-2183,277,19311,-1995,-588,-653,-4928,35199,37,35,127,0,0,6065,576,0,3739,327,238,1400,0,4,90,-9,519494,0
519530,1122,-1944,335,358,-3560,49,18382,-2060,-308,-604,-5040,35213,18,36,127,0,0,6124,604,0,3739,327,238,1410,0,4,90,-9,519509,0
519540,974,-2009,287,421,-4267,-129,17442,-2061,-92,-542,-5048,35230,-20,35,127,0,0,6190,593,0,3739,327,238,1420,0,4,90,-9,519509,0
519550,580,-2057,313,606,-5082,-486,16482,-2134,-43,-602,-5216,35233,-4,36,127,0,0,6245,560,0,3739,327,238,1430,0,4,90,-9,519525,0
519560,436,-2112,308,686,-5471,-747,15486,-2200,-116,-642,-5368,35225,-18,36,127,0,0,6290,428,0,3739,327,238,1440,0,4,90,-9,519540,0
519570,88,-1862,287,534,-6012,-1262,14481,-2206,-85,-747,-5568,35221,2,36,127,0,0,6317,302,0,3739,327,238,1450,0,4,90,-9,519540,0
519580,-62,-2034,364,411,-6197,-1593,13460,-2289,-40,-929,-5920,35222,20,36,127,0,0,6331,159,0,3739,327,238,1460,0,4,90,-9,519540,0
519590,-16,-2444,348,109,-6189,-1819,12371,-2441,-168,-775,-6040,35226,63,36,127,0,0,6341,164,0,1655,1583,239,2,1,4,171,-38,519587,0
519600,-215,-2669,311,2,-6116,-1857,11227,-2536,-249,-638,-5992,35221,71,36,127,0,0,6354,126,0,1655,1583,239,12,1,4,171,-38,519587,0
519610,1648,-3729,1918,624,-2811,-2154,10099,-2452,-76,-634,-6152,35219,40,35,127,0,0,6274,-1032,0,1655,1583,239,22,1,4,171,-38,519587,0
519620,-1772,-5781,-2056,566,-248,-5113,8848,-3082,-156,-2856,-9776,35174,188,36,127,0,0,5805,-4894,0,1655,1583,239,32,1,4,171,-38,519587,0
519630,-723,-3966,1687,1017,1865,-4353,6833,-4972,-1719,-3815,-13784,35084,563,36,127,0,0,5363,-4394,0,1655,1583,239,42,1,4,171,-38,519619,0
519640,443,-2815,423,-634,1712,-5525,4833,-4258,-1934,4052,-1776,35113,393,36,127,0,0,4916,-4652,0,1655,1583,239,52,1,4,171,-38,519619,0
519650,-820,-3505,106,-1488,-924,-2490,4537,1072,3861,9726,6808,35080,492,36,127,0,0,4581,-3065,0,1655,1583,239,62,1,4,171,-38,519619,0
519660,88,-5203,-819,-1663,-1388,-2589,5691,2762,6746,1655,7768,35150,208,35,127,0,0,4307,-2828,0,1655,1583,239,72,1,4,171,-38,519650,0
519670,-2053,-3255,-334,-7,-778,-2318,7119,3351,2744,1872,9472,35126,354,35,127,0,0,4067,-2318,0,1655,1583,239,82,1,4,171,-38,519650,0
519680,-1398,-1894,-708,-243,513,-3006,8896,4130,1176,1875,11008,35101,392,35,127,0,0,3827,-2416,0,1655,1583,239,92,1,4,171,-38,519650,0
519690,136,-1183,-882,-952,863,-3154,10834,4135,940,-1195,5368,35141,167,35,127,0,0,3600,-2301,0,1655,1583,239,102,1,4,171,-38,519681,0
519700,649,-2117,143,-989,615,-3458,12001,1861,-1428,-3072,496,35215,-59,36,127,0,0,3344,-2653,0,1655,1583,239,112,1,4,171,-38,519681,0
519710,800,-2773,-176,-729,207,-3191,12119,-522,-3724,-3356,-2432,35270,-184,35,127,0,0,3081,-2548,0,1655,1583,239,122,1,4,171,-38,519681,0
519720,4,-2361,166,-543,409,-2858,11619,-1309,-3137,-1535,-3800,35268,-150,35,127,0,0,2860,-2164,0,1655,1583,239,132,1,4,171,-38,519728,0
519730,-3541,-7982,1403,-1116,-438,-1366,10889,-1711,-1420,-915,-4304,35216,4,36,127,0,0,2683,-1730,0,1655,1583,239,142,1,4,171,-38,519759,0
519740,2509,-3094,1520,-17,-471,-1075,10101,-1638,-322,-124,-2680,35216,-9,35,127,0,0,2708,82,0,1655,1583,239,152,1,4,171,-38,519759,0
519750,-1674,-1833,510,-1381,-509,-1622,9497,-1216,374,38,-2008,35235,-45,36,127,0,0,2647,-598,0,1655,1583,239,162,1,4,171,-38,519759,0
519760,-193,-2423,-482,-568,359,-2203,9051,-885,480,-83,-1544,35237,-73,35,127,0,0,2601,-554,0,1655,1583,239,172,1,4,171,-38,519759,0
519770,1130,-1424,-1390,-277,327,-2264,8716,-686,518,-312,-1384,35228,-72,35,127,0,0,2543,-516,0,1655,1583,239,182,1,4,171,-38,519775,0
519780,1592,-1916,-528,5,173,-1924,8429,-620,299,-474,-1408,35229,-86,36,127,0,0,2482,-576,0,1655,1583,239,192,1,4,171,-38,519775,0
519790,1307,-1759,773,-163,-93,-1261,8149,-608,109,-459,-1240,35242,-67,36,127,0,0,2447,-307,0,1655,1583,239,202,1,4,171,-38,519775,0
519800,1051,-1994,1008,-366,-156,-1083,7896,-530,58,-424,-1080,35259,-57,36,127,0,0,2413,-313,0,1655,1583,239,212,1,4,171,-38,519775,0
519810,1116,-2030,652,-547,-108,-789,7674,-466,109,-395,-840,35266,-46,36,127,0,0,2385,-236,0,1655,1583,239,222,1,4,171,-38,519775,0
519820,1256,-1919,328,-625,-207,-545,7481,-391,113,-382,-656,35269,-49,36,127,0,0,2366,-137,0,1655,1583,239,232,1,4,171,-38,519806,0
519830,935,-1868,22,-676,-378,-274,7317,-337,119,-382,-440,35263,-65,36,127,0,0,2356,-104,0,1655,1583,239,242,1,4,171,-38,519822,0
519840,536,-1870,-149,-658,-378,-194,7191,-257,129,-352,-288,35269,-71,36,127,0,0,2342,-98,0,1655,1583,239,252,1,4,171,-38,519822,0
519850,286,-1927,-270,-579,-164,-349,7105,-156,144,-359,-216,35243,-98,35,127,0,0,2334,-126,0,1655,1583,239,262,1,4,171,-38,519822,0
519860,251,-1955,-218,-542,-78,-435,7050,-113,139,-416,-224,35237,-98,35,127,0,0,2321,-126,0,1655,1583,239,272,1,4,171,-38,519837,0
519870,407,-2029,19,-495,-58,-594,7000,-131,66,-451,-256,35246,-105,36,127,0,0,2302,-192,0,1655,1583,239,282,1,4,171,-38,519853,0
519880,312,-2060,168,-478,-116,-709,6944,-120,-5,-559,-320,35260,-88,36,127,0,0,2276,-280,0,1655,1583,239,292,1,4,171,-38,519853,0
519890,204,-2087,359,-507,-204,-928,6871,-185,-36,-615,-416,35263,-69,35,127,0,0,2256,-296,0,1655,1583,239,302,1,4,171,-38,519884,0
519900,53,-2132,387,-546,-265,-1180,6771,-224,-90,-510,-464,35255,-43,36,127,0,0,2224,-368,0,1655,1583,239,312,1,4,171,-38,519884,0
519910,-48,-2104,335,-624,-328,-1580,6662,-259,-69,-620,-600,35253,-42,35,127,0,0,2181,-428,0,1655,1583,239,322,1,4,171,-38,519884,0
519920,-114,-2017,292,-653,-350,-1933,6524,-315,-76,-612,-744,35260,-37,36,127,0,0,2135,-510,0,1655,1583,239,332,1,4,171,-38,519884,0
519930,-49,-1955,129,-748,-396,-2396,6369,-360,-88,-665,-944,35262,-69,36,127,0,0,2074,-571,0,1655,1583,239,342,1,4,171,-38,519915,0
519940,51,-1818,18,-767,-428,-2681,6179,-449,-99,-673,-1184,35255,-61,36,127,0,0,2006,-675,0,1655,1583,239,352,1,4,171,-38,519915,0
519950,273,-1763,-157,-770,-543,-3062,5952,-522,-139,-719,-1424,35245,-67,36,127,0,0,1928,-769,0,1655,1583,239,362,1,4,171,-38,519915,0
519960,296,-1782,-147,-778,-620,-3216,5688,-600,-146,-728,-1624,35252,-62,35,127,0,0,1851,-752,0,1655,1583,239,372,1,4,171,-38,519931,0
519970,238,-2055,-177,-936,-662,-3444,5389,-688,-131,-735,-1816,35259,-50,36,127,0,0,1767,-807,0,1655,1583,239,382,1,4,171,-38,519962,0
519980,98,-2273,-8,-1080,-562,-3582,5056,-749,-132,-725,-2008,35258,-42,35,127,0,0,1690,-763,0,1655,1583,239,392,1,4,171,-38,519962,0
519990,49,-2505,222,-1200,-246,-3922,4692,-814,-122,-637,-2064,35243,-54,35,127,0,0,1607,-807,0,1655,1583,239,402,1,4,171,-38,519962,0
520000,330,-2426,335,-1265,-171,-4143,4311,-835,-85,-656,-2104,35241,-51,36,127,0,0,1530,-780,0,1655,1583,239,412,1,4,171,-38,519978,0
520010,814,-2013,470,-1345,-372,-4283,3916,-876,-58,-556,-2088,35256,-64,36,127,0,0,1464,-697,0,1655,1583,239,422,1,4,171,-38,519978,0
520020,1057,-1705,327,-1383,-598,-4309,3520,-869,-27,-508,-1992,35262,-58,36,127,0,0,1391,-664,0,1655,1583,239,432,1,4,171,-38,520009,0
520030,1242,-1330,-45,-1372,-893,-4229,3135,-847,19,-550,-1992,35251,-82,36,127,0,0,1327,-631,0,1655,1583,239,442,1,4,171,-38,520009,0
520040,1230,-1080,-314,-1349,-1050,-4215,2749,-842,19,-569,-1984,35240,-59,36,127,0,0,1254,-719,0,1655,1583,239,452,1,4,171,-38,520009,0
520050,930,-946,-570,-1420,-1210,-4178,2363,-850,6,-584,-2056,35251,-69,35,127,0,0,1182,-769,0,1655,1583,239,462,1,4,171,-38,520009,0
520060,943,-1190,-700,-1429,-1082,-4219,1971,-886,-14,-707,-2272,35265,-36,36,127,0,0,1106,-774,0,1655,1583,239,472,1,4,171,-38,520040,0
520070,996,-1750,-694,-1366,-705,-4300,1543,-966,-80,-730,-2456,35252,-35,36,127,0,0,1025,-774,0,1655,1583,239,482,1,4,171,-38,520040,0
520080,1097,-1952,-422,-1282,-473,-4259,1082,-1032,-141,-613,-2152,35253,-29,36,127,0,0,940,-818,0,1655,1583,239,492,1,4,171,-38,520040,0
520090,1312,-2267,-38,-1294,-378,-4251,664,-852,5,-129,-1320,35254,-49,36,127,0,0,870,-725,0,1655,1583,239,502,1,4,171,-38,520212,0
520100,1420,-2467,434,-1309,-463,-4134,366,-577,326,-140,-720,35271,-57,36,127,0,0,809,-587,0,1655,1583,239,512,1,4,171,-38,520212,0
520110,1550,-2377,629,-1305,-729,-4088,174,-359,431,-232,-336,35263,-70,36,127,0,0,766,-444,0,1655,1583,239,522,1,4,171,-38,520212,0
520120,1566,-2231,387,-1386,-970,-4012,70,-177,369,-255,-128,35239,-82,36,127,0,0,741,-263,0,1655,1583,239,532,1,4,171,-38,520212,0
520130,1516,-2181,62,-1544,-1249,-3868,35,-30,298,-210,-64,35242,-97,35,127,0,0,731,-93,0,1655,1583,239,542,1,4,171,-38,520212,0
520140,1446,-2222,-87,-1603,-1293,-3898,41,0,214,-289,-72,35247,-84,36,127,0,0,731,0,0,1655,1583,239,552,1,4,171,-38,520228,0
520150,975,-2268,-130,-1748,-1202,-4085,40,2,56,-258,-72,35251,-86,35,127,0,0,734,32,0,1655,1583,239,562,1,4,171,-38,520228,0
520160,523,-2499,-101,-1943,-1192,-4079,39,0,-6,-254,-72,35240,-80,35,127,0,0,749,192,0,1655,1583,239,572,1,4,171,-38,520228,0
520170,1086,-2414,-111,-2120,-863,-4281,40,0,3,-255,-72,35251,-92,36,127,0,0,788,379,0,1655,1583,239,582,1,4,171,-38,520228,0
520180,1061,-2002,-257,-2161,-851,-4320,42,-4,0,-258,-32,35258,-77,35,127,0,0,826,444,0,1655,1583,239,592,1,4,171,-38,520228,0
520190,1238,-1634,-377,-2069,-845,-4480,40,1,1,-201,-72,35255,-73,35,127,0,0,876,444,0,1655,1583,239,602,1,4,171,-38,520228,0
520200,1434,-1668,-404,-2005,-891,-4576,41,5,-5,-257,-64,35244,-87,36,127,0,0,918,450,0,1655,1583,239,612,1,4,171,-38,520228,0
520210,1089,-1857,-296,-1988,-865,-4514,40,6,1,-218,-24,35247,-91,35,127,0,0,975,582,0,1655,1583,239,622,1,4,171,-38,520228,0
520220,1173,-1876,-322,-1975,-803,-4582,48,21,12,-18,112,35262,-90,36,127,0,0,1038,631,0,1655,1583,239,632,1,4,171,-38,520228,0
520230,1128,-1846,-320,-2041,-595,-4675,120,263,128,752,752,35271,-76,36,127,0,0,1097,609,0,1655,1583,239,642,1,4,171,-38,520228,0
520240,1440,-1881,-197,-2061,-502,-4519,310,485,369,714,1376,35266,-77,36,127,0,0,1177,802,0,1655,1583,239,652,1,4,171,-38,520228,0
520250,1604,-1806,-131,-2128,-365,-4273,597,693,409,776,1872,35264,-72,36,127,0,0,1263,867,0,1655,1583,239,662,1,4,171,-38,520228,0
520260,1595,-1696,-117,-2200,-316,-3972,961,846,335,809,2328,35264,-54,36,127,0,0,1371,1120,0,1655,1583,239,672,1,4,171,-38,520228,0
520270,1499,-1508,-207,-2214,-240,-3468,1412,1051,313,862,2784,35280,-9,36,127,0,0,1495,1235,0,1655,1583,239,682,1,4,171,-38,520243,0
520280,1485,-1434,-320,-2193,-211,-3138,1944,1204,323,817,3272,35278,6,36,127,0,0,1653,1554,0,1655,1583,239,692,1,4,171,-38,520275,0
520290,1442,-1457,-449,-2061,-91,-2557,2567,1431,320,861,3760,35266,3,36,127,0,0,1823,1735,0,1655,1583,239,702,1,4,171,-38,520275,0
520300,1546,-1476,-458,-1942,35,-2128,3279,1628,347,874,4192,35254,8,35,127,0,0,2033,2048,0,1655,1583,239,712,1,4,171,-38,520275,0
520310,1572,-1343,-530,-1708,211,-1395,4068,1787,318,986,4712,35239,34,36,127,0,0,2266,2438,0,1655,1583,239,722,1,4,171,-38,520275,0
520320,1514,-1154,-593,-1524,340,-828,4937,1961,304,986,5200,35231,53,36,127,0,0,2512,2433,0,1655,1583,239,732,1,4,171,-38,520290,0
520330,1479,-866,-689,-1190,545,80,5876,2120,282,1073,5776,35222,75,36,127,0,0,2774,2625,0,1655,1583,239,742,1,4,171,-38,520321,0
520340,1497,-782,-824,-943,764,714,6929,2407,348,1166,6376,35225,91,36,127,0,0,3078,2993,0,1655,1583,239,752,1,4,171,-38,520321,0
520350,1363,-604,-865,-470,1473,1743,8138,2787,521,1411,7312,35204,119,35,127,0,0,3406,3229,0,1655,1583,239,762,1,4,171,-38,520321,0
520360,960,-121,-598,108,2558,2448,9506,3066,622,1060,7600,35187,143,35,127,0,0,3682,2686,0,1655,1583,239,772,1,4,171,-38,520353,0
520370,160,1499,-287,1060,4164,3217,10928,3146,413,603,7320,35182,124,36,127,0,0,3892,1983,0,1655,1583,239,782,1,4,171,-38,520353,0
520380,629,2406,-365,1386,4338,3414,12296,2899,4,97,5728,35202,60,36,127,0,0,3959,505,0,1655,1583,239,792,0,4,171,-38,520353,0
520390,1126,2169,-815,231,3798,4041,13419,2257,-568,-424,3280,35241,-38,36,127,0,0,3919,-499,0,1655,1583,239,802,0,4,171,-38,520353,0
520400,977,1498,-609,451,3114,5247,14155,1326,-1210,-964,944,35275,-118,36,127,0,0,3847,-719,0,1655,1583,239,812,0,4,171,-38,520384,0
520410,350,455,-455,976,1858,6840,14468,368,-1548,-1460,-408,35276,-128,35,127,0,0,3794,-483,0,1655,1583,239,822,0,4,171,-38,520384,0
520420,140,-8,-54,1264,1113,7346,14341,-337,-1673,-408,-496,35270,-136,35,127,0,0,3772,-263,0,1655,1583,239,832,0,4,171,-38,520400,0
520430,372,-702,176,1736,217,8010,14195,-300,-851,-305,-304,35259,-116,36,127,0,0,3773,10,0,1655,1583,239,842,0,4,171,-38,520400,0
520440,335,-865,159,1987,-32,8393,14098,-173,74,-134,-24,35272,-101,36,127,0,0,3783,137,0,1655,1583,239,852,0,4,171,-38,520431,0
520450,395,-1074,-126,2259,-306,8835,14102,77,283,264,136,35266,-86,36,127,0,0,3793,159,0,1655,1583,239,862,0,4,171,-38,520431,0
520460,603,-1135,-246,2454,-465,8993,14168,151,324,244,168,35250,-81,36,127,0,0,3812,148,0,1655,1583,239,872,0,4,171,-38,520431,0
520470,865,-1001,-323,2696,-718,9267,14237,142,119,328,248,35252,-101,35,127,0,0,3832,197,0,1655,1583,239,882,0,4,171,-38,520431,0
520480,974,-962,-323,2920,-927,9482,14309,153,2,500,336,35271,-110,35,127,0,0,3860,269,0,1655,1583,239,892,0,4,171,-38,520478,0
520490,1062,-907,-369,3129,-1280,9736,14398,226,33,617,496,35266,-112,35,127,0,0,3891,313,0,1655,1583,239,902,0,4,171,-38,520478,0
520500,1086,-924,-328,3213,-1541,9880,14518,279,106,594,680,35250,-95,35,127,0,0,3930,390,0,1655,1583,239,912,0,4,171,-38,520478,0
520510,1095,-1024,-269,3324,-1787,9921,14668,346,125,570,776,35240,-85,36,127,0,0,3964,357,0,1655,1583,239,922,0,4,171,-38,520478,0
520520,1021,-1110,-317,3318,-1756,9925,14842,398,104,573,920,35254,-66,35,127,0,0,4014,422,0,1655,1583,239,932,0,4,171,-38,520493,0
520530,826,-1326,-438,3278,-1385,9864,15035,442,85,604,1120,35267,-53,36,127,0,0,4081,653,0,1655,1583,239,942,0,4,171,-38,520493,0
520540,770,-1498,-551,3196,-920,9747,15265,540,109,714,1464,35258,-62,36,127,0,0,4160,812,0,1655,1583,239,952,0,4,171,-38,520540,0
520550,685,-1726,-599,2986,-58,9524,15560,698,191,825,1912,35261,-58,35,127,0,0,4265,1060,0,1655,1583,239,962,0,4,171,-38,520540,0
520560,939,-1908,-520,2869,646,9190,15941,909,288,936,2496,35253,-41,36,127,0,0,4406,1334,0,1655,1583,239,972,0,4,171,-38,520540,0
520570,1038,-2168,-535,2723,1478,8702,16431,1145,380,1032,3080,35245,-15,35,127,0,0,4557,1488,0,1655,1583,239,982,0,4,171,-38,520540,0
520580,1162,-2372,-455,2559,1948,8279,17020,1344,396,991,3544,35213,18,36,127,0,0,4705,1532,0,1655,1583,239,992,0,4,171,-38,520540,0
520590,1414,-2507,-348,2261,2599,7561,17682,1491,331,905,3824,35207,7,36,127,0,0,4854,1444,0,1655,1583,239,1002,0,4,171,-38,520571,0
520600,1546,-2649,-209,1962,2885,7039,18390,1568,227,746,4008,35216,13,35,127,0,0,5000,1472,0,1655,1583,239,1012,0,4,171,-38,520571,0
520610,1629,-2922,-119,1408,3112,6112,19127,1639,139,682,4000,35227,26,36,127,0,0,5142,1351,0,1655,1583,239,1022,0,4,171,-38,520571,0
520620,1610,-3103,29,1047,3085,5485,19867,1613,74,575,3848,35231,33,36,127,0,0,5263,1197,0,1655,1583,239,1032,0,4,171,-38,520603,0
520630,1592,-3353,289,503,2783,4476,20570,1517,-68,563,3616,35221,21,36,127,0,0,5375,1060,0,1655,1583,239,1042,0,4,171,-38,520603,0
520640,1555,-3362,420,173,2444,3877,21160,1415,-170,498,3408,35228,-14,36,127,0,0,5471,994,0,1655,1583,239,1052,0,4,171,-38,520618,0
520650,1428,-3220,407,-247,1824,3101,21754,1236,-219,140,1280,35233,-25,36,127,0,0,5553,829,0,1655,1583,239,1062,0,4,171,-38,520618,0
520660,1301,-2968,277,-496,1299,2712,22068,295,-715,-2243,-1144,35246,-48,36,127,0,0,5632,758,0,1655,1583,239,1072,0,4,171,-38,520665,0
520670,1069,-2513,208,-494,605,1814,21822,-684,-1709,-1092,-2440,35236,-56,36,127,0,0,5694,527,0,1655,1583,239,1082,0,4,171,-38,520665,0
520680,1165,-2194,56,-510,162,1538,21362,-1142,-1382,-1182,-3472,35228,-45,35,127,0,0,5742,455,0,1655,1583,239,1092,0,4,171,-38,520665,0
520690,932,-1885,24,-402,-368,1051,20711,-1549,-755,-1205,-4464,35210,4,35,127,0,0,5783,406,0,1655,1583,239,1102,0,4,171,-38,520665,0
520700,695,-1594,-20,-270,-774,718,19861,-1994,-741,-1073,-5256,35203,65,35,127,0,0,5818,362,0,1655,1583,239,1112,0,4,171,-38,520665,0
520710,592,-1339,-77,-151,-1221,246,18872,-2226,-636,-722,-5512,35201,81,36,127,0,0,5850,368,0,1655,1583,239,1122,0,4,171,-38,520681,0
520720,477,-1371,-33,-80,-1421,31,17842,-2279,-303,-636,-5600,35208,74,35,127,0,0,5886,406,0,1655,1583,239,1132,0,4,171,-38,520712,0
520730,202,-1438,-96,1,-1586,-266,16781,-2361,-125,-591,-5720,35216,42,36,127,0,0,5939,505,0,1655,1583,239,1142,0,4,171,-38,520712,0
520740,122,-1570,-22,25,-1605,-414,15698,-2385,139,-479,-5512,35218,33,35,127,0,0,6001,675,0,1655,1583,239,1152,0,4,171,-38,520712,0
520750,78,-1783,79,63,-1629,-619,14662,-2217,168,-422,-5192,35208,29,35,127,0,0,6082,802,0,1655,1583,239,1162,0,4,171,-38,520712,0
520760,95,-1919,128,57,-1599,-772,13711,-2040,143,-503,-5064,35214,7,36,127,0,0,6173,889,0,1655,1583,239,1172,0,4,171,-38,520743,0
520770,182,-2013,107,44,-1476,-1177,12795,-2005,240,-510,-4896,35223,8,35,127,0,0,6244,708,0,1655,1583,239,1182,0,4,171,-38,520743,0
520780,124,-1956,71,34,-1394,-1467,11881,-2026,71,-643,-4968,35222,10,36,127,0,0,6290,439,0,4227,1457,240,4,1,4,147,-53,520743,0
520790,132,-1923,65,7,-1357,-1842,10936,-2100,-57,-736,-5144,35218,17,36,127,0,0,6311,164,0,4227,1457,240,14,1,4,147,-53,520775,0
520800,73,-1849,92,20,-1496,-2010,9966,-2155,-109,-904,-5472,35204,36,36,127,0,0,6321,93,0,4227,1457,240,24,1,4,147,-53,520775,0
520810,22,-1670,106,-68,-2031,-1993,8949,-2270,-140,-791,-5576,35208,25,36,127,0,0,6339,197,0,4227,1457,240,34,1,4,147,-53,520790,0
520820,1580,-3138,1542,540,375,-2063,7908,-2288,-146,-732,-5896,35211,55,35,127,0,0,6234,-1334,0,4227,1457,240,44,1,4,147,-53,520790,0
520830,2114,-6715,-235,468,2980,-7689,6699,-3056,-308,-3619,-10640,35165,282,36,127,0,0,5726,-5383,0,4227,1457,240,54,1,4,147,-53,520868,0
520840,-360,-719,2920,1238,1647,-6014,4688,-4847,-1926,-1697,-5152,35105,412,36,127,0,0,5165,-5108,0,4227,1457,240,64,1,4,147,-53,520868,0
520850,-783,-2067,1304,-777,-435,-5644,3693,-462,91,9644,5104,35108,417,35,127,0,0,4704,-4702,0,4227,1457,240,74,1,4,147,-53,520868,0
520860,-468,-5856,543,-1467,-1711,-2844,4597,2409,5986,2893,7480,35098,400,35,127,0,0,4392,-2911,0,4227,1457,240,84,1,4,147,-53,520868,0
520870,-2948,-5521,1469,-78,-1354,-2944,5946,3158,4397,1876,9136,35158,213,35,127,0,0,4120,-2746,0,4227,1457,240,94,1,4,147,-53,520884,0
520880,-2571,-3233,-351,695,-611,-3623,7638,3996,1447,2028,10992,35072,476,36,127,0,0,3888,-2290,0,4227,1457,240,104,1,4,147,-53,520884,0
520890,-868,-976,-869,152,1046,-4253,9677,4611,1361,922,8104,35104,327,35,127,0,0,3633,-2554,0,4227,1457,240,114,1,4,147,-53,520884,0
520900,904,-1236,-918,-359,939,-4284,11270,2767,-95,-3651,2288,35199,28,36,127,0,0,3377,-2559,0,4227,1457,240,124,1,4,147,-53,520884,0
520910,1179,-2180,14,-201,-222,-3835,11810,508,-2977,-3608,-1512,35264,-142,35,127,0,0,3119,-2570,0,4227,1457,240,134,1,4,147,-53,520884,0
520920,1298,-5552,-410,-50,-36,-4079,11462,-1003,-3756,-1625,-3352,35310,-228,36,127,0,0,2860,-2620,0,4227,1457,240,144,1,4,147,-53,520884,0
520930,209,-4929,2171,1747,-241,-1388,10804,-1559,-2255,-787,-3248,35271,-48,36,127,0,0,2811,-93,0,4227,1457,240,154,1,4,147,-53,520915,0
520940,-83,1550,-975,382,3,-2934,10188,-1242,-512,-103,-2552,35256,-16,35,127,0,0,2718,-1115,0,4227,1457,240,164,1,4,147,-53,520915,0
520950,976,-3896,1231,-827,-296,-2216,9677,-1088,321,-348,-2304,35247,-20,36,127,0,0,2647,-620,0,4227,1457,240,174,1,4,147,-53,520931,0
520960,308,-2098,-466,-11,-85,-2211,9230,-947,319,-324,-1984,35233,-38,35,127,0,0,2589,-598,0,4227,1457,240,184,1,4,147,-53,520931,0
520970,1345,-1499,-1309,-148,246,-2097,8842,-817,234,-340,-1640,35237,-35,36,127,0,0,2546,-466,0,4227,1457,240,194,1,4,147,-53,520962,0
520980,1134,-2306,-920,283,281,-1750,8508,-707,216,-390,-1488,35243,-71,36,127,0,0,2488,-488,0,4227,1457,240,204,1,4,147,-53,520962,0
520990,1556,-1755,-209,549,190,-1122,8208,-635,172,-391,-1216,35252,-70,35,127,0,0,2463,-241,0,4227,1457,240,214,1,4,147,-53,520962,0
521000,1132,-2036,215,508,124,-851,7955,-522,147,-346,-952,35249,-84,35,127,0,0,2443,-208,0,4227,1457,240,224,1,4,147,-53,520962,0
521010,1145,-1926,731,477,182,-488,7747,-428,177,-325,-616,35259,-85,36,127,0,0,2431,-109,0,4227,1457,240,234,1,4,147,-53,520993,0
521020,1325,-1861,632,328,177,-305,7586,-339,180,-323,-376,35259,-80,35,127,0,0,2429,-71,0,4227,1457,240,244,1,4,147,-53,520993,0
521030,1357,-1860,535,168,77,98,7480,-182,175,-273,-168,35271,-82,36,127,0,0,2425,-16,0,4227,1457,240,254,1,4,147,-53,521024,0
521040,1228,-1811,457,109,25,292,7432,-62,224,-209,-72,35268,-73,35,127,0,0,2425,-43,0,4227,1457,240,264,1,4,147,-53,521024,0
521050,937,-1999,408,152,-14,565,7434,11,208,-297,-56,35257,-73,35,127,0,0,2427,32,0,4227,1457,240,274,1,4,147,-53,521040,0
521060,999,-1932,353,107,-45,724,7444,29,109,-122,8,35254,-91,36,127,0,0,2443,93,0,4227,1457,240,284,1,4,147,-53,521040,0
521070,712,-1993,257,63,-126,855,7469,69,42,167,120,35258,-106,36,127,0,0,2454,104,0,4227,1457,240,294,1,4,147,-53,521040,0
521080,520,-1940,141,25,-161,898,7506,102,57,327,216,35276,-92,36,127,0,0,2475,192,0,4227,1457,240,304,1,4,147,-53,521056,0
521090,315,-1998,28,0,-113,791,7584,177,106,301,224,35275,-58,36,127,0,0,2492,170,0,4227,1457,240,314,1,4,147,-53,521056,0
521100,272,-1954,37,1,-30,674,7652,131,53,417,248,35266,-43,36,127,0,0,2510,137,0,4227,1457,240,324,1,4,147,-53,521071,0
521110,248,-1965,128,-61,49,480,7709,131,-49,478,256,35263,-53,35,127,0,0,2523,126,0,4227,1457,240,334,1,4,147,-53,521103,0
521120,240,-2006,211,-73,41,366,7781,155,10,343,176,35265,-61,36,127,0,0,2530,115,0,4227,1457,240,344,1,4,147,-53,521103,0
521130,255,-1975,308,-107,-13,152,7830,81,-17,359,128,35262,-77,35,127,0,0,2534,21,0,4227,1457,240,354,1,4,147,-53,521103,0
521140,162,-2025,302,-146,-39,14,7860,48,-82,269,80,35251,-84,35,127,0,0,2533,0,0,4227,1457,240,364,1,4,147,-53,521118,0
521150,194,-1947,283,-226,-99,-222,7858,-11,-107,273,64,35249,-95,36,127,0,0,2527,-65,0,4227,1457,240,374,1,4,147,-53,521118,0
521160,79,-1962,207,-268,-105,-468,7855,-8,-62,112,-32,35263,-101,35,127,0,0,2516,-153,0,4227,1457,240,384,1,4,147,-53,521134,0
521170,41,-1944,218,-325,-130,-792,7828,-66,-44,-224,-152,35262,-99,36,127,0,0,2496,-203,0,4227,1457,240,394,1,4,147,-53,521165,0
521180,-24,-1962,232,-373,-148,-1050,7768,-157,-112,-354,-304,35261,-111,36,127,0,0,2467,-307,0,4227,1457,240,404,1,4,147,-53,521212,0
521190,-128,-1975,321,-456,-131,-1525,7687,-193,-111,-583,-456,35255,-104,36,127,0,0,2424,-411,0,4227,1457,240,414,1,4,147,-53,521228,0
521200,-108,-1936,343,-521,-123,-1846,7564,-316,-118,-628,-696,35258,-74,36,127,0,0,2374,-505,0,4227,1457,240,424,1,4,147,-53,521228,0
521210,-35,-1910,256,-634,-118,-2323,7415,-358,-143,-677,-944,35255,-52,35,127,0,0,2309,-637,0,4227,1457,240,434,1,4,147,-53,521228,0
521220,14,-1853,252,-680,-145,-2653,7218,-456,-143,-711,-1224,35251,-21,35,127,0,0,2224,-878,0,4227,1457,240,444,1,4,147,-53,521243,0
521230,111,-1842,209,-769,-230,-3055,6967,-591,-194,-732,-1568,35247,-54,36,127,0,0,2132,-944,0,4227,1457,240,454,1,4,147,-53,521243,0
521240,62,-1886,180,-786,-290,-3327,6661,-708,-209,-757,-1856,35247,-43,36,127,0,0,2025,-1076,0,4227,1457,240,464,1,4,147,-53,521243,0
521250,35,-1810,102,-815,-337,-3756,6303,-817,-208,-748,-2160,35245,-53,35,127,0,0,1925,-1109,0,4227,1457,240,474,1,4,147,-53,521243,0
521260,109,-1815,78,-808,-296,-4047,5902,-913,-181,-754,-2424,35243,-24,35,127,0,0,1807,-1181,0,4227,1457,240,484,1,4,147,-53,521243,0
521270,309,-1737,-20,-781,-299,-4425,5460,-1014,-166,-875,-2768,35255,-31,36,127,0,0,1680,-1230,0,4227,1457,240,494,1,4,147,-53,521243,0
521280,418,-1703,-54,-765,-356,-4623,4949,-1157,-208,-830,-3072,35271,-10,36,127,0,0,1553,-1312,0,4227,1457,240,504,1,4,147,-53,521243,0
521290,408,-1731,-102,-784,-459,-4824,4382,-1290,-234,-846,-3320,35288,-12,36,127,0,0,1420,-1290,0,4227,1457,240,514,1,4,147,-53,521274,0
521300,386,-1689,-113,-864,-500,-4925,3759,-1409,-220,-704,-3528,35266,-8,35,127,0,0,1290,-1307,0,4227,1457,240,524,1,4,147,-53,521290,0
521310,699,-1984,-70,-988,-591,-4998,3093,-1484,-196,-665,-3624,35236,-17,35,127,0,0,1177,-1192,0,4227,1457,240,534,1,4,147,-53,521290,0
521320,780,-2020,151,-989,-923,-4848,2411,-1510,-109,-641,-3632,35217,-14,36,127,0,0,1076,-928,0,4227,1457,240,544,1,4,147,-53,521290,0
521330,1660,-2668,394,-749,-1174,-4794,1744,-1450,-9,-505,-3464,35244,-22,36,127,0,0,984,-939,0,4227,1457,240,554,1,4,147,-53,521306,0
521340,1390,-3253,558,-712,-1140,-4485,1120,-1307,115,-161,-2344,35254,-41,36,127,0,0,907,-719,0,4227,1457,240,564,1,4,147,-53,521321,0
521350,830,-2714,483,-946,-1161,-4302,622,-997,333,25,-1320,35254,-66,36,127,0,0,871,-351,0,4227,1457,240,574,1,4,147,-53,521321,0
521360,626,-2709,298,-1206,-1273,-4388,287,-632,557,-15,-616,35246,-93,36,127,0,0,855,-131,0,4227,1457,240,584,1,4,147,-53,521337,0
521370,498,-2892,159,-1399,-1052,-4604,93,-325,574,-118,-208,35248,-101,36,127,0,0,852,-21,0,4227,1457,240,594,1,4,147,-53,521352,0
521380,566,-2478,147,-1386,-685,-4971,20,-81,505,-98,-32,35260,-100,35,127,0,0,855,32,0,4227,1457,240,604,1,4,147,-53,521352,0
521390,976,-2006,15,-1450,-590,-5224,40,47,422,-276,-72,35263,-88,36,127,0,0,854,5,0,4227,1457,240,614,1,4,147,-53,521399,0
521400,1289,-1850,-75,-1449,-441,-5213,33,-12,112,-214,-56,35265,-104,36,127,0,0,854,21,0,4227,1457,240,624,1,4,147,-53,521399,0
521410,1555,-1238,-360,-1480,-515,-4957,35,-5,-42,-257,-64,35266,-111,36,127,0,0,877,241,0,4227,1457,240,634,1,4,147,-53,521415,0
521420,1568,-1063,-351,-1427,-516,-4866,34,0,15,-248,-64,35263,-101,36,127,0,0,903,230,0,4227,1457,240,644,1,4,147,-53,521415,0
521430,1462,-1308,-309,-1313,-521,-4684,36,-2,-4,-247,-64,35249,-97,35,127,0,0,929,291,0,4227,1457,240,654,1,4,147,-53,521415,0
521440,1287,-1332,-239,-1240,-399,-4657,34,-1,2,-250,-64,35239,-91,35,127,0,0,956,285,0,4227,1457,240,664,1,4,147,-53,521415,0
521450,1321,-1108,15,-1216,-279,-4856,34,-1,6,-246,-56,35256,-102,36,127,0,0,987,285,0,4227,1457,240,674,1,4,147,-53,521415,0
521460,1245,-1230,74,-1272,-423,-4833,36,-2,-5,-223,-8,35276,-80,36,127,0,0,1010,241,0,4227,1457,240,684,1,4,147,-53,521431,0
521470,1422,-1725,215,-1341,-480,-4915,63,92,48,319,256,35282,-67,36,127,0,0,1038,285,0,4227,1457,240,694,1,4,147,-53,521431,0
521480,1425,-1859,229,-1349,-544,-4934,153,213,171,438,424,35274,-80,36,127,0,0,1067,324,0,4227,1457,240,704,1,4,147,-53,521477,0
521490,1614,-1839,186,-1402,-590,-5026,285,314,198,504,672,35256,-90,36,127,0,0,1100,368,0,4227,1457,240,714,1,4,147,-53,521477,0
521500,1817,-2048,110,-1451,-705,-4984,452,387,146,502,880,35258,-89,35,127,0,0,1149,488,0,4227,1457,240,724,1,4,147,-53,521477,0
521510,2198,-2415,282,-1468,-829,-4776,650,478,127,663,1200,35249,-88,35,127,0,0,1207,532,0,4227,1457,240,734,1,4,147,-53,521477,0
521520,2226,-2462,475,-1498,-1006,-4315,898,582,164,732,1568,35247,-53,36,127,0,0,1289,818,0,4227,1457,240,744,1,4,147,-53,521509,0
521530,2165,-2299,430,-1432,-1141,-3889,1213,751,224,874,2128,35247,-56,36,127,0,0,1397,1043,0,4227,1457,240,754,1,4,147,-53,521509,0
521540,1846,-2055,266,-1398,-1296,-3418,1627,971,324,871,2608,35245,-51,36,127,0,0,1529,1323,0,4227,1457,240,764,1,4,147,-53,521509,0
521550,1711,-1780,-32,-1218,-1326,-2897,2133,1192,361,939,3232,35243,-51,35,127,0,0,1686,1614,0,4227,1457,240,774,1,4,147,-53,521509,0
521560,1521,-1686,-241,-1089,-1345,-2474,2751,1432,397,909,3768,35238,-7,35,127,0,0,1864,1834,0,4227,1457,240,784,1,4,147,-53,521544,0
521570,1394,-1519,-377,-893,-1313,-1820,3465,1630,405,904,4248,35231,0,36,127,0,0,2079,2175,0,4227,1457,240,794,1,4,147,-53,521556,0
521580,1278,-1362,-374,-714,-1275,-1388,4261,1813,340,1038,4816,35224,13,35,127,0,0,2321,2466,0,4227,1457,240,804,1,4,147,-53,521588,0
521590,1386,-1090,-318,-429,-1085,-628,5140,1977,321,969,5312,35204,37,36,127,0,0,2564,2471,0,4227,1457,240,814,1,4,147,-53,521588,0
521600,1642,-906,-340,-265,-1039,10,6099,2176,307,1095,5872,35198,62,35,127,0,0,2837,2730,0,4227,1457,240,824,1,4,147,-53,521588,0
521610,1865,-468,-525,-143,-951,1249,7183,2492,393,1309,6688,35176,110,35,127,0,0,3168,3383,0,4227,1457,240,834,1,4,147,-53,521588,0
521620,1294,188,-529,74,-402,2198,8453,2918,606,1439,7504,35170,134,36,127,0,0,3480,3076,0,4227,1457,240,844,1,4,147,-53,521588,0
521630,-394,1403,-93,932,146,4119,9844,3083,602,929,7632,35181,153,36,127,0,0,3741,2581,0,4227,1457,240,854,1,4,147,-53,521603,0
521640,352,1748,-1102,1281,779,4226,11122,3115,280,394,6856,35203,121,36,127,0,0,3892,1351,0,4227,1457,240,864,1,4,147,-53,521619,0
521650,369,1988,-1148,710,1217,3910,12441,2750,-166,-170,4336,35221,38,36,127,0,0,3847,-598,0,4227,1457,240,874,0,4,147,-53,521634,0
521660,541,1388,-848,692,1224,4914,13394,1742,-986,-1284,1328,35246,-75,35,127,0,0,3737,-1186,0,4227,1457,240,884,0,4,147,-53,521634,0
521670,-201,475,-715,1075,781,6554,13808,557,-1826,-1838,-576,35257,-129,35,127,0,0,3639,-966,0,4227,1457,240,894,0,4,147,-53,521634,0
521680,-478,11,-338,1365,509,7188,13670,-446,-2066,-612,-1008,35257,-127,35,127,0,0,3596,-417,0,4227,1457,240,904,0,4,147,-53,521650,0
521690,-247,-620,121,1718,284,7930,13454,-467,-1067,-319,-720,35245,-86,36,127,0,0,3590,5,0,4227,1457,240,914,0,4,147,-53,521697,0
521700,-241,-920,121,1995,430,8368,13269,-371,-10,-194,-208,35237,-72,36,127,0,0,3610,230,0,4227,1457,240,924,0,4,147,-53,521697,0
521710,21,-1069,-173,2143,667,8783,13183,-70,274,481,248,35243,-72,36,127,0,0,3643,313,0,4227,1457,240,934,0,4,147,-53,521713,0
521720,312,-1035,-241,2224,826,8970,13272,260,554,463,520,35242,-67,35,127,0,0,3674,285,0,4227,1457,240,944,0,4,147,-53,521713,0
521730,639,-876,-289,2332,810,9294,13408,300,393,464,624,35234,-58,35,127,0,0,3719,406,0,4227,1457,240,954,0,4,147,-53,521713,0
521740,787,-854,-288,2462,702,9524,13559,340,96,537,816,35223,-79,36,127,0,0,3769,505,0,4227,1457,240,964,0,4,147,-53,521713,0
521750,856,-871,-239,2642,479,9917,13723,377,45,623,1048,35246,-88,35,127,0,0,3822,604,0,4227,1457,240,974,0,4,147,-53,521713,0
521760,883,-921,-136,2757,242,10151,13928,489,115,784,1408,35264,-61,36,127,0,0,3907,878,0,4227,1457,240,984,0,4,147,-53,521744,0
521770,943,-1092,4,2829,-36,10402,14196,641,199,845,1928,35263,-55,35,127,0,0,4006,1054,0,4227,1457,240,994,0,4,147,-53,521744,0
521780,903,-1187,36,2817,-67,10432,14556,852,303,898,2392,35236,-44,36,127,0,0,4136,1268,0,4227,1457,240,1004,0,4,147,-53,521744,0
521790,886,-1341,-164,2734,225,10316,15010,1056,354,832,2856,35218,-56,36,127,0,0,4267,1367,0,4227,1457,240,1014,0,4,147,-53,521759,0
521800,965,-1477,-323,2665,603,10167,15551,1241,343,893,3288,35227,-42,35,127,0,0,4418,1510,0,4227,1457,240,1024,0,4,147,-53,521759,0
521810,1115,-1720,-437,2510,1307,9859,16177,1405,322,834,3624,35225,-16,35,127,0,0,4563,1499,0,4227,1457,240,1034,0,4,147,-53,521791,0
521820,1142,-1876,-410,2345,1808,9598,16855,1505,261,769,3720,35217,-14,36,127,0,0,4699,1312,0,4227,1457,240,1044,0,4,147,-53,521791,0
521830,1378,-2171,-293,2003,2564,9119,17543,1516,120,747,3784,35208,0,35,127,0,0,4840,1400,0,4227,1457,240,1054,0,4,147,-53,521791,0
521840,1332,-2351,-212,1808,2919,8725,18240,1543,36,686,3792,35225,-1,36,127,0,0,4972,1384,0,4227,1457,240,1064,0,4,147,-53,521822,0
521850,1591,-2834,-164,1382,3343,8028,18944,1556,32,643,3840,35238,-10,35,127,0,0,5107,1395,0,4227,1457,240,1074,0,4,147,-53,521822,0
521860,1635,-3079,-8,1072,3509,7486,19654,1563,24,634,3832,35236,-6,35,127,0,0,5234,1323,0,4227,1457,240,1084,0,4,147,-53,521822,0
521870,1705,-3381,218,612,3524,6596,20358,1531,-1,655,3784,35243,-23,36,127,0,0,5364,1285,0,4227,1457,240,1094,0,4,147,-53,521853,0
521880,1696,-3530,415,273,3379,5899,21043,1505,-60,685,3784,35234,-23,36,127,0,0,5497,1274,0,4227,1457,240,1104,0,4,147,-53,521853,0
521890,1651,-3584,559,-215,2957,4890,21684,1314,-106,-5,1448,35246,-45,36,127,0,0,5622,1235,0,4227,1457,240,1114,0,4,147,-53,521853,0
521900,1557,-3405,530,-490,2524,4117,22054,515,-571,-1749,-760,35246,-69,36,127,0,0,5726,1071,0,4227,1457,240,1124,0,4,147,-53,521869,0
521910,1503,-3180,386,-586,1973,2943,21867,-565,-1607,-1037,-2048,35243,-69,36,127,0,0,5805,763,0,4227,1457,240,1134,0,4,147,-53,521900,0
521920,1473,-2765,261,-712,1573,2492,21461,-1036,-1468,-1259,-3256,35240,-53,36,127,0,0,5867,571,0,4227,1457,240,1144,0,4,147,-53,521900,0
521930,1220,-2424,199,-539,1073,1678,20851,-1464,-796,-1154,-4120,35235,2,36,127,0,0,5909,439,0,4227,1457,240,1154,0,4,147,-53,521900,0
521940,952,-2067,126,-347,591,1177,20070,-1827,-719,-1005,-4864,35227,51,36,127,0,0,5945,313,0,4227,1457,240,1164,0,4,147,-53,521978,0
521950,898,-1781,83,-102,-53,445,19150,-2085,-603,-816,-5288,35216,67,36,127,0,0,5975,329,0,4227,1457,240,1174,0,4,147,-53,521978,0
521960,785,-1607,117,16,-444,46,18158,-2219,-395,-747,-5520,35212,55,36,127,0,0,6008,357,0,4227,1457,240,1184,0,4,147,-53,521978,0
521970,656,-1652,171,148,-905,-498,17125,-2305,-217,-669,-5744,35214,51,35,127,0,0,6041,346,0,4227,1457,240,1194,0,4,147,-53,521978,0
521980,535,-1749,174,198,-1159,-820,16037,-2428,-183,-653,-5896,35207,53,35,127,0,0,6077,318,0,4227,1457,240,1204,0,4,147,-53,521978,0
521990,355,-1967,370,248,-1487,-1182,14929,-2424,-154,-558,-5784,35197,41,36,127,0,0,6116,384,0,4227,1457,240,1214,0,4,147,-53,521978,0
522000,255,-2057,396,283,-1657,-1360,13862,-2335,46,-723,-5856,35191,37,36,127,0,0,6162,433,0,4227,1457,240,1224,0,4,147,-53,521978,0
522010,106,-2090,339,324,-1799,-1611,12806,-2322,99,-558,-5744,35205,22,36,127,0,0,6206,439,0,4227,1457,240,1234,0,4,147,-53,521978,0
522020,45,-2055,292,358,-1870,-1728,11740,-2352,-4,-528,-5544,35223,13,35,127,0,0,6247,444,0,3975,1522,241,4,1,4,186,-45,521994,0
522030,22,-1967,182,452,-1932,-1869,10690,-2285,10,-526,-5400,35233,16,36,127,0,0,6290,401,0,3975,1522,241,14,1,4,186,-45,522041,0
522040,23,-1915,126,534,-2003,-1925,9681,-2204,107,-626,-5352,35234,-3,36,127,0,0,6328,379,0,3975,1522,241,24,1,4,186,-45,522056,0
522050,32,-1778,9,706,-2264,-1968,8685,-2198,102,-700,-5328,35230,7,35,127,0,0,6355,307,0,3975,1522,241,34,1,4,186,-45,522056,0
522060,74,-1687,4,754,-2583,-1921,7675,-2229,-1,-754,-5384,35228,29,36,127,0,0,6378,269,0,3975,1522,241,44,1,4,186,-45,522056,0
522070,42,-1655,120,757,-3312,-1673,6653,-2239,-53,-723,-5504,35213,46,35,127,0,0,6412,313,0,3975,1522,241,54,1,4,186,-45,522056,0
522080,42,-1724,146,693,-3888,-1447,5631,-2246,-21,-790,-5632,35198,55,35,127,0,0,6444,302,0,3975,1522,241,64,1,4,186,-45,522072,0
522090,814,-7196,-2113,684,-1001,-4750,4635,-2139,41,-669,-6104,35203,35,36,127,0,0,6125,-3647,0,3975,1522,241,74,1,4,186,-45,522072,0
522100,972,-4584,2266,1001,-537,-5889,3424,-3017,-318,-2214,-6840,35198,127,35,127,0,0,5639,-5042,0,3975,1522,241,84,1,4,186,-45,522072,0
522110,-932,-384,1707,742,384,-5049,2107,-2724,-736,451,-2760,35231,66,35,127,0,0,5184,-4476,0,3975,1522,241,94,1,4,186,-45,522119,0
522120,-1485,-2075,-727,-462,62,-5821,1689,309,1463,6174,3520,35231,90,36,127,0,0,4735,-4553,0,3975,1522,241,104,1,4,186,-45,522119,0
522130,513,-5918,-900,-1476,-18,-2794,2393,1876,4118,2398,5992,35235,48,36,127,0,0,4439,-2741,0,3975,1522,241,114,1,4,186,-45,522119,0
522140,-1474,-4639,-131,-615,137,-2911,3535,2708,2931,1600,7512,35202,144,35,127,0,0,4171,-2653,0,3975,1522,241,124,1,4,186,-45,522119,0
522150,-1229,-2764,-999,158,121,-3425,4951,3310,1342,1927,9368,35147,289,35,127,0,0,3960,-2081,0,3975,1522,241,134,1,4,186,-45,522119,0
522160,-1233,-1732,-244,-97,797,-3744,6645,3927,1049,1895,11056,35135,356,36,127,0,0,3719,-2323,0,3975,1522,241,144,1,4,186,-45,522134,0
522170,18,-2057,24,-211,1111,-3989,8694,4706,1232,1371,8800,35133,369,36,127,0,0,3469,-2537,0,3975,1522,241,154,1,4,186,-45,522181,0
522180,1094,-2513,204,-272,535,-3372,10351,2939,44,-3400,2984,35216,49,36,127,0,0,3256,-2092,0,3975,1522,241,164,1,4,186,-45,522181,0
522190,1094,-2405,448,80,370,-3229,11027,931,-2760,-2825,-792,35270,-149,35,127,0,0,3033,-2257,0,3975,1522,241,174,1,4,186,-45,522181,0
522200,-66,-7399,1838,440,-366,-2800,10796,-813,-3625,-1476,-2448,35295,-277,35,127,0,0,2858,-1642,0,3975,1522,241,184,1,4,186,-45,522181,0
522210,1617,-588,1275,1241,364,-1557,10338,-1002,-2167,-476,-1936,35250,-122,36,127,0,0,2839,-280,0,3975,1522,241,194,1,4,186,-45,522181,0
522220,764,-1126,-459,-571,-599,-1796,9946,-827,-248,-357,-1856,35231,-48,36,127,0,0,2761,-774,0,3975,1522,241,204,1,4,186,-45,522181,0
522230,149,-2577,69,-484,-517,-1260,9589,-759,205,-423,-1544,35246,-45,36,127,0,0,2724,-302,0,3975,1522,241,214,1,4,186,-45,522212,0
522240,345,-1653,-1206,-375,74,-1348,9277,-649,157,-317,-1200,35253,-72,35,127,0,0,2693,-357,0,3975,1522,241,224,1,4,186,-45,522212,0
522250,689,-2006,-1043,-81,328,-1234,9025,-524,203,-379,-1048,35250,-51,35,127,0,0,2657,-368,0,3975,1522,241,234,1,4,186,-45,522228,0
522260,1289,-1753,-618,192,326,-943,8802,-471,160,-409,-840,35257,-88,36,127,0,0,2634,-175,0,3975,1522,241,244,1,4,186,-45,522228,0
522270,1168,-1983,145,256,149,-453,8614,-380,129,-389,-600,35263,-74,35,127,0,0,2625,-76,0,3975,1522,241,254,1,4,186,-45,522228,0
522280,935,-2051,678,281,107,-266,8464,-293,138,-343,-344,35277,-94,36,127,0,0,2619,-43,0,3975,1522,241,264,1,4,186,-45,522259,0
522290,857,-2026,940,195,130,-175,8356,-208,166,-286,-160,35266,-74,36,127,0,0,2620,16,0,3975,1522,241,274,1,4,186,-45,522259,0
522300,943,-1958,902,69,44,-99,8323,-44,223,-300,-112,35265,-67,36,127,0,0,2612,0,0,3975,1522,241,284,1,4,186,-45,522275,0
522310,1002,-1881,680,-117,-132,134,8324,13,205,-418,-152,35264,-63,36,127,0,0,2611,-21,0,3975,1522,241,294,1,4,186,-45,522291,0
522320,815,-1889,411,-104,-210,183,8324,21,55,-438,-152,35254,-62,35,127,0,0,2608,-32,0,3975,1522,241,304,1,4,186,-45,522306,0
522330,484,-1933,71,-42,-175,150,8319,-9,-3,-488,-184,35246,-57,35,127,0,0,2603,-76,0,3975,1522,241,314,1,4,186,-45,522322,0
522340,374,-2077,37,23,-108,97,8312,-23,-7,-574,-208,35249,-57,35,127,0,0,2596,-104,0,3975,1522,241,324,1,4,186,-45,522322,0
522350,288,-1977,92,2,-64,36,8300,-20,-15,-650,-208,35257,-66,36,127,0,0,2593,-60,0,3975,1522,241,334,1,4,186,-45,522322,0
522360,281,-1946,118,-44,-96,-47,8286,-34,-11,-636,-200,35269,-60,35,127,0,0,2594,-27,0,3975,1522,241,344,1,4,186,-45,522337,0
522370,213,-1947,108,-62,-62,-220,8259,-66,-32,-506,-192,35267,-53,35,127,0,0,2583,-87,0,3975,1522,241,354,1,4,186,-45,522337,0
522380,175,-1967,136,-79,-2,-389,8216,-84,-53,-469,-216,35272,-53,36,127,0,0,2576,-126,0,3975,1522,241,364,1,4,186,-45,522369,0
522390,186,-2004,282,-92,37,-652,8170,-108,-42,-464,-264,35271,-69,36,127,0,0,2557,-241,0,3975,1522,241,374,1,4,186,-45,522384,0
522400,151,-2036,344,-136,-20,-816,8118,-131,-24,-630,-344,35274,-55,36,127,0,0,2534,-280,0,3975,1522,241,384,1,4,186,-45,522384,0
522410,50,-1946,317,-200,-166,-1141,8039,-197,-54,-620,-440,35259,-67,35,127,0,0,2508,-335,0,3975,1522,241,394,1,4,186,-45,522384,0
522420,-59,-1899,230,-264,-240,-1413,7935,-245,-106,-676,-568,35247,-75,36,127,0,0,2469,-406,0,3975,1522,241,404,1,4,186,-45,522384,0
522430,-196,-1954,195,-287,-187,-1955,7802,-328,-101,-693,-760,35267,-104,36,127,0,0,2424,-483,0,3975,1522,241,414,1,4,186,-45,522431,0
522440,-304,-1937,148,-291,-104,-2373,7645,-364,-105,-658,-976,35268,-98,35,127,0,0,2354,-714,0,3975,1522,241,424,1,4,186,-45,522431,0
522450,-161,-1894,277,-327,-8,-2978,7444,-470,-133,-729,-1264,35255,-72,35,127,0,0,2274,-867,0,3975,1522,241,434,1,4,186,-45,522431,0
522460,2,-1856,329,-358,-5,-3297,7184,-610,-193,-789,-1632,35226,-54,36,127,0,0,2170,-1021,0,3975,1522,241,444,1,4,186,-45,522431,0
522470,252,-1778,228,-386,-54,-3650,6861,-759,-233,-812,-1976,35217,-42,36,127,0,0,2059,-1071,0,3975,1522,241,454,1,4,186,-45,522431,0
522480,376,-1773,98,-396,-157,-3804,6478,-876,-238,-728,-2272,35236,-46,36,127,0,0,1952,-1109,0,3975,1522,241,464,1,4,186,-45,522462,0
522490,482,-1885,-44,-414,-347,-3945,6055,-956,-193,-653,-2448,35242,-46,36,127,0,0,1841,-1115,0,3975,1522,241,474,1,4,186,-45,522462,0
522500,437,-1876,-37,-408,-460,-4036,5608,-990,-126,-678,-2544,35241,-36,36,127,0,0,1741,-1027,0,3975,1522,241,484,1,4,186,-45,522462,0
522510,335,-1843,366,-418,-885,-4249,5141,-1049,-79,-664,-2632,35237,-38,36,127,0,0,1645,-906,0,3975,1522,241,494,1,4,186,-45,522494,0
522520,573,-2112,635,-342,-997,-4501,4659,-1058,-67,-579,-2696,35234,-36,36,127,0,0,1543,-1071,0,3975,1522,241,504,1,4,186,-45,522494,0
522530,668,-2632,944,-348,-998,-4660,4162,-1113,-57,-691,-2792,35236,-33,35,127,0,0,1443,-1010,0,3975,1522,241,514,1,4,186,-45,522494,0
522540,582,-2190,728,-435,-849,-4717,3639,-1156,-84,-550,-2800,35234,-30,35,127,0,0,1353,-889,0,3975,1522,241,524,1,4,186,-45,522509,0
522550,956,-1514,15,-683,-941,-4758,3114,-1154,-48,-522,-2776,35237,-41,36,127,0,0,1265,-873,0,3975,1522,241,534,1,4,186,-45,522525,0
522560,1098,-1610,-232,-756,-1040,-4696,2596,-1139,16,-543,-2704,35239,-48,35,127,0,0,1182,-812,0,3975,1522,241,544,1,4,186,-45,522541,0
522570,1144,-1864,-229,-701,-913,-4583,2089,-1106,30,-504,-2664,35240,-35,36,127,0,0,1105,-752,0,3975,1522,241,554,1,4,186,-45,522541,0
522580,1108,-1990,-116,-690,-866,-4525,1596,-1087,49,-550,-2576,35245,-49,36,127,0,0,1038,-653,0,3975,1522,241,564,1,4,186,-45,522556,0
522590,906,-2192,32,-811,-786,-4450,1122,-1010,66,-452,-2328,35236,-40,36,127,0,0,984,-538,0,3975,1522,241,574,1,4,186,-45,522556,0
522600,830,-2307,152,-899,-678,-4504,694,-882,131,-194,-1456,35250,-56,36,127,0,0,942,-428,0,3975,1522,241,584,1,4,186,-45,522587,0
522610,837,-2290,154,-949,-503,-4657,383,-594,315,-144,-808,35253,-64,35,127,0,0,916,-263,0,3975,1522,241,594,1,4,186,-45,522587,0
522620,1014,-2214,160,-919,-445,-4754,180,-378,434,-218,-384,35255,-96,35,127,0,0,892,-236,0,3975,1522,241,604,1,4,186,-45,522587,0
522630,1321,-2030,167,-786,-569,-4817,67,-194,380,-253,-136,35257,-120,36,127,0,0,883,-170,0,3975,1522,241,614,1,4,186,-45,522619,0
522640,1437,-1952,146,-722,-693,-4760,29,-49,312,-176,-48,35248,-99,36,127,0,0,884,27,0,3975,1522,241,624,1,4,186,-45,522619,0
522650,1267,-1784,28,-672,-627,-4776,42,18,244,-293,-72,35249,-95,36,127,0,0,881,38,0,3975,1522,241,634,1,4,186,-45,522619,0
522660,1022,-1703,-229,-727,-611,-4685,38,1,53,-243,-64,35248,-105,35,127,0,0,898,192,0,3975,1522,241,644,1,4,186,-45,522634,0
522670,1276,-1587,-272,-785,-374,-4761,37,-8,-18,-255,-64,35250,-93,35,127,0,0,922,208,0,3975,1522,241,654,1,4,186,-45,522759,0
522680,1247,-1730,-324,-813,-336,-4746,37,-6,7,-257,-64,35252,-94,36,127,0,0,947,285,0,3975,1522,241,664,1,4,186,-45,522759,0
522690,1191,-2019,-30,-843,-120,-4705,39,0,0,-250,-72,35252,-84,36,127,0,0,989,384,0,3975,1522,241,674,1,4,186,-45,522775,0
522700,1308,-1834,144,-800,2,-4837,40,0,2,-111,184,35241,-87,36,127,0,0,1036,472,0,3975,1522,241,684,1,4,186,-45,522775,0
522710,1230,-1795,228,-776,-99,-5005,118,250,165,584,584,35234,-83,36,127,0,0,1076,406,0,3975,1522,241,694,1,4,186,-45,522775,0
522720,1572,-2093,382,-759,-213,-5050,278,389,325,522,912,35227,-88,36,127,0,0,1130,499,0,3975,1522,241,704,1,4,186,-45,522775,0
522730,1507,-2081,494,-628,-306,-5020,482,481,227,588,1240,35229,-85,36,127,0,0,1194,620,0,3975,1522,241,714,1,4,186,-45,522775,0
522740,1881,-1950,509,-594,-332,-4895,742,617,191,699,1592,35237,-62,36,127,0,0,1270,818,0,3975,1522,241,724,1,4,186,-45,522775,0
522750,2096,-1945,443,-639,-511,-4569,1055,733,165,731,1960,35232,-48,35,127,0,0,1352,878,0,3975,1522,241,734,1,4,186,-45,522775,0
522760,2308,-2019,386,-699,-525,-4300,1429,870,246,767,2288,35219,-26,35,127,0,0,1456,1065,0,3975,1522,241,744,1,4,186,-45,522775,0
522770,1870,-1678,283,-755,-651,-3699,1864,996,306,704,2624,35217,-35,36,127,0,0,1574,1208,0,3975,1522,241,754,1,4,186,-45,522790,0
522780,1664,-1514,231,-770,-677,-3230,2363,1156,237,834,3112,35227,-6,35,127,0,0,1723,1461,0,3975,1522,241,764,1,4,186,-45,522790,0
522790,1600,-1545,128,-740,-574,-2684,2947,1343,291,891,3592,35231,8,35,127,0,0,1898,1779,0,3975,1522,241,774,1,4,186,-45,522790,0
522800,1543,-1547,40,-766,-492,-2297,3618,1515,341,836,4016,35225,11,36,127,0,0,2097,2059,0,3975,1522,241,784,1,4,186,-45,522790,0
522810,1374,-1436,-6,-751,-301,-1582,4364,1700,300,985,4584,35213,29,35,127,0,0,2326,2345,0,3975,1522,241,794,1,4,186,-45,522790,0
522820,1333,-1383,-34,-757,-231,-1034,5189,1854,289,968,5048,35210,50,36,127,0,0,2576,2493,0,3975,1522,241,804,1,4,186,-45,522790,0
522830,1441,-1356,-54,-758,-134,-175,6098,2067,307,1183,5728,35213,74,35,127,0,0,2847,2812,0,3975,1522,241,814,1,4,186,-45,522806,0
522840,1648,-1338,5,-812,-67,417,7151,2423,430,1290,6648,35216,92,35,127,0,0,3184,3521,0,3975,1522,241,824,1,4,186,-45,522806,0
522850,1868,-691,199,-846,57,1341,8407,2929,664,1583,7704,35208,123,36,127,0,0,3527,3427,0,3975,1522,241,834,1,4,186,-45,522837,0
522860,1383,669,223,-640,513,2362,9836,3213,744,1099,8048,35188,158,35,127,0,0,3808,2779,0,3975,1522,241,844,1,4,186,-45,522853,0
522870,1582,1569,-944,-739,1369,3703,11327,3273,445,484,7456,35180,152,36,127,0,0,4000,1851,0,3975,1522,241,854,1,4,186,-45,522853,0
522880,955,1043,-1349,-1008,2197,3193,12726,2933,-49,-81,5072,35192,63,35,127,0,0,3977,-422,0,3975,1522,241,864,0,4,186,-45,522853,0
522890,543,602,-514,-748,1352,4123,13780,1980,-825,-1270,1944,35222,-42,35,127,0,0,3863,-1192,0,3975,1522,241,874,0,4,186,-45,522869,0
522900,612,339,-396,-735,760,5199,14306,821,-1696,-1512,-376,35253,-134,36,127,0,0,3748,-1093,0,3975,1522,241,884,0,4,186,-45,522869,0
522910,229,-136,-70,-612,-95,6536,14215,-417,-2219,-877,-1112,35275,-144,35,127,0,0,3676,-708,0,3975,1522,241,894,0,4,186,-45,522884,0
522920,-11,-488,101,-341,-789,7151,13982,-546,-1459,-527,-1256,35257,-116,35,127,0,0,3632,-406,0,3975,1522,241,904,0,4,186,-45,522884,0
522930,214,-711,204,-44,-1413,7940,13731,-546,-260,-346,-944,35243,-79,35,127,0,0,3617,-87,0,3975,1522,241,914,0,4,186,-45,522900,0
522940,126,-767,240,114,-1531,8261,13518,-435,43,-238,-512,35249,-71,36,127,0,0,3621,-10,0,3975,1522,241,924,0,4,186,-45,522915,0
522950,224,-619,-42,381,-1622,8646,13366,-291,194,-206,-168,35253,-83,35,127,0,0,3622,-5,0,3975,1522,241,934,0,4,186,-45,522915,0
522960,365,-555,-179,563,-1719,8979,13295,-91,264,78,72,35259,-113,35,127,0,0,3640,148,0,3975,1522,241,944,0,4,186,-45,522931,0
522970,533,-423,-321,915,-1897,9539,13342,141,384,245,240,35261,-110,36,127,0,0,3668,335,0,3975,1522,241,954,0,4,186,-45,522962,0
522980,577,-371,-363,1163,-1993,9887,13431,224,302,438,528,35267,-110,36,127,0,0,3722,516,0,3975,1522,241,964,0,4,186,-45,522962,0
522990,577,-400,-293,1492,-2093,10359,13567,338,165,640,960,35264,-112,36,127,0,0,3788,708,0,3975,1522,241,974,0,4,186,-45,522962,0
523000,596,-504,-193,1704,-2013,10552,13762,487,207,803,1488,35251,-112,35,127,0,0,3886,950,0,3975,1522,241,984,0,4,186,-45,522962,0
523010,656,-700,-134,1905,-1694,10707,14052,699,301,926,2032,35254,-71,35,127,0,0,3995,1153,0,3975,1522,241,994,0,4,186,-45,522994,0
523020,790,-827,-74,1988,-1302,10698,14436,907,366,856,2496,35252,-46,36,127,0,0,4116,1246,0,3975,1522,241,1004,0,4,186,-45,522994,0
523030,929,-976,-150,2020,-603,10451,14907,1096,335,839,2920,35252,-26,35,127,0,0,4244,1296,0,3975,1522,241,1014,0,4,186,-45,523072,0
523040,1078,-1061,-234,2051,-23,10192,15455,1250,314,761,3136,35242,-9,36,127,0,0,4379,1279,0,3975,1522,241,1024,0,4,186,-45,523072,0
523050,1246,-1225,-363,2133,949,9676,16053,1340,249,693,3296,35237,4,35,127,0,0,4505,1274,0,3975,1522,241,1034,0,4,186,-45,523087,0
523060,1310,-1356,-426,2165,1571,9286,16676,1365,141,696,3272,35226,13,35,127,0,0,4618,1087,0,3975,1522,241,1044,0,4,186,-45,523087,0
523070,1474,-1617,-321,2132,2504,8662,17288,1336,24,692,3280,35227,-4,36,127,0,0,4736,1120,0,3975,1522,241,1054,0,4,186,-45,523087,0
523080,1675,-1662,-320,1736,3159,8292,17895,1335,-36,725,3360,35229,-9,35,127,0,0,4860,1246,0,3975,1522,241,1064,0,4,186,-45,523087,0
523090,1572,-2086,-155,1677,3607,7566,18518,1389,20,772,3536,35226,-6,35,127,0,0,4997,1362,0,3975,1522,241,1074,0,4,186,-45,523087,0
523100,1621,-2386,-54,1409,3877,7128,19178,1475,105,759,3768,35219,-12,36,127,0,0,5151,1587,0,3975,1522,241,1084,0,4,186,-45,523087,0
523110,1675,-2839,179,1020,4059,6282,19887,1594,164,831,4080,35216,3,36,127,0,0,5316,1669,0,3975,1522,241,1094,0,4,186,-45,523087,0
523120,1732,-3099,385,819,4052,5670,20635,1672,168,894,4392,35226,12,35,127,0,0,5490,1763,0,3975,1522,241,1104,0,4,186,-45,523087,0
523130,1763,-3335,552,516,3814,4761,21391,1598,101,233,2624,35250,-9,35,127,0,0,5646,1554,0,3975,1522,241,1114,0,4,186,-45,523103,0
523140,1785,-3470,555,361,3510,4185,21947,1033,-355,-485,304,35274,-46,36,127,0,0,5777,1307,0,3975,1522,241,1124,0,4,186,-45,523103,0
523150,1936,-3300,388,165,2752,3353,22016,-346,-1323,-2289,-1408,35284,-75,35,127,0,0,5883,1016,0,3975,1522,241,1134,0,4,186,-45,523119,0
523160,1612,-2832,421,29,2054,2635,21713,-806,-1747,-1215,-2736,35293,-61,36,127,0,0,5933,499,0,3975,1522,241,1144,0,4,186,-45,523150,0
523170,1688,-2582,305,-132,822,1936,21176,-1345,-1127,-1372,-3992,35265,-9,36,127,0,0,5965,285,0,3975,1522,241,1154,0,4,186,-45,523165,0
523180,1524,-2487,185,-91,53,1609,20411,-1837,-897,-1263,-5040,35234,44,36,127,0,0,5972,49,0,3975,1522,241,1164,0,4,186,-45,523165,0
523190,1230,-2307,41,51,-1253,1457,19447,-2222,-831,-958,-5664,35204,74,36,127,0,0,5987,153,0,3975,1522,241,1174,0,4,186,-45,523165,0
523200,901,-2138,17,193,-2163,1147,18385,-2377,-575,-752,-5920,35203,73,36,127,0,0,6007,230,0,3975,1522,241,1184,0,4,186,-45,523165,0
523210,712,-1963,55,326,-3313,635,17282,-2451,-257,-679,-6112,35215,64,36,127,0,0,6029,247,0,3975,1522,241,1194,0,4,186,-45,523197,0
523220,569,-2014,92,324,-3889,331,16120,-2600,-187,-691,-6264,35220,50,35,127,0,0,6049,247,0,3975,1522,241,1204,0,4,186,-45,523197,0
523230,200,-2110,52,206,-4534,-167,14940,-2572,-149,-621,-6200,35210,42,35,127,0,0,6076,318,0,3975,1522,241,1214,0,4,186,-45,523197,0
523240,23,-2240,148,21,-4794,-476,13806,-2477,61,-680,-6216,35214,36,36,127,0,0,6108,384,0,3975,1522,241,1224,0,4,186,-45,523212,0
523250,-173,-2454,152,-229,-4915,-1016,12687,-2456,113,-529,-6032,35228,29,36,127,0,0,6142,346,0,3975,1522,241,1234,0,4,186,-45,523212,0
523260,-302,-2474,69,-382,-4823,-1429,11562,-2475,22,-534,-5856,35239,24,36,127,0,0,6172,263,0,3975,1522,241,1244,0,4,186,-45,523243,0
523270,-457,-2517,-82,-490,-4316,-2193,10458,-2404,21,-618,-5832,35229,15,36,127,0,0,6180,43,0,3975,1522,241,1254,0,4,186,-45,523243,0
523280,-451,-2616,-182,-533,-3824,-2414,9367,-2417,66,-823,-5928,35221,41,36,127,0,0,6178,-38,0,1665,1574,242,0,1,4,171,-35,523243,0
523290,-747,-2358,-7,-603,-3040,-2781,8252,-2468,-23,-728,-6016,35224,49,36,127,0,0,6179,-5,0,1665,1574,242,10,1,4,171,-35,523275,0
523300,-758,-2099,14,-537,-2549,-3031,7112,-2526,-87,-877,-6128,35221,50,36,127,0,0,6182,54,0,1665,1574,242,20,1,4,171,-35,523306,0
523310,-2064,-5552,-1793,975,6074,-5172,5954,-2552,-86,-1298,-8048,35205,101,36,127,0,0,5886,-3680,0,1665,1574,242,30,1,4,171,-35,523306,0
523320,-2387,-4323,177,242,3684,-7619,4316,-4193,-903,-3378,-9008,35139,322,36,127,0,0,5321,-5635,0,1665,1574,242,40,1,4,171,-35,523306,0
523330,1452,-1040,539,-364,2408,-5510,2829,-2196,-941,5941,1928,35175,163,36,127,0,0,4922,-3878,0,1665,1574,242,50,1,4,171,-35,523306,0
523340,-87,-1899,1108,-1077,752,-5153,3341,1973,4349,4646,6072,35142,296,36,127,0,0,4530,-3828,0,1665,1574,242,60,1,4,171,-35,523306,0
523350,-136,-5214,441,-1189,-817,-3994,4536,2893,5244,2219,8384,35192,137,36,127,0,0,4187,-3438,0,1665,1574,242,70,1,4,171,-35,523322,0
523360,-2136,-4502,913,-346,-859,-3615,6073,3606,1839,2135,10520,35114,438,36,127,0,0,3904,-2763,0,1665,1574,242,80,1,4,171,-35,523322,0
523370,-1620,-2965,251,75,649,-4354,8017,4570,1428,2185,11968,35114,455,36,127,0,0,3637,-2713,0,1665,1574,242,90,1,4,171,-35,523368,0
523380,-126,-2172,677,29,1625,-4376,10032,4006,1023,-2114,5056,35172,211,36,127,0,0,3369,-2653,0,1665,1574,242,100,1,4,171,-35,523368,0
523390,1308,-1496,1442,-331,-82,-4246,11051,1551,-1824,-3183,-56,35242,-40,35,127,0,0,3094,-2812,0,1665,1574,242,110,1,4,171,-35,523368,0
523400,2027,-8815,865,-672,-1378,-4294,10974,-761,-4099,-3109,-2824,35286,-207,35,127,0,0,2839,-2521,0,1665,1574,242,120,1,4,171,-35,523368,0
523410,1351,-404,87,62,-299,-1721,10425,-1267,-3062,-785,-2600,35278,-151,36,127,0,0,2801,-98,0,1665,1574,242,130,1,4,171,-35,523415,0
523420,-674,-734,-1984,-2782,-1096,-2750,9929,-1028,-729,-257,-2312,35251,-13,35,127,0,0,2704,-1032,0,1665,1574,242,140,1,4,171,-35,523431,0
523430,-1002,-2950,-1256,-617,101,-3443,9490,-930,236,-467,-2120,35249,-17,35,127,0,0,2626,-791,0,1665,1574,242,150,1,4,171,-35,523431,0
523440,-57,-1533,-2682,-419,1177,-3810,9080,-908,162,-612,-2296,35245,-57,36,127,0,0,2512,-1137,0,1665,1574,242,160,1,4,171,-35,523431,0
523450,2270,-1784,-835,96,297,-3169,8634,-996,-10,-620,-2360,35227,-42,35,127,0,0,2421,-966,0,1665,1574,242,170,1,4,171,-35,523431,0
523460,2345,-1842,-154,279,-45,-2169,8180,-992,-89,-452,-2144,35228,-48,36,127,0,0,2356,-604,0,1665,1574,242,180,1,4,171,-35,523431,0
523470,1782,-1733,757,166,-179,-1298,7761,-873,50,-286,-1688,35240,-52,35,127,0,0,2315,-384,0,1665,1574,242,190,1,4,171,-35,523431,0
523480,1444,-1955,822,-41,-112,-873,7412,-720,206,-242,-1288,35257,-47,35,127,0,0,2290,-236,0,1665,1574,242,200,1,4,171,-35,523493,0
523490,1566,-2020,487,-285,-28,-314,7135,-566,267,-231,-888,35268,-80,36,127,0,0,2270,-159,0,1665,1574,242,210,1,4,171,-35,523493,0
523500,1633,-1988,279,-364,-105,140,6920,-426,256,-234,-488,35269,-88,35,127,0,0,2269,10,0,1665,1574,242,220,1,4,171,-35,523493,0
523510,1213,-1822,-100,-387,-169,540,6772,-277,244,-184,-176,35253,-84,36,127,0,0,2269,-21,0,1665,1574,242,230,1,4,171,-35,523493,0
523520,857,-2055,-359,-334,-184,866,6716,-30,292,3,72,35238,-69,35,127,0,0,2292,247,0,1665,1574,242,240,1,4,171,-35,523509,0
523530,700,-1889,-401,-122,-55,925,6778,172,422,212,160,35236,-53,36,127,0,0,2314,241,0,1665,1574,242,250,1,4,171,-35,523509,0
523540,526,-2031,-264,-17,-4,961,6855,154,260,306,240,35244,-41,36,127,0,0,2334,208,0,1665,1574,242,260,1,4,171,-35,523509,0
523550,318,-2060,-3,74,60,862,6919,135,-24,513,312,35256,-35,35,127,0,0,2356,126,0,1665,1574,242,270,1,4,171,-35,523540,0
523560,316,-2040,139,58,61,775,7007,215,23,439,352,35258,-43,35,127,0,0,2377,159,0,1665,1574,242,280,1,4,171,-35,523540,0
523570,362,-1900,224,-2,40,620,7094,190,57,462,352,35244,-59,36,127,0,0,2400,164,0,1665,1574,242,290,1,4,171,-35,523540,0
523580,408,-1895,201,-67,15,539,7186,194,4,432,320,35246,-68,36,127,0,0,2415,131,0,1665,1574,242,300,1,4,171,-35,523540,0
523590,417,-2018,236,-115,-16,404,7264,162,-22,436,240,35262,-90,36,127,0,0,2427,109,0,1665,1574,242,310,1,4,171,-35,523572,0
523600,320,-2025,274,-180,-44,312,7323,130,-66,459,224,35259,-87,36,127,0,0,2438,148,0,1665,1574,242,320,1,4,171,-35,523572,0
523610,199,-2032,275,-263,-91,115,7376,101,-41,385,176,35253,-100,36,127,0,0,2442,98,0,1665,1574,242,330,1,4,171,-35,523572,0
523620,112,-1952,149,-344,-123,-49,7413,43,-47,318,112,35248,-79,35,127,0,0,2441,-10,0,1665,1574,242,340,1,4,171,-35,523603,0
523630,25,-1905,8,-396,-163,-310,7407,-4,-119,447,104,35244,-67,36,127,0,0,2442,-27,0,1665,1574,242,350,1,4,171,-35,523603,0
523640,138,-1814,62,-371,-114,-695,7405,-23,-70,292,24,35249,-81,35,127,0,0,2423,-153,0,1665,1574,242,360,1,4,171,-35,523603,0
523650,-268,-2020,151,-407,-114,-1166,7378,-94,-49,-179,-168,35245,-79,35,127,0,0,2397,-247,0,1665,1574,242,370,1,4,171,-35,523618,0
523660,-347,-2059,241,-411,-66,-1591,7320,-154,-121,-462,-392,35256,-100,36,127,0,0,2353,-461,0,1665,1574,242,380,1,4,171,-35,523650,0
523670,-172,-1924,308,-567,-110,-2145,7213,-264,-157,-596,-664,35254,-98,35,127,0,0,2298,-527,0,1665,1574,242,390,1,4,171,-35,523650,0
523680,-85,-1857,275,-685,-171,-2472,7058,-359,-186,-607,-920,35251,-100,36,127,0,0,2221,-763,0,1665,1574,242,400,1,4,171,-35,523650,0
523690,87,-1837,195,-839,-222,-2889,6864,-456,-170,-701,-1288,35235,-93,36,127,0,0,2141,-812,0,1665,1574,242,410,1,4,171,-35,523650,0
523700,194,-1908,197,-906,-272,-3082,6612,-587,-194,-729,-1608,35230,-64,36,127,0,0,2044,-966,0,1665,1574,242,420,1,4,171,-35,523681,0
523710,337,-1920,193,-946,-369,-3351,6304,-710,-211,-724,-1864,35235,-59,36,127,0,0,1953,-928,0,1665,1574,242,430,1,4,171,-35,523697,0
523720,276,-1864,136,-1020,-454,-3515,5958,-782,-181,-676,-2056,35238,-35,35,127,0,0,1855,-988,0,1665,1574,242,440,1,4,171,-35,523697,0
523730,288,-1839,50,-1059,-521,-3800,5582,-842,-124,-757,-2248,35231,-54,35,127,0,0,1750,-1060,0,1665,1574,242,450,1,4,171,-35,523697,0
523740,352,-1764,-15,-1065,-578,-4013,5166,-938,-132,-732,-2496,35237,-46,36,127,0,0,1647,-1115,0,1665,1574,242,460,1,4,171,-35,523712,0
523750,368,-1672,63,-1075,-803,-4346,4712,-1022,-46,-693,-2704,35236,-34,36,127,0,0,1543,-1098,0,1665,1574,242,470,1,4,171,-35,523728,0
523760,690,-2190,-121,-1122,-894,-4531,4217,-1114,-185,-755,-2896,35240,-21,35,127,0,0,1428,-1120,0,1665,1574,242,480,1,4,171,-35,523728,0
523770,613,-2429,26,-1188,-841,-4449,3675,-1217,-265,-622,-2944,35234,-31,35,127,0,0,1324,-988,0,1665,1574,242,490,1,4,171,-35,523728,0
523780,380,-2224,-164,-1175,-792,-4554,3116,-1241,-117,-607,-2896,35237,-32,36,127,0,0,1235,-845,0,1665,1574,242,500,1,4,171,-35,523806,0
523790,387,-2204,-331,-1272,-751,-4770,2566,-1189,-11,-519,-2816,35242,-40,35,127,0,0,1160,-785,0,1665,1574,242,510,1,4,171,-35,523806,0
523800,489,-2531,-211,-1281,-668,-4964,2037,-1142,65,-514,-2768,35238,-34,36,127,0,0,1077,-774,0,1665,1574,242,520,1,4,171,-35,523806,0
523810,762,-2731,107,-1174,-444,-5066,1522,-1130,65,-525,-2560,35232,-56,35,127,0,0,1017,-587,0,1665,1574,242,530,1,4,171,-35,523821,0
523820,918,-2449,261,-1209,-491,-5109,1039,-1037,85,-386,-2072,35221,-44,35,127,0,0,972,-444,0,1665,1574,242,540,1,4,171,-35,523821,0
523830,1284,-2218,306,-1302,-766,-5056,631,-820,188,-129,-1256,35220,-51,36,127,0,0,934,-340,0,1665,1574,242,550,1,4,171,-35,523821,0
523840,1418,-2202,155,-1322,-933,-4939,342,-555,379,-158,-672,35225,-47,36,127,0,0,916,-186,0,1665,1574,242,560,1,4,171,-35,523821,0
523850,1272,-1982,-89,-1320,-1007,-4768,154,-350,434,-239,-296,35238,-87,36,127,0,0,914,-5,0,1665,1574,242,570,1,4,171,-35,523821,0
523860,1197,-1731,-245,-1338,-870,-4771,59,-159,374,-242,-112,35261,-96,36,127,0,0,914,32,0,1665,1574,242,580,1,4,171,-35,523821,0
523870,1026,-1483,-326,-1329,-761,-4852,36,2,304,-226,-64,35274,-101,36,127,0,0,914,49,0,1665,1574,242,590,1,4,171,-35,523853,0
523880,1162,-1429,-275,-1317,-670,-4860,41,-5,198,-289,-72,35277,-91,36,127,0,0,912,-10,0,1665,1574,242,600,1,4,171,-35,523853,0
523890,1459,-1213,-191,-1341,-786,-4881,42,12,29,-266,-72,35263,-95,36,127,0,0,921,32,0,1665,1574,242,610,1,4,171,-35,523868,0
523900,1387,-1442,-188,-1359,-845,-4829,39,-5,-12,-255,-72,35251,-101,35,127,0,0,932,87,0,1665,1574,242,620,1,4,171,-35,523868,0
523910,1517,-1605,-215,-1321,-738,-4690,41,2,1,-256,-72,35256,-107,36,127,0,0,947,170,0,1665,1574,242,630,1,4,171,-35,523915,0
523920,1441,-1634,-330,-1329,-678,-4741,40,-12,0,-264,-72,35257,-88,36,127,0,0,962,175,0,1665,1574,242,640,1,4,171,-35,523915,0
523930,1241,-1904,-419,-1484,-594,-4649,39,-8,-6,-259,-72,35256,-88,36,127,0,0,985,208,0,1665,1574,242,650,1,4,171,-35,523915,0
523940,1164,-2128,-342,-1570,-425,-4690,40,-1,-3,-213,96,35250,-96,35,127,0,0,1022,401,0,1665,1574,242,660,1,4,171,-35,523915,0
523950,990,-2446,-252,-1660,-136,-4829,98,202,99,503,488,35245,-101,36,127,0,0,1065,406,0,1665,1574,242,670,1,4,171,-35,523946,0
523960,1123,-2558,-94,-1725,84,-4926,239,342,280,500,880,35243,-106,35,127,0,0,1118,571,0,1665,1574,242,680,1,4,171,-35,523946,0
523970,1558,-2411,120,-1825,316,-4864,437,483,258,641,1304,35244,-82,36,127,0,0,1188,664,0,1665,1574,242,690,1,4,171,-35,523946,0
523980,1642,-2343,257,-1815,384,-4635,703,640,244,759,1696,35246,-57,35,127,0,0,1272,840,0,1665,1574,242,700,1,4,171,-35,523946,0
523990,1907,-1797,265,-1800,299,-4083,1037,787,266,827,2232,35244,-38,35,127,0,0,1385,1153,0,1665,1574,242,710,1,4,171,-35,523962,0
524000,1885,-1580,208,-1736,108,-3683,1468,1019,315,928,2792,35251,-29,36,127,0,0,1521,1373,0,1665,1574,242,720,1,4,171,-35,523993,0
524010,1819,-1348,88,-1428,-178,-3038,2000,1236,382,905,3360,35249,-18,36,127,0,0,1687,1697,0,1665,1574,242,730,1,4,171,-35,523993,0
524020,1759,-1200,-42,-1154,-291,-2622,2640,1482,398,981,3896,35238,0,36,127,0,0,1872,1884,0,1665,1574,242,740,1,4,171,-35,523993,0
524030,1724,-1013,-124,-810,-467,-1928,3374,1669,392,871,4320,35221,-1,35,127,0,0,2080,2120,0,1665,1574,242,750,1,4,171,-35,523993,0
524040,1758,-983,-200,-610,-624,-1386,4181,1825,322,996,4888,35224,28,36,127,0,0,2326,2499,0,1665,1574,242,760,1,4,171,-35,524025,0
524050,1790,-1035,-355,-362,-794,-424,5071,1999,286,967,5352,35227,43,36,127,0,0,2579,2548,0,1665,1574,242,770,1,4,171,-35,524025,0
524060,1644,-1025,-421,-227,-867,267,6031,2181,290,1133,5992,35234,81,35,127,0,0,2864,2922,0,1665,1574,242,780,1,4,171,-35,524025,0
524070,1342,-691,-492,103,-777,1316,7123,2504,387,1298,6856,35214,97,35,127,0,0,3197,3510,0,1665,1574,242,790,1,4,171,-35,524056,0
524080,982,-100,-313,421,-496,2056,8414,2979,632,1472,7712,35193,148,36,127,0,0,3520,3218,0,1665,1574,242,800,1,4,171,-35,524056,0
524090,-287,1516,43,1230,203,4035,9842,3184,660,948,7872,35180,177,36,127,0,0,3796,2735,0,1665,1574,242,810,1,4,171,-35,524056,0
524100,1212,1603,-976,1073,1179,3804,11315,3245,344,466,7176,35193,148,36,127,0,0,3958,1373,0,1665,1574,242,820,1,4,171,-35,524071,0
524110,896,1668,-1170,777,1525,3792,12675,2819,-109,-174,4688,35237,38,36,127,0,0,3934,-384,0,1665,1574,242,830,0,4,171,-35,524087,0
524120,871,1222,-999,917,1675,4574,13667,1848,-920,-1220,1816,35265,-75,36,127,0,0,3834,-1054,0,1665,1574,242,840,0,4,171,-35,524087,0
524130,77,466,-636,1272,1385,5859,14165,806,-1678,-1091,-248,35293,-147,36,127,0,0,3732,-1043,0,1665,1574,242,850,0,4,171,-35,524181,0
524140,-31,41,-192,1461,1033,6555,14102,-393,-2028,-1088,-1040,35280,-145,36,127,0,0,3665,-648,0,1665,1574,242,860,0,4,171,-35,524181,0
524150,-156,-668,298,1799,640,7238,13881,-504,-1396,-470,-1032,35268,-106,35,127,0,0,3638,-241,0,1665,1574,242,870,0,4,171,-35,524181,0
524160,339,-929,270,1876,587,7550,13662,-455,-257,-282,-632,35251,-80,35,127,0,0,3640,-21,0,1665,1574,242,880,0,4,171,-35,524181,0
524170,412,-1188,33,2232,517,8013,13491,-336,101,-145,-136,35238,-81,36,127,0,0,3663,181,0,1665,1574,242,890,0,4,171,-35,524196,0
524180,518,-1188,-54,2405,515,8097,13448,36,326,364,200,35243,-97,35,127,0,0,3673,131,0,1665,1574,242,900,0,4,171,-35,524196,0
524190,776,-992,-151,2572,391,8389,13531,214,509,251,208,35254,-109,36,127,0,0,3692,104,0,1665,1574,242,910,0,4,171,-35,524196,0
524200,936,-879,-185,2711,320,8573,13606,146,220,356,240,35259,-114,35,127,0,0,3716,186,0,1665,1574,242,920,0,4,171,-35,524196,0
524210,1055,-786,-224,2815,92,8856,13673,149,-43,443,264,35252,-95,35,127,0,0,3732,159,0,1665,1574,242,930,0,4,171,-35,524196,0
524220,1119,-811,-175,2847,-102,9077,13742,145,-14,544,392,35252,-81,36,127,0,0,3752,252,0,1665,1574,242,940,0,4,171,-35,524196,0
524230,1134,-895,-78,2891,-441,9340,13833,232,41,603,472,35272,-75,36,127,0,0,3786,335,0,1665,1574,242,950,0,4,171,-35,524196,0
524240,1173,-963,-39,2835,-583,9510,13957,288,119,628,720,35294,-59,36,127,0,0,3833,494,0,1665,1574,242,960,0,4,171,-35,524212,0
524250,1064,-1109,-34,2672,-597,9646,14116,381,129,710,1096,35295,-74,36,127,0,0,3903,670,0,1665,1574,242,970,0,4,171,-35,524212,0
524260,1083,-1265,-117,2550,-506,9687,14338,537,190,796,1624,35293,-89,35,127,0,0,4000,988,0,1665,1574,242,980,0,4,171,-35,524259,0
524270,1201,-1516,-281,2387,-151,9578,14648,742,289,885,2144,35274,-83,36,127,0,0,4119,1246,0,1665,1574,242,990,0,4,171,-35,524259,0
524280,1221,-1703,-366,2328,199,9410,15064,985,369,948,2704,35255,-81,35,127,0,0,4253,1378,0,1665,1574,242,1000,0,4,171,-35,524259,0
524290,1404,-1926,-582,2226,858,9041,15584,1213,408,943,3216,35236,-39,35,127,0,0,4414,1614,0,1665,1574,242,1010,0,4,171,-35,524274,0
524300,1365,-2194,-381,2149,1264,8529,16205,1424,397,902,3560,35233,-21,36,127,0,0,4560,1499,0,1665,1574,242,1020,0,4,171,-35,524274,0
524310,1442,-2502,-304,1895,1875,7918,16882,1504,302,771,3736,35234,5,36,127,0,0,4693,1356,0,1665,1574,242,1030,0,4,171,-35,524290,0
524320,1476,-2722,-218,1693,2216,7433,17569,1510,121,654,3664,35236,14,36,127,0,0,4814,1257,0,1665,1574,242,1040,0,4,171,-35,524306,0
524330,1511,-3069,-23,1409,2542,6611,18241,1475,-12,600,3504,35227,-3,35,127,0,0,4916,1021,0,1665,1574,242,1050,0,4,171,-35,524306,0
524340,1479,-3240,37,1138,2656,6059,18883,1393,-77,498,3280,35241,-19,36,127,0,0,5017,972,0,1665,1574,242,1060,0,4,171,-35,524306,0
524350,1357,-3395,217,736,2673,5138,19491,1301,-118,431,2976,35264,-39,36,127,0,0,5102,889,0,1665,1574,242,1070,0,4,171,-35,524337,0
524360,1294,-3377,276,468,2575,4515,20043,1173,-182,480,2768,35274,-37,36,127,0,0,5184,807,0,1665,1574,242,1080,0,4,171,-35,524337,0
524370,1250,-3151,216,133,2338,3611,20550,1090,-197,575,2624,35257,-42,35,127,0,0,5274,840,0,1665,1574,242,1090,0,4,171,-35,524337,0
524380,1193,-2891,211,-61,2098,2997,21032,1053,-130,615,2552,35245,-45,36,127,0,0,5356,812,0,1665,1574,242,1100,0,4,171,-35,524368,0
524390,1206,-2573,143,-40,1766,2133,21495,997,-75,559,2480,35242,-24,36,127,0,0,5434,785,0,1665,1574,242,1110,0,4,171,-35,524368,0
524400,1099,-2264,26,3,1514,1673,21936,950,-82,611,1840,35246,-32,35,127,0,0,5504,642,0,1665,1574,242,1120,0,4,171,-35,524368,0
524410,886,-1932,5,103,987,1035,22248,485,-247,-971,-688,35239,-47,36,127,0,0,5565,631,0,1665,1574,242,1130,0,4,171,-35,524399,0
524420,972,-1840,-67,172,739,459,22075,-509,-1187,-785,-1432,35232,-64,36,127,0,0,5621,483,0,1665,1574,242,1140,0,4,171,-35,524399,0
524430,792,-1616,-81,281,213,-30,21783,-694,-1156,-676,-1840,35234,-77,35,127,0,0,5670,466,0,1665,1574,242,1150,0,4,171,-35,524399,0
524440,744,-1816,-79,349,-34,-336,21428,-818,-328,-672,-2208,35234,-45,36,127,0,0,5709,406,0,1665,1574,242,1160,0,4,171,-35,524399,0
524450,427,-1865,-77,408,-478,-688,21000,-998,-251,-831,-2744,35242,-54,36,127,0,0,5746,406,0,1665,1574,242,1170,0,4,171,-35,524431,0
524460,390,-1939,31,389,-767,-814,20467,-1263,-347,-962,-3472,35235,-21,35,127,0,0,5785,379,0,1665,1574,242,1180,0,4,171,-35,524431,0
524470,274,-1998,42,337,-1207,-941,19787,-1598,-486,-957,-4280,35225,-15,36,127,0,0,5827,406,0,1665,1574,242,1190,0,4,171,-35,524431,0
524480,187,-2014,39,294,-1536,-985,18952,-1952,-585,-1130,-5296,35217,34,35,127,0,0,5868,422,0,1665,1574,242,1200,0,4,171,-35,524478,0
524490,90,-2041,0,161,-2006,-1002,17937,-2360,-636,-1221,-6344,35204,87,36,127,0,0,5908,499,0,1836,1584,243,6,1,1,167,-48,524478,0
524500,31,-2077,9,85,-2272,-1015,16712,-2862,-739,-1371,-7592,35191,122,35,127,0,0,5954,510,0,1836,1584,243,16,1,1,167,-48,524524,0
